{"_links": {"parentPackage": {"href": "/mdr/ct/packages/cdashct-2016-03-25", "title": "CDASH Controlled Terminology Package 25 Effective 2016-03-25", "type": "Terminology"}, "priorVersion": {"href": "/mdr/ct/packages/cdashct-2015-03-27/codelists/C78422", "title": "CDISC CDASH ECG Original Units Terminology", "type": "Code List"}, "rootItem": {"href": "/mdr/root/ct/cdashct/codelists/C78422", "title": "Version-agnostic anchor resource for codelist C78422", "type": "Root Value Domain"}, "self": {"href": "/mdr/ct/packages/cdashct-2016-03-25/codelists/C78422", "title": "CDISC CDASH ECG Original Units Terminology", "type": "Code List"}}, "conceptId": "C78422", "definition": "A terminology subset of the CDISC SDTM Unit codelist created for CDASH ECG Original Units codelist. (NCI)", "extensible": "true", "name": "ECG Original Units", "preferredTerm": "CDISC CDASH ECG Original Units Terminology", "submissionValue": "EGORRESU", "synonyms": ["ECG Original Units"], "terms": [{"conceptId": "C49673", "definition": "The number of heartbeats measured per minute time. (NCI)", "preferredTerm": "Beats per Minute", "submissionValue": "beats/min", "synonyms": ["Beats per Minute"]}, {"conceptId": "C41140", "definition": "A unit of time, which is equal to one thousandth of a second.(NCI)", "preferredTerm": "Millisecond", "submissionValue": "msec", "synonyms": ["Millisecond"]}, {"conceptId": "C42535", "definition": "The second is a unit of time with a duration of 919 263 177 0 periods of the specified light radiation corresponding to the transition between the two hyperfine levels of the cesium 133 atom in its ground state at 0 K. According to the convention, 60 seconds constitute one minute; 3,600 seconds constitute one hour. Abbreviation Sec. is acceptable in non-scientific usage only.(NCI)", "preferredTerm": "Second", "submissionValue": "sec", "synonyms": ["Second"]}]}