{"_links": {"parentPackage": {"href": "/mdr/ct/packages/cdashct-2016-03-25", "title": "CDASH Controlled Terminology Package 25 Effective 2016-03-25", "type": "Terminology"}, "priorVersion": {"href": "/mdr/ct/packages/cdashct-2015-03-27/codelists/C78431", "title": "CDISC CDASH Vital Signs Position of Subject Terminology", "type": "Code List"}, "rootItem": {"href": "/mdr/root/ct/cdashct/codelists/C78431", "title": "Version-agnostic anchor resource for codelist C78431", "type": "Root Value Domain"}, "self": {"href": "/mdr/ct/packages/cdashct-2016-03-25/codelists/C78431", "title": "CDISC CDASH Vital Signs Position of Subject Terminology", "type": "Code List"}}, "conceptId": "C78431", "definition": "A terminology subset of the CDISC SDTM Position codelist created for CDASH Vital Signs Position of Subject codelist. (NCI)", "extensible": "true", "name": "Vital Signs Position of Subject", "preferredTerm": "CDISC CDASH Vital Signs Position of Subject Terminology", "submissionValue": "VSPOS", "synonyms": ["Vital Signs Position of Subject"], "terms": [{"conceptId": "C62122", "definition": "The state or act of one who sits; the posture of one who occupies a seat. (NCI)", "preferredTerm": "Sitting", "submissionValue": "SITTING", "synonyms": ["Sitting"]}, {"conceptId": "C62166", "definition": "The act of assuming or maintaining an erect upright position. (NCI)", "preferredTerm": "Standing", "submissionValue": "STANDING", "synonyms": ["Standing"]}, {"conceptId": "C62167", "definition": "A posterior recumbent body position whereby the person lies on its back and faces upward. (NCI)", "preferredTerm": "Supine Position", "submissionValue": "SUPINE", "synonyms": ["Supine"]}]}