{"_links": {"parentPackage": {"href": "/mdr/ct/packages/cdashct-2016-03-25", "title": "CDASH Controlled Terminology Package 25 Effective 2016-03-25", "type": "Terminology"}, "priorVersion": {"href": "/mdr/ct/packages/cdashct-2015-03-27/codelists/C83004", "title": "CDISC CDASH Substance Use Never/Current/Former Classification Terminology", "type": "Code List"}, "rootItem": {"href": "/mdr/root/ct/cdashct/codelists/C83004", "title": "Version-agnostic anchor resource for codelist C83004", "type": "Root Value Domain"}, "self": {"href": "/mdr/ct/packages/cdashct-2016-03-25/codelists/C83004", "title": "CDISC CDASH Substance Use Never/Current/Former Classification Terminology", "type": "Code List"}}, "conceptId": "C83004", "definition": "A terminology subset of the CDISC SDTM Never/Current/Former Classification codelist created for CDASH Substance Use Never/Current/Former Classification codelist. (NCI)", "extensible": "true", "name": "Substance Use Never/Current/Former Classification", "preferredTerm": "CDISC CDASH Substance Use Never/Current/Former Classification Terminology", "submissionValue": "SUNCF", "synonyms": ["Substance Use Never/Current/Former Classification"], "terms": [{"conceptId": "C25471", "definition": "Occurring in or belonging to the present time. (NCI)", "preferredTerm": "Current", "submissionValue": "CURRENT"}, {"conceptId": "C25627", "definition": "Occurring prior to something else. (NCI)", "preferredTerm": "Previous", "submissionValue": "FORMER", "synonyms": ["Previous"]}, {"conceptId": "C70543", "definition": "Not ever; at no time in the past.", "preferredTerm": "Never", "submissionValue": "NEVER"}]}