{
  "_links": {
    "priorVersion": {
      "href": "",
      "title": "",
      "type": "Terminology"
    },
    "self": {
      "href": "",
      "title": "",
      "type": "Terminology"
    }
  },
  "codelists": [
    {
      "conceptId": "C115304",
      "definition": "A grouping of observations within the Functional Test domain.",
      "extensible": "Yes",
      "name": "Category of Functional Test",
      "preferredTerm": "CDISC Functional Test Category Terminology",
      "submissionValue": "FTCAT",
      "synonyms": [
        "Category of Functional Test"
      ],
      "terms": [
        {
          "conceptId": "C115790",
          "definition": "Hauser Ambulation Index (AI) (Hauser SL, Dawson DM, Lehrich JR, Beal MF, Kevy SV, Propper RD, Mills JA, Weiner HL. Intensive immunosuppression in progressive multiple sclerosis. A randomized, three-arm study of high-dose intravenous cyclophosphamide, plasma exchange, and ACTH. N Engl J Med. 1983 Jan 27;308(4):173-80).",
          "preferredTerm": "Hauser Ambulation Index Functional Test",
          "submissionValue": "HAUSER AMBULATION INDEX",
          "synonyms": [
            "HAI01"
          ]
        },
        {
          "conceptId": "C115791",
          "definition": "Nine-Hole Peg Test (NHPT) (Copyright 2001, National Multiple Sclerosis Society).",
          "preferredTerm": "Nine-Hole Peg Functional Test",
          "submissionValue": "NHPT",
          "synonyms": [
            "NHPT01"
          ]
        },
        {
          "conceptId": "C115792",
          "definition": "Paced Auditory Serial Addition Test (PASAT) (Copyright 2001, National Multiple Sclerosis Society).",
          "preferredTerm": "Paced Auditory Serial Addition Functional Test",
          "submissionValue": "PASAT",
          "synonyms": [
            "PASAT1"
          ]
        },
        {
          "conceptId": "C115793",
          "definition": "Symbol Digit Modalities Test (SDMT) (Copyright 1973 by Western Psychological Services).",
          "preferredTerm": "Symbol Digit Modalities Functional Test",
          "submissionValue": "SDMT",
          "synonyms": [
            "SDMT01"
          ]
        },
        {
          "conceptId": "C115789",
          "definition": "6 Minute Walk Test (6MWT) (Goldman MD, Marrie RA, Cohen JA. Evaluation of the six-minute walk in multiple sclerosis subjects and healthy controls. Multiple Sclerosis 2008; 14: 383-390).",
          "preferredTerm": "6 Minute Walk Functional Test",
          "submissionValue": "SIX MINUTE WALK",
          "synonyms": [
            "SIXMW1"
          ]
        },
        {
          "conceptId": "C115794",
          "definition": "Timed 25-Foot Walk (T25FW) (Copyright 2001, National Multiple Sclerosis Society).",
          "preferredTerm": "Timed 25-Foot Walk Functional Test",
          "submissionValue": "T25FW",
          "synonyms": [
            "T25FW1"
          ]
        },
        {
          "conceptId": "C115795",
          "definition": "Timed Up and Go (TUG) (Podsiadlo D, Richardson S. The Timed 'Up & Go': a test of basic functional mobility for frail elderly persons. J Am Geriatr Soc. 1991; 39:142-148).",
          "preferredTerm": "Timed Up and Go Functional Test",
          "submissionValue": "TUG",
          "synonyms": [
            "TUG01"
          ]
        }
      ]
    },
    {
      "conceptId": "C100129",
      "definition": "A grouping of observations within the Questionnaire domain.",
      "extensible": "Yes",
      "name": "Category of Questionnaire",
      "preferredTerm": "CDISC Questionnaire Category Terminology",
      "submissionValue": "QSCAT",
      "synonyms": [
        "Category of Questionnaire"
      ],
      "terms": [
        {
          "conceptId": "C100762",
          "definition": "The CDISC version of the Alzheimer's Disease Assessment Scale-Cognitive (ADAS-Cog CDISC Version) containing 15 summary-level tests. This version is based on combining the total pool of ADAS-Cog tests that were observed during a review of multiple case report forms administered in clinical trials of Alzheimer's disease, as well as the CRF administered in the Alzheimer's Disease Neuroimaging Initiative (ADNI) observational study. (Modified from Mohs RC, Rosen WG, Davis KL. The Alzheimer's disease assessment scale: an instrument for assessing treatment efficacy. Psychopharmacol Bull 1983;19(3):448-450. Rosen WG, Mohs RC, Davis KL. A new rating scale for Alzheimer's disease. Am J Psychiatry 1984;141(11):1356-1364. Mohs RC, Knopman D, Petersen RC et al. Development of cognitive instruments for use in clinical trials of antidementia drugs: additions to the Alzheimer's Disease Assessment Scale that broaden its scope. The Alzheimer's Disease Cooperative Study. Alzheimer Dis Assoc Disord 1997;11 Suppl 2:S13-S21. Wouters H, van Gool WA, Schmand B, Lindeboom R. Revising the ADAS-cog for a more accurate assessment of cognitive impairment. Alzheimer Dis Assoc Disord 2008;22(3):236-244.).",
          "preferredTerm": "Alzheimer's Disease Assessment Scale-Cognitive CDISC Version Questionnaire",
          "submissionValue": "ADAS-COG",
          "synonyms": [
            "ADC"
          ]
        },
        {
          "conceptId": "C105166",
          "definition": "Alzheimer's Disease Cooperative Study-Activities of Daily Living Inventory (ADCS-ADL) (Galasko, D., Bennett, D., Sano, M., Ernesto, C., Thomas, R., Grundman, M., Ferris, S., and the ADCS. \"An Inventory to Assess Activities of Daily Living for Clinical Trials in Alzheimer's Disease.\" Alzheimer's Disease and Associated Disorders, 1997. Volume 11(2): S33-S39).",
          "preferredTerm": "Alzheimer's Disease Cooperative Study Activities of Daily Living Inventory Questionnaire",
          "submissionValue": "ADCS-ADL",
          "synonyms": [
            "ADL01"
          ]
        },
        {
          "conceptId": "C106888",
          "definition": "Alzheimer's Disease Cooperative Study-Activities of Daily Living Inventory (ADCS-ADL), MCI Version (Galasko, D., Bennett, D., Sano, M., Ernesto, C., Thomas, R., Grundman, M., Ferris, S., and the ADCS. An Inventory to Assess Activities of Daily Living for Clinical Trials in Alzheimer's Disease. Alzheimer's Disease and Associated Disorders, 1997. Volume 11(2): S33-S39).",
          "preferredTerm": "Alzheimer's Disease Cooperative Study-Activities of Daily Living Inventory Mild Cognitive Impairment Questionnaire",
          "submissionValue": "ADCS-ADL MCI",
          "synonyms": [
            "ADL03"
          ]
        },
        {
          "conceptId": "C106889",
          "definition": "Alzheimer's Disease Cooperative Study-Activities of Daily Living Inventory (ADCS-ADL), Severe Dementia Version (Galasko, D., Bennett, D., Sano, M., Ernesto, C., Thomas, R., Grundman, M., Ferris, S., and the ADCS. An Inventory to Assess Activities of Daily Living for Clinical Trials in Alzheimer's Disease. Alzheimer's Disease and Associated Disorders, 1997. Volume 11(2): S33-S39).",
          "preferredTerm": "Alzheimer's Disease Cooperative Study-Activities of Daily Living Inventory Severe Dementia Questionnaire",
          "submissionValue": "ADCS-ADL SEVERE",
          "synonyms": [
            "ADL02"
          ]
        },
        {
          "conceptId": "C103515",
          "definition": "Alzheimer's Disease Cooperative Study-Clinical Global Impression of Change (ADCS-CGIC) (Schneider LS, Olin JT, Doody RS, Clark CM, Morris JC, Reisberg B, Schmitt FA, Grundman M, Thomas RG, Ferris SH, and the Alzheimer's Disease Cooperative Study. Validity and Reliability of the Alzheimer's Disease Cooperative Study-Clinical Global Impression of Change. Alzheimer Disease and Associated Disorders. 1997; 11(2):S22-S32).",
          "preferredTerm": "Alzheimer's Disease Cooperative Study-Clinical Global Impression of Change Questionnaire",
          "submissionValue": "ADCS-CGIC",
          "synonyms": [
            "ACGC01"
          ]
        },
        {
          "conceptId": "C102111",
          "definition": "Abnormal Involuntary Movement Scale (AIMS) (Guy W. Ed. ECDEU Assessment Manual for Psychopharmacology. Rockville MD: US Dept of Health, Education and Welfare. 1976, Publication No. (ADM) 76-338).",
          "preferredTerm": "Abnormal Involuntary Movement Scale Questionnaire",
          "submissionValue": "AIMS",
          "synonyms": [
            "AIMS01"
          ]
        },
        {
          "conceptId": "C112518",
          "definition": "Airway Questionnaire 20 (AQ20) (Barley EA, Quirk FH, Jones PW. Asthma health status in clinical practice: validity of a new short and simple instrument. Respir Med 1998; 92:1207-14. Copyright Reserved P.W. Jones, PhD FRCP).",
          "preferredTerm": "Airway Questionnaire 20",
          "submissionValue": "AQ20",
          "synonyms": [
            "AQ01"
          ]
        },
        {
          "conceptId": "C102112",
          "definition": "The Alzheimer's Disease Neuroimaging Initiative's (ADNI) version of the Auditory Verbal Learning Test (AVLT Version A) modified from Rey A. L'examen clinique en psychologie [Clinical tests in psychology]. Paris: Presses Universitaires de France; 1964.",
          "preferredTerm": "Alzheimer's Disease Neuroimaging Initiative Auditory Verbal Learning Test Questionnaire",
          "submissionValue": "AVLT",
          "synonyms": [
            "AVL01"
          ]
        },
        {
          "conceptId": "C102113",
          "definition": "Barnes Akathisia Rating Scale (BARS) (Barnes TR: A Rating Scale for Drug-Induced Akathisia. British Journal of Psychiatry 154:672-676, 1989).",
          "preferredTerm": "Barnes Akathisia Rating Scale Questionnaire",
          "submissionValue": "BARS",
          "synonyms": [
            "BARS01"
          ]
        },
        {
          "conceptId": "C106693",
          "definition": "Baseline Dyspnea Index (BDI) (Mahler DA, Weinberg DH, Wells CK, Feinstein AR. The measurement of dyspnea. Contents, interobserver agreement, and physiologic correlates of two new clinical indexes. Chest 1984, 85: 751-758).",
          "preferredTerm": "Baseline Dyspnea Index Questionnaire",
          "submissionValue": "BDI",
          "synonyms": [
            "BDI01"
          ]
        },
        {
          "conceptId": "C113874",
          "definition": "Bladder Control Scale (BLCS) (1997 by the National Multiple Sclerosis Society. All rights reserved).",
          "preferredTerm": "Bladder Control Scale Questionnaire",
          "submissionValue": "BLCS",
          "synonyms": [
            "BLCS01"
          ]
        },
        {
          "conceptId": "C113872",
          "definition": "Borg CR10 Scale (BORG CR10) (Borg CR10 Scale. Copyright Gunnar Borg, 1981, 1982, 1998).",
          "preferredTerm": "Borg Category-Ratio 10 Scale Questionnaire",
          "submissionValue": "BORG CR10",
          "synonyms": [
            "BCR101"
          ]
        },
        {
          "conceptId": "C100759",
          "definition": "Brief Pain Inventory (BPI) (copyright 1991 Charles S. Cleeland, PhD, Pain Research Group, All Right Reserved).",
          "preferredTerm": "Brief Pain Inventory Questionnaire",
          "submissionValue": "BPI",
          "synonyms": [
            "BPI1"
          ]
        },
        {
          "conceptId": "C100760",
          "definition": "Brief Pain Inventory Short Form (BPI2) (copyright 1991 Charles S. Cleeland, PhD, Pain Research Group, All Right Reserved).",
          "preferredTerm": "Brief Pain Inventory Short Form Questionnaire",
          "submissionValue": "BPI SHORT FORM",
          "synonyms": [
            "BPI2"
          ]
        },
        {
          "conceptId": "C100761",
          "definition": "Brief Psychiatric Rating Scale - Anchored (BPRS-A) (Woerner MB, Mannuzza S, and Kane JM. Anchoring the BPRS: An Aid to Improved Reliability. Psychopharmacology Bulletin 1988; 24(1):112-117).",
          "preferredTerm": "Brief Psychiatric Rating Scale A Questionnaire",
          "submissionValue": "BPRS-A",
          "synonyms": [
            "BPR01"
          ]
        },
        {
          "conceptId": "C113875",
          "definition": "Bowel Control Scale (BWCS) (1997 by the National Multiple Sclerosis Society. All rights reserved).",
          "preferredTerm": "Bowel Control Scale Questionnaire",
          "submissionValue": "BWCS",
          "synonyms": [
            "BWCS01"
          ]
        },
        {
          "conceptId": "C102114",
          "definition": "Clinical Dementia Rating (CDR) (Morris, JC. Clinical Dementia Rating: A reliable and valid diagnostic and staging measure for dementia of the Alzheimer type. International Psychogeriatrics 1997: 9, Suppl. 1, 173-176).",
          "preferredTerm": "Clinical Dementia Rating Questionnaire",
          "submissionValue": "CDR",
          "synonyms": [
            "CDR01"
          ]
        },
        {
          "conceptId": "C100763",
          "definition": "Clinical Global Impression (CGI) (Guy W: ECDEU Assessment Manual for Psychopharmacology. Rockville, MD: U.S. Department of Health, Education, and Welfare; 1976).",
          "preferredTerm": "Clinical Global Impression Questionnaire",
          "submissionValue": "CGI",
          "synonyms": [
            "CGI01"
          ]
        },
        {
          "conceptId": "C100764",
          "definition": "Current Opioid Misuse Measure (COMM) (copyright 2010 Inflexxion, Inc., All rights reserved).",
          "preferredTerm": "Current Opioid Misuse Measure Questionnaire",
          "submissionValue": "COMM",
          "synonyms": [
            "COMM1"
          ]
        },
        {
          "conceptId": "C102115",
          "definition": "The Clinical Opiate Withdrawal Scale (COWS) (Wesson DR and Ling W. The Clinical Opiate Withdrawal Scale (COWS). J Psychoactive Drugs 2003;35(2):253-259).",
          "preferredTerm": "Clinical Opiate Withdrawal Scale Questionnaire",
          "submissionValue": "COWS",
          "synonyms": [
            "COWS1"
          ]
        },
        {
          "conceptId": "C106695",
          "definition": "Columbia-Suicidality Severity Rating Scale (C-SSRS) Already Enrolled Subjects Version 1/14/2009 (Posner, K.; Brent, D.; Lucas, C.; Gould, M.; Stanley, B.; Brown, G.; Fisher, P.; Zelazny, J.; Burke, A.; Oquendo, M.; Mann, J.; copyright 2008 The Research Foundation for Mental Hygiene, Inc.).",
          "preferredTerm": "Columbia-Suicide Severity Rating Scale Already Enrolled Subjects Questionnaire",
          "submissionValue": "C-SSRS ALREADY ENROLLED SUBJECTS",
          "synonyms": [
            "CSS05"
          ]
        },
        {
          "conceptId": "C100765",
          "definition": "Columbia-Suicidality Severity Rating Scale (C-SSRS) Baseline Version 2009-01-14 (Posner, K.; Brent, D.; Lucas, C.; Gould, M.; Stanley, B.; Brown, G.; Fisher, P.; Zelazny, J.; Burke, A.; Oquendo, M.; Mann, J.; copyright 2008 The Research Foundation for Mental Hygiene, Inc.).",
          "preferredTerm": "Columbia-Suicidality Severity Rating Scale Baseline Questionnaire",
          "submissionValue": "C-SSRS BASELINE",
          "synonyms": [
            "CSS01"
          ]
        },
        {
          "conceptId": "C106696",
          "definition": "Columbia-Suicidality Severity Rating Scale (C-SSRS) Baseline/Screening Version 1/14/2009 (Posner, K.; Brent, D.; Lucas, C.; Gould, M.; Stanley, B.; Brown, G.; Fisher, P.; Zelazny, J.; Burke, A.; Oquendo, M.; Mann, J.; copyright 2008 The Research Foundation for Mental Hygiene, Inc.).",
          "preferredTerm": "Columbia-Suicide Severity Rating Scale Baseline/Screening Version Questionnaire",
          "submissionValue": "C-SSRS BASELINE/SCREENING VERSION",
          "synonyms": [
            "CSS04"
          ]
        },
        {
          "conceptId": "C105164",
          "definition": "Columbia-Suicidality Severity Rating Scale (C-SSRS) Baseline/Screening Version Phase 1 Study Version 1/14/2009 (Posner, K.; Brent, D.; Lucas, C.; Gould, M.; Stanley, B.; Brown, G.; Fisher, P.; Zelazny, J.; Burke, A.; Oquendo, M.; Mann, J.; copyright 2008 The Research Foundation for Mental Hygiene, Inc.).",
          "preferredTerm": "Columbia-Suicidality Severity Rating Scale Baseline/Screening Version Phase 1 Study 1/14/09 Questionnaire",
          "submissionValue": "C-SSRS BASELINE/SCREENING VERSION PHASE 1 STUDY",
          "synonyms": [
            "CSS03"
          ]
        },
        {
          "conceptId": "C111377",
          "definition": "Columbia-Suicidality Severity Rating Scale (C-SSRS) Children's Baseline Version 6/23/2010 (Posner, K.; Brent, D.; Lucas, C.; Gould, M.; Stanley, B.; Brown, G.; Fisher, P.; Zelazny, J.; Burke, A.; Oquendo, M.; Mann, J.; copyright 2008 The Research Foundation for Mental Hygiene, Inc.).",
          "preferredTerm": "Columbia-Suicide Severity Rating Scale Children's Baseline Questionnaire",
          "submissionValue": "C-SSRS CHILDREN'S BASELINE",
          "synonyms": [
            "CSS06"
          ]
        },
        {
          "conceptId": "C111378",
          "definition": "Columbia-Suicidality Severity Rating Scale (C-SSRS) Children's Baseline/Screening Version 6/23/2010 (Posner, K.; Brent, D.; Lucas, C.; Gould, M.; Stanley, B.; Brown, G.; Fisher, P.; Zelazny, J.; Burke, A.; Oquendo, M.; Mann, J.; copyright 2008 The Research Foundation for Mental Hygiene, Inc.).",
          "preferredTerm": "Columbia-Suicide Severity Rating Scale Children's Baseline/Screening Questionnaire",
          "submissionValue": "C-SSRS CHILDREN'S BASELINE/SCREENING",
          "synonyms": [
            "CSS07"
          ]
        },
        {
          "conceptId": "C111379",
          "definition": "Columbia-Suicidality Severity Rating Scale (C-SSRS) Children's Since Last Visit Version 6/23/2010 (Posner, K.; Brent, D.; Lucas, C.; Gould, M.; Stanley, B.; Brown, G.; Fisher, P.; Zelazny, J.; Burke, A.; Oquendo, M.; Mann, J.; copyright 2008 The Research Foundation for Mental Hygiene, Inc.).",
          "preferredTerm": "Columbia-Suicide Severity Rating Scale Children's Since Last Visit Questionnaire",
          "submissionValue": "C-SSRS CHILDREN'S SINCE LAST VIST",
          "synonyms": [
            "CSS08"
          ]
        },
        {
          "conceptId": "C113873",
          "definition": "Columbia-Suicidality Severity Rating Scale (C-SSRS) Pediatric/Cognitively Impaired Lifetime/Recent Version 6/23/2010 (Posner, K.; Brent, D.; Lucas, C.; Gould, M.; Stanley, B.; Brown, G.; Fisher, P.; Zelazny, J.; Burke, A.; Oquendo, M.; Mann, J.; copyright 2008 The Research Foundation for Mental Hygiene, Inc.).",
          "preferredTerm": "Columbia-Suicide Severity Rating Scale Pediatric/Cognitively Impaired Lifetime/Recent Questionnaire",
          "submissionValue": "C-SSRS PEDIATRIC/COGNITIVELY IMPAIRED LIFETIME/RECENT",
          "synonyms": [
            "CSS10"
          ]
        },
        {
          "conceptId": "C111380",
          "definition": "Columbia-Suicidality Severity Rating Scale (C-SSRS) Screening Version 1/14/2009 (Posner, K.; Brent, D.; Lucas, C.; Gould, M.; Stanley, B.; Brown, G.; Fisher, P.; Zelazny, J.; Burke, A.; Oquendo, M.; Mann, J.; copyright 2008 The Research Foundation for Mental Hygiene, Inc.).",
          "preferredTerm": "Columbia-Suicide Severity Rating Scale Screening Questionnaire",
          "submissionValue": "C-SSRS SCREENING",
          "synonyms": [
            "CSS09"
          ]
        },
        {
          "conceptId": "C103516",
          "definition": "Columbia-Suicidality Severity Rating Scale (C-SSRS) Since Last Visit Version 1/14/2009 (Posner, K.; Brent, D.; Lucas, C.; Gould, M.; Stanley, B.; Brown, G.; Fisher, P.; Zelazny, J.; Burke, A.; Oquendo, M.; Mann, J.; copyright 2008 The Research Foundation for Mental Hygiene, Inc.).",
          "preferredTerm": "Columbia-Suicidality Severity Rating Scale Since Last Visit Questionnaire",
          "submissionValue": "C-SSRS SINCE LAST VISIT",
          "synonyms": [
            "CSS02"
          ]
        },
        {
          "conceptId": "C105165",
          "definition": "Disability Assessment for Dementia (DAD) (copyright 1994 by L. Gauthier I. Gelinas. All rights reserved.).",
          "preferredTerm": "Disability Assessment for Dementia Questionnaire",
          "submissionValue": "DAD",
          "synonyms": [
            "DAD01"
          ]
        },
        {
          "conceptId": "C112519",
          "definition": "Disease Steps (DS) (Hohol MJ, Orav EJ, Weiner HL. Disease steps in multiple sclerosis: a simple approach to evaluate disease progression. Neurology. 1995 Feb;45(2):251-5).",
          "preferredTerm": "Disease Steps Questionnaire",
          "submissionValue": "DISEASE STEPS",
          "synonyms": [
            "DS01"
          ]
        },
        {
          "conceptId": "C115796",
          "definition": "Disability Rating Scale (DRS) (Rappaport et al. (1982) Disability Rating Scale for Severe Head Trauma Patients: Coma to Community. Archives of Physical Medicine and Rehabilitation, 63:118-123).",
          "preferredTerm": "Disability Rating Scale Questionnaire",
          "submissionValue": "DRS",
          "synonyms": [
            "DRS01"
          ]
        },
        {
          "conceptId": "C102116",
          "definition": "Eastern Cooperative Oncology Group (ECOG) Performance Status (Oken MM, Creech RH, Tormey DC, Horton J, Davis TE, McFadden ET, Carbone PP. Toxicity and response criteria of the Eastern Cooperative Oncology Group. Am J Clin Oncol. 1982 Dec;5(6):649-55).",
          "preferredTerm": "Eastern Cooperative Oncology Group Performance Status Questionnaire",
          "submissionValue": "ECOG",
          "synonyms": [
            "ECOG1"
          ]
        },
        {
          "conceptId": "C112520",
          "definition": "Kurtzke Expanded Disability Status Scale (EDSS) (Kurtzke JF. Rating neurologic impairment in multiple sclerosis: an expanded disability status scale (EDSS). Neurology. 1983 Nov;33(11):1444-52).",
          "preferredTerm": "Kurtzke Expanded Disability Status Scale Questionnaire",
          "submissionValue": "EDSS",
          "synonyms": [
            "EDSS01"
          ]
        },
        {
          "conceptId": "C66957",
          "definition": "European Quality of Life Five Dimension Three Level Scale (EQ-5D-3L) (Copyright 1990 EuroQol Group. EQ-5D is a trade mark of the EuroQol Group).",
          "preferredTerm": "European Quality of Life Five Dimension Three Level Questionnaire",
          "submissionValue": "EQ-5D-3L",
          "synonyms": [
            "EQ5D01"
          ]
        },
        {
          "conceptId": "C102117",
          "definition": "European Quality of Life Five Dimension Five Level Scale (EQ-5D-5L) (Copyright 2009 EuroQol Group. EQ-5D is a trade mark of the EuroQol Group).",
          "preferredTerm": "European Quality of Life Five Dimension Five Level Scale Questionnaire",
          "submissionValue": "EQ-5D-5L",
          "synonyms": [
            "EQ5D02"
          ]
        },
        {
          "conceptId": "C103517",
          "definition": "Epworth Sleepiness Scale (ESS) (copyright Murray W. Johns, 1990-1997. All rights reserved.).",
          "preferredTerm": "Epworth Sleepiness Scale Questionnaire",
          "submissionValue": "ESS",
          "synonyms": [
            "ESS01"
          ]
        },
        {
          "conceptId": "C112521",
          "definition": "Functional Assessment of Multiple Sclerosis Version 4 (FAMS) (Cella et al. Validation of the Functional Assessment of Multiple Sclerosis quality of life instrument. NEUROLOGY 1996;47: 129-139). (Questionnaires and all related subscales, translations, and adaptations ('FACIT System') are owned and copyrighted by David Cella, Ph.D. The ownership and copyright of the FACIT System resides strictly with Dr. Cella. Dr. Cella has granted FACIT.org the right to license usage of the FACIT System to other parties).",
          "preferredTerm": "Functional Assessment of Multiple Sclerosis Questionnaire",
          "submissionValue": "FAMS",
          "synonyms": [
            "FAMS01"
          ]
        },
        {
          "conceptId": "C111381",
          "definition": "Functional Activities Questionnaire (FAQ) (Pfeiffer, RI.; Kurosaki, TT.; Harrah, CH. Jr.; Chance, JM.; and Filos, S. (1982). Measurement of functional activities in older adults in the community. Journal of Gerontology, 37(3), 323-329.).",
          "preferredTerm": "Functional Activities Questionnaire",
          "submissionValue": "FAQ",
          "synonyms": [
            "FAQ01"
          ]
        },
        {
          "conceptId": "C111382",
          "definition": "Functional Activities Questionnaire-NACC (FAQ-NACC) (Pfeffer, RI.; Kurosaki, TT.; Harrah, CH. Jr.; Chance, JM.; and Filos, S. (1982). Measurement of functional activities in older adults in the community. Journal of Gerontology, 37(3), 323-329.). (Reproduced with permission. Copyright 2011 University of Washington. Created and published by the ADC Clinical Task Force. John C. Morris, MD, Chair, and the National Alzheimer's Coordinating Center. U01 AG016976 - Walter A. Kukull, PhD, Director).",
          "preferredTerm": "Functional Activities Questionnaire-NACC Version",
          "submissionValue": "FAQ-NACC",
          "synonyms": [
            "FAQ02"
          ]
        },
        {
          "conceptId": "C103518",
          "definition": "Revised Fibromyalgia Impact Questionnaire (FIQR) (copyright 2009 Bennett RM and Friend. All Rights Reserved.).",
          "preferredTerm": "Revised Fibromyalgia Impact Questionnaire",
          "submissionValue": "FIQR",
          "synonyms": [
            "FIQR01"
          ]
        },
        {
          "conceptId": "C100766",
          "definition": "Faces Pain Scale - Revised (FPS-R) (Hicks CL, von Baeyer CL, van Korlaar I, Goodenough B. Faces Pain Scale-Revised: Toward a Common Metric in Pediatric Pain Measurement. Pain 2001; 93:173-183).",
          "preferredTerm": "Faces Pain Scale Revised Questionnaire",
          "submissionValue": "FPSR",
          "synonyms": [
            "FPSR1"
          ]
        },
        {
          "conceptId": "C106621",
          "definition": "Fatigue Severity Scale (FSS) (Copyright Lauren B. Krupp).",
          "preferredTerm": "Fatigue Severity Scale",
          "submissionValue": "FSS",
          "synonyms": [
            "FSS01"
          ]
        },
        {
          "conceptId": "C103519",
          "definition": "Generalized Anxiety Disorder - 7 (GAD-7) (Spitzer RL, Kroenke K, Williams JBW, Lowe B. A brief measure for assessing generalized anxiety disorder: The GAD-7. Arch Intern Med 2006; 166:1092-1097).",
          "preferredTerm": "Generalized Anxiety Disorder - 7 Questionnaire",
          "submissionValue": "GAD-7",
          "synonyms": [
            "GAD01"
          ]
        },
        {
          "conceptId": "C105169",
          "definition": "The General Clinical Global Impressions (GCGI v1) questions were created by STANDARDS (Standardized Analgesic Database for Research, Discovery, and Submissions) and sponsored by ACTTION (Analgesic Clinical Trial Translations, Innovations, Opportunities, and Networks) www.acttion.org; 2012-08-07 v1.",
          "preferredTerm": "STANDARDS General Clinical Global Impressions Questionnaire",
          "submissionValue": "GCGI",
          "synonyms": [
            "GCGI01"
          ]
        },
        {
          "conceptId": "C106697",
          "definition": "Geriatric Depression Scale (GDS) (Yesavage JA, Brink TL, Rose TL, et al. Development and validation of a geriatric depression screening scale: a preliminary report. J Psychiatry Res. 1983;17(1):37-49).",
          "preferredTerm": "Geriatric Depression Scale Questionnaire",
          "submissionValue": "GDS",
          "synonyms": [
            "GDS01"
          ]
        },
        {
          "conceptId": "C106698",
          "definition": "Geriatric Depression Scale Short Form (GDS Short Form) (Sheikh JI, Yesavage JA. Geriatric Depression Scale (GDS): recent evidence and development of a shorter version. Clin Gerontol. 1986 June;5(1/2):165-173).",
          "preferredTerm": "Geriatric Depression Scale Short Form Questionnaire",
          "submissionValue": "GDS SHORT FORM",
          "synonyms": [
            "GDS02"
          ]
        },
        {
          "conceptId": "C115797",
          "definition": "Extended Glasgow Outcome Scale (GOSE) (Wilson JT, Pettigrew LE, Teasdale GM. Structured interviews for the Glasgow Outcome Scale and the Extended Glasgow Outcome Scale: Guidelines for their use. Journal of Neurotrauma 1998;15:573-585).",
          "preferredTerm": "Extended Glasgow Outcome Scale Questionnaire",
          "submissionValue": "GOSE",
          "synonyms": [
            "GOSE1"
          ]
        },
        {
          "conceptId": "C103520",
          "definition": "Hospital Anxiety and Depression Scale (HADS) (copyright 1983, 1992, 1994 by R.P. Snaith and A.S. Zigmond. All rights reserved.).",
          "preferredTerm": "Hospital Anxiety and Depression Scale Questionnaire",
          "submissionValue": "HADS",
          "synonyms": [
            "HADS01"
          ]
        },
        {
          "conceptId": "C102118",
          "definition": "The Hamilton Anxiety Rating Scale (HAM-A) (Hamilton M. The assessment of anxiety states by rating. Br J Med Psychol 1959; 32:50-55).",
          "preferredTerm": "Hamilton Anxiety Rating Scale Questionnaire",
          "submissionValue": "HAM-A",
          "synonyms": [
            "HAMA1"
          ]
        },
        {
          "conceptId": "C100767",
          "definition": "The Hamilton Depression Rating Scale 17-Item (HAMD 17) (Hamilton M. Development of a rating scale for primary depressive illness. Br J Soc Clin Psychol 1967; 6(4):278-96).",
          "preferredTerm": "Hamilton Depression Rating Scale 17 Item Questionnaire",
          "submissionValue": "HAMD 17",
          "synonyms": [
            "HAMD1"
          ]
        },
        {
          "conceptId": "C102119",
          "definition": "The Hamilton Depression Rating Scale 21-Item (HAMD 21) (Hedlund and Vieweg, The Hamilton rating scale for depression. Journal of Operational Psychiatry, 1979;10(2):149-165).",
          "preferredTerm": "Hamilton Depression Rating Scale 21-Item Questionnaire",
          "submissionValue": "HAMD 21",
          "synonyms": [
            "HAMD2"
          ]
        },
        {
          "conceptId": "C106699",
          "definition": "Health Assessment Questionnaire Disability Index (HAQ-DI) (Fries JF. The assessment of disability: from first to future principles. Br J Rheumatol. 1983 Aug; 22(3 Suppl):48-58).",
          "preferredTerm": "Health Assessment Questionnaire Disability Index Questionnaire",
          "submissionValue": "HAQ-DI",
          "synonyms": [
            "HAQ01"
          ]
        },
        {
          "conceptId": "C103521",
          "definition": "International Index of Erectile Function (IIEF) (Rosen RC, Riley A, Wagner G, Osterloh IH, Kirkpatrick J, and Mishra A. The international index of erectile function (IIEF): a multidimensional scale for assessment of erectile dysfunction. Urology. 1997 49(6): 822-830).",
          "preferredTerm": "International Index of Erectile Function Questionnaire",
          "submissionValue": "IIEF",
          "synonyms": [
            "IIEF01"
          ]
        },
        {
          "conceptId": "C113876",
          "definition": "Impact of Visual Impairment Scale (IVIS) (1997 by the National Multiple Sclerosis Society. All rights reserved).",
          "preferredTerm": "Impact of Visual Impairment Scale Questionnaire",
          "submissionValue": "IVIS",
          "synonyms": [
            "IVIS01"
          ]
        },
        {
          "conceptId": "C112522",
          "definition": "Kurtzke Functional Systems Scores (FSS) (Kurtzke JF. Rating neurologic impairment in multiple sclerosis: an expanded disability status scale (EDSS). Neurology. 1983 Nov;33(11):1444-52).",
          "preferredTerm": "Kurtzke Functional Systems Scores Questionnaire",
          "submissionValue": "KFSS",
          "synonyms": [
            "KFSS1"
          ]
        },
        {
          "conceptId": "C100768",
          "definition": "The Karnofsky Performance Status Scale (KPSS) (Karnofsky DA, Burchenal JH. (1949). \"The Clinical Evaluation of Chemotherapeutic Agents in Cancer.\" In: MacLeod CM (Ed), Evaluation of Chemotherapeutic Agents. Columbia Univ Press. Page 196).",
          "preferredTerm": "Karnofsky Performance Status Scale Questionnaire",
          "submissionValue": "KPS SCALE",
          "synonyms": [
            "KPSS"
          ]
        },
        {
          "conceptId": "C100769",
          "definition": "The Movement Disorder Society version of the Unified Parkinson's Disease Rating Scale (MDS-UPDRS) (copyright 2008 Movement Disorder Society. All Rights Reserved).",
          "preferredTerm": "Movement Disorder Society Unified Parkinson's Disease Rating Scale Questionnaire",
          "submissionValue": "MDS-UPDRS",
          "synonyms": [
            "UPD2"
          ]
        },
        {
          "conceptId": "C113877",
          "definition": "Modified Fatigue Impact Scale (MFIS) (1997 by the National Multiple Sclerosis Society. All rights reserved).",
          "preferredTerm": "Modified Fatigue Impact Scale Questionnaire",
          "submissionValue": "MFIS",
          "synonyms": [
            "MFIS01"
          ]
        },
        {
          "conceptId": "C112523",
          "definition": "Modified Hachinski Ischemic Scale-NACC Version (MHIS-NACC) Reproduced with permission. Copyright 2011 University of Washington. Created and published by the ADC Clinical Task Force (John C. Morris, MD, Chair) and the National Alzheimer's Coordinating Center (Walter A. Kukull, PhD, Director). This publication was funded by the National Institutes of Health through the National Institute on Aging (Cooperative Agreement U01 AG016976).",
          "preferredTerm": "Modified Hachinski Ischemic Scale-NACC Version Questionnaire",
          "submissionValue": "MHIS-NACC",
          "synonyms": [
            "MHIS01"
          ]
        },
        {
          "conceptId": "C106700",
          "definition": "Modified Medical Research Council dyspnea scale (MMRC) (Mahler DA, Wells CK. Evaluation of Clinical Methods for Rating Dyspnea. Chest 1988; 93:580-586).",
          "preferredTerm": "Modified Medical Research Council Dyspnea Scale Questionnaire",
          "submissionValue": "MMRC",
          "synonyms": [
            "MMRC01"
          ]
        },
        {
          "conceptId": "C100771",
          "definition": "Michigan Neuropathy Screening Instrument (MNSI) (copyright University of Michigan, 2000, All rights reserved).",
          "preferredTerm": "Michigan Neuropathy Screening Instrument Questionnaire",
          "submissionValue": "MNSI",
          "synonyms": [
            "MNSI1"
          ]
        },
        {
          "conceptId": "C115798",
          "definition": "The Mayo-Portland Adaptability Inventory-4 (MPAI-4) (Malec, J. (2005). The Mayo-Portland Adaptability Inventory-4. The Center for Outcome Measurement in Brain Injury. http://www.tbims.org/combi/mpai).",
          "preferredTerm": "Mayo-Portland Adaptability Inventory-4 Questionnaire",
          "submissionValue": "MPAI-4",
          "synonyms": [
            "MPAI1"
          ]
        },
        {
          "conceptId": "C111383",
          "definition": "Modified Rankin Scale (MRS) (Van Swieten J., Koudstaal P., Visser M., Schouten H., and Van Gijn J. Interobserver agreement for the assessment of handicap in stroke patients, 1988. Stroke 19: 604-607).",
          "preferredTerm": "Modified Rankin Scale Questionnaire",
          "submissionValue": "MRS",
          "synonyms": [
            "MRS01"
          ]
        },
        {
          "conceptId": "C113878",
          "definition": "Multiple Sclerosis Quality of Life-54 Instrument (MSQOL-54) (Copyright 1995, University of California, Los Angeles).",
          "preferredTerm": "Multiple Sclerosis Quality of Life-54 Instrument Questionnaire",
          "submissionValue": "MSQOL-54",
          "synonyms": [
            "MSQL1"
          ]
        },
        {
          "conceptId": "C100772",
          "definition": "Neuropsychiatric Inventory (NPI) (copyright JL Cummings, 1994, all rights reserved; permission for commercial use required; npiTEST.net).",
          "preferredTerm": "Neuropsychiatric Inventory Questionnaire",
          "submissionValue": "NPI",
          "synonyms": [
            "NPI1"
          ]
        },
        {
          "conceptId": "C103522",
          "definition": "Neuropathic Pain Scale (NPS) (copyright Brad Galer and Mark Jensen. All rights reserved.).",
          "preferredTerm": "Neuropathic Pain Scale Questionnaire",
          "submissionValue": "NPS",
          "synonyms": [
            "NPS01"
          ]
        },
        {
          "conceptId": "C103523",
          "definition": "The Overactive Bladder Questionnaire (OAB-q) (Coyne K, Revicki D, Hunt T, et al. Psychometric validation of an overactive bladder symptom and health-related quality of life questionnaire: the OAB-q. Qual Life Res. Sep 2002; 11(6):563-574).",
          "preferredTerm": "The Overactive Bladder Questionnaire",
          "submissionValue": "OAB-Q",
          "synonyms": [
            "OABQ01"
          ]
        },
        {
          "conceptId": "C103524",
          "definition": "The Overactive Bladder Questionnaire Short Form (OAB-q Short Form) (Coyne KS, Lai JS, Zyczynski T, Kopp Z, Avery K, Abrams P. An overactive bladder symptom and quality-of-life short form: development of the Overactive Bladder Questionnaire (OAB-q) short form (SF). Presented at the Joint Meeting of the International Continence Society and the International Urogynecological Association; August 23-27, 2004; Paris, France).",
          "preferredTerm": "The Overactive Bladder Questionnaire Short Form",
          "submissionValue": "OAB-Q SHORT FORM",
          "synonyms": [
            "OABQ02"
          ]
        },
        {
          "conceptId": "C103525",
          "definition": "The Oswestry Disability Index Version 2.1a (ODI v2.1A) (copyright 1980 Jeremy Fairbank. All Rights Reserved.).",
          "preferredTerm": "The Oswestry Disability Index Version 2.1a Questionnaire",
          "submissionValue": "ODI v2.1A",
          "synonyms": [
            "ODI01"
          ]
        },
        {
          "conceptId": "C112524",
          "definition": "Patient Determined Disease Steps (PDDS) (Hohol MJ, Orav EJ, Weiner HL. Disease Steps in multiple sclerosis: A simple approach to evaluate disease progression. Neurology 1995; 45: 251-55). (Hohol MJ, Orav EJ, Weiner HL. Disease Steps in multiple sclerosis: a longitudinal study comparing disease steps and EDSS to evaluate disease progression. Multiple Sclerosis 1999; 5: 349-54). (Marrie RA and Goldman M. Validity of performance scales for disability assessment in multiple sclerosis. Multiple Sclerosis 2007; 13: 1176-1182). (The PDDS and/or PS are provided for use by the NARCOMS Registry: www.narcoms.org/pdds. NARCOMS is supported in part by the Consortium of Multiple Sclerosis Centers (CMSC) and the CMSC Foundation).",
          "preferredTerm": "Patient Determined Disease Steps Questionnaire",
          "submissionValue": "PDDS",
          "synonyms": [
            "PDDS01"
          ]
        },
        {
          "conceptId": "C100773",
          "definition": "Parkinson's Disease Quality of Life Scale (PDQUALIF) (Welsh M, McDermott MP, Holloway RG, Plumb S, Pfeiffer R, Hubble J, and The Parkinson Study Group. Development and Testing of the Parkinson's Disease Quality of Life Scale. Movement Disorders, 2003, Vol. 18; 637-645).",
          "preferredTerm": "Parkinson's Disease Quality of Life Scale Questionnaire",
          "submissionValue": "PDQUALIF",
          "synonyms": [
            "PDQ01"
          ]
        },
        {
          "conceptId": "C103527",
          "definition": "Patient Health Questionnaire - 15 (PHQ-15) (Kroenke K, Spitzer RL, Williams JBW. The PHQ-15: Validity of a new measure for evaluating the severity of somatic symptoms. Psychosom Med 2002; 64:258-266).",
          "preferredTerm": "Patient Health Questionnaire - 15 Item",
          "submissionValue": "PHQ-15",
          "synonyms": [
            "PHQ02"
          ]
        },
        {
          "conceptId": "C103526",
          "definition": "Patient Health Questionnaire - 9 (PHQ-9) (Kroenke K, Spitzer RL, Williams JBW. The PHQ-9: Validity of a brief depression severity measure. J Gen Intern Med 2001; 16:606-613).",
          "preferredTerm": "Patient Health Questionnaire - 9 Item",
          "submissionValue": "PHQ-9",
          "synonyms": [
            "PHQ01"
          ]
        },
        {
          "conceptId": "C105167",
          "definition": "The Pain Intensity (PI) questions were created by STANDARDS (Standardized Analgesic Database for Research, Discovery, and Submissions) and sponsored by ACTTION (Analgesic Clinical Trial Translations, Innovations, Opportunities, and Networks) www.acttion.org; 2012-08-07 v1.",
          "preferredTerm": "STANDARDS Pain Intensity Questionnaire",
          "submissionValue": "PI",
          "synonyms": [
            "PI01"
          ]
        },
        {
          "conceptId": "C105168",
          "definition": "The Pain Relief (PR) questions were created by STANDARDS (Standardized Analgesic Database for Research, Discovery, and Submissions) and sponsored by ACTTION (Analgesic Clinical Trial Translations, Innovations, Opportunities, and Networks) www.acttion.org; 2012-08-07 v1.",
          "preferredTerm": "STANDARDS Pain Relief Questionnaire",
          "submissionValue": "PR",
          "synonyms": [
            "PR01"
          ]
        },
        {
          "conceptId": "C113879",
          "definition": "RAND 36-Item Health Survey 1.0 (RAND-36) (Copyright the RAND Corporation. Developed at RAND as part of the Medical Outcomes Study).",
          "preferredTerm": "RAND 36-Item Health Survey 1.0 Questionnaire",
          "submissionValue": "RAND-36 V1.0",
          "synonyms": [
            "R3601"
          ]
        },
        {
          "conceptId": "C100774",
          "definition": "Roland Morris Disability Questionnaire (RDQ) (Roland MO, Morris RW. A study of the natural history of back pain. Part 1: Development of a reliable and sensitive measure of disability in low back pain. Spine 1983;8:141-144).",
          "preferredTerm": "Roland Morris Disability Questionnaire",
          "submissionValue": "RDQ",
          "synonyms": [
            "RDQ01"
          ]
        },
        {
          "conceptId": "C111384",
          "definition": "Sheehan Disability Scale (Copyright 1983, 2010, 2011 David V. Sheehan. All rights reserved.).",
          "preferredTerm": "Sheehan Disability Scale Questionnaire",
          "submissionValue": "SDS",
          "synonyms": [
            "SDS01"
          ]
        },
        {
          "conceptId": "C112525",
          "definition": "St. George's Respiratory Questionnaire (SGRQ) Past 3 Months Version (copyright P.W. Jones, St. George's University of London).",
          "preferredTerm": "St. George's Respiratory Questionnaire Past 3 Months Version",
          "submissionValue": "SGRQ PAST 3 MONTHS VERSION",
          "synonyms": [
            "SGRQ01"
          ]
        },
        {
          "conceptId": "C112526",
          "definition": "St. George's Respiratory Questionnaire (SGRQ) Past 4 Weeks Version (copyright P.W. Jones, St. George's University of London).",
          "preferredTerm": "St. George's Respiratory Questionnaire Past 4 Weeks Version",
          "submissionValue": "SGRQ PAST 4 WEEKS VERSION",
          "synonyms": [
            "SGRQ02"
          ]
        },
        {
          "conceptId": "C106890",
          "definition": "St. George's Respiratory Questionnaire for COPD Patients (SGRQ-C) (Jones PW, Quirk FH, Baveystock CM, and Littlejohns PA. Self-complete measure of health status for chronic airflow limitation. The St. George's Respiratory Questionnaire. Am Rev Respir Dis. 1992 Jun; 145(6):1321-7).",
          "preferredTerm": "St. George's Respiratory Questionnaire for Chronic Obstructive Pulmonary Disease Patients",
          "submissionValue": "SGRQ-C",
          "synonyms": [
            "SGRQC1"
          ]
        },
        {
          "conceptId": "C100776",
          "definition": "Short-Form McGill Pain Questionnaire-2 (SF-MPQ-2) (Copyright R. Melzack and the Initiative on Methods, Measurement, and Pain Assessment in Clinical Trials (IMMPACT), 2009, All Rights Reserved).",
          "preferredTerm": "Short-Form McGill Pain Questionnaire-2",
          "submissionValue": "SHORT-FORM MPQ-2",
          "synonyms": [
            "SFMP2"
          ]
        },
        {
          "conceptId": "C103528",
          "definition": "Symptom Impact Questionnaire (SIQR) (copyright 2009 Bennett RM and Friend. All Rights Reserved.).",
          "preferredTerm": "Symptom Impact Questionnaire",
          "submissionValue": "SIQR",
          "synonyms": [
            "SIQR01"
          ]
        },
        {
          "conceptId": "C100777",
          "definition": "Screener and Opioid Assessment for Patients with Pain Revised (SOAPP-R) (copyright 2007 Inflexxion, Inc., All rights reserved).",
          "preferredTerm": "Screener and Opioid Assessment for Patients with Pain Revised Questionnaire",
          "submissionValue": "SOAPP-R",
          "synonyms": [
            "SOAPR1"
          ]
        },
        {
          "conceptId": "C103529",
          "definition": "Short Opiate Withdrawal Scale (SOWS SHORT) (Gossop, M. The development of a short opiate withdrawal scale. Addictive Behaviors 1990; 15:487-490).",
          "preferredTerm": "Short Opiate Withdrawal Scale Questionnaire",
          "submissionValue": "SOWS SHORT",
          "synonyms": [
            "SOWSB1"
          ]
        },
        {
          "conceptId": "C102123",
          "definition": "The Subjective Opiate Withdrawal Scale (SOWS) (Handelsman, L., Cochrane, K. J., Aronson, M. J. Ness, R., Rubinstein K.J., Kanof, P.D. (1987) Two New Rating Scales for Opiate Withdrawal. American Journal of Alcohol Abuse, 13, 293-308).",
          "preferredTerm": "Subjective Opiate Withdrawal Scale Questionnaire",
          "submissionValue": "SOWS SUBJECTIVE",
          "synonyms": [
            "SOWSA1"
          ]
        },
        {
          "conceptId": "C115799",
          "definition": "The Satisfaction With Life Scale (SWLS) (Diener, E., Emmons, R., Larsen, J., and Griffin, S. (1985). The Satisfaction With Life Scale. J Personality Assessment, 49(1): 71-75).",
          "preferredTerm": "Satisfaction With Life Scale Questionnaire",
          "submissionValue": "SWLS",
          "synonyms": [
            "SWLS01"
          ]
        },
        {
          "conceptId": "C106694",
          "definition": "Transition Dyspnea Index (TDI) (Mahler DA, Weinberg DH, Wells CK, Feinstein AR. The measurement of dyspnea. Contents, interobserver agreement, and physiologic correlates of two new clinical indexes. Chest 1984, 85: 751-758).",
          "preferredTerm": "Transition Dyspnea Index Questionnaire",
          "submissionValue": "TDI",
          "synonyms": [
            "TDI01"
          ]
        },
        {
          "conceptId": "C100778",
          "definition": "Unified Parkinson's Disease Rating Scale (UPDRS) (Fahn S, Marsden CD, Calne DB, Goldstein M, eds. Recent Developments in Parkinson's Disease, Vol 2. Florham Park, NJ. Macmillan Health Care Information 1987, pp 153-163, 293-304).",
          "preferredTerm": "Unified Parkinson's Disease Rating Scale Questionnaire",
          "submissionValue": "UPDRS",
          "synonyms": [
            "UPD1"
          ]
        },
        {
          "conceptId": "C103530",
          "definition": "Urgency Perception Scale (UPS) (copyright Pfizer. All rights reserved.).",
          "preferredTerm": "Urgency Perception Scale Questionnaire",
          "submissionValue": "UPS",
          "synonyms": [
            "UPS01"
          ]
        },
        {
          "conceptId": "C112527",
          "definition": "National Eye Institute Visual Functioning Questionnaire - 25 (VFQ-25) Version 2000 Interviewer-Administered Format (Mangione, C. M., Lee, P. P., Gutierrez, P. R., Spritzer, K., Berry, S., & Hays, R. D. Development of the 25-item National Eye Institute Visual Function Questionnaire (VFQ-25). Archives of Ophthalmology. 2001; 119:1050-1058). (This instrument was developed at RAND under the sponsorship of the National Eye Institute).",
          "preferredTerm": "Visual Functioning Questionnaire 25-Interviewer Administered Format Version 2000",
          "submissionValue": "VFQ-25 INTERVIEWER ADMINISTERED",
          "synonyms": [
            "VFQ1"
          ]
        },
        {
          "conceptId": "C112528",
          "definition": "National Eye Institute Visual Functioning Questionnaire - 25 (VFQ-25) Version 2000 Self-Administered Format (Mangione, C. M., Lee, P. P., Gutierrez, P. R., Spritzer, K., Berry, S., & Hays, R. D. Development of the 25-item National Eye Institute Visual Function Questionnaire (VFQ-25). Archives of Ophthalmology. 2001; 119:1050-1058). (This instrument was developed at RAND under the sponsorship of the National Eye Institute).",
          "preferredTerm": "Visual Functioning Questionnaire 25-Self Administered Format Version 2000",
          "submissionValue": "VFQ-25 SELF ADMINISTERED",
          "synonyms": [
            "VFQ2"
          ]
        },
        {
          "conceptId": "C100779",
          "definition": "The Work Productivity and Activity Impairment - Specific Health Problems Questionnaire Version 2.0 (WPAI01) (http://www.reillyassociates.net/WPAI_SHP.html).",
          "preferredTerm": "Work Productivity and Activity Impairment Specific Health Problems Version 2.0 Questionnaire",
          "submissionValue": "WPAI-SHP",
          "synonyms": [
            "WPAI01"
          ]
        },
        {
          "conceptId": "C102124",
          "definition": "Young Mania Rating Scale (YMRS) (Young RC, Biggs JT, Ziegler VE et al: A rating scale for mania: reliability, validity and sensitivity. Br J Psychiatry 133: 429-435, 1978).",
          "preferredTerm": "Young Mania Rating Scale Questionnaire",
          "submissionValue": "YMRS",
          "synonyms": [
            "YMRS01"
          ]
        }
      ]
    },
    {
      "conceptId": "C115388",
      "definition": "6 Minute Walk Test test code.",
      "extensible": "No",
      "name": "FT-6 Minute Walk Functional Test Test Code",
      "preferredTerm": "CDISC Functional Test 6MWT Test Code Terminology",
      "submissionValue": "6MWT TESTCD",
      "synonyms": [
        "FT-6 Minute Walk Functional Test Test Code"
      ],
      "terms": [
        {
          "conceptId": "C115800",
          "definition": "6 Minute Walk Test - Distance at 1 minute.",
          "preferredTerm": "6MWT - Distance at 1 Minute",
          "submissionValue": "SIXMW101",
          "synonyms": [
            "SIXMW1-Distance at 1 Minute"
          ]
        },
        {
          "conceptId": "C115801",
          "definition": "6 Minute Walk Test - Distance at 2 minutes.",
          "preferredTerm": "6MWT - Distance at 2 Minutes",
          "submissionValue": "SIXMW102",
          "synonyms": [
            "SIXMW1-Distance at 2 Minutes"
          ]
        },
        {
          "conceptId": "C115802",
          "definition": "6 Minute Walk Test - Distance at 3 minutes.",
          "preferredTerm": "6MWT - Distance at 3 Minutes",
          "submissionValue": "SIXMW103",
          "synonyms": [
            "SIXMW1-Distance at 3 Minutes"
          ]
        },
        {
          "conceptId": "C115803",
          "definition": "6 Minute Walk Test - Distance at 4 minutes.",
          "preferredTerm": "6MWT - Distance at 4 Minutes",
          "submissionValue": "SIXMW104",
          "synonyms": [
            "SIXMW1-Distance at 4 Minutes"
          ]
        },
        {
          "conceptId": "C115804",
          "definition": "6 Minute Walk Test - Distance at 5 minutes.",
          "preferredTerm": "6MWT - Distance at 5 Minutes",
          "submissionValue": "SIXMW105",
          "synonyms": [
            "SIXMW1-Distance at 5 Minutes"
          ]
        },
        {
          "conceptId": "C115805",
          "definition": "6 Minute Walk Test - Distance at 6 minutes.",
          "preferredTerm": "6MWT - Distance at 6 Minutes",
          "submissionValue": "SIXMW106",
          "synonyms": [
            "SIXMW1-Distance at 6 Minutes"
          ]
        }
      ]
    },
    {
      "conceptId": "C115387",
      "definition": "6 Minute Walk Test test name.",
      "extensible": "No",
      "name": "FT-6 Minute Walk Functional Test Test Name",
      "preferredTerm": "CDISC Functional Test 6MWT Test Name Terminology",
      "submissionValue": "6MWT TEST",
      "synonyms": [
        "FT-6 Minute Walk Functional Test Test Name"
      ],
      "terms": [
        {
          "conceptId": "C115800",
          "definition": "6 Minute Walk Test - Distance at 1 minute.",
          "preferredTerm": "6MWT - Distance at 1 Minute",
          "submissionValue": "SIXMW1-Distance at 1 Minute",
          "synonyms": [
            "SIXMW1-Distance at 1 Minute"
          ]
        },
        {
          "conceptId": "C115801",
          "definition": "6 Minute Walk Test - Distance at 2 minutes.",
          "preferredTerm": "6MWT - Distance at 2 Minutes",
          "submissionValue": "SIXMW1-Distance at 2 Minutes",
          "synonyms": [
            "SIXMW1-Distance at 2 Minutes"
          ]
        },
        {
          "conceptId": "C115802",
          "definition": "6 Minute Walk Test - Distance at 3 minutes.",
          "preferredTerm": "6MWT - Distance at 3 Minutes",
          "submissionValue": "SIXMW1-Distance at 3 Minutes",
          "synonyms": [
            "SIXMW1-Distance at 3 Minutes"
          ]
        },
        {
          "conceptId": "C115803",
          "definition": "6 Minute Walk Test - Distance at 4 minutes.",
          "preferredTerm": "6MWT - Distance at 4 Minutes",
          "submissionValue": "SIXMW1-Distance at 4 Minutes",
          "synonyms": [
            "SIXMW1-Distance at 4 Minutes"
          ]
        },
        {
          "conceptId": "C115804",
          "definition": "6 Minute Walk Test - Distance at 5 minutes.",
          "preferredTerm": "6MWT - Distance at 5 Minutes",
          "submissionValue": "SIXMW1-Distance at 5 Minutes",
          "synonyms": [
            "SIXMW1-Distance at 5 Minutes"
          ]
        },
        {
          "conceptId": "C115805",
          "definition": "6 Minute Walk Test - Distance at 6 minutes.",
          "preferredTerm": "6MWT - Distance at 6 Minutes",
          "submissionValue": "SIXMW1-Distance at 6 Minutes",
          "synonyms": [
            "SIXMW1-Distance at 6 Minutes"
          ]
        }
      ]
    },
    {
      "conceptId": "C115390",
      "definition": "Hauser Ambulation Index test code.",
      "extensible": "No",
      "name": "FT-Hauser Ambulation Index Functional Test Test Code",
      "preferredTerm": "CDISC Functional Test HAI Test Code Terminology",
      "submissionValue": "HAI TESTCD",
      "synonyms": [
        "FT-Hauser Ambulation Index Functional Test Test Code"
      ],
      "terms": [
        {
          "conceptId": "C115806",
          "definition": "Hauser Ambulation Index - Ambulation index.",
          "preferredTerm": "HAI - Ambulation Index",
          "submissionValue": "HAI0101",
          "synonyms": [
            "HAI01-Ambulation Index"
          ]
        }
      ]
    },
    {
      "conceptId": "C115389",
      "definition": "Hauser Ambulation Index test name.",
      "extensible": "No",
      "name": "FT-Hauser Ambulation Index Functional Test Test Name",
      "preferredTerm": "CDISC Functional Test HAI Test Name Terminology",
      "submissionValue": "HAI TEST",
      "synonyms": [
        "FT-Hauser Ambulation Index Functional Test Test Name"
      ],
      "terms": [
        {
          "conceptId": "C115806",
          "definition": "Hauser Ambulation Index - Ambulation index.",
          "preferredTerm": "HAI - Ambulation Index",
          "submissionValue": "HAI01-Ambulation Index",
          "synonyms": [
            "HAI01-Ambulation Index"
          ]
        }
      ]
    },
    {
      "conceptId": "C115392",
      "definition": "Nine-Hole Peg Test test code.",
      "extensible": "No",
      "name": "FT-Nine-Hole Peg Functional Test Test Code",
      "preferredTerm": "CDISC Functional Test NHPT Test Code Terminology",
      "submissionValue": "NHPT TESTCD",
      "synonyms": [
        "FT-Nine-Hole Peg Functional Test Test Code"
      ],
      "terms": [
        {
          "conceptId": "C115807",
          "definition": "Nine-Hole Peg Test - Time in seconds to complete 9-Hole Peg Test.",
          "preferredTerm": "NHPT - Time to Complete 9-Hole Peg Test",
          "submissionValue": "NHPT0101",
          "synonyms": [
            "NHPT01-Time to Complete 9-Hole Peg Test"
          ]
        },
        {
          "conceptId": "C115808",
          "definition": "Nine-Hole Peg Test - Did it take more than two attempts to get two successful trials?",
          "preferredTerm": "NHPT - More Than Two Attempts",
          "submissionValue": "NHPT0102",
          "synonyms": [
            "NHPT01-More Than Two Attempts"
          ]
        }
      ]
    },
    {
      "conceptId": "C115391",
      "definition": "Nine-Hole Peg Test test name.",
      "extensible": "No",
      "name": "FT-Nine-Hole Peg Functional Test Test Name",
      "preferredTerm": "CDISC Functional Test NHPT Test Name Terminology",
      "submissionValue": "NHPT TEST",
      "synonyms": [
        "FT-Nine-Hole Peg Functional Test Test Name"
      ],
      "terms": [
        {
          "conceptId": "C115808",
          "definition": "Nine-Hole Peg Test - Did it take more than two attempts to get two successful trials?",
          "preferredTerm": "NHPT - More Than Two Attempts",
          "submissionValue": "NHPT01-More Than Two Attempts",
          "synonyms": [
            "NHPT01-More Than Two Attempts"
          ]
        },
        {
          "conceptId": "C115807",
          "definition": "Nine-Hole Peg Test - Time in seconds to complete 9-Hole Peg Test.",
          "preferredTerm": "NHPT - Time to Complete 9-Hole Peg Test",
          "submissionValue": "NHPT01-Time to Complete 9-Hole Peg Test",
          "synonyms": [
            "NHPT01-Time to Complete 9-Hole Peg Test"
          ]
        }
      ]
    },
    {
      "conceptId": "C115394",
      "definition": "Paced Auditory Serial Addition Test test code.",
      "extensible": "No",
      "name": "FT-Paced Auditory Serial Addition Functional Test Test Code",
      "preferredTerm": "CDISC Functional Test PASAT Test Code Terminology",
      "submissionValue": "PASAT TESTCD",
      "synonyms": [
        "FT-Paced Auditory Serial Addition Functional Test Test Code"
      ],
      "terms": [
        {
          "conceptId": "C115809",
          "definition": "Paced Auditory Serial Addition Test - Total correct.",
          "preferredTerm": "PASAT - Total Correct",
          "submissionValue": "PASAT101",
          "synonyms": [
            "PASAT1-Total Correct"
          ]
        },
        {
          "conceptId": "C115810",
          "definition": "Paced Auditory Serial Addition Test - Percent correct.",
          "preferredTerm": "PASAT - Percent Correct",
          "submissionValue": "PASAT102",
          "synonyms": [
            "PASAT1-Percent Correct"
          ]
        },
        {
          "conceptId": "C115811",
          "definition": "Paced Auditory Serial Addition Test - Did it take more than one attempt to get one successful trial?",
          "preferredTerm": "PASAT - More Than One Attempt",
          "submissionValue": "PASAT103",
          "synonyms": [
            "PASAT1-More Than One Attempt"
          ]
        },
        {
          "conceptId": "C115812",
          "definition": "Paced Auditory Serial Addition Test - Total correct in first half.",
          "preferredTerm": "PASAT - Total Correct in First Half",
          "submissionValue": "PASAT104",
          "synonyms": [
            "PASAT1-Total Correct in First Half"
          ]
        },
        {
          "conceptId": "C115813",
          "definition": "Paced Auditory Serial Addition Test - Total correct in second half.",
          "preferredTerm": "PASAT - Total Correct in Second Half",
          "submissionValue": "PASAT105",
          "synonyms": [
            "PASAT1-Total Correct in Second Half"
          ]
        },
        {
          "conceptId": "C115814",
          "definition": "Paced Auditory Serial Addition Test - Total commission errors.",
          "preferredTerm": "PASAT - Total Commission Errors",
          "submissionValue": "PASAT106",
          "synonyms": [
            "PASAT1-Total Commission Errors"
          ]
        },
        {
          "conceptId": "C115815",
          "definition": "Paced Auditory Serial Addition Test - Total omission errors.",
          "preferredTerm": "PASAT - Total Omission Errors",
          "submissionValue": "PASAT107",
          "synonyms": [
            "PASAT1-Total Omission Errors"
          ]
        }
      ]
    },
    {
      "conceptId": "C115393",
      "definition": "Paced Auditory Serial Addition Test test name.",
      "extensible": "No",
      "name": "FT-Paced Auditory Serial Addition Functional Test Test Name",
      "preferredTerm": "CDISC Functional Test PASAT Test Name Terminology",
      "submissionValue": "PASAT TEST",
      "synonyms": [
        "FT-Paced Auditory Serial Addition Functional Test Test Name"
      ],
      "terms": [
        {
          "conceptId": "C115811",
          "definition": "Paced Auditory Serial Addition Test - Did it take more than one attempt to get one successful trial?",
          "preferredTerm": "PASAT - More Than One Attempt",
          "submissionValue": "PASAT1-More Than One Attempt",
          "synonyms": [
            "PASAT1-More Than One Attempt"
          ]
        },
        {
          "conceptId": "C115810",
          "definition": "Paced Auditory Serial Addition Test - Percent correct.",
          "preferredTerm": "PASAT - Percent Correct",
          "submissionValue": "PASAT1-Percent Correct",
          "synonyms": [
            "PASAT1-Percent Correct"
          ]
        },
        {
          "conceptId": "C115814",
          "definition": "Paced Auditory Serial Addition Test - Total commission errors.",
          "preferredTerm": "PASAT - Total Commission Errors",
          "submissionValue": "PASAT1-Total Commission Errors",
          "synonyms": [
            "PASAT1-Total Commission Errors"
          ]
        },
        {
          "conceptId": "C115809",
          "definition": "Paced Auditory Serial Addition Test - Total correct.",
          "preferredTerm": "PASAT - Total Correct",
          "submissionValue": "PASAT1-Total Correct",
          "synonyms": [
            "PASAT1-Total Correct"
          ]
        },
        {
          "conceptId": "C115812",
          "definition": "Paced Auditory Serial Addition Test - Total correct in first half.",
          "preferredTerm": "PASAT - Total Correct in First Half",
          "submissionValue": "PASAT1-Total Correct in First Half",
          "synonyms": [
            "PASAT1-Total Correct in First Half"
          ]
        },
        {
          "conceptId": "C115813",
          "definition": "Paced Auditory Serial Addition Test - Total correct in second half.",
          "preferredTerm": "PASAT - Total Correct in Second Half",
          "submissionValue": "PASAT1-Total Correct in Second Half",
          "synonyms": [
            "PASAT1-Total Correct in Second Half"
          ]
        },
        {
          "conceptId": "C115815",
          "definition": "Paced Auditory Serial Addition Test - Total omission errors.",
          "preferredTerm": "PASAT - Total Omission Errors",
          "submissionValue": "PASAT1-Total Omission Errors",
          "synonyms": [
            "PASAT1-Total Omission Errors"
          ]
        }
      ]
    },
    {
      "conceptId": "C115396",
      "definition": "Symbol Digit Modalities Test test code.",
      "extensible": "No",
      "name": "FT-Symbol Digit Modalities Functional Test Test Code",
      "preferredTerm": "CDISC Functional Test SDMT Test Code Terminology",
      "submissionValue": "SDMT TESTCD",
      "synonyms": [
        "FT-Symbol Digit Modalities Functional Test Test Code"
      ],
      "terms": [
        {
          "conceptId": "C115816",
          "definition": "Symbol Digit Modalities Test - Total score.",
          "preferredTerm": "SDMT - Total Score",
          "submissionValue": "SDMT0101",
          "synonyms": [
            "SDMT01-Total Score"
          ]
        }
      ]
    },
    {
      "conceptId": "C115395",
      "definition": "Symbol Digit Modalities Test test name.",
      "extensible": "No",
      "name": "FT-Symbol Digit Modalities Functional Test Test Name",
      "preferredTerm": "CDISC Functional Test SDMT Test Name Terminology",
      "submissionValue": "SDMT TEST",
      "synonyms": [
        "FT-Symbol Digit Modalities Functional Test Test Name"
      ],
      "terms": [
        {
          "conceptId": "C115816",
          "definition": "Symbol Digit Modalities Test - Total score.",
          "preferredTerm": "SDMT - Total Score",
          "submissionValue": "SDMT01-Total Score",
          "synonyms": [
            "SDMT01-Total Score"
          ]
        }
      ]
    },
    {
      "conceptId": "C115398",
      "definition": "Timed 25-Foot Walk Test test code.",
      "extensible": "No",
      "name": "FT-Timed 25-Foot Walk Functional Test Test Code",
      "preferredTerm": "CDISC Functional Test T25FW Test Code Terminology",
      "submissionValue": "T25FW TESTCD",
      "synonyms": [
        "FT-Timed 25-Foot Walk Functional Test Test Code"
      ],
      "terms": [
        {
          "conceptId": "C115817",
          "definition": "Timed 25-Foot Walk - Time in seconds to complete 25-foot walk.",
          "preferredTerm": "T25FW - Time to Complete 25-Foot Walk",
          "submissionValue": "T25FW101",
          "synonyms": [
            "T25FW1-Time to Complete 25-Foot Walk"
          ]
        },
        {
          "conceptId": "C115818",
          "definition": "Timed 25-Foot Walk - Did it take more than two attempts to get two successful trials?",
          "preferredTerm": "T25FW - More Than Two Attempts",
          "submissionValue": "T25FW102",
          "synonyms": [
            "T25FW1-More Than Two Attempts"
          ]
        }
      ]
    },
    {
      "conceptId": "C115397",
      "definition": "Timed 25-Foot Walk Test test name.",
      "extensible": "No",
      "name": "FT-Timed 25-Foot Walk Functional Test Test Name",
      "preferredTerm": "CDISC Functional Test T25FW Test Name Terminology",
      "submissionValue": "T25FW TEST",
      "synonyms": [
        "FT-Timed 25-Foot Walk Functional Test Test Name"
      ],
      "terms": [
        {
          "conceptId": "C115818",
          "definition": "Timed 25-Foot Walk - Did it take more than two attempts to get two successful trials?",
          "preferredTerm": "T25FW - More Than Two Attempts",
          "submissionValue": "T25FW1-More Than Two Attempts",
          "synonyms": [
            "T25FW1-More Than Two Attempts"
          ]
        },
        {
          "conceptId": "C115817",
          "definition": "Timed 25-Foot Walk - Time in seconds to complete 25-foot walk.",
          "preferredTerm": "T25FW - Time to Complete 25-Foot Walk",
          "submissionValue": "T25FW1-Time to Complete 25-Foot Walk",
          "synonyms": [
            "T25FW1-Time to Complete 25-Foot Walk"
          ]
        }
      ]
    },
    {
      "conceptId": "C115400",
      "definition": "Timed Up and Go Test test code.",
      "extensible": "No",
      "name": "FT-Timed Up and Go Functional Test Test Code",
      "preferredTerm": "CDISC Functional Test TUG Test Code Terminology",
      "submissionValue": "TUG TESTCD",
      "synonyms": [
        "FT-Timed Up and Go Functional Test Test Code"
      ],
      "terms": [
        {
          "conceptId": "C115819",
          "definition": "Timed Up and Go - Time in seconds to complete TUG test.",
          "preferredTerm": "TUG - Time to Complete TUG Test",
          "submissionValue": "TUG0101",
          "synonyms": [
            "TUG01-Time to Complete TUG Test"
          ]
        }
      ]
    },
    {
      "conceptId": "C115399",
      "definition": "Timed Up and Go Test test name.",
      "extensible": "No",
      "name": "FT-Timed Up and Go Functional Test Test Name",
      "preferredTerm": "CDISC Functional Test TUG Test Name Terminology",
      "submissionValue": "TUG TEST",
      "synonyms": [
        "FT-Timed Up and Go Functional Test Test Name"
      ],
      "terms": [
        {
          "conceptId": "C115819",
          "definition": "Timed Up and Go - Time in seconds to complete TUG test.",
          "preferredTerm": "TUG - Time to Complete TUG Test",
          "submissionValue": "TUG01-Time to Complete TUG Test",
          "synonyms": [
            "TUG01-Time to Complete TUG Test"
          ]
        }
      ]
    },
    {
      "conceptId": "C101805",
      "definition": "Abnormal Involuntary Movement Scale test code.",
      "extensible": "No",
      "name": "QS-Abnormal Involuntary Movement Scale Test Code",
      "preferredTerm": "CDISC Questionnaire AIMS Test Code Terminology",
      "submissionValue": "AIMS TESTCD",
      "synonyms": [
        "QS-Abnormal Involuntary Movement Scale Test Code"
      ],
      "terms": [
        {
          "conceptId": "C102034",
          "definition": "Abnormal Involuntary Movement Scale - Facial and Oral Movements, Muscles of facial expression, e.g., movements of forehead, eyebrows, periorbital area, cheeks. Include frowning, blinking, grimacing of upper face.",
          "preferredTerm": "AIMS - Muscles of Facial Expression",
          "submissionValue": "AIMS0101",
          "synonyms": [
            "AIMS01-Muscles of Facial Expression"
          ]
        },
        {
          "conceptId": "C102035",
          "definition": "Abnormal Involuntary Movement Scale - Facial and Oral Movements, Lips and perioral area, e.g., puckering, pouting, smacking.",
          "preferredTerm": "AIMS - Lips and Perioral Area",
          "submissionValue": "AIMS0102",
          "synonyms": [
            "AIMS01-Lips and Perioral Area"
          ]
        },
        {
          "conceptId": "C102036",
          "definition": "Abnormal Involuntary Movement Scale - Facial and Oral Movements, Jaw, e.g., biting, clenching, chewing, mouth opening, lateral movement.",
          "preferredTerm": "AIMS - Jaw",
          "submissionValue": "AIMS0103",
          "synonyms": [
            "AIMS01-Jaw"
          ]
        },
        {
          "conceptId": "C102037",
          "definition": "Abnormal Involuntary Movement Scale - Facial and Oral Movements, Tongue. Rate only increase in movement both in and out of mouth, not inability to sustain movement.",
          "preferredTerm": "AIMS - Tongue",
          "submissionValue": "AIMS0104",
          "synonyms": [
            "AIMS01-Tongue"
          ]
        },
        {
          "conceptId": "C102038",
          "definition": "Abnormal Involuntary Movement Scale - Extremity Movements, Upper (arms, wrists, hands, fingers). Include movements that are choreic (rapid, objectively purposeless, irregular, spontaneous) or athetoid (slow, irregular, complex, serpentine). Do not include tremor (repetitive, regular, rhythmic movements).",
          "preferredTerm": "AIMS - Upper Extremities",
          "submissionValue": "AIMS0105",
          "synonyms": [
            "AIMS01-Upper Extremities"
          ]
        },
        {
          "conceptId": "C102039",
          "definition": "Abnormal Involuntary Movement Scale - Extremity Movements, Lower (legs, knees, ankles, toes), e.g., lateral knee movement, foot tapping, heel dropping, foot squirming, inversion and eversion of foot.",
          "preferredTerm": "AIMS - Lower Extremities",
          "submissionValue": "AIMS0106",
          "synonyms": [
            "AIMS01-Lower Extremities"
          ]
        },
        {
          "conceptId": "C102040",
          "definition": "Abnormal Involuntary Movement Scale - Trunk Movements, Neck, shoulders, hips, e.g., rocking, twisting, squirming, pelvic gyrations. Include diaphragmatic movements.",
          "preferredTerm": "AIMS - Neck, Shoulders, Hips",
          "submissionValue": "AIMS0107",
          "synonyms": [
            "AIMS01-Neck, Shoulders, Hips"
          ]
        },
        {
          "conceptId": "C102041",
          "definition": "Abnormal Involuntary Movement Scale - Global Judgments, Severity of abnormal movements, based on the highest single score on the above items.",
          "preferredTerm": "AIMS - Severity of Abnormal Movements",
          "submissionValue": "AIMS0108",
          "synonyms": [
            "AIMS01-Severity of Abnormal Movements"
          ]
        },
        {
          "conceptId": "C102042",
          "definition": "Abnormal Involuntary Movement Scale - Global Judgments, Incapacitation due to abnormal movements.",
          "preferredTerm": "AIMS - Incapacitation Due to Abnormal Movements",
          "submissionValue": "AIMS0109",
          "synonyms": [
            "AIMS01-Incapacitation due Abn Movements"
          ]
        },
        {
          "conceptId": "C102043",
          "definition": "Abnormal Involuntary Movement Scale - Global Judgments, Patient's awareness of abnormal movements.",
          "preferredTerm": "AIMS - Patient's Awareness of Abnormal Movements",
          "submissionValue": "AIMS0110",
          "synonyms": [
            "AIMS01-Patient Awareness Abn Movements"
          ]
        },
        {
          "conceptId": "C102044",
          "definition": "Abnormal Involuntary Movement Scale - Dental Status, Current problems with teeth and/or dentures.",
          "preferredTerm": "AIMS - Current Teeth/Dentures Problems",
          "submissionValue": "AIMS0111",
          "synonyms": [
            "AIMS01-Current Problems Teeth/Dentures"
          ]
        },
        {
          "conceptId": "C102045",
          "definition": "Abnormal Involuntary Movement Scale - Dental Status, Does patient usually wear dentures?",
          "preferredTerm": "AIMS - Patient Usually Wears Dentures",
          "submissionValue": "AIMS0112",
          "synonyms": [
            "AIMS01-Patient Usually Wear Dentures"
          ]
        }
      ]
    },
    {
      "conceptId": "C101806",
      "definition": "Abnormal Involuntary Movement Scale test name.",
      "extensible": "No",
      "name": "QS-Abnormal Involuntary Movement Scale Test Name",
      "preferredTerm": "CDISC Questionnaire AIMS Test Name Terminology",
      "submissionValue": "AIMS TEST",
      "synonyms": [
        "QS-Abnormal Involuntary Movement Scale Test Name"
      ],
      "terms": [
        {
          "conceptId": "C102044",
          "definition": "Abnormal Involuntary Movement Scale - Dental Status, Current problems with teeth and/or dentures.",
          "preferredTerm": "AIMS - Current Teeth/Dentures Problems",
          "submissionValue": "AIMS01-Current Problems Teeth/Dentures",
          "synonyms": [
            "AIMS01-Current Problems Teeth/Dentures"
          ]
        },
        {
          "conceptId": "C102042",
          "definition": "Abnormal Involuntary Movement Scale - Global Judgments, Incapacitation due to abnormal movements.",
          "preferredTerm": "AIMS - Incapacitation Due to Abnormal Movements",
          "submissionValue": "AIMS01-Incapacitation due Abn Movements",
          "synonyms": [
            "AIMS01-Incapacitation due Abn Movements"
          ]
        },
        {
          "conceptId": "C102036",
          "definition": "Abnormal Involuntary Movement Scale - Facial and Oral Movements, Jaw, e.g., biting, clenching, chewing, mouth opening, lateral movement.",
          "preferredTerm": "AIMS - Jaw",
          "submissionValue": "AIMS01-Jaw",
          "synonyms": [
            "AIMS01-Jaw"
          ]
        },
        {
          "conceptId": "C102035",
          "definition": "Abnormal Involuntary Movement Scale - Facial and Oral Movements, Lips and perioral area, e.g., puckering, pouting, smacking.",
          "preferredTerm": "AIMS - Lips and Perioral Area",
          "submissionValue": "AIMS01-Lips and Perioral Area",
          "synonyms": [
            "AIMS01-Lips and Perioral Area"
          ]
        },
        {
          "conceptId": "C102039",
          "definition": "Abnormal Involuntary Movement Scale - Extremity Movements, Lower (legs, knees, ankles, toes), e.g., lateral knee movement, foot tapping, heel dropping, foot squirming, inversion and eversion of foot.",
          "preferredTerm": "AIMS - Lower Extremities",
          "submissionValue": "AIMS01-Lower Extremities",
          "synonyms": [
            "AIMS01-Lower Extremities"
          ]
        },
        {
          "conceptId": "C102034",
          "definition": "Abnormal Involuntary Movement Scale - Facial and Oral Movements, Muscles of facial expression, e.g., movements of forehead, eyebrows, periorbital area, cheeks. Include frowning, blinking, grimacing of upper face.",
          "preferredTerm": "AIMS - Muscles of Facial Expression",
          "submissionValue": "AIMS01-Muscles of Facial Expression",
          "synonyms": [
            "AIMS01-Muscles of Facial Expression"
          ]
        },
        {
          "conceptId": "C102040",
          "definition": "Abnormal Involuntary Movement Scale - Trunk Movements, Neck, shoulders, hips, e.g., rocking, twisting, squirming, pelvic gyrations. Include diaphragmatic movements.",
          "preferredTerm": "AIMS - Neck, Shoulders, Hips",
          "submissionValue": "AIMS01-Neck, Shoulders, Hips",
          "synonyms": [
            "AIMS01-Neck, Shoulders, Hips"
          ]
        },
        {
          "conceptId": "C102043",
          "definition": "Abnormal Involuntary Movement Scale - Global Judgments, Patient's awareness of abnormal movements.",
          "preferredTerm": "AIMS - Patient's Awareness of Abnormal Movements",
          "submissionValue": "AIMS01-Patient Awareness Abn Movements",
          "synonyms": [
            "AIMS01-Patient Awareness Abn Movements"
          ]
        },
        {
          "conceptId": "C102045",
          "definition": "Abnormal Involuntary Movement Scale - Dental Status, Does patient usually wear dentures?",
          "preferredTerm": "AIMS - Patient Usually Wears Dentures",
          "submissionValue": "AIMS01-Patient Usually Wear Dentures",
          "synonyms": [
            "AIMS01-Patient Usually Wear Dentures"
          ]
        },
        {
          "conceptId": "C102041",
          "definition": "Abnormal Involuntary Movement Scale - Global Judgments, Severity of abnormal movements, based on the highest single score on the above items.",
          "preferredTerm": "AIMS - Severity of Abnormal Movements",
          "submissionValue": "AIMS01-Severity of Abnormal Movements",
          "synonyms": [
            "AIMS01-Severity of Abnormal Movements"
          ]
        },
        {
          "conceptId": "C102037",
          "definition": "Abnormal Involuntary Movement Scale - Facial and Oral Movements, Tongue. Rate only increase in movement both in and out of mouth, not inability to sustain movement.",
          "preferredTerm": "AIMS - Tongue",
          "submissionValue": "AIMS01-Tongue",
          "synonyms": [
            "AIMS01-Tongue"
          ]
        },
        {
          "conceptId": "C102038",
          "definition": "Abnormal Involuntary Movement Scale - Extremity Movements, Upper (arms, wrists, hands, fingers). Include movements that are choreic (rapid, objectively purposeless, irregular, spontaneous) or athetoid (slow, irregular, complex, serpentine). Do not include tremor (repetitive, regular, rhythmic movements).",
          "preferredTerm": "AIMS - Upper Extremities",
          "submissionValue": "AIMS01-Upper Extremities",
          "synonyms": [
            "AIMS01-Upper Extremities"
          ]
        }
      ]
    },
    {
      "conceptId": "C101807",
      "definition": "ADNI AVLT test code.",
      "extensible": "No",
      "name": "QS-ADNI AVLT Test Code",
      "preferredTerm": "CDISC Questionnaire ADNI AVLT Test Code Terminology",
      "submissionValue": "AVLT TESTCD",
      "synonyms": [
        "QS-ADNI AVLT Test Code"
      ],
      "terms": [
        {
          "conceptId": "C101896",
          "definition": "Auditory Verbal Learning Test Version A - List A, Recall 1, Word 1.",
          "preferredTerm": "ADNI AVLT - List A Recall 1 Word 1",
          "submissionValue": "AVL01001",
          "synonyms": [
            "AVL01-List A Recall 1 Word 1"
          ]
        },
        {
          "conceptId": "C101897",
          "definition": "Auditory Verbal Learning Test Version A - List A, Recall 1, Word 2.",
          "preferredTerm": "ADNI AVLT - List A Recall 1 Word 2",
          "submissionValue": "AVL01002",
          "synonyms": [
            "AVL01-List A Recall 1 Word 2"
          ]
        },
        {
          "conceptId": "C101898",
          "definition": "Auditory Verbal Learning Test Version A - List A, Recall 1, Word 3.",
          "preferredTerm": "ADNI AVLT - List A Recall 1 Word 3",
          "submissionValue": "AVL01003",
          "synonyms": [
            "AVL01-List A Recall 1 Word 3"
          ]
        },
        {
          "conceptId": "C101899",
          "definition": "Auditory Verbal Learning Test Version A - List A, Recall 1, Word 4.",
          "preferredTerm": "ADNI AVLT - List A Recall 1 Word 4",
          "submissionValue": "AVL01004",
          "synonyms": [
            "AVL01-List A Recall 1 Word 4"
          ]
        },
        {
          "conceptId": "C101900",
          "definition": "Auditory Verbal Learning Test Version A - List A, Recall 1, Word 5.",
          "preferredTerm": "ADNI AVLT - List A Recall 1 Word 5",
          "submissionValue": "AVL01005",
          "synonyms": [
            "AVL01-List A Recall 1 Word 5"
          ]
        },
        {
          "conceptId": "C101901",
          "definition": "Auditory Verbal Learning Test Version A - List A, Recall 1, Word 6.",
          "preferredTerm": "ADNI AVLT - List A Recall 1 Word 6",
          "submissionValue": "AVL01006",
          "synonyms": [
            "AVL01-List A Recall 1 Word 6"
          ]
        },
        {
          "conceptId": "C101902",
          "definition": "Auditory Verbal Learning Test Version A - List A, Recall 1, Word 7.",
          "preferredTerm": "ADNI AVLT - List A Recall 1 Word 7",
          "submissionValue": "AVL01007",
          "synonyms": [
            "AVL01-List A Recall 1 Word 7"
          ]
        },
        {
          "conceptId": "C101903",
          "definition": "Auditory Verbal Learning Test Version A - List A, Recall 1, Word 8.",
          "preferredTerm": "ADNI AVLT - List A Recall 1 Word 8",
          "submissionValue": "AVL01008",
          "synonyms": [
            "AVL01-List A Recall 1 Word 8"
          ]
        },
        {
          "conceptId": "C101904",
          "definition": "Auditory Verbal Learning Test Version A - List A, Recall 1, Word 9.",
          "preferredTerm": "ADNI AVLT - List A Recall 1 Word 9",
          "submissionValue": "AVL01009",
          "synonyms": [
            "AVL01-List A Recall 1 Word 9"
          ]
        },
        {
          "conceptId": "C101905",
          "definition": "Auditory Verbal Learning Test Version A - List A, Recall 1, Word 10.",
          "preferredTerm": "ADNI AVLT - List A Recall 1 Word 10",
          "submissionValue": "AVL01010",
          "synonyms": [
            "AVL01-List A Recall 1 Word 10"
          ]
        },
        {
          "conceptId": "C101906",
          "definition": "Auditory Verbal Learning Test Version A - List A, Recall 1, Word 11.",
          "preferredTerm": "ADNI AVLT - List A Recall 1 Word 11",
          "submissionValue": "AVL01011",
          "synonyms": [
            "AVL01-List A Recall 1 Word 11"
          ]
        },
        {
          "conceptId": "C101907",
          "definition": "Auditory Verbal Learning Test Version A - List A, Recall 1, Word 12.",
          "preferredTerm": "ADNI AVLT - List A Recall 1 Word 12",
          "submissionValue": "AVL01012",
          "synonyms": [
            "AVL01-List A Recall 1 Word 12"
          ]
        },
        {
          "conceptId": "C101908",
          "definition": "Auditory Verbal Learning Test Version A - List A, Recall 1, Word 13.",
          "preferredTerm": "ADNI AVLT - List A Recall 1 Word 13",
          "submissionValue": "AVL01013",
          "synonyms": [
            "AVL01-List A Recall 1 Word 13"
          ]
        },
        {
          "conceptId": "C101909",
          "definition": "Auditory Verbal Learning Test Version A - List A, Recall 1, Word 14.",
          "preferredTerm": "ADNI AVLT - List A Recall 1 Word 14",
          "submissionValue": "AVL01014",
          "synonyms": [
            "AVL01-List A Recall 1 Word 14"
          ]
        },
        {
          "conceptId": "C101910",
          "definition": "Auditory Verbal Learning Test Version A - List A, Recall 1, Word 15.",
          "preferredTerm": "ADNI AVLT - List A Recall 1 Word 15",
          "submissionValue": "AVL01015",
          "synonyms": [
            "AVL01-List A Recall 1 Word 15"
          ]
        },
        {
          "conceptId": "C101911",
          "definition": "Auditory Verbal Learning Test Version A - The number of words recalled from List A, first attempt.",
          "preferredTerm": "ADNI AVLT - List A Recall 1 Total",
          "submissionValue": "AVL01016",
          "synonyms": [
            "AVL01-List A Recall 1 Total"
          ]
        },
        {
          "conceptId": "C101912",
          "definition": "Auditory Verbal Learning Test Version A - The number of intrusions while recalling List A, first attempt.",
          "preferredTerm": "ADNI AVLT - List A Intrusions 1",
          "submissionValue": "AVL01017",
          "synonyms": [
            "AVL01-List A Intrusions 1"
          ]
        },
        {
          "conceptId": "C101913",
          "definition": "Auditory Verbal Learning Test Version A - List A, Recall 2, Word 1.",
          "preferredTerm": "ADNI AVLT - List A Recall 2 Word 1",
          "submissionValue": "AVL01018",
          "synonyms": [
            "AVL01-List A Recall 2 Word 1"
          ]
        },
        {
          "conceptId": "C101914",
          "definition": "Auditory Verbal Learning Test Version A - List A, Recall 2, Word 2.",
          "preferredTerm": "ADNI AVLT - List A Recall 2 Word 2",
          "submissionValue": "AVL01019",
          "synonyms": [
            "AVL01-List A Recall 2 Word 2"
          ]
        },
        {
          "conceptId": "C101915",
          "definition": "Auditory Verbal Learning Test Version A - List A, Recall 2, Word 3.",
          "preferredTerm": "ADNI AVLT - List A Recall 2 Word 3",
          "submissionValue": "AVL01020",
          "synonyms": [
            "AVL01-List A Recall 2 Word 3"
          ]
        },
        {
          "conceptId": "C101916",
          "definition": "Auditory Verbal Learning Test Version A - List A, Recall 2, Word 4.",
          "preferredTerm": "ADNI AVLT - List A Recall 2 Word 4",
          "submissionValue": "AVL01021",
          "synonyms": [
            "AVL01-List A Recall 2 Word 4"
          ]
        },
        {
          "conceptId": "C101917",
          "definition": "Auditory Verbal Learning Test Version A - List A, Recall 2, Word 5.",
          "preferredTerm": "ADNI AVLT - List A Recall 2 Word 5",
          "submissionValue": "AVL01022",
          "synonyms": [
            "AVL01-List A Recall 2 Word 5"
          ]
        },
        {
          "conceptId": "C101918",
          "definition": "Auditory Verbal Learning Test Version A - List A, Recall 2, Word 6.",
          "preferredTerm": "ADNI AVLT - List A Recall 2 Word 6",
          "submissionValue": "AVL01023",
          "synonyms": [
            "AVL01-List A Recall 2 Word 6"
          ]
        },
        {
          "conceptId": "C101919",
          "definition": "Auditory Verbal Learning Test Version A - List A, Recall 2, Word 7.",
          "preferredTerm": "ADNI AVLT - List A Recall 2 Word 7",
          "submissionValue": "AVL01024",
          "synonyms": [
            "AVL01-List A Recall 2 Word 7"
          ]
        },
        {
          "conceptId": "C101920",
          "definition": "Auditory Verbal Learning Test Version A - List A, Recall 2, Word 8.",
          "preferredTerm": "ADNI AVLT - List A Recall 2 Word 8",
          "submissionValue": "AVL01025",
          "synonyms": [
            "AVL01-List A Recall 2 Word 8"
          ]
        },
        {
          "conceptId": "C101921",
          "definition": "Auditory Verbal Learning Test Version A - List A, Recall 2, Word 9.",
          "preferredTerm": "ADNI AVLT - List A Recall 2 Word 9",
          "submissionValue": "AVL01026",
          "synonyms": [
            "AVL01-List A Recall 2 Word 9"
          ]
        },
        {
          "conceptId": "C101922",
          "definition": "Auditory Verbal Learning Test Version A - List A, Recall 2, Word 10.",
          "preferredTerm": "ADNI AVLT - List A Recall 2 Word 10",
          "submissionValue": "AVL01027",
          "synonyms": [
            "AVL01-List A Recall 2 Word 10"
          ]
        },
        {
          "conceptId": "C101923",
          "definition": "Auditory Verbal Learning Test Version A - List A, Recall 2, Word 11.",
          "preferredTerm": "ADNI AVLT - List A Recall 2 Word 11",
          "submissionValue": "AVL01028",
          "synonyms": [
            "AVL01-List A Recall 2 Word 11"
          ]
        },
        {
          "conceptId": "C101924",
          "definition": "Auditory Verbal Learning Test Version A - List A, Recall 2, Word 12.",
          "preferredTerm": "ADNI AVLT - List A Recall 2 Word 12",
          "submissionValue": "AVL01029",
          "synonyms": [
            "AVL01-List A Recall 2 Word 12"
          ]
        },
        {
          "conceptId": "C101925",
          "definition": "Auditory Verbal Learning Test Version A - List A, Recall 2, Word 13.",
          "preferredTerm": "ADNI AVLT - List A Recall 2 Word 13",
          "submissionValue": "AVL01030",
          "synonyms": [
            "AVL01-List A Recall 2 Word 13"
          ]
        },
        {
          "conceptId": "C101926",
          "definition": "Auditory Verbal Learning Test Version A - List A, Recall 2, Word 14.",
          "preferredTerm": "ADNI AVLT - List A Recall 2 Word 14",
          "submissionValue": "AVL01031",
          "synonyms": [
            "AVL01-List A Recall 2 Word 14"
          ]
        },
        {
          "conceptId": "C101927",
          "definition": "Auditory Verbal Learning Test Version A - List A, Recall 2, Word 15.",
          "preferredTerm": "ADNI AVLT - List A Recall 2 Word 15",
          "submissionValue": "AVL01032",
          "synonyms": [
            "AVL01-List A Recall 2 Word 15"
          ]
        },
        {
          "conceptId": "C101928",
          "definition": "Auditory Verbal Learning Test Version A - The number of words recalled from List A, second attempt.",
          "preferredTerm": "ADNI AVLT - List A Recall 2 Total",
          "submissionValue": "AVL01033",
          "synonyms": [
            "AVL01-List A Recall 2 Total"
          ]
        },
        {
          "conceptId": "C101929",
          "definition": "Auditory Verbal Learning Test Version A - The number of intrusions while recalling List A, second attempt.",
          "preferredTerm": "ADNI AVLT - List A Intrusions 2",
          "submissionValue": "AVL01034",
          "synonyms": [
            "AVL01-List A Intrusions 2"
          ]
        },
        {
          "conceptId": "C101930",
          "definition": "Auditory Verbal Learning Test Version A - List A, Recall 3, Word 1.",
          "preferredTerm": "ADNI AVLT - List A Recall 3 Word 1",
          "submissionValue": "AVL01035",
          "synonyms": [
            "AVL01-List A Recall 3 Word 1"
          ]
        },
        {
          "conceptId": "C101931",
          "definition": "Auditory Verbal Learning Test Version A - List A, Recall 3, Word 2.",
          "preferredTerm": "ADNI AVLT - List A Recall 3 Word 2",
          "submissionValue": "AVL01036",
          "synonyms": [
            "AVL01-List A Recall 3 Word 2"
          ]
        },
        {
          "conceptId": "C101932",
          "definition": "Auditory Verbal Learning Test Version A - List A, Recall 3, Word 3.",
          "preferredTerm": "ADNI AVLT - List A Recall 3 Word 3",
          "submissionValue": "AVL01037",
          "synonyms": [
            "AVL01-List A Recall 3 Word 3"
          ]
        },
        {
          "conceptId": "C101933",
          "definition": "Auditory Verbal Learning Test Version A - List A, Recall 3, Word 4.",
          "preferredTerm": "ADNI AVLT - List A Recall 3 Word 4",
          "submissionValue": "AVL01038",
          "synonyms": [
            "AVL01-List A Recall 3 Word 4"
          ]
        },
        {
          "conceptId": "C101934",
          "definition": "Auditory Verbal Learning Test Version A - List A, Recall 3, Word 5.",
          "preferredTerm": "ADNI AVLT - List A Recall 3 Word 5",
          "submissionValue": "AVL01039",
          "synonyms": [
            "AVL01-List A Recall 3 Word 5"
          ]
        },
        {
          "conceptId": "C101935",
          "definition": "Auditory Verbal Learning Test Version A - List A, Recall 3, Word 6.",
          "preferredTerm": "ADNI AVLT - List A Recall 3 Word 6",
          "submissionValue": "AVL01040",
          "synonyms": [
            "AVL01-List A Recall 3 Word 6"
          ]
        },
        {
          "conceptId": "C101936",
          "definition": "Auditory Verbal Learning Test Version A - List A, Recall 3, Word 7.",
          "preferredTerm": "ADNI AVLT - List A Recall 3 Word 7",
          "submissionValue": "AVL01041",
          "synonyms": [
            "AVL01-List A Recall 3 Word 7"
          ]
        },
        {
          "conceptId": "C101937",
          "definition": "Auditory Verbal Learning Test Version A - List A, Recall 3, Word 8.",
          "preferredTerm": "ADNI AVLT - List A Recall 3 Word 8",
          "submissionValue": "AVL01042",
          "synonyms": [
            "AVL01-List A Recall 3 Word 8"
          ]
        },
        {
          "conceptId": "C101938",
          "definition": "Auditory Verbal Learning Test Version A - List A, Recall 3, Word 9.",
          "preferredTerm": "ADNI AVLT - List A Recall 3 Word 9",
          "submissionValue": "AVL01043",
          "synonyms": [
            "AVL01-List A Recall 3 Word 9"
          ]
        },
        {
          "conceptId": "C101939",
          "definition": "Auditory Verbal Learning Test Version A - List A, Recall 3, Word 10.",
          "preferredTerm": "ADNI AVLT - List A Recall 3 Word 10",
          "submissionValue": "AVL01044",
          "synonyms": [
            "AVL01-List A Recall 3 Word 10"
          ]
        },
        {
          "conceptId": "C101940",
          "definition": "Auditory Verbal Learning Test Version A - List A, Recall 3, Word 11.",
          "preferredTerm": "ADNI AVLT - List A Recall 3 Word 11",
          "submissionValue": "AVL01045",
          "synonyms": [
            "AVL01-List A Recall 3 Word 11"
          ]
        },
        {
          "conceptId": "C101941",
          "definition": "Auditory Verbal Learning Test Version A - List A, Recall 3, Word 12.",
          "preferredTerm": "ADNI AVLT - List A Recall 3 Word 12",
          "submissionValue": "AVL01046",
          "synonyms": [
            "AVL01-List A Recall 3 Word 12"
          ]
        },
        {
          "conceptId": "C101942",
          "definition": "Auditory Verbal Learning Test Version A - List A, Recall 3, Word 13.",
          "preferredTerm": "ADNI AVLT - List A Recall 3 Word 13",
          "submissionValue": "AVL01047",
          "synonyms": [
            "AVL01-List A Recall 3 Word 13"
          ]
        },
        {
          "conceptId": "C101943",
          "definition": "Auditory Verbal Learning Test Version A - List A, Recall 3, Word 14.",
          "preferredTerm": "ADNI AVLT - List A Recall 3 Word 14",
          "submissionValue": "AVL01048",
          "synonyms": [
            "AVL01-List A Recall 3 Word 14"
          ]
        },
        {
          "conceptId": "C101944",
          "definition": "Auditory Verbal Learning Test Version A - List A, Recall 3, Word 15.",
          "preferredTerm": "ADNI AVLT - List A Recall 3 Word 15",
          "submissionValue": "AVL01049",
          "synonyms": [
            "AVL01-List A Recall 3 Word 15"
          ]
        },
        {
          "conceptId": "C101945",
          "definition": "Auditory Verbal Learning Test Version A - The number of words recalled from List A, third attempt.",
          "preferredTerm": "ADNI AVLT - List A Recall 3 Total",
          "submissionValue": "AVL01050",
          "synonyms": [
            "AVL01-List A Recall 3 Total"
          ]
        },
        {
          "conceptId": "C101946",
          "definition": "Auditory Verbal Learning Test Version A - The number of intrusions while recalling List A, third attempt.",
          "preferredTerm": "ADNI AVLT - List A Intrusions 3",
          "submissionValue": "AVL01051",
          "synonyms": [
            "AVL01-List A Intrusions 3"
          ]
        },
        {
          "conceptId": "C101947",
          "definition": "Auditory Verbal Learning Test Version A - List A, Recall 4, Word 1.",
          "preferredTerm": "ADNI AVLT - List A Recall 4 Word 1",
          "submissionValue": "AVL01052",
          "synonyms": [
            "AVL01-List A Recall 4 Word 1"
          ]
        },
        {
          "conceptId": "C101948",
          "definition": "Auditory Verbal Learning Test Version A - List A, Recall 4, Word 2.",
          "preferredTerm": "ADNI AVLT - List A Recall 4 Word 2",
          "submissionValue": "AVL01053",
          "synonyms": [
            "AVL01-List A Recall 4 Word 2"
          ]
        },
        {
          "conceptId": "C101949",
          "definition": "Auditory Verbal Learning Test Version A - List A, Recall 4, Word 3.",
          "preferredTerm": "ADNI AVLT - List A Recall 4 Word 3",
          "submissionValue": "AVL01054",
          "synonyms": [
            "AVL01-List A Recall 4 Word 3"
          ]
        },
        {
          "conceptId": "C101950",
          "definition": "Auditory Verbal Learning Test Version A - List A, Recall 4, Word 4.",
          "preferredTerm": "ADNI AVLT - List A Recall 4 Word 4",
          "submissionValue": "AVL01055",
          "synonyms": [
            "AVL01-List A Recall 4 Word 4"
          ]
        },
        {
          "conceptId": "C101951",
          "definition": "Auditory Verbal Learning Test Version A - List A, Recall 4, Word 5.",
          "preferredTerm": "ADNI AVLT - List A Recall 4 Word 5",
          "submissionValue": "AVL01056",
          "synonyms": [
            "AVL01-List A Recall 4 Word 5"
          ]
        },
        {
          "conceptId": "C101952",
          "definition": "Auditory Verbal Learning Test Version A - List A, Recall 4, Word 6.",
          "preferredTerm": "ADNI AVLT - List A Recall 4 Word 6",
          "submissionValue": "AVL01057",
          "synonyms": [
            "AVL01-List A Recall 4 Word 6"
          ]
        },
        {
          "conceptId": "C101953",
          "definition": "Auditory Verbal Learning Test Version A - List A, Recall 4, Word 7.",
          "preferredTerm": "ADNI AVLT - List A Recall 4 Word 7",
          "submissionValue": "AVL01058",
          "synonyms": [
            "AVL01-List A Recall 4 Word 7"
          ]
        },
        {
          "conceptId": "C101954",
          "definition": "Auditory Verbal Learning Test Version A - List A, Recall 4, Word 8.",
          "preferredTerm": "ADNI AVLT - List A Recall 4 Word 8",
          "submissionValue": "AVL01059",
          "synonyms": [
            "AVL01-List A Recall 4 Word 8"
          ]
        },
        {
          "conceptId": "C101955",
          "definition": "Auditory Verbal Learning Test Version A - List A, Recall 4, Word 9.",
          "preferredTerm": "ADNI AVLT - List A Recall 4 Word 9",
          "submissionValue": "AVL01060",
          "synonyms": [
            "AVL01-List A Recall 4 Word 9"
          ]
        },
        {
          "conceptId": "C101956",
          "definition": "Auditory Verbal Learning Test Version A - List A, Recall 4, Word 10.",
          "preferredTerm": "ADNI AVLT - List A Recall 4 Word 10",
          "submissionValue": "AVL01061",
          "synonyms": [
            "AVL01-List A Recall 4 Word 10"
          ]
        },
        {
          "conceptId": "C101957",
          "definition": "Auditory Verbal Learning Test Version A - List A, Recall 4, Word 11.",
          "preferredTerm": "ADNI AVLT - List A Recall 4 Word 11",
          "submissionValue": "AVL01062",
          "synonyms": [
            "AVL01-List A Recall 4 Word 11"
          ]
        },
        {
          "conceptId": "C101958",
          "definition": "Auditory Verbal Learning Test Version A - List A, Recall 4, Word 12.",
          "preferredTerm": "ADNI AVLT - List A Recall 4 Word 12",
          "submissionValue": "AVL01063",
          "synonyms": [
            "AVL01-List A Recall 4 Word 12"
          ]
        },
        {
          "conceptId": "C101959",
          "definition": "Auditory Verbal Learning Test Version A - List A, Recall 4, Word 13.",
          "preferredTerm": "ADNI AVLT - List A Recall 4 Word 13",
          "submissionValue": "AVL01064",
          "synonyms": [
            "AVL01-List A Recall 4 Word 13"
          ]
        },
        {
          "conceptId": "C101960",
          "definition": "Auditory Verbal Learning Test Version A - List A, Recall 4, Word 14.",
          "preferredTerm": "ADNI AVLT - List A Recall 4 Word 14",
          "submissionValue": "AVL01065",
          "synonyms": [
            "AVL01-List A Recall 4 Word 14"
          ]
        },
        {
          "conceptId": "C101961",
          "definition": "Auditory Verbal Learning Test Version A - List A, Recall 4, Word 15.",
          "preferredTerm": "ADNI AVLT - List A Recall 4 Word 15",
          "submissionValue": "AVL01066",
          "synonyms": [
            "AVL01-List A Recall 4 Word 15"
          ]
        },
        {
          "conceptId": "C101962",
          "definition": "Auditory Verbal Learning Test Version A - The number of words recalled from List A, fourth attempt.",
          "preferredTerm": "ADNI AVLT - List A Recall 4 Total",
          "submissionValue": "AVL01067",
          "synonyms": [
            "AVL01-List A Recall 4 Total"
          ]
        },
        {
          "conceptId": "C101963",
          "definition": "Auditory Verbal Learning Test Version A - The number of intrusions while recalling List A, fourth attempt.",
          "preferredTerm": "ADNI AVLT - List A Intrusions 4",
          "submissionValue": "AVL01068",
          "synonyms": [
            "AVL01-List A Intrusions 4"
          ]
        },
        {
          "conceptId": "C101964",
          "definition": "Auditory Verbal Learning Test Version A - List A, Recall 5, Word 1.",
          "preferredTerm": "ADNI AVLT - List A Recall 5 Word 1",
          "submissionValue": "AVL01069",
          "synonyms": [
            "AVL01-List A Recall 5 Word 1"
          ]
        },
        {
          "conceptId": "C101965",
          "definition": "Auditory Verbal Learning Test Version A - List A, Recall 5, Word 2.",
          "preferredTerm": "ADNI AVLT - List A Recall 5 Word 2",
          "submissionValue": "AVL01070",
          "synonyms": [
            "AVL01-List A Recall 5 Word 2"
          ]
        },
        {
          "conceptId": "C101966",
          "definition": "Auditory Verbal Learning Test Version A - List A, Recall 5, Word 3.",
          "preferredTerm": "ADNI AVLT - List A Recall 5 Word 3",
          "submissionValue": "AVL01071",
          "synonyms": [
            "AVL01-List A Recall 5 Word 3"
          ]
        },
        {
          "conceptId": "C101967",
          "definition": "Auditory Verbal Learning Test Version A - List A, Recall 5, Word 4.",
          "preferredTerm": "ADNI AVLT - List A Recall 5 Word 4",
          "submissionValue": "AVL01072",
          "synonyms": [
            "AVL01-List A Recall 5 Word 4"
          ]
        },
        {
          "conceptId": "C101968",
          "definition": "Auditory Verbal Learning Test Version A - List A, Recall 5, Word 5.",
          "preferredTerm": "ADNI AVLT - List A Recall 5 Word 5",
          "submissionValue": "AVL01073",
          "synonyms": [
            "AVL01-List A Recall 5 Word 5"
          ]
        },
        {
          "conceptId": "C101969",
          "definition": "Auditory Verbal Learning Test Version A - List A, Recall 5, Word 6.",
          "preferredTerm": "ADNI AVLT - List A Recall 5 Word 6",
          "submissionValue": "AVL01074",
          "synonyms": [
            "AVL01-List A Recall 5 Word 6"
          ]
        },
        {
          "conceptId": "C101970",
          "definition": "Auditory Verbal Learning Test Version A - List A, Recall 5, Word 7.",
          "preferredTerm": "ADNI AVLT - List A Recall 5 Word 7",
          "submissionValue": "AVL01075",
          "synonyms": [
            "AVL01-List A Recall 5 Word 7"
          ]
        },
        {
          "conceptId": "C101971",
          "definition": "Auditory Verbal Learning Test Version A - List A, Recall 5, Word 8.",
          "preferredTerm": "ADNI AVLT - List A Recall 5 Word 8",
          "submissionValue": "AVL01076",
          "synonyms": [
            "AVL01-List A Recall 5 Word 8"
          ]
        },
        {
          "conceptId": "C101972",
          "definition": "Auditory Verbal Learning Test Version A - List A, Recall 5, Word 9.",
          "preferredTerm": "ADNI AVLT - List A Recall 5 Word 9",
          "submissionValue": "AVL01077",
          "synonyms": [
            "AVL01-List A Recall 5 Word 9"
          ]
        },
        {
          "conceptId": "C101973",
          "definition": "Auditory Verbal Learning Test Version A - List A, Recall 5, Word 10.",
          "preferredTerm": "ADNI AVLT - List A Recall 5 Word 10",
          "submissionValue": "AVL01078",
          "synonyms": [
            "AVL01-List A Recall 5 Word 10"
          ]
        },
        {
          "conceptId": "C101974",
          "definition": "Auditory Verbal Learning Test Version A - List A, Recall 5, Word 11.",
          "preferredTerm": "ADNI AVLT - List A Recall 5 Word 11",
          "submissionValue": "AVL01079",
          "synonyms": [
            "AVL01-List A Recall 5 Word 11"
          ]
        },
        {
          "conceptId": "C101975",
          "definition": "Auditory Verbal Learning Test Version A - List A, Recall 5, Word 12.",
          "preferredTerm": "ADNI AVLT - List A Recall 5 Word 12",
          "submissionValue": "AVL01080",
          "synonyms": [
            "AVL01-List A Recall 5 Word 12"
          ]
        },
        {
          "conceptId": "C101976",
          "definition": "Auditory Verbal Learning Test Version A - List A, Recall 5, Word 13.",
          "preferredTerm": "ADNI AVLT - List A Recall 5 Word 13",
          "submissionValue": "AVL01081",
          "synonyms": [
            "AVL01-List A Recall 5 Word 13"
          ]
        },
        {
          "conceptId": "C101977",
          "definition": "Auditory Verbal Learning Test Version A - List A, Recall 5, Word 14.",
          "preferredTerm": "ADNI AVLT - List A Recall 5 Word 14",
          "submissionValue": "AVL01082",
          "synonyms": [
            "AVL01-List A Recall 5 Word 14"
          ]
        },
        {
          "conceptId": "C101978",
          "definition": "Auditory Verbal Learning Test Version A - List A, Recall 5, Word 15.",
          "preferredTerm": "ADNI AVLT - List A Recall 5 Word 15",
          "submissionValue": "AVL01083",
          "synonyms": [
            "AVL01-List A Recall 5 Word 15"
          ]
        },
        {
          "conceptId": "C101979",
          "definition": "Auditory Verbal Learning Test Version A - The number of words recalled from List A, fifth attempt.",
          "preferredTerm": "ADNI AVLT - List A Recall 5 Total",
          "submissionValue": "AVL01084",
          "synonyms": [
            "AVL01-List A Recall 5 Total"
          ]
        },
        {
          "conceptId": "C101980",
          "definition": "Auditory Verbal Learning Test Version A - The number of intrusions while recalling List A, fifth attempt.",
          "preferredTerm": "ADNI AVLT - List A Intrusions 5",
          "submissionValue": "AVL01085",
          "synonyms": [
            "AVL01-List A Intrusions 5"
          ]
        },
        {
          "conceptId": "C101981",
          "definition": "Auditory Verbal Learning Test Version A - List A, Recall 6 (after B Recall), Word 1.",
          "preferredTerm": "ADNI AVLT - List A Recall 6 (After B) Word 1",
          "submissionValue": "AVL01086",
          "synonyms": [
            "AVL01-List A Recall 6 (After B) Word 1"
          ]
        },
        {
          "conceptId": "C101982",
          "definition": "Auditory Verbal Learning Test Version A - List A, Recall 6 (after B Recall), Word 2.",
          "preferredTerm": "ADNI AVLT - List A Recall 6 (After B) Word 2",
          "submissionValue": "AVL01087",
          "synonyms": [
            "AVL01-List A Recall 6 (After B) Word 2"
          ]
        },
        {
          "conceptId": "C101983",
          "definition": "Auditory Verbal Learning Test Version A - List A, Recall 6 (after B Recall), Word 3.",
          "preferredTerm": "ADNI AVLT - List A Recall 6 (After B) Word 3",
          "submissionValue": "AVL01088",
          "synonyms": [
            "AVL01-List A Recall 6 (After B) Word 3"
          ]
        },
        {
          "conceptId": "C101984",
          "definition": "Auditory Verbal Learning Test Version A - List A, Recall 6 (after B Recall), Word 4.",
          "preferredTerm": "ADNI AVLT - List A Recall 6 (After B) Word 4",
          "submissionValue": "AVL01089",
          "synonyms": [
            "AVL01-List A Recall 6 (After B) Word 4"
          ]
        },
        {
          "conceptId": "C101985",
          "definition": "Auditory Verbal Learning Test Version A - List A, Recall 6 (after B Recall), Word 5.",
          "preferredTerm": "ADNI AVLT - List A Recall 6 (After B) Word 5",
          "submissionValue": "AVL01090",
          "synonyms": [
            "AVL01-List A Recall 6 (After B) Word 5"
          ]
        },
        {
          "conceptId": "C101986",
          "definition": "Auditory Verbal Learning Test Version A - List A, Recall 6 (after B Recall), Word 6.",
          "preferredTerm": "ADNI AVLT - List A Recall 6 (After B) Word 6",
          "submissionValue": "AVL01091",
          "synonyms": [
            "AVL01-List A Recall 6 (After B) Word 6"
          ]
        },
        {
          "conceptId": "C101987",
          "definition": "Auditory Verbal Learning Test Version A - List A, Recall 6 (after B Recall), Word 7.",
          "preferredTerm": "ADNI AVLT - List A Recall 6 (After B) Word 7",
          "submissionValue": "AVL01092",
          "synonyms": [
            "AVL01-List A Recall 6 (After B) Word 7"
          ]
        },
        {
          "conceptId": "C101988",
          "definition": "Auditory Verbal Learning Test Version A - List A, Recall 6 (after B Recall), Word 8.",
          "preferredTerm": "ADNI AVLT - List A Recall 6 (After B) Word 8",
          "submissionValue": "AVL01093",
          "synonyms": [
            "AVL01-List A Recall 6 (After B) Word 8"
          ]
        },
        {
          "conceptId": "C101989",
          "definition": "Auditory Verbal Learning Test Version A - List A, Recall 6 (after B Recall), Word 9.",
          "preferredTerm": "ADNI AVLT - List A Recall 6 (After B) Word 9",
          "submissionValue": "AVL01094",
          "synonyms": [
            "AVL01-List A Recall 6 (After B) Word 9"
          ]
        },
        {
          "conceptId": "C101990",
          "definition": "Auditory Verbal Learning Test Version A - List A, Recall 6 (after B Recall), Word 10.",
          "preferredTerm": "ADNI AVLT - List A Recall 6 (After B) Word 10",
          "submissionValue": "AVL01095",
          "synonyms": [
            "AVL01-List A Recall 6 (After B) Word 10"
          ]
        },
        {
          "conceptId": "C101991",
          "definition": "Auditory Verbal Learning Test Version A - List A, Recall 6 (after B Recall), Word 11.",
          "preferredTerm": "ADNI AVLT - List A Recall 6 (After B) Word 11",
          "submissionValue": "AVL01096",
          "synonyms": [
            "AVL01-List A Recall 6 (After B) Word 11"
          ]
        },
        {
          "conceptId": "C101992",
          "definition": "Auditory Verbal Learning Test Version A - List A, Recall 6 (after B Recall), Word 12.",
          "preferredTerm": "ADNI AVLT - List A Recall 6 (After B) Word 12",
          "submissionValue": "AVL01097",
          "synonyms": [
            "AVL01-List A Recall 6 (After B) Word 12"
          ]
        },
        {
          "conceptId": "C101993",
          "definition": "Auditory Verbal Learning Test Version A - List A, Recall 6 (after B Recall), Word 13.",
          "preferredTerm": "ADNI AVLT - List A Recall 6 (After B) Word 13",
          "submissionValue": "AVL01098",
          "synonyms": [
            "AVL01-List A Recall 6 (After B) Word 13"
          ]
        },
        {
          "conceptId": "C101994",
          "definition": "Auditory Verbal Learning Test Version A - List A, Recall 6 (after B Recall), Word 14.",
          "preferredTerm": "ADNI AVLT - List A Recall 6 (After B) Word 14",
          "submissionValue": "AVL01099",
          "synonyms": [
            "AVL01-List A Recall 6 (After B) Word 14"
          ]
        },
        {
          "conceptId": "C101995",
          "definition": "Auditory Verbal Learning Test Version A - List A, Recall 6 (after B Recall), Word 15.",
          "preferredTerm": "ADNI AVLT - List A Recall 6 (After B) Word 15",
          "submissionValue": "AVL01100",
          "synonyms": [
            "AVL01-List A Recall 6 (After B) Word 15"
          ]
        },
        {
          "conceptId": "C101996",
          "definition": "Auditory Verbal Learning Test Version A - The number of words recalled from List A, sixth attempt (after List B recall).",
          "preferredTerm": "ADNI AVLT - List A Recall 6 (After B) Total",
          "submissionValue": "AVL01101",
          "synonyms": [
            "AVL01-List A Recall 6 (After B) Total"
          ]
        },
        {
          "conceptId": "C101997",
          "definition": "Auditory Verbal Learning Test Version A - The number of intrusions while recalling List A, sixth attempt (after List B recall).",
          "preferredTerm": "ADNI AVLT - List A Intrusions 6",
          "submissionValue": "AVL01102",
          "synonyms": [
            "AVL01-List A Intrusions 6"
          ]
        },
        {
          "conceptId": "C101998",
          "definition": "Auditory Verbal Learning Test Version A - List B, Word 1.",
          "preferredTerm": "ADNI AVLT - List B Recall Word 1",
          "submissionValue": "AVL01103",
          "synonyms": [
            "AVL01-List B Recall Word 1"
          ]
        },
        {
          "conceptId": "C101999",
          "definition": "Auditory Verbal Learning Test Version A - List B, Word 2.",
          "preferredTerm": "ADNI AVLT - List B Recall Word 2",
          "submissionValue": "AVL01104",
          "synonyms": [
            "AVL01-List B Recall Word 2"
          ]
        },
        {
          "conceptId": "C102000",
          "definition": "Auditory Verbal Learning Test Version A - List B, Word 3.",
          "preferredTerm": "ADNI AVLT - List B Recall Word 3",
          "submissionValue": "AVL01105",
          "synonyms": [
            "AVL01-List B Recall Word 3"
          ]
        },
        {
          "conceptId": "C102001",
          "definition": "Auditory Verbal Learning Test Version A - List B, Word 4.",
          "preferredTerm": "ADNI AVLT - List B Recall Word 4",
          "submissionValue": "AVL01106",
          "synonyms": [
            "AVL01-List B Recall Word 4"
          ]
        },
        {
          "conceptId": "C102002",
          "definition": "Auditory Verbal Learning Test Version A - List B, Word 5.",
          "preferredTerm": "ADNI AVLT - List B Recall Word 5",
          "submissionValue": "AVL01107",
          "synonyms": [
            "AVL01-List B Recall Word 5"
          ]
        },
        {
          "conceptId": "C102003",
          "definition": "Auditory Verbal Learning Test Version A - List B, Word 6.",
          "preferredTerm": "ADNI AVLT - List B Recall Word 6",
          "submissionValue": "AVL01108",
          "synonyms": [
            "AVL01-List B Recall Word 6"
          ]
        },
        {
          "conceptId": "C102004",
          "definition": "Auditory Verbal Learning Test Version A - List B, Word 7.",
          "preferredTerm": "ADNI AVLT - List B Recall Word 7",
          "submissionValue": "AVL01109",
          "synonyms": [
            "AVL01-List B Recall Word 7"
          ]
        },
        {
          "conceptId": "C102005",
          "definition": "Auditory Verbal Learning Test Version A - List B, Word 8.",
          "preferredTerm": "ADNI AVLT - List B Recall Word 8",
          "submissionValue": "AVL01110",
          "synonyms": [
            "AVL01-List B Recall Word 8"
          ]
        },
        {
          "conceptId": "C102006",
          "definition": "Auditory Verbal Learning Test Version A - List B, Word 9.",
          "preferredTerm": "ADNI AVLT - List B Recall Word 9",
          "submissionValue": "AVL01111",
          "synonyms": [
            "AVL01-List B Recall Word 9"
          ]
        },
        {
          "conceptId": "C102007",
          "definition": "Auditory Verbal Learning Test Version A - List B, Word 10.",
          "preferredTerm": "ADNI AVLT - List B Recall Word 10",
          "submissionValue": "AVL01112",
          "synonyms": [
            "AVL01-List B Recall Word 10"
          ]
        },
        {
          "conceptId": "C102008",
          "definition": "Auditory Verbal Learning Test Version A - List B, Word 11.",
          "preferredTerm": "ADNI AVLT - List B Recall Word 11",
          "submissionValue": "AVL01113",
          "synonyms": [
            "AVL01-List B Recall Word 11"
          ]
        },
        {
          "conceptId": "C102009",
          "definition": "Auditory Verbal Learning Test Version A - List B, Word 12.",
          "preferredTerm": "ADNI AVLT - List B Recall Word 12",
          "submissionValue": "AVL01114",
          "synonyms": [
            "AVL01-List B Recall Word 12"
          ]
        },
        {
          "conceptId": "C102010",
          "definition": "Auditory Verbal Learning Test Version A - List B, Word 13.",
          "preferredTerm": "ADNI AVLT - List B Recall Word 13",
          "submissionValue": "AVL01115",
          "synonyms": [
            "AVL01-List B Recall Word 13"
          ]
        },
        {
          "conceptId": "C102011",
          "definition": "Auditory Verbal Learning Test Version A - List B, Word 14.",
          "preferredTerm": "ADNI AVLT - List B Recall Word 14",
          "submissionValue": "AVL01116",
          "synonyms": [
            "AVL01-List B Recall Word 14"
          ]
        },
        {
          "conceptId": "C102012",
          "definition": "Auditory Verbal Learning Test Version A - List B, Word 15.",
          "preferredTerm": "ADNI AVLT - List B Recall Word 15",
          "submissionValue": "AVL01117",
          "synonyms": [
            "AVL01-List B Recall Word 15"
          ]
        },
        {
          "conceptId": "C102013",
          "definition": "Auditory Verbal Learning Test Version A - The number of words recalled from List B.",
          "preferredTerm": "ADNI AVLT - List B Recall Total",
          "submissionValue": "AVL01118",
          "synonyms": [
            "AVL01-List B Recall Total"
          ]
        },
        {
          "conceptId": "C102014",
          "definition": "Auditory Verbal Learning Test Version A - The number of intrusions while recalling List B.",
          "preferredTerm": "ADNI AVLT - List B Intrusions",
          "submissionValue": "AVL01119",
          "synonyms": [
            "AVL01-List B Intrusions"
          ]
        },
        {
          "conceptId": "C102015",
          "definition": "Auditory Verbal Learning Test Version A - List A, 30 Minute Delay Recall, Word 1.",
          "preferredTerm": "ADNI AVLT - List A 30 Min Delay Recall Word 1",
          "submissionValue": "AVL01120",
          "synonyms": [
            "AVL01-List A 30 Min Delay Recall Word 1"
          ]
        },
        {
          "conceptId": "C102016",
          "definition": "Auditory Verbal Learning Test Version A - List A, 30 Minute Delay Recall, Word 2.",
          "preferredTerm": "ADNI AVLT - List A 30 Min Delay Recall Word 2",
          "submissionValue": "AVL01121",
          "synonyms": [
            "AVL01-List A 30 Min Delay Recall Word 2"
          ]
        },
        {
          "conceptId": "C102017",
          "definition": "Auditory Verbal Learning Test Version A - List A, 30 Minute Delay Recall, Word 3.",
          "preferredTerm": "ADNI AVLT - List A 30 Min Delay Recall Word 3",
          "submissionValue": "AVL01122",
          "synonyms": [
            "AVL01-List A 30 Min Delay Recall Word 3"
          ]
        },
        {
          "conceptId": "C102018",
          "definition": "Auditory Verbal Learning Test Version A - List A, 30 Minute Delay Recall, Word 4.",
          "preferredTerm": "ADNI AVLT - List A 30 Min Delay Recall Word 4",
          "submissionValue": "AVL01123",
          "synonyms": [
            "AVL01-List A 30 Min Delay Recall Word 4"
          ]
        },
        {
          "conceptId": "C102019",
          "definition": "Auditory Verbal Learning Test Version A - List A, 30 Minute Delay Recall, Word 5.",
          "preferredTerm": "ADNI AVLT - List A 30 Min Delay Recall Word 5",
          "submissionValue": "AVL01124",
          "synonyms": [
            "AVL01-List A 30 Min Delay Recall Word 5"
          ]
        },
        {
          "conceptId": "C102020",
          "definition": "Auditory Verbal Learning Test Version A - List A, 30 Minute Delay Recall, Word 6.",
          "preferredTerm": "ADNI AVLT - List A 30 Min Delay Recall Word 6",
          "submissionValue": "AVL01125",
          "synonyms": [
            "AVL01-List A 30 Min Delay Recall Word 6"
          ]
        },
        {
          "conceptId": "C102021",
          "definition": "Auditory Verbal Learning Test Version A - List A, 30 Minute Delay Recall, Word 7.",
          "preferredTerm": "ADNI AVLT - List A 30 Min Delay Recall Word 7",
          "submissionValue": "AVL01126",
          "synonyms": [
            "AVL01-List A 30 Min Delay Recall Word 7"
          ]
        },
        {
          "conceptId": "C102022",
          "definition": "Auditory Verbal Learning Test Version A - List A, 30 Minute Delay Recall, Word 8.",
          "preferredTerm": "ADNI AVLT - List A 30 Min Delay Recall Word 8",
          "submissionValue": "AVL01127",
          "synonyms": [
            "AVL01-List A 30 Min Delay Recall Word 8"
          ]
        },
        {
          "conceptId": "C102023",
          "definition": "Auditory Verbal Learning Test Version A - List A, 30 Minute Delay Recall, Word 9.",
          "preferredTerm": "ADNI AVLT - List A 30 Min Delay Recall Word 9",
          "submissionValue": "AVL01128",
          "synonyms": [
            "AVL01-List A 30 Min Delay Recall Word 9"
          ]
        },
        {
          "conceptId": "C102024",
          "definition": "Auditory Verbal Learning Test Version A - List A, 30 Minute Delay Recall, Word 10.",
          "preferredTerm": "ADNI AVLT - List A 30 Min Delay Recall Word 10",
          "submissionValue": "AVL01129",
          "synonyms": [
            "AVL01-List A 30 Min Delay Recall Word 10"
          ]
        },
        {
          "conceptId": "C102025",
          "definition": "Auditory Verbal Learning Test Version A - List A, 30 Minute Delay Recall, Word 11.",
          "preferredTerm": "ADNI AVLT - List A 30 Min Delay Recall Word 11",
          "submissionValue": "AVL01130",
          "synonyms": [
            "AVL01-List A 30 Min Delay Recall Word 11"
          ]
        },
        {
          "conceptId": "C102026",
          "definition": "Auditory Verbal Learning Test Version A - List A, 30 Minute Delay Recall, Word 12.",
          "preferredTerm": "ADNI AVLT - List A 30 Min Delay Recall Word 12",
          "submissionValue": "AVL01131",
          "synonyms": [
            "AVL01-List A 30 Min Delay Recall Word 12"
          ]
        },
        {
          "conceptId": "C102027",
          "definition": "Auditory Verbal Learning Test Version A - List A, 30 Minute Delay Recall, Word 13.",
          "preferredTerm": "ADNI AVLT - List A 30 Min Delay Recall Word 13",
          "submissionValue": "AVL01132",
          "synonyms": [
            "AVL01-List A 30 Min Delay Recall Word 13"
          ]
        },
        {
          "conceptId": "C102028",
          "definition": "Auditory Verbal Learning Test Version A - List A, 30 Minute Delay Recall, Word 14.",
          "preferredTerm": "ADNI AVLT - List A 30 Min Delay Recall Word 14",
          "submissionValue": "AVL01133",
          "synonyms": [
            "AVL01-List A 30 Min Delay Recall Word 14"
          ]
        },
        {
          "conceptId": "C102029",
          "definition": "Auditory Verbal Learning Test Version A - List A, 30 Minute Delay Recall, Word 15.",
          "preferredTerm": "ADNI AVLT - List A 30 Min Delay Recall Word 15",
          "submissionValue": "AVL01134",
          "synonyms": [
            "AVL01-List A 30 Min Delay Recall Word 15"
          ]
        },
        {
          "conceptId": "C102030",
          "definition": "Auditory Verbal Learning Test Version A - The number of words recalled from List A, 30 Minute Delay recall.",
          "preferredTerm": "ADNI AVLT - List A 30 Min Delay Recall Total",
          "submissionValue": "AVL01135",
          "synonyms": [
            "AVL01-List A 30 Min Delay Recall Total"
          ]
        },
        {
          "conceptId": "C102031",
          "definition": "Auditory Verbal Learning Test Version A - The number of intrusions while recalling List A, 30 Minute Delay.",
          "preferredTerm": "ADNI AVLT - List A 30 Min Delay Intrusions",
          "submissionValue": "AVL01136",
          "synonyms": [
            "AVL01-List A 30 Min Delay Intrusions"
          ]
        },
        {
          "conceptId": "C102032",
          "definition": "Auditory Verbal Learning Test Version A - The number of words correct on recognition test.",
          "preferredTerm": "ADNI AVLT - List A Recognition Total",
          "submissionValue": "AVL01137",
          "synonyms": [
            "AVL01-List A Recognition Total"
          ]
        },
        {
          "conceptId": "C102033",
          "definition": "Auditory Verbal Learning Test Version A - The number of intrusions on recognition test.",
          "preferredTerm": "ADNI AVLT - List A Recognition Intrusions",
          "submissionValue": "AVL01138",
          "synonyms": [
            "AVL01-List A Recognition Intrusions"
          ]
        }
      ]
    },
    {
      "conceptId": "C101808",
      "definition": "ADNI AVLT test name.",
      "extensible": "No",
      "name": "QS-ADNI AVLT Test Name",
      "preferredTerm": "CDISC Questionnaire ADNI AVLT Test Name Terminology",
      "submissionValue": "AVLT TEST",
      "synonyms": [
        "QS-ADNI AVLT Test Name"
      ],
      "terms": [
        {
          "conceptId": "C102031",
          "definition": "Auditory Verbal Learning Test Version A - The number of intrusions while recalling List A, 30 Minute Delay.",
          "preferredTerm": "ADNI AVLT - List A 30 Min Delay Intrusions",
          "submissionValue": "AVL01-List A 30 Min Delay Intrusions",
          "synonyms": [
            "AVL01-List A 30 Min Delay Intrusions"
          ]
        },
        {
          "conceptId": "C102030",
          "definition": "Auditory Verbal Learning Test Version A - The number of words recalled from List A, 30 Minute Delay recall.",
          "preferredTerm": "ADNI AVLT - List A 30 Min Delay Recall Total",
          "submissionValue": "AVL01-List A 30 Min Delay Recall Total",
          "synonyms": [
            "AVL01-List A 30 Min Delay Recall Total"
          ]
        },
        {
          "conceptId": "C102015",
          "definition": "Auditory Verbal Learning Test Version A - List A, 30 Minute Delay Recall, Word 1.",
          "preferredTerm": "ADNI AVLT - List A 30 Min Delay Recall Word 1",
          "submissionValue": "AVL01-List A 30 Min Delay Recall Word 1",
          "synonyms": [
            "AVL01-List A 30 Min Delay Recall Word 1"
          ]
        },
        {
          "conceptId": "C102024",
          "definition": "Auditory Verbal Learning Test Version A - List A, 30 Minute Delay Recall, Word 10.",
          "preferredTerm": "ADNI AVLT - List A 30 Min Delay Recall Word 10",
          "submissionValue": "AVL01-List A 30 Min Delay Recall Word 10",
          "synonyms": [
            "AVL01-List A 30 Min Delay Recall Word 10"
          ]
        },
        {
          "conceptId": "C102025",
          "definition": "Auditory Verbal Learning Test Version A - List A, 30 Minute Delay Recall, Word 11.",
          "preferredTerm": "ADNI AVLT - List A 30 Min Delay Recall Word 11",
          "submissionValue": "AVL01-List A 30 Min Delay Recall Word 11",
          "synonyms": [
            "AVL01-List A 30 Min Delay Recall Word 11"
          ]
        },
        {
          "conceptId": "C102026",
          "definition": "Auditory Verbal Learning Test Version A - List A, 30 Minute Delay Recall, Word 12.",
          "preferredTerm": "ADNI AVLT - List A 30 Min Delay Recall Word 12",
          "submissionValue": "AVL01-List A 30 Min Delay Recall Word 12",
          "synonyms": [
            "AVL01-List A 30 Min Delay Recall Word 12"
          ]
        },
        {
          "conceptId": "C102027",
          "definition": "Auditory Verbal Learning Test Version A - List A, 30 Minute Delay Recall, Word 13.",
          "preferredTerm": "ADNI AVLT - List A 30 Min Delay Recall Word 13",
          "submissionValue": "AVL01-List A 30 Min Delay Recall Word 13",
          "synonyms": [
            "AVL01-List A 30 Min Delay Recall Word 13"
          ]
        },
        {
          "conceptId": "C102028",
          "definition": "Auditory Verbal Learning Test Version A - List A, 30 Minute Delay Recall, Word 14.",
          "preferredTerm": "ADNI AVLT - List A 30 Min Delay Recall Word 14",
          "submissionValue": "AVL01-List A 30 Min Delay Recall Word 14",
          "synonyms": [
            "AVL01-List A 30 Min Delay Recall Word 14"
          ]
        },
        {
          "conceptId": "C102029",
          "definition": "Auditory Verbal Learning Test Version A - List A, 30 Minute Delay Recall, Word 15.",
          "preferredTerm": "ADNI AVLT - List A 30 Min Delay Recall Word 15",
          "submissionValue": "AVL01-List A 30 Min Delay Recall Word 15",
          "synonyms": [
            "AVL01-List A 30 Min Delay Recall Word 15"
          ]
        },
        {
          "conceptId": "C102016",
          "definition": "Auditory Verbal Learning Test Version A - List A, 30 Minute Delay Recall, Word 2.",
          "preferredTerm": "ADNI AVLT - List A 30 Min Delay Recall Word 2",
          "submissionValue": "AVL01-List A 30 Min Delay Recall Word 2",
          "synonyms": [
            "AVL01-List A 30 Min Delay Recall Word 2"
          ]
        },
        {
          "conceptId": "C102017",
          "definition": "Auditory Verbal Learning Test Version A - List A, 30 Minute Delay Recall, Word 3.",
          "preferredTerm": "ADNI AVLT - List A 30 Min Delay Recall Word 3",
          "submissionValue": "AVL01-List A 30 Min Delay Recall Word 3",
          "synonyms": [
            "AVL01-List A 30 Min Delay Recall Word 3"
          ]
        },
        {
          "conceptId": "C102018",
          "definition": "Auditory Verbal Learning Test Version A - List A, 30 Minute Delay Recall, Word 4.",
          "preferredTerm": "ADNI AVLT - List A 30 Min Delay Recall Word 4",
          "submissionValue": "AVL01-List A 30 Min Delay Recall Word 4",
          "synonyms": [
            "AVL01-List A 30 Min Delay Recall Word 4"
          ]
        },
        {
          "conceptId": "C102019",
          "definition": "Auditory Verbal Learning Test Version A - List A, 30 Minute Delay Recall, Word 5.",
          "preferredTerm": "ADNI AVLT - List A 30 Min Delay Recall Word 5",
          "submissionValue": "AVL01-List A 30 Min Delay Recall Word 5",
          "synonyms": [
            "AVL01-List A 30 Min Delay Recall Word 5"
          ]
        },
        {
          "conceptId": "C102020",
          "definition": "Auditory Verbal Learning Test Version A - List A, 30 Minute Delay Recall, Word 6.",
          "preferredTerm": "ADNI AVLT - List A 30 Min Delay Recall Word 6",
          "submissionValue": "AVL01-List A 30 Min Delay Recall Word 6",
          "synonyms": [
            "AVL01-List A 30 Min Delay Recall Word 6"
          ]
        },
        {
          "conceptId": "C102021",
          "definition": "Auditory Verbal Learning Test Version A - List A, 30 Minute Delay Recall, Word 7.",
          "preferredTerm": "ADNI AVLT - List A 30 Min Delay Recall Word 7",
          "submissionValue": "AVL01-List A 30 Min Delay Recall Word 7",
          "synonyms": [
            "AVL01-List A 30 Min Delay Recall Word 7"
          ]
        },
        {
          "conceptId": "C102022",
          "definition": "Auditory Verbal Learning Test Version A - List A, 30 Minute Delay Recall, Word 8.",
          "preferredTerm": "ADNI AVLT - List A 30 Min Delay Recall Word 8",
          "submissionValue": "AVL01-List A 30 Min Delay Recall Word 8",
          "synonyms": [
            "AVL01-List A 30 Min Delay Recall Word 8"
          ]
        },
        {
          "conceptId": "C102023",
          "definition": "Auditory Verbal Learning Test Version A - List A, 30 Minute Delay Recall, Word 9.",
          "preferredTerm": "ADNI AVLT - List A 30 Min Delay Recall Word 9",
          "submissionValue": "AVL01-List A 30 Min Delay Recall Word 9",
          "synonyms": [
            "AVL01-List A 30 Min Delay Recall Word 9"
          ]
        },
        {
          "conceptId": "C101912",
          "definition": "Auditory Verbal Learning Test Version A - The number of intrusions while recalling List A, first attempt.",
          "preferredTerm": "ADNI AVLT - List A Intrusions 1",
          "submissionValue": "AVL01-List A Intrusions 1",
          "synonyms": [
            "AVL01-List A Intrusions 1"
          ]
        },
        {
          "conceptId": "C101929",
          "definition": "Auditory Verbal Learning Test Version A - The number of intrusions while recalling List A, second attempt.",
          "preferredTerm": "ADNI AVLT - List A Intrusions 2",
          "submissionValue": "AVL01-List A Intrusions 2",
          "synonyms": [
            "AVL01-List A Intrusions 2"
          ]
        },
        {
          "conceptId": "C101946",
          "definition": "Auditory Verbal Learning Test Version A - The number of intrusions while recalling List A, third attempt.",
          "preferredTerm": "ADNI AVLT - List A Intrusions 3",
          "submissionValue": "AVL01-List A Intrusions 3",
          "synonyms": [
            "AVL01-List A Intrusions 3"
          ]
        },
        {
          "conceptId": "C101963",
          "definition": "Auditory Verbal Learning Test Version A - The number of intrusions while recalling List A, fourth attempt.",
          "preferredTerm": "ADNI AVLT - List A Intrusions 4",
          "submissionValue": "AVL01-List A Intrusions 4",
          "synonyms": [
            "AVL01-List A Intrusions 4"
          ]
        },
        {
          "conceptId": "C101980",
          "definition": "Auditory Verbal Learning Test Version A - The number of intrusions while recalling List A, fifth attempt.",
          "preferredTerm": "ADNI AVLT - List A Intrusions 5",
          "submissionValue": "AVL01-List A Intrusions 5",
          "synonyms": [
            "AVL01-List A Intrusions 5"
          ]
        },
        {
          "conceptId": "C101997",
          "definition": "Auditory Verbal Learning Test Version A - The number of intrusions while recalling List A, sixth attempt (after List B recall).",
          "preferredTerm": "ADNI AVLT - List A Intrusions 6",
          "submissionValue": "AVL01-List A Intrusions 6",
          "synonyms": [
            "AVL01-List A Intrusions 6"
          ]
        },
        {
          "conceptId": "C101911",
          "definition": "Auditory Verbal Learning Test Version A - The number of words recalled from List A, first attempt.",
          "preferredTerm": "ADNI AVLT - List A Recall 1 Total",
          "submissionValue": "AVL01-List A Recall 1 Total",
          "synonyms": [
            "AVL01-List A Recall 1 Total"
          ]
        },
        {
          "conceptId": "C101896",
          "definition": "Auditory Verbal Learning Test Version A - List A, Recall 1, Word 1.",
          "preferredTerm": "ADNI AVLT - List A Recall 1 Word 1",
          "submissionValue": "AVL01-List A Recall 1 Word 1",
          "synonyms": [
            "AVL01-List A Recall 1 Word 1"
          ]
        },
        {
          "conceptId": "C101905",
          "definition": "Auditory Verbal Learning Test Version A - List A, Recall 1, Word 10.",
          "preferredTerm": "ADNI AVLT - List A Recall 1 Word 10",
          "submissionValue": "AVL01-List A Recall 1 Word 10",
          "synonyms": [
            "AVL01-List A Recall 1 Word 10"
          ]
        },
        {
          "conceptId": "C101906",
          "definition": "Auditory Verbal Learning Test Version A - List A, Recall 1, Word 11.",
          "preferredTerm": "ADNI AVLT - List A Recall 1 Word 11",
          "submissionValue": "AVL01-List A Recall 1 Word 11",
          "synonyms": [
            "AVL01-List A Recall 1 Word 11"
          ]
        },
        {
          "conceptId": "C101907",
          "definition": "Auditory Verbal Learning Test Version A - List A, Recall 1, Word 12.",
          "preferredTerm": "ADNI AVLT - List A Recall 1 Word 12",
          "submissionValue": "AVL01-List A Recall 1 Word 12",
          "synonyms": [
            "AVL01-List A Recall 1 Word 12"
          ]
        },
        {
          "conceptId": "C101908",
          "definition": "Auditory Verbal Learning Test Version A - List A, Recall 1, Word 13.",
          "preferredTerm": "ADNI AVLT - List A Recall 1 Word 13",
          "submissionValue": "AVL01-List A Recall 1 Word 13",
          "synonyms": [
            "AVL01-List A Recall 1 Word 13"
          ]
        },
        {
          "conceptId": "C101909",
          "definition": "Auditory Verbal Learning Test Version A - List A, Recall 1, Word 14.",
          "preferredTerm": "ADNI AVLT - List A Recall 1 Word 14",
          "submissionValue": "AVL01-List A Recall 1 Word 14",
          "synonyms": [
            "AVL01-List A Recall 1 Word 14"
          ]
        },
        {
          "conceptId": "C101910",
          "definition": "Auditory Verbal Learning Test Version A - List A, Recall 1, Word 15.",
          "preferredTerm": "ADNI AVLT - List A Recall 1 Word 15",
          "submissionValue": "AVL01-List A Recall 1 Word 15",
          "synonyms": [
            "AVL01-List A Recall 1 Word 15"
          ]
        },
        {
          "conceptId": "C101897",
          "definition": "Auditory Verbal Learning Test Version A - List A, Recall 1, Word 2.",
          "preferredTerm": "ADNI AVLT - List A Recall 1 Word 2",
          "submissionValue": "AVL01-List A Recall 1 Word 2",
          "synonyms": [
            "AVL01-List A Recall 1 Word 2"
          ]
        },
        {
          "conceptId": "C101898",
          "definition": "Auditory Verbal Learning Test Version A - List A, Recall 1, Word 3.",
          "preferredTerm": "ADNI AVLT - List A Recall 1 Word 3",
          "submissionValue": "AVL01-List A Recall 1 Word 3",
          "synonyms": [
            "AVL01-List A Recall 1 Word 3"
          ]
        },
        {
          "conceptId": "C101899",
          "definition": "Auditory Verbal Learning Test Version A - List A, Recall 1, Word 4.",
          "preferredTerm": "ADNI AVLT - List A Recall 1 Word 4",
          "submissionValue": "AVL01-List A Recall 1 Word 4",
          "synonyms": [
            "AVL01-List A Recall 1 Word 4"
          ]
        },
        {
          "conceptId": "C101900",
          "definition": "Auditory Verbal Learning Test Version A - List A, Recall 1, Word 5.",
          "preferredTerm": "ADNI AVLT - List A Recall 1 Word 5",
          "submissionValue": "AVL01-List A Recall 1 Word 5",
          "synonyms": [
            "AVL01-List A Recall 1 Word 5"
          ]
        },
        {
          "conceptId": "C101901",
          "definition": "Auditory Verbal Learning Test Version A - List A, Recall 1, Word 6.",
          "preferredTerm": "ADNI AVLT - List A Recall 1 Word 6",
          "submissionValue": "AVL01-List A Recall 1 Word 6",
          "synonyms": [
            "AVL01-List A Recall 1 Word 6"
          ]
        },
        {
          "conceptId": "C101902",
          "definition": "Auditory Verbal Learning Test Version A - List A, Recall 1, Word 7.",
          "preferredTerm": "ADNI AVLT - List A Recall 1 Word 7",
          "submissionValue": "AVL01-List A Recall 1 Word 7",
          "synonyms": [
            "AVL01-List A Recall 1 Word 7"
          ]
        },
        {
          "conceptId": "C101903",
          "definition": "Auditory Verbal Learning Test Version A - List A, Recall 1, Word 8.",
          "preferredTerm": "ADNI AVLT - List A Recall 1 Word 8",
          "submissionValue": "AVL01-List A Recall 1 Word 8",
          "synonyms": [
            "AVL01-List A Recall 1 Word 8"
          ]
        },
        {
          "conceptId": "C101904",
          "definition": "Auditory Verbal Learning Test Version A - List A, Recall 1, Word 9.",
          "preferredTerm": "ADNI AVLT - List A Recall 1 Word 9",
          "submissionValue": "AVL01-List A Recall 1 Word 9",
          "synonyms": [
            "AVL01-List A Recall 1 Word 9"
          ]
        },
        {
          "conceptId": "C101928",
          "definition": "Auditory Verbal Learning Test Version A - The number of words recalled from List A, second attempt.",
          "preferredTerm": "ADNI AVLT - List A Recall 2 Total",
          "submissionValue": "AVL01-List A Recall 2 Total",
          "synonyms": [
            "AVL01-List A Recall 2 Total"
          ]
        },
        {
          "conceptId": "C101913",
          "definition": "Auditory Verbal Learning Test Version A - List A, Recall 2, Word 1.",
          "preferredTerm": "ADNI AVLT - List A Recall 2 Word 1",
          "submissionValue": "AVL01-List A Recall 2 Word 1",
          "synonyms": [
            "AVL01-List A Recall 2 Word 1"
          ]
        },
        {
          "conceptId": "C101922",
          "definition": "Auditory Verbal Learning Test Version A - List A, Recall 2, Word 10.",
          "preferredTerm": "ADNI AVLT - List A Recall 2 Word 10",
          "submissionValue": "AVL01-List A Recall 2 Word 10",
          "synonyms": [
            "AVL01-List A Recall 2 Word 10"
          ]
        },
        {
          "conceptId": "C101923",
          "definition": "Auditory Verbal Learning Test Version A - List A, Recall 2, Word 11.",
          "preferredTerm": "ADNI AVLT - List A Recall 2 Word 11",
          "submissionValue": "AVL01-List A Recall 2 Word 11",
          "synonyms": [
            "AVL01-List A Recall 2 Word 11"
          ]
        },
        {
          "conceptId": "C101924",
          "definition": "Auditory Verbal Learning Test Version A - List A, Recall 2, Word 12.",
          "preferredTerm": "ADNI AVLT - List A Recall 2 Word 12",
          "submissionValue": "AVL01-List A Recall 2 Word 12",
          "synonyms": [
            "AVL01-List A Recall 2 Word 12"
          ]
        },
        {
          "conceptId": "C101925",
          "definition": "Auditory Verbal Learning Test Version A - List A, Recall 2, Word 13.",
          "preferredTerm": "ADNI AVLT - List A Recall 2 Word 13",
          "submissionValue": "AVL01-List A Recall 2 Word 13",
          "synonyms": [
            "AVL01-List A Recall 2 Word 13"
          ]
        },
        {
          "conceptId": "C101926",
          "definition": "Auditory Verbal Learning Test Version A - List A, Recall 2, Word 14.",
          "preferredTerm": "ADNI AVLT - List A Recall 2 Word 14",
          "submissionValue": "AVL01-List A Recall 2 Word 14",
          "synonyms": [
            "AVL01-List A Recall 2 Word 14"
          ]
        },
        {
          "conceptId": "C101927",
          "definition": "Auditory Verbal Learning Test Version A - List A, Recall 2, Word 15.",
          "preferredTerm": "ADNI AVLT - List A Recall 2 Word 15",
          "submissionValue": "AVL01-List A Recall 2 Word 15",
          "synonyms": [
            "AVL01-List A Recall 2 Word 15"
          ]
        },
        {
          "conceptId": "C101914",
          "definition": "Auditory Verbal Learning Test Version A - List A, Recall 2, Word 2.",
          "preferredTerm": "ADNI AVLT - List A Recall 2 Word 2",
          "submissionValue": "AVL01-List A Recall 2 Word 2",
          "synonyms": [
            "AVL01-List A Recall 2 Word 2"
          ]
        },
        {
          "conceptId": "C101915",
          "definition": "Auditory Verbal Learning Test Version A - List A, Recall 2, Word 3.",
          "preferredTerm": "ADNI AVLT - List A Recall 2 Word 3",
          "submissionValue": "AVL01-List A Recall 2 Word 3",
          "synonyms": [
            "AVL01-List A Recall 2 Word 3"
          ]
        },
        {
          "conceptId": "C101916",
          "definition": "Auditory Verbal Learning Test Version A - List A, Recall 2, Word 4.",
          "preferredTerm": "ADNI AVLT - List A Recall 2 Word 4",
          "submissionValue": "AVL01-List A Recall 2 Word 4",
          "synonyms": [
            "AVL01-List A Recall 2 Word 4"
          ]
        },
        {
          "conceptId": "C101917",
          "definition": "Auditory Verbal Learning Test Version A - List A, Recall 2, Word 5.",
          "preferredTerm": "ADNI AVLT - List A Recall 2 Word 5",
          "submissionValue": "AVL01-List A Recall 2 Word 5",
          "synonyms": [
            "AVL01-List A Recall 2 Word 5"
          ]
        },
        {
          "conceptId": "C101918",
          "definition": "Auditory Verbal Learning Test Version A - List A, Recall 2, Word 6.",
          "preferredTerm": "ADNI AVLT - List A Recall 2 Word 6",
          "submissionValue": "AVL01-List A Recall 2 Word 6",
          "synonyms": [
            "AVL01-List A Recall 2 Word 6"
          ]
        },
        {
          "conceptId": "C101919",
          "definition": "Auditory Verbal Learning Test Version A - List A, Recall 2, Word 7.",
          "preferredTerm": "ADNI AVLT - List A Recall 2 Word 7",
          "submissionValue": "AVL01-List A Recall 2 Word 7",
          "synonyms": [
            "AVL01-List A Recall 2 Word 7"
          ]
        },
        {
          "conceptId": "C101920",
          "definition": "Auditory Verbal Learning Test Version A - List A, Recall 2, Word 8.",
          "preferredTerm": "ADNI AVLT - List A Recall 2 Word 8",
          "submissionValue": "AVL01-List A Recall 2 Word 8",
          "synonyms": [
            "AVL01-List A Recall 2 Word 8"
          ]
        },
        {
          "conceptId": "C101921",
          "definition": "Auditory Verbal Learning Test Version A - List A, Recall 2, Word 9.",
          "preferredTerm": "ADNI AVLT - List A Recall 2 Word 9",
          "submissionValue": "AVL01-List A Recall 2 Word 9",
          "synonyms": [
            "AVL01-List A Recall 2 Word 9"
          ]
        },
        {
          "conceptId": "C101945",
          "definition": "Auditory Verbal Learning Test Version A - The number of words recalled from List A, third attempt.",
          "preferredTerm": "ADNI AVLT - List A Recall 3 Total",
          "submissionValue": "AVL01-List A Recall 3 Total",
          "synonyms": [
            "AVL01-List A Recall 3 Total"
          ]
        },
        {
          "conceptId": "C101930",
          "definition": "Auditory Verbal Learning Test Version A - List A, Recall 3, Word 1.",
          "preferredTerm": "ADNI AVLT - List A Recall 3 Word 1",
          "submissionValue": "AVL01-List A Recall 3 Word 1",
          "synonyms": [
            "AVL01-List A Recall 3 Word 1"
          ]
        },
        {
          "conceptId": "C101939",
          "definition": "Auditory Verbal Learning Test Version A - List A, Recall 3, Word 10.",
          "preferredTerm": "ADNI AVLT - List A Recall 3 Word 10",
          "submissionValue": "AVL01-List A Recall 3 Word 10",
          "synonyms": [
            "AVL01-List A Recall 3 Word 10"
          ]
        },
        {
          "conceptId": "C101940",
          "definition": "Auditory Verbal Learning Test Version A - List A, Recall 3, Word 11.",
          "preferredTerm": "ADNI AVLT - List A Recall 3 Word 11",
          "submissionValue": "AVL01-List A Recall 3 Word 11",
          "synonyms": [
            "AVL01-List A Recall 3 Word 11"
          ]
        },
        {
          "conceptId": "C101941",
          "definition": "Auditory Verbal Learning Test Version A - List A, Recall 3, Word 12.",
          "preferredTerm": "ADNI AVLT - List A Recall 3 Word 12",
          "submissionValue": "AVL01-List A Recall 3 Word 12",
          "synonyms": [
            "AVL01-List A Recall 3 Word 12"
          ]
        },
        {
          "conceptId": "C101942",
          "definition": "Auditory Verbal Learning Test Version A - List A, Recall 3, Word 13.",
          "preferredTerm": "ADNI AVLT - List A Recall 3 Word 13",
          "submissionValue": "AVL01-List A Recall 3 Word 13",
          "synonyms": [
            "AVL01-List A Recall 3 Word 13"
          ]
        },
        {
          "conceptId": "C101943",
          "definition": "Auditory Verbal Learning Test Version A - List A, Recall 3, Word 14.",
          "preferredTerm": "ADNI AVLT - List A Recall 3 Word 14",
          "submissionValue": "AVL01-List A Recall 3 Word 14",
          "synonyms": [
            "AVL01-List A Recall 3 Word 14"
          ]
        },
        {
          "conceptId": "C101944",
          "definition": "Auditory Verbal Learning Test Version A - List A, Recall 3, Word 15.",
          "preferredTerm": "ADNI AVLT - List A Recall 3 Word 15",
          "submissionValue": "AVL01-List A Recall 3 Word 15",
          "synonyms": [
            "AVL01-List A Recall 3 Word 15"
          ]
        },
        {
          "conceptId": "C101931",
          "definition": "Auditory Verbal Learning Test Version A - List A, Recall 3, Word 2.",
          "preferredTerm": "ADNI AVLT - List A Recall 3 Word 2",
          "submissionValue": "AVL01-List A Recall 3 Word 2",
          "synonyms": [
            "AVL01-List A Recall 3 Word 2"
          ]
        },
        {
          "conceptId": "C101932",
          "definition": "Auditory Verbal Learning Test Version A - List A, Recall 3, Word 3.",
          "preferredTerm": "ADNI AVLT - List A Recall 3 Word 3",
          "submissionValue": "AVL01-List A Recall 3 Word 3",
          "synonyms": [
            "AVL01-List A Recall 3 Word 3"
          ]
        },
        {
          "conceptId": "C101933",
          "definition": "Auditory Verbal Learning Test Version A - List A, Recall 3, Word 4.",
          "preferredTerm": "ADNI AVLT - List A Recall 3 Word 4",
          "submissionValue": "AVL01-List A Recall 3 Word 4",
          "synonyms": [
            "AVL01-List A Recall 3 Word 4"
          ]
        },
        {
          "conceptId": "C101934",
          "definition": "Auditory Verbal Learning Test Version A - List A, Recall 3, Word 5.",
          "preferredTerm": "ADNI AVLT - List A Recall 3 Word 5",
          "submissionValue": "AVL01-List A Recall 3 Word 5",
          "synonyms": [
            "AVL01-List A Recall 3 Word 5"
          ]
        },
        {
          "conceptId": "C101935",
          "definition": "Auditory Verbal Learning Test Version A - List A, Recall 3, Word 6.",
          "preferredTerm": "ADNI AVLT - List A Recall 3 Word 6",
          "submissionValue": "AVL01-List A Recall 3 Word 6",
          "synonyms": [
            "AVL01-List A Recall 3 Word 6"
          ]
        },
        {
          "conceptId": "C101936",
          "definition": "Auditory Verbal Learning Test Version A - List A, Recall 3, Word 7.",
          "preferredTerm": "ADNI AVLT - List A Recall 3 Word 7",
          "submissionValue": "AVL01-List A Recall 3 Word 7",
          "synonyms": [
            "AVL01-List A Recall 3 Word 7"
          ]
        },
        {
          "conceptId": "C101937",
          "definition": "Auditory Verbal Learning Test Version A - List A, Recall 3, Word 8.",
          "preferredTerm": "ADNI AVLT - List A Recall 3 Word 8",
          "submissionValue": "AVL01-List A Recall 3 Word 8",
          "synonyms": [
            "AVL01-List A Recall 3 Word 8"
          ]
        },
        {
          "conceptId": "C101938",
          "definition": "Auditory Verbal Learning Test Version A - List A, Recall 3, Word 9.",
          "preferredTerm": "ADNI AVLT - List A Recall 3 Word 9",
          "submissionValue": "AVL01-List A Recall 3 Word 9",
          "synonyms": [
            "AVL01-List A Recall 3 Word 9"
          ]
        },
        {
          "conceptId": "C101962",
          "definition": "Auditory Verbal Learning Test Version A - The number of words recalled from List A, fourth attempt.",
          "preferredTerm": "ADNI AVLT - List A Recall 4 Total",
          "submissionValue": "AVL01-List A Recall 4 Total",
          "synonyms": [
            "AVL01-List A Recall 4 Total"
          ]
        },
        {
          "conceptId": "C101947",
          "definition": "Auditory Verbal Learning Test Version A - List A, Recall 4, Word 1.",
          "preferredTerm": "ADNI AVLT - List A Recall 4 Word 1",
          "submissionValue": "AVL01-List A Recall 4 Word 1",
          "synonyms": [
            "AVL01-List A Recall 4 Word 1"
          ]
        },
        {
          "conceptId": "C101956",
          "definition": "Auditory Verbal Learning Test Version A - List A, Recall 4, Word 10.",
          "preferredTerm": "ADNI AVLT - List A Recall 4 Word 10",
          "submissionValue": "AVL01-List A Recall 4 Word 10",
          "synonyms": [
            "AVL01-List A Recall 4 Word 10"
          ]
        },
        {
          "conceptId": "C101957",
          "definition": "Auditory Verbal Learning Test Version A - List A, Recall 4, Word 11.",
          "preferredTerm": "ADNI AVLT - List A Recall 4 Word 11",
          "submissionValue": "AVL01-List A Recall 4 Word 11",
          "synonyms": [
            "AVL01-List A Recall 4 Word 11"
          ]
        },
        {
          "conceptId": "C101958",
          "definition": "Auditory Verbal Learning Test Version A - List A, Recall 4, Word 12.",
          "preferredTerm": "ADNI AVLT - List A Recall 4 Word 12",
          "submissionValue": "AVL01-List A Recall 4 Word 12",
          "synonyms": [
            "AVL01-List A Recall 4 Word 12"
          ]
        },
        {
          "conceptId": "C101959",
          "definition": "Auditory Verbal Learning Test Version A - List A, Recall 4, Word 13.",
          "preferredTerm": "ADNI AVLT - List A Recall 4 Word 13",
          "submissionValue": "AVL01-List A Recall 4 Word 13",
          "synonyms": [
            "AVL01-List A Recall 4 Word 13"
          ]
        },
        {
          "conceptId": "C101960",
          "definition": "Auditory Verbal Learning Test Version A - List A, Recall 4, Word 14.",
          "preferredTerm": "ADNI AVLT - List A Recall 4 Word 14",
          "submissionValue": "AVL01-List A Recall 4 Word 14",
          "synonyms": [
            "AVL01-List A Recall 4 Word 14"
          ]
        },
        {
          "conceptId": "C101961",
          "definition": "Auditory Verbal Learning Test Version A - List A, Recall 4, Word 15.",
          "preferredTerm": "ADNI AVLT - List A Recall 4 Word 15",
          "submissionValue": "AVL01-List A Recall 4 Word 15",
          "synonyms": [
            "AVL01-List A Recall 4 Word 15"
          ]
        },
        {
          "conceptId": "C101948",
          "definition": "Auditory Verbal Learning Test Version A - List A, Recall 4, Word 2.",
          "preferredTerm": "ADNI AVLT - List A Recall 4 Word 2",
          "submissionValue": "AVL01-List A Recall 4 Word 2",
          "synonyms": [
            "AVL01-List A Recall 4 Word 2"
          ]
        },
        {
          "conceptId": "C101949",
          "definition": "Auditory Verbal Learning Test Version A - List A, Recall 4, Word 3.",
          "preferredTerm": "ADNI AVLT - List A Recall 4 Word 3",
          "submissionValue": "AVL01-List A Recall 4 Word 3",
          "synonyms": [
            "AVL01-List A Recall 4 Word 3"
          ]
        },
        {
          "conceptId": "C101950",
          "definition": "Auditory Verbal Learning Test Version A - List A, Recall 4, Word 4.",
          "preferredTerm": "ADNI AVLT - List A Recall 4 Word 4",
          "submissionValue": "AVL01-List A Recall 4 Word 4",
          "synonyms": [
            "AVL01-List A Recall 4 Word 4"
          ]
        },
        {
          "conceptId": "C101951",
          "definition": "Auditory Verbal Learning Test Version A - List A, Recall 4, Word 5.",
          "preferredTerm": "ADNI AVLT - List A Recall 4 Word 5",
          "submissionValue": "AVL01-List A Recall 4 Word 5",
          "synonyms": [
            "AVL01-List A Recall 4 Word 5"
          ]
        },
        {
          "conceptId": "C101952",
          "definition": "Auditory Verbal Learning Test Version A - List A, Recall 4, Word 6.",
          "preferredTerm": "ADNI AVLT - List A Recall 4 Word 6",
          "submissionValue": "AVL01-List A Recall 4 Word 6",
          "synonyms": [
            "AVL01-List A Recall 4 Word 6"
          ]
        },
        {
          "conceptId": "C101953",
          "definition": "Auditory Verbal Learning Test Version A - List A, Recall 4, Word 7.",
          "preferredTerm": "ADNI AVLT - List A Recall 4 Word 7",
          "submissionValue": "AVL01-List A Recall 4 Word 7",
          "synonyms": [
            "AVL01-List A Recall 4 Word 7"
          ]
        },
        {
          "conceptId": "C101954",
          "definition": "Auditory Verbal Learning Test Version A - List A, Recall 4, Word 8.",
          "preferredTerm": "ADNI AVLT - List A Recall 4 Word 8",
          "submissionValue": "AVL01-List A Recall 4 Word 8",
          "synonyms": [
            "AVL01-List A Recall 4 Word 8"
          ]
        },
        {
          "conceptId": "C101955",
          "definition": "Auditory Verbal Learning Test Version A - List A, Recall 4, Word 9.",
          "preferredTerm": "ADNI AVLT - List A Recall 4 Word 9",
          "submissionValue": "AVL01-List A Recall 4 Word 9",
          "synonyms": [
            "AVL01-List A Recall 4 Word 9"
          ]
        },
        {
          "conceptId": "C101979",
          "definition": "Auditory Verbal Learning Test Version A - The number of words recalled from List A, fifth attempt.",
          "preferredTerm": "ADNI AVLT - List A Recall 5 Total",
          "submissionValue": "AVL01-List A Recall 5 Total",
          "synonyms": [
            "AVL01-List A Recall 5 Total"
          ]
        },
        {
          "conceptId": "C101964",
          "definition": "Auditory Verbal Learning Test Version A - List A, Recall 5, Word 1.",
          "preferredTerm": "ADNI AVLT - List A Recall 5 Word 1",
          "submissionValue": "AVL01-List A Recall 5 Word 1",
          "synonyms": [
            "AVL01-List A Recall 5 Word 1"
          ]
        },
        {
          "conceptId": "C101973",
          "definition": "Auditory Verbal Learning Test Version A - List A, Recall 5, Word 10.",
          "preferredTerm": "ADNI AVLT - List A Recall 5 Word 10",
          "submissionValue": "AVL01-List A Recall 5 Word 10",
          "synonyms": [
            "AVL01-List A Recall 5 Word 10"
          ]
        },
        {
          "conceptId": "C101974",
          "definition": "Auditory Verbal Learning Test Version A - List A, Recall 5, Word 11.",
          "preferredTerm": "ADNI AVLT - List A Recall 5 Word 11",
          "submissionValue": "AVL01-List A Recall 5 Word 11",
          "synonyms": [
            "AVL01-List A Recall 5 Word 11"
          ]
        },
        {
          "conceptId": "C101975",
          "definition": "Auditory Verbal Learning Test Version A - List A, Recall 5, Word 12.",
          "preferredTerm": "ADNI AVLT - List A Recall 5 Word 12",
          "submissionValue": "AVL01-List A Recall 5 Word 12",
          "synonyms": [
            "AVL01-List A Recall 5 Word 12"
          ]
        },
        {
          "conceptId": "C101976",
          "definition": "Auditory Verbal Learning Test Version A - List A, Recall 5, Word 13.",
          "preferredTerm": "ADNI AVLT - List A Recall 5 Word 13",
          "submissionValue": "AVL01-List A Recall 5 Word 13",
          "synonyms": [
            "AVL01-List A Recall 5 Word 13"
          ]
        },
        {
          "conceptId": "C101977",
          "definition": "Auditory Verbal Learning Test Version A - List A, Recall 5, Word 14.",
          "preferredTerm": "ADNI AVLT - List A Recall 5 Word 14",
          "submissionValue": "AVL01-List A Recall 5 Word 14",
          "synonyms": [
            "AVL01-List A Recall 5 Word 14"
          ]
        },
        {
          "conceptId": "C101978",
          "definition": "Auditory Verbal Learning Test Version A - List A, Recall 5, Word 15.",
          "preferredTerm": "ADNI AVLT - List A Recall 5 Word 15",
          "submissionValue": "AVL01-List A Recall 5 Word 15",
          "synonyms": [
            "AVL01-List A Recall 5 Word 15"
          ]
        },
        {
          "conceptId": "C101965",
          "definition": "Auditory Verbal Learning Test Version A - List A, Recall 5, Word 2.",
          "preferredTerm": "ADNI AVLT - List A Recall 5 Word 2",
          "submissionValue": "AVL01-List A Recall 5 Word 2",
          "synonyms": [
            "AVL01-List A Recall 5 Word 2"
          ]
        },
        {
          "conceptId": "C101966",
          "definition": "Auditory Verbal Learning Test Version A - List A, Recall 5, Word 3.",
          "preferredTerm": "ADNI AVLT - List A Recall 5 Word 3",
          "submissionValue": "AVL01-List A Recall 5 Word 3",
          "synonyms": [
            "AVL01-List A Recall 5 Word 3"
          ]
        },
        {
          "conceptId": "C101967",
          "definition": "Auditory Verbal Learning Test Version A - List A, Recall 5, Word 4.",
          "preferredTerm": "ADNI AVLT - List A Recall 5 Word 4",
          "submissionValue": "AVL01-List A Recall 5 Word 4",
          "synonyms": [
            "AVL01-List A Recall 5 Word 4"
          ]
        },
        {
          "conceptId": "C101968",
          "definition": "Auditory Verbal Learning Test Version A - List A, Recall 5, Word 5.",
          "preferredTerm": "ADNI AVLT - List A Recall 5 Word 5",
          "submissionValue": "AVL01-List A Recall 5 Word 5",
          "synonyms": [
            "AVL01-List A Recall 5 Word 5"
          ]
        },
        {
          "conceptId": "C101969",
          "definition": "Auditory Verbal Learning Test Version A - List A, Recall 5, Word 6.",
          "preferredTerm": "ADNI AVLT - List A Recall 5 Word 6",
          "submissionValue": "AVL01-List A Recall 5 Word 6",
          "synonyms": [
            "AVL01-List A Recall 5 Word 6"
          ]
        },
        {
          "conceptId": "C101970",
          "definition": "Auditory Verbal Learning Test Version A - List A, Recall 5, Word 7.",
          "preferredTerm": "ADNI AVLT - List A Recall 5 Word 7",
          "submissionValue": "AVL01-List A Recall 5 Word 7",
          "synonyms": [
            "AVL01-List A Recall 5 Word 7"
          ]
        },
        {
          "conceptId": "C101971",
          "definition": "Auditory Verbal Learning Test Version A - List A, Recall 5, Word 8.",
          "preferredTerm": "ADNI AVLT - List A Recall 5 Word 8",
          "submissionValue": "AVL01-List A Recall 5 Word 8",
          "synonyms": [
            "AVL01-List A Recall 5 Word 8"
          ]
        },
        {
          "conceptId": "C101972",
          "definition": "Auditory Verbal Learning Test Version A - List A, Recall 5, Word 9.",
          "preferredTerm": "ADNI AVLT - List A Recall 5 Word 9",
          "submissionValue": "AVL01-List A Recall 5 Word 9",
          "synonyms": [
            "AVL01-List A Recall 5 Word 9"
          ]
        },
        {
          "conceptId": "C101996",
          "definition": "Auditory Verbal Learning Test Version A - The number of words recalled from List A, sixth attempt (after List B recall).",
          "preferredTerm": "ADNI AVLT - List A Recall 6 (After B) Total",
          "submissionValue": "AVL01-List A Recall 6 (After B) Total",
          "synonyms": [
            "AVL01-List A Recall 6 (After B) Total"
          ]
        },
        {
          "conceptId": "C101981",
          "definition": "Auditory Verbal Learning Test Version A - List A, Recall 6 (after B Recall), Word 1.",
          "preferredTerm": "ADNI AVLT - List A Recall 6 (After B) Word 1",
          "submissionValue": "AVL01-List A Recall 6 (After B) Word 1",
          "synonyms": [
            "AVL01-List A Recall 6 (After B) Word 1"
          ]
        },
        {
          "conceptId": "C101990",
          "definition": "Auditory Verbal Learning Test Version A - List A, Recall 6 (after B Recall), Word 10.",
          "preferredTerm": "ADNI AVLT - List A Recall 6 (After B) Word 10",
          "submissionValue": "AVL01-List A Recall 6 (After B) Word 10",
          "synonyms": [
            "AVL01-List A Recall 6 (After B) Word 10"
          ]
        },
        {
          "conceptId": "C101991",
          "definition": "Auditory Verbal Learning Test Version A - List A, Recall 6 (after B Recall), Word 11.",
          "preferredTerm": "ADNI AVLT - List A Recall 6 (After B) Word 11",
          "submissionValue": "AVL01-List A Recall 6 (After B) Word 11",
          "synonyms": [
            "AVL01-List A Recall 6 (After B) Word 11"
          ]
        },
        {
          "conceptId": "C101992",
          "definition": "Auditory Verbal Learning Test Version A - List A, Recall 6 (after B Recall), Word 12.",
          "preferredTerm": "ADNI AVLT - List A Recall 6 (After B) Word 12",
          "submissionValue": "AVL01-List A Recall 6 (After B) Word 12",
          "synonyms": [
            "AVL01-List A Recall 6 (After B) Word 12"
          ]
        },
        {
          "conceptId": "C101993",
          "definition": "Auditory Verbal Learning Test Version A - List A, Recall 6 (after B Recall), Word 13.",
          "preferredTerm": "ADNI AVLT - List A Recall 6 (After B) Word 13",
          "submissionValue": "AVL01-List A Recall 6 (After B) Word 13",
          "synonyms": [
            "AVL01-List A Recall 6 (After B) Word 13"
          ]
        },
        {
          "conceptId": "C101994",
          "definition": "Auditory Verbal Learning Test Version A - List A, Recall 6 (after B Recall), Word 14.",
          "preferredTerm": "ADNI AVLT - List A Recall 6 (After B) Word 14",
          "submissionValue": "AVL01-List A Recall 6 (After B) Word 14",
          "synonyms": [
            "AVL01-List A Recall 6 (After B) Word 14"
          ]
        },
        {
          "conceptId": "C101995",
          "definition": "Auditory Verbal Learning Test Version A - List A, Recall 6 (after B Recall), Word 15.",
          "preferredTerm": "ADNI AVLT - List A Recall 6 (After B) Word 15",
          "submissionValue": "AVL01-List A Recall 6 (After B) Word 15",
          "synonyms": [
            "AVL01-List A Recall 6 (After B) Word 15"
          ]
        },
        {
          "conceptId": "C101982",
          "definition": "Auditory Verbal Learning Test Version A - List A, Recall 6 (after B Recall), Word 2.",
          "preferredTerm": "ADNI AVLT - List A Recall 6 (After B) Word 2",
          "submissionValue": "AVL01-List A Recall 6 (After B) Word 2",
          "synonyms": [
            "AVL01-List A Recall 6 (After B) Word 2"
          ]
        },
        {
          "conceptId": "C101983",
          "definition": "Auditory Verbal Learning Test Version A - List A, Recall 6 (after B Recall), Word 3.",
          "preferredTerm": "ADNI AVLT - List A Recall 6 (After B) Word 3",
          "submissionValue": "AVL01-List A Recall 6 (After B) Word 3",
          "synonyms": [
            "AVL01-List A Recall 6 (After B) Word 3"
          ]
        },
        {
          "conceptId": "C101984",
          "definition": "Auditory Verbal Learning Test Version A - List A, Recall 6 (after B Recall), Word 4.",
          "preferredTerm": "ADNI AVLT - List A Recall 6 (After B) Word 4",
          "submissionValue": "AVL01-List A Recall 6 (After B) Word 4",
          "synonyms": [
            "AVL01-List A Recall 6 (After B) Word 4"
          ]
        },
        {
          "conceptId": "C101985",
          "definition": "Auditory Verbal Learning Test Version A - List A, Recall 6 (after B Recall), Word 5.",
          "preferredTerm": "ADNI AVLT - List A Recall 6 (After B) Word 5",
          "submissionValue": "AVL01-List A Recall 6 (After B) Word 5",
          "synonyms": [
            "AVL01-List A Recall 6 (After B) Word 5"
          ]
        },
        {
          "conceptId": "C101986",
          "definition": "Auditory Verbal Learning Test Version A - List A, Recall 6 (after B Recall), Word 6.",
          "preferredTerm": "ADNI AVLT - List A Recall 6 (After B) Word 6",
          "submissionValue": "AVL01-List A Recall 6 (After B) Word 6",
          "synonyms": [
            "AVL01-List A Recall 6 (After B) Word 6"
          ]
        },
        {
          "conceptId": "C101987",
          "definition": "Auditory Verbal Learning Test Version A - List A, Recall 6 (after B Recall), Word 7.",
          "preferredTerm": "ADNI AVLT - List A Recall 6 (After B) Word 7",
          "submissionValue": "AVL01-List A Recall 6 (After B) Word 7",
          "synonyms": [
            "AVL01-List A Recall 6 (After B) Word 7"
          ]
        },
        {
          "conceptId": "C101988",
          "definition": "Auditory Verbal Learning Test Version A - List A, Recall 6 (after B Recall), Word 8.",
          "preferredTerm": "ADNI AVLT - List A Recall 6 (After B) Word 8",
          "submissionValue": "AVL01-List A Recall 6 (After B) Word 8",
          "synonyms": [
            "AVL01-List A Recall 6 (After B) Word 8"
          ]
        },
        {
          "conceptId": "C101989",
          "definition": "Auditory Verbal Learning Test Version A - List A, Recall 6 (after B Recall), Word 9.",
          "preferredTerm": "ADNI AVLT - List A Recall 6 (After B) Word 9",
          "submissionValue": "AVL01-List A Recall 6 (After B) Word 9",
          "synonyms": [
            "AVL01-List A Recall 6 (After B) Word 9"
          ]
        },
        {
          "conceptId": "C102033",
          "definition": "Auditory Verbal Learning Test Version A - The number of intrusions on recognition test.",
          "preferredTerm": "ADNI AVLT - List A Recognition Intrusions",
          "submissionValue": "AVL01-List A Recognition Intrusions",
          "synonyms": [
            "AVL01-List A Recognition Intrusions"
          ]
        },
        {
          "conceptId": "C102032",
          "definition": "Auditory Verbal Learning Test Version A - The number of words correct on recognition test.",
          "preferredTerm": "ADNI AVLT - List A Recognition Total",
          "submissionValue": "AVL01-List A Recognition Total",
          "synonyms": [
            "AVL01-List A Recognition Total"
          ]
        },
        {
          "conceptId": "C102014",
          "definition": "Auditory Verbal Learning Test Version A - The number of intrusions while recalling List B.",
          "preferredTerm": "ADNI AVLT - List B Intrusions",
          "submissionValue": "AVL01-List B Intrusions",
          "synonyms": [
            "AVL01-List B Intrusions"
          ]
        },
        {
          "conceptId": "C102013",
          "definition": "Auditory Verbal Learning Test Version A - The number of words recalled from List B.",
          "preferredTerm": "ADNI AVLT - List B Recall Total",
          "submissionValue": "AVL01-List B Recall Total",
          "synonyms": [
            "AVL01-List B Recall Total"
          ]
        },
        {
          "conceptId": "C101998",
          "definition": "Auditory Verbal Learning Test Version A - List B, Word 1.",
          "preferredTerm": "ADNI AVLT - List B Recall Word 1",
          "submissionValue": "AVL01-List B Recall Word 1",
          "synonyms": [
            "AVL01-List B Recall Word 1"
          ]
        },
        {
          "conceptId": "C102007",
          "definition": "Auditory Verbal Learning Test Version A - List B, Word 10.",
          "preferredTerm": "ADNI AVLT - List B Recall Word 10",
          "submissionValue": "AVL01-List B Recall Word 10",
          "synonyms": [
            "AVL01-List B Recall Word 10"
          ]
        },
        {
          "conceptId": "C102008",
          "definition": "Auditory Verbal Learning Test Version A - List B, Word 11.",
          "preferredTerm": "ADNI AVLT - List B Recall Word 11",
          "submissionValue": "AVL01-List B Recall Word 11",
          "synonyms": [
            "AVL01-List B Recall Word 11"
          ]
        },
        {
          "conceptId": "C102009",
          "definition": "Auditory Verbal Learning Test Version A - List B, Word 12.",
          "preferredTerm": "ADNI AVLT - List B Recall Word 12",
          "submissionValue": "AVL01-List B Recall Word 12",
          "synonyms": [
            "AVL01-List B Recall Word 12"
          ]
        },
        {
          "conceptId": "C102010",
          "definition": "Auditory Verbal Learning Test Version A - List B, Word 13.",
          "preferredTerm": "ADNI AVLT - List B Recall Word 13",
          "submissionValue": "AVL01-List B Recall Word 13",
          "synonyms": [
            "AVL01-List B Recall Word 13"
          ]
        },
        {
          "conceptId": "C102011",
          "definition": "Auditory Verbal Learning Test Version A - List B, Word 14.",
          "preferredTerm": "ADNI AVLT - List B Recall Word 14",
          "submissionValue": "AVL01-List B Recall Word 14",
          "synonyms": [
            "AVL01-List B Recall Word 14"
          ]
        },
        {
          "conceptId": "C102012",
          "definition": "Auditory Verbal Learning Test Version A - List B, Word 15.",
          "preferredTerm": "ADNI AVLT - List B Recall Word 15",
          "submissionValue": "AVL01-List B Recall Word 15",
          "synonyms": [
            "AVL01-List B Recall Word 15"
          ]
        },
        {
          "conceptId": "C101999",
          "definition": "Auditory Verbal Learning Test Version A - List B, Word 2.",
          "preferredTerm": "ADNI AVLT - List B Recall Word 2",
          "submissionValue": "AVL01-List B Recall Word 2",
          "synonyms": [
            "AVL01-List B Recall Word 2"
          ]
        },
        {
          "conceptId": "C102000",
          "definition": "Auditory Verbal Learning Test Version A - List B, Word 3.",
          "preferredTerm": "ADNI AVLT - List B Recall Word 3",
          "submissionValue": "AVL01-List B Recall Word 3",
          "synonyms": [
            "AVL01-List B Recall Word 3"
          ]
        },
        {
          "conceptId": "C102001",
          "definition": "Auditory Verbal Learning Test Version A - List B, Word 4.",
          "preferredTerm": "ADNI AVLT - List B Recall Word 4",
          "submissionValue": "AVL01-List B Recall Word 4",
          "synonyms": [
            "AVL01-List B Recall Word 4"
          ]
        },
        {
          "conceptId": "C102002",
          "definition": "Auditory Verbal Learning Test Version A - List B, Word 5.",
          "preferredTerm": "ADNI AVLT - List B Recall Word 5",
          "submissionValue": "AVL01-List B Recall Word 5",
          "synonyms": [
            "AVL01-List B Recall Word 5"
          ]
        },
        {
          "conceptId": "C102003",
          "definition": "Auditory Verbal Learning Test Version A - List B, Word 6.",
          "preferredTerm": "ADNI AVLT - List B Recall Word 6",
          "submissionValue": "AVL01-List B Recall Word 6",
          "synonyms": [
            "AVL01-List B Recall Word 6"
          ]
        },
        {
          "conceptId": "C102004",
          "definition": "Auditory Verbal Learning Test Version A - List B, Word 7.",
          "preferredTerm": "ADNI AVLT - List B Recall Word 7",
          "submissionValue": "AVL01-List B Recall Word 7",
          "synonyms": [
            "AVL01-List B Recall Word 7"
          ]
        },
        {
          "conceptId": "C102005",
          "definition": "Auditory Verbal Learning Test Version A - List B, Word 8.",
          "preferredTerm": "ADNI AVLT - List B Recall Word 8",
          "submissionValue": "AVL01-List B Recall Word 8",
          "synonyms": [
            "AVL01-List B Recall Word 8"
          ]
        },
        {
          "conceptId": "C102006",
          "definition": "Auditory Verbal Learning Test Version A - List B, Word 9.",
          "preferredTerm": "ADNI AVLT - List B Recall Word 9",
          "submissionValue": "AVL01-List B Recall Word 9",
          "synonyms": [
            "AVL01-List B Recall Word 9"
          ]
        }
      ]
    },
    {
      "conceptId": "C112435",
      "definition": "Airway Questionnaire 20 test code.",
      "extensible": "No",
      "name": "QS-Airway Questionnaire 20 Test Code",
      "preferredTerm": "CDISC Questionnaire AQ20 Test Code Terminology",
      "submissionValue": "AQ20 TESTCD",
      "synonyms": [
        "QS-Airway Questionnaire 20 Test Code"
      ],
      "terms": [
        {
          "conceptId": "C112529",
          "definition": "Airway Questionnaire 20 - Do you cough often during the day?",
          "preferredTerm": "AQ20 - Cough Often During the Day",
          "submissionValue": "AQ0101",
          "synonyms": [
            "AQ01-Cough Often During Day"
          ]
        },
        {
          "conceptId": "C112530",
          "definition": "Airway Questionnaire 20 - Does your chest trouble often make you feel restless?",
          "preferredTerm": "AQ20 - Chest Trouble Make You Feel Restless",
          "submissionValue": "AQ0102",
          "synonyms": [
            "AQ01-Feel Restless Due to Chest Trouble"
          ]
        },
        {
          "conceptId": "C112531",
          "definition": "Airway Questionnaire 20 - Does gardening make you breathless?",
          "preferredTerm": "AQ20 - Gardening Make You Breathless",
          "submissionValue": "AQ0103",
          "synonyms": [
            "AQ01-Gardening Make You Breathless"
          ]
        },
        {
          "conceptId": "C112532",
          "definition": "Airway Questionnaire 20 - Do you worry when going to a friend's house that there might be something there that will upset your chest?",
          "preferredTerm": "AQ20 - Worry When Going to Friend House Something Will Upset Your Chest",
          "submissionValue": "AQ0104",
          "synonyms": [
            "AQ01-Chest Upset at Friend House"
          ]
        },
        {
          "conceptId": "C112533",
          "definition": "Airway Questionnaire 20 - Do you get chest problems when you come into contact with strong smells, exhaust fumes, cigarette smoke, perfume etc?",
          "preferredTerm": "AQ20 - Get Chest Problems When Contact With Strong Smells",
          "submissionValue": "AQ0105",
          "synonyms": [
            "AQ01-Chest Prob Smell/Fume/Smoke/Perfume"
          ]
        },
        {
          "conceptId": "C112534",
          "definition": "Airway Questionnaire 20 - Does your partner find your chest trouble upsetting?",
          "preferredTerm": "AQ20 - Partner Find Your Chest Trouble Upsetting",
          "submissionValue": "AQ0106",
          "synonyms": [
            "AQ01-Partner Upset by Your Chest Trouble"
          ]
        },
        {
          "conceptId": "C112535",
          "definition": "Airway Questionnaire 20 - Do you feel breathless when trying to sleep?",
          "preferredTerm": "AQ20 - Feel Breathless When Trying to Sleep",
          "submissionValue": "AQ0107",
          "synonyms": [
            "AQ01-Breathless When Trying to Sleep"
          ]
        },
        {
          "conceptId": "C112536",
          "definition": "Airway Questionnaire 20 - Do you worry about the long term effects of the drugs you take for your chest trouble?",
          "preferredTerm": "AQ20 - Worry About Long Term Effects of Drugs for Chest Trouble",
          "submissionValue": "AQ0108",
          "synonyms": [
            "AQ01-Long Term Effects of Drugs"
          ]
        },
        {
          "conceptId": "C112537",
          "definition": "Airway Questionnaire 20 - Does getting emotionally upset make your chest trouble worse?",
          "preferredTerm": "AQ20 - Getting Emotionally Upset Make Chest Trouble Worse",
          "submissionValue": "AQ0109",
          "synonyms": [
            "AQ01-Emotional Upset Worse Chest Trouble"
          ]
        },
        {
          "conceptId": "C112538",
          "definition": "Airway Questionnaire 20 - Are there times when you have difficulty getting around the house because of your chest trouble?",
          "preferredTerm": "AQ20 - Difficulty Getting Around the House Because of Chest Trouble",
          "submissionValue": "AQ0110",
          "synonyms": [
            "AQ01-Difficulty Getting Around the House"
          ]
        },
        {
          "conceptId": "C112539",
          "definition": "Airway Questionnaire 20 - Does your chest problem make you breathless when you do things at work? (paid employment).",
          "preferredTerm": "AQ20 - Chest Problem Make You Breathless at Work",
          "submissionValue": "AQ0111",
          "synonyms": [
            "AQ01-Breathless Carry out Work Activity"
          ]
        },
        {
          "conceptId": "C112540",
          "definition": "Airway Questionnaire 20 - Does walking upstairs make you breathless?",
          "preferredTerm": "AQ20 - Walking Upstairs Make You Breathless",
          "submissionValue": "AQ0112",
          "synonyms": [
            "AQ01-Breathless Walking Upstairs"
          ]
        },
        {
          "conceptId": "C112541",
          "definition": "Airway Questionnaire 20 - Do you get breathless doing housework?",
          "preferredTerm": "AQ20 - Get Breathless Doing Housework",
          "submissionValue": "AQ0113",
          "synonyms": [
            "AQ01-Get Breathless Doing Housework"
          ]
        },
        {
          "conceptId": "C112542",
          "definition": "Airway Questionnaire 20 - Does your chest trouble make you go home sooner than others after a night out?",
          "preferredTerm": "AQ20 - Chest Trouble Make You Go Home Sooner Than Others",
          "submissionValue": "AQ0114",
          "synonyms": [
            "AQ01-Go Home Sooner Than Others"
          ]
        },
        {
          "conceptId": "C112543",
          "definition": "Airway Questionnaire 20 - Do you suffer from breathlessness when you laugh?",
          "preferredTerm": "AQ20 - Suffer From Breathlessness When Laugh",
          "submissionValue": "AQ0115",
          "synonyms": [
            "AQ01-Breathlessness When Laugh"
          ]
        },
        {
          "conceptId": "C112544",
          "definition": "Airway Questionnaire 20 - Does your chest trouble often make you feel impatient?",
          "preferredTerm": "AQ20 - Chest Trouble Make You Feel Impatient",
          "submissionValue": "AQ0116",
          "synonyms": [
            "AQ01-Impatient Due to Chest Trouble"
          ]
        },
        {
          "conceptId": "C112545",
          "definition": "Airway Questionnaire 20 - Do you think the fullness of your life is limited by your chest trouble?",
          "preferredTerm": "AQ20 - Fullness of Life is Limited by Chest Trouble",
          "submissionValue": "AQ0117",
          "synonyms": [
            "AQ01-Full Life Limited by Chest Trouble"
          ]
        },
        {
          "conceptId": "C112546",
          "definition": "Airway Questionnaire 20 - Do you feel drained after a cold because of your chest trouble?",
          "preferredTerm": "AQ20 - Feel Drained After a Cold Because of Chest Trouble",
          "submissionValue": "AQ0118",
          "synonyms": [
            "AQ01-Drained After a Cold"
          ]
        },
        {
          "conceptId": "C112547",
          "definition": "Airway Questionnaire 20 - Do you have a feeling of chest heaviness?",
          "preferredTerm": "AQ20 - Feeling of Chest Heaviness",
          "submissionValue": "AQ0119",
          "synonyms": [
            "AQ01-Feeling of Chest Heaviness"
          ]
        },
        {
          "conceptId": "C112548",
          "definition": "Airway Questionnaire 20 - Do you worry a lot about your chest trouble?",
          "preferredTerm": "AQ20 - Worry a Lot About Chest Trouble",
          "submissionValue": "AQ0120",
          "synonyms": [
            "AQ01-Worry About Chest Trouble"
          ]
        }
      ]
    },
    {
      "conceptId": "C112434",
      "definition": "Airway Questionnaire 20 test name.",
      "extensible": "No",
      "name": "QS-Airway Questionnaire 20 Test Name",
      "preferredTerm": "CDISC Questionnaire AQ20 Test Name Terminology",
      "submissionValue": "AQ20 TEST",
      "synonyms": [
        "QS-Airway Questionnaire 20 Test Name"
      ],
      "terms": [
        {
          "conceptId": "C112539",
          "definition": "Airway Questionnaire 20 - Does your chest problem make you breathless when you do things at work? (paid employment).",
          "preferredTerm": "AQ20 - Chest Problem Make You Breathless at Work",
          "submissionValue": "AQ01-Breathless Carry out Work Activity",
          "synonyms": [
            "AQ01-Breathless Carry out Work Activity"
          ]
        },
        {
          "conceptId": "C112540",
          "definition": "Airway Questionnaire 20 - Does walking upstairs make you breathless?",
          "preferredTerm": "AQ20 - Walking Upstairs Make You Breathless",
          "submissionValue": "AQ01-Breathless Walking Upstairs",
          "synonyms": [
            "AQ01-Breathless Walking Upstairs"
          ]
        },
        {
          "conceptId": "C112535",
          "definition": "Airway Questionnaire 20 - Do you feel breathless when trying to sleep?",
          "preferredTerm": "AQ20 - Feel Breathless When Trying to Sleep",
          "submissionValue": "AQ01-Breathless When Trying to Sleep",
          "synonyms": [
            "AQ01-Breathless When Trying to Sleep"
          ]
        },
        {
          "conceptId": "C112543",
          "definition": "Airway Questionnaire 20 - Do you suffer from breathlessness when you laugh?",
          "preferredTerm": "AQ20 - Suffer From Breathlessness When Laugh",
          "submissionValue": "AQ01-Breathlessness When Laugh",
          "synonyms": [
            "AQ01-Breathlessness When Laugh"
          ]
        },
        {
          "conceptId": "C112533",
          "definition": "Airway Questionnaire 20 - Do you get chest problems when you come into contact with strong smells, exhaust fumes, cigarette smoke, perfume etc?",
          "preferredTerm": "AQ20 - Get Chest Problems When Contact With Strong Smells",
          "submissionValue": "AQ01-Chest Prob Smell/Fume/Smoke/Perfume",
          "synonyms": [
            "AQ01-Chest Prob Smell/Fume/Smoke/Perfume"
          ]
        },
        {
          "conceptId": "C112532",
          "definition": "Airway Questionnaire 20 - Do you worry when going to a friend's house that there might be something there that will upset your chest?",
          "preferredTerm": "AQ20 - Worry When Going to Friend House Something Will Upset Your Chest",
          "submissionValue": "AQ01-Chest Upset at Friend House",
          "synonyms": [
            "AQ01-Chest Upset at Friend House"
          ]
        },
        {
          "conceptId": "C112529",
          "definition": "Airway Questionnaire 20 - Do you cough often during the day?",
          "preferredTerm": "AQ20 - Cough Often During the Day",
          "submissionValue": "AQ01-Cough Often During Day",
          "synonyms": [
            "AQ01-Cough Often During Day"
          ]
        },
        {
          "conceptId": "C112538",
          "definition": "Airway Questionnaire 20 - Are there times when you have difficulty getting around the house because of your chest trouble?",
          "preferredTerm": "AQ20 - Difficulty Getting Around the House Because of Chest Trouble",
          "submissionValue": "AQ01-Difficulty Getting Around the House",
          "synonyms": [
            "AQ01-Difficulty Getting Around the House"
          ]
        },
        {
          "conceptId": "C112546",
          "definition": "Airway Questionnaire 20 - Do you feel drained after a cold because of your chest trouble?",
          "preferredTerm": "AQ20 - Feel Drained After a Cold Because of Chest Trouble",
          "submissionValue": "AQ01-Drained After a Cold",
          "synonyms": [
            "AQ01-Drained After a Cold"
          ]
        },
        {
          "conceptId": "C112537",
          "definition": "Airway Questionnaire 20 - Does getting emotionally upset make your chest trouble worse?",
          "preferredTerm": "AQ20 - Getting Emotionally Upset Make Chest Trouble Worse",
          "submissionValue": "AQ01-Emotional Upset Worse Chest Trouble",
          "synonyms": [
            "AQ01-Emotional Upset Worse Chest Trouble"
          ]
        },
        {
          "conceptId": "C112530",
          "definition": "Airway Questionnaire 20 - Does your chest trouble often make you feel restless?",
          "preferredTerm": "AQ20 - Chest Trouble Make You Feel Restless",
          "submissionValue": "AQ01-Feel Restless Due to Chest Trouble",
          "synonyms": [
            "AQ01-Feel Restless Due to Chest Trouble"
          ]
        },
        {
          "conceptId": "C112547",
          "definition": "Airway Questionnaire 20 - Do you have a feeling of chest heaviness?",
          "preferredTerm": "AQ20 - Feeling of Chest Heaviness",
          "submissionValue": "AQ01-Feeling of Chest Heaviness",
          "synonyms": [
            "AQ01-Feeling of Chest Heaviness"
          ]
        },
        {
          "conceptId": "C112545",
          "definition": "Airway Questionnaire 20 - Do you think the fullness of your life is limited by your chest trouble?",
          "preferredTerm": "AQ20 - Fullness of Life is Limited by Chest Trouble",
          "submissionValue": "AQ01-Full Life Limited by Chest Trouble",
          "synonyms": [
            "AQ01-Full Life Limited by Chest Trouble"
          ]
        },
        {
          "conceptId": "C112531",
          "definition": "Airway Questionnaire 20 - Does gardening make you breathless?",
          "preferredTerm": "AQ20 - Gardening Make You Breathless",
          "submissionValue": "AQ01-Gardening Make You Breathless",
          "synonyms": [
            "AQ01-Gardening Make You Breathless"
          ]
        },
        {
          "conceptId": "C112541",
          "definition": "Airway Questionnaire 20 - Do you get breathless doing housework?",
          "preferredTerm": "AQ20 - Get Breathless Doing Housework",
          "submissionValue": "AQ01-Get Breathless Doing Housework",
          "synonyms": [
            "AQ01-Get Breathless Doing Housework"
          ]
        },
        {
          "conceptId": "C112542",
          "definition": "Airway Questionnaire 20 - Does your chest trouble make you go home sooner than others after a night out?",
          "preferredTerm": "AQ20 - Chest Trouble Make You Go Home Sooner Than Others",
          "submissionValue": "AQ01-Go Home Sooner Than Others",
          "synonyms": [
            "AQ01-Go Home Sooner Than Others"
          ]
        },
        {
          "conceptId": "C112544",
          "definition": "Airway Questionnaire 20 - Does your chest trouble often make you feel impatient?",
          "preferredTerm": "AQ20 - Chest Trouble Make You Feel Impatient",
          "submissionValue": "AQ01-Impatient Due to Chest Trouble",
          "synonyms": [
            "AQ01-Impatient Due to Chest Trouble"
          ]
        },
        {
          "conceptId": "C112536",
          "definition": "Airway Questionnaire 20 - Do you worry about the long term effects of the drugs you take for your chest trouble?",
          "preferredTerm": "AQ20 - Worry About Long Term Effects of Drugs for Chest Trouble",
          "submissionValue": "AQ01-Long Term Effects of Drugs",
          "synonyms": [
            "AQ01-Long Term Effects of Drugs"
          ]
        },
        {
          "conceptId": "C112534",
          "definition": "Airway Questionnaire 20 - Does your partner find your chest trouble upsetting?",
          "preferredTerm": "AQ20 - Partner Find Your Chest Trouble Upsetting",
          "submissionValue": "AQ01-Partner Upset by Your Chest Trouble",
          "synonyms": [
            "AQ01-Partner Upset by Your Chest Trouble"
          ]
        },
        {
          "conceptId": "C112548",
          "definition": "Airway Questionnaire 20 - Do you worry a lot about your chest trouble?",
          "preferredTerm": "AQ20 - Worry a Lot About Chest Trouble",
          "submissionValue": "AQ01-Worry About Chest Trouble",
          "synonyms": [
            "AQ01-Worry About Chest Trouble"
          ]
        }
      ]
    },
    {
      "conceptId": "C100132",
      "definition": "ADAS-Cog CDISC Version test code.",
      "extensible": "No",
      "name": "QS-Alzheimer's Disease Assessment Scale - Cognitive CDISC Version Test Code",
      "preferredTerm": "CDISC Questionnaire ADAS-Cog CDISC Version Test Code Terminology",
      "submissionValue": "ADAS-Cog CDISC Version TESTCD",
      "synonyms": [
        "QS-Alzheimer's Disease Assessment Scale - Cognitive CDISC Version Test Code"
      ],
      "terms": [
        {
          "conceptId": "C100209",
          "definition": "Alzheimer's Disease Assessment Scale-Cognitive CDISC Version - Summary score for commands.",
          "preferredTerm": "CDISC ADAS-Cog - Commands Summary Score",
          "submissionValue": "ADCCMD",
          "synonyms": [
            "Commands"
          ]
        },
        {
          "conceptId": "C100210",
          "definition": "Alzheimer's Disease Assessment Scale-Cognitive CDISC Version - Commands task for making a fist.",
          "preferredTerm": "CDISC ADAS-Cog - Commands: Fist",
          "submissionValue": "ADCCMD01",
          "synonyms": [
            "Commands: Fist"
          ]
        },
        {
          "conceptId": "C100211",
          "definition": "Alzheimer's Disease Assessment Scale-Cognitive CDISC Version - Commands task for pointing to the ceiling then to the floor.",
          "preferredTerm": "CDISC ADAS-Cog - Commands: Ceiling",
          "submissionValue": "ADCCMD02",
          "synonyms": [
            "Commands: Ceiling"
          ]
        },
        {
          "conceptId": "C100212",
          "definition": "Alzheimer's Disease Assessment Scale-Cognitive CDISC Version - Commands task for put the pencil on top of the card and then put it back.",
          "preferredTerm": "CDISC ADAS-Cog - Commands: Pencil",
          "submissionValue": "ADCCMD03",
          "synonyms": [
            "Commands: Pencil"
          ]
        },
        {
          "conceptId": "C100213",
          "definition": "Alzheimer's Disease Assessment Scale-Cognitive CDISC Version - Commands task for put the watch on the other side of the pencil and then turn over the card.",
          "preferredTerm": "CDISC ADAS-Cog - Commands: Watch",
          "submissionValue": "ADCCMD04",
          "synonyms": [
            "Commands: Watch"
          ]
        },
        {
          "conceptId": "C100214",
          "definition": "Alzheimer's Disease Assessment Scale-Cognitive CDISC Version - Commands task for tap each shoulder twice with two fingers keeping your eyes shut.",
          "preferredTerm": "CDISC ADAS-Cog - Commands: Shoulder",
          "submissionValue": "ADCCMD05",
          "synonyms": [
            "Commands: Shoulder"
          ]
