{"_links": {"parentPackage": {"href": "/mdr/ct/packages/sdtmct-2019-06-28", "title": "SDTM Controlled Terminology Package 38 Effective 2019-06-28", "type": "Terminology"}, "priorVersion": {"href": "/mdr/ct/packages/sdtmct-2019-03-29/codelists/C106650", "title": "CDISC Questionnaire ADCS-ADL MCI Test Name Terminology", "type": "Code List"}, "rootItem": {"href": "/mdr/root/ct/sdtmct/codelists/C106650", "title": "Version-agnostic anchor resource for codelist C106650", "type": "Root Value Domain"}, "self": {"href": "/mdr/ct/packages/sdtmct-2019-06-28/codelists/C106650", "title": "CDISC Questionnaire ADCS-ADL MCI Test Name Terminology", "type": "Code List"}}, "conceptId": "C106650", "definition": "Alzheimer's Disease Cooperative Study-Activities of Daily Living Inventory MCI Version test name.", "extensible": "false", "name": "Alzheimer's Disease Cooperative Study-Activities of Daily Living Inventory MCI Version Questionnaire Test Name", "preferredTerm": "CDISC Questionnaire ADCS-ADL MCI Test Name Terminology", "submissionValue": "ADL03TN", "synonyms": ["Alzheimer's Disease Cooperative Study-Activities of Daily Living Inventory MCI Version Questionnaire Test Name"], "terms": [{"conceptId": "C106933", "definition": "Alzheimer's Disease Cooperative Study-Activities of Daily Living Inventory, MCI Version - Check all that were used: dishwasher.", "preferredTerm": "ADCS-ADL MCI - Use Household Appliance: Dishwasher", "submissionValue": "ADL03-Appliance: Dishwasher", "synonyms": ["ADL03-Appliance: Dishwasher"]}, {"conceptId": "C107090", "definition": "Alzheimer's Disease Cooperative Study-Activities of Daily Living Inventory, MCI Version - Check all that were used: dryer.", "preferredTerm": "ADCS-ADL MCI - Use Household Appliance: Dryer", "submissionValue": "ADL03-Appliance: Dryer", "synonyms": ["ADL03-Appliance: Dryer"]}, {"conceptId": "C106938", "definition": "Alzheimer's Disease Cooperative Study-Activities of Daily Living Inventory, MCI Version - Check all that were used: food processor.", "preferredTerm": "ADCS-ADL MCI - Use Household Appliance: Food Processor", "submissionValue": "ADL03-Appliance: Food Processor", "synonyms": ["ADL03-Appliance: Food Processor"]}, {"conceptId": "C106937", "definition": "Alzheimer's Disease Cooperative Study-Activities of Daily Living Inventory, MCI Version - Check all that were used: microwave.", "preferredTerm": "ADCS-ADL MCI - Use Household Appliance: Microwave", "submissionValue": "ADL03-Appliance: Microwave", "synonyms": ["ADL03-Appliance: Microwave"]}, {"conceptId": "C106939", "definition": "Alzheimer's Disease Cooperative Study-Activities of Daily Living Inventory, MCI Version - Check all that were used: other.", "preferredTerm": "ADCS-ADL MCI - Use Household Appliance: Other", "submissionValue": "ADL03-Appliance: Other", "synonyms": ["ADL03-Appliance: Other"]}, {"conceptId": "C106940", "definition": "Alzheimer's Disease Cooperative Study-Activities of Daily Living Inventory, MCI Version - Check all that were used: other specify.", "preferredTerm": "ADCS-ADL MCI - Use Household Appliance: Other Specify", "submissionValue": "ADL03-Appliance: Other Specify", "synonyms": ["ADL03-Appliance: Other Specify"]}, {"conceptId": "C106934", "definition": "Alzheimer's Disease Cooperative Study-Activities of Daily Living Inventory, MCI Version - Check all that were used: power tool (s).", "preferredTerm": "ADCS-ADL MCI - Use Household Appliance: Power Tools", "submissionValue": "ADL03-Appliance: Power Tools", "synonyms": ["ADL03-Appliance: Power Tools"]}, {"conceptId": "C106936", "definition": "Alzheimer's Disease Cooperative Study-Activities of Daily Living Inventory, MCI Version - Check all that were used: range.", "preferredTerm": "ADCS-ADL MCI - Use Household Appliance: Range", "submissionValue": "ADL03-Appliance: Range", "synonyms": ["ADL03-Appliance: Range"]}, {"conceptId": "C106935", "definition": "Alzheimer's Disease Cooperative Study-Activities of Daily Living Inventory, MCI Version - Check all that were used: toaster oven.", "preferredTerm": "ADCS-ADL MCI - Use Household Appliance: Toaster Oven", "submissionValue": "ADL03-Appliance: Toaster Oven", "synonyms": ["ADL03-Appliance: Toaster Oven"]}, {"conceptId": "C107091", "definition": "Alzheimer's Disease Cooperative Study-Activities of Daily Living Inventory, MCI Version - Check all that were used: vacuum.", "preferredTerm": "ADCS-ADL MCI - Use Household Appliance: Vacuum", "submissionValue": "ADL03-Appliance: Vacuum", "synonyms": ["ADL03-Appliance: Vacuum"]}, {"conceptId": "C107089", "definition": "Alzheimer's Disease Cooperative Study-Activities of Daily Living Inventory, MCI Version - Check all that were used: washer.", "preferredTerm": "ADCS-ADL MCI - Use Household Appliance: Washer", "submissionValue": "ADL03-Appliance: Washer", "synonyms": ["ADL03-Appliance: Washer"]}, {"conceptId": "C106905", "definition": "Alzheimer's Disease Cooperative Study-Activities of Daily Living Inventory, MCI Version - If yes, which best describes his/her awareness of the meeting ahead of time.", "preferredTerm": "ADCS-ADL MCI - Description of Awareness of the Meeting Ahead of Time", "submissionValue": "ADL03-Aware of Appointment Ahead of Time", "synonyms": ["ADL03-Aware of Appointment Ahead of Time"]}, {"conceptId": "C106898", "definition": "Alzheimer's Disease Cooperative Study-Activities of Daily Living Inventory, MCI Version - In the past 4 weeks, did {S} balance his/her checkbook or credit card statement?", "preferredTerm": "ADCS-ADL MCI - Balance Checkbook", "submissionValue": "ADL03-Balance Checkbook", "synonyms": ["ADL03-Balance Checkbook"]}, {"conceptId": "C106899", "definition": "Alzheimer's Disease Cooperative Study-Activities of Daily Living Inventory, MCI Version - If yes, which best describes how he/she usually performed.", "preferredTerm": "ADCS-ADL MCI - Description of Usual Performance of Balancing Checkbook", "submissionValue": "ADL03-Balance Checkbook Performance", "synonyms": ["ADL03-Balance Checkbook Performance"]}, {"conceptId": "C106902", "definition": "Alzheimer's Disease Cooperative Study-Activities of Daily Living Inventory, MCI Version - In the past 4 weeks, did {S} clean a load of laundry?", "preferredTerm": "ADCS-ADL MCI - Clean Laundry", "submissionValue": "ADL03-Clean Laundry", "synonyms": ["ADL03-Clean Laundry"]}, {"conceptId": "C106896", "definition": "Alzheimer's Disease Cooperative Study-Activities of Daily Living Inventory, MCI Version - In the past 4 weeks, did {S} clean a living-, sitting-, or family room?", "preferredTerm": "ADCS-ADL MCI - Clean Room", "submissionValue": "ADL03-Clean Room", "synonyms": ["ADL03-Clean Room"]}, {"conceptId": "C106897", "definition": "Alzheimer's Disease Cooperative Study-Activities of Daily Living Inventory, MCI Version - If yes, which best describes how he/she usually performed.", "preferredTerm": "ADCS-ADL MCI - Description of Usual Performance of Cleaning Room", "submissionValue": "ADL03-Clean Room Performance", "synonyms": ["ADL03-Clean Room Performance"]}, {"conceptId": "C106964", "definition": "Alzheimer's Disease Cooperative Study-Activities of Daily Living Inventory, MCI Version - During the past 4 weeks, did {S} usually carry through complex or time-consuming activities to completion?", "preferredTerm": "ADCS-ADL MCI - Carry Through Complex Activities to Completion", "submissionValue": "ADL03-Complete Complex Activities", "synonyms": ["ADL03-Complete Complex Activities"]}, {"conceptId": "C106960", "definition": "Alzheimer's Disease Cooperative Study-Activities of Daily Living Inventory, MCI Version - In the past 4 weeks, did {S} drive a car?", "preferredTerm": "ADCS-ADL MCI - Drive a Car", "submissionValue": "ADL03-Drive Car", "synonyms": ["ADL03-Drive Car"]}, {"conceptId": "C106961", "definition": "Alzheimer's Disease Cooperative Study-Activities of Daily Living Inventory, MCI Version - If yes, which best describes his/her optimal performance.", "preferredTerm": "ADCS-ADL MCI - Description of Optimal Performance of Driving Car", "submissionValue": "ADL03-Drive Car Optimal Performance", "synonyms": ["ADL03-Drive Car Optimal Performance"]}, {"conceptId": "C106969", "definition": "Alzheimer's Disease Cooperative Study-Activities of Daily Living Inventory, MCI Version - If yes, explain.", "preferredTerm": "ADCS-ADL MCI - Explain Extenuating Circumstance", "submissionValue": "ADL03-Explain Circumstance", "synonyms": ["ADL03-Explain Circumstance"]}, {"conceptId": "C106965", "definition": "Alzheimer's Disease Cooperative Study-Activities of Daily Living Inventory, MCI Version - If yes, which best describes extent to which he/she needed reminders.", "preferredTerm": "ADCS-ADL MCI - Description of Extent Needing Reminder", "submissionValue": "ADL03-Extent Needed Reminders", "synonyms": ["ADL03-Extent Needed Reminders"]}, {"conceptId": "C106968", "definition": "Alzheimer's Disease Cooperative Study-Activities of Daily Living Inventory, MCI Version - Has an extenuating circumstance (such as a physical health problem, change in residence, change in support network, death of a family member, etc.) contributed to a recent alteration in the subject's activities of daily living?", "preferredTerm": "ADCS-ADL MCI - Extenuating Circumstance", "submissionValue": "ADL03-Extenuating Circumstances", "synonyms": ["ADL03-Extenuating Circumstances"]}, {"conceptId": "C106892", "definition": "Alzheimer's Disease Cooperative Study-Activities of Daily Living Inventory, MCI Version - If yes, which best describes how he /she usually performed.", "preferredTerm": "ADCS-ADL MCI - Description of Usual Performance of Finding Belongings", "submissionValue": "ADL03-Find Belongings Usual Performance", "synonyms": ["ADL03-Find Belongings Usual Performance"]}, {"conceptId": "C106891", "definition": "Alzheimer's Disease Cooperative Study-Activities of Daily Living Inventory, MCI Version - In the past 4 weeks, did {S} usually manage to find his/her personal belongings at home?", "preferredTerm": "ADCS-ADL MCI - Find Personal Belongings", "submissionValue": "ADL03-Find Personal Belongings", "synonyms": ["ADL03-Find Personal Belongings"]}, {"conceptId": "C106911", "definition": "Alzheimer's Disease Cooperative Study-Activities of Daily Living Inventory, MCI Version - If yes, which best describes his/her optimal performance.", "preferredTerm": "ADCS-ADL MCI - Description of Optimal Performance of Travelling Outside Home", "submissionValue": "ADL03-Get Around Optimal Performance", "synonyms": ["ADL03-Get Around Optimal Performance"]}, {"conceptId": "C106910", "definition": "Alzheimer's Disease Cooperative Study-Activities of Daily Living Inventory, MCI Version - In the past 4 weeks, did {S} get around (or travel) outside of his/her home?", "preferredTerm": "ADCS-ADL MCI - Travel Outside Home", "submissionValue": "ADL03-Get Around Outside Home", "synonyms": ["ADL03-Get Around Outside Home"]}, {"conceptId": "C106925", "definition": "Alzheimer's Disease Cooperative Study-Activities of Daily Living Inventory, MCI Version - In the past 4 weeks, did {S} ever go shopping at a store?", "preferredTerm": "ADCS-ADL MCI - Go Shopping At a Store", "submissionValue": "ADL03-Go Shopping", "synonyms": ["ADL03-Go Shopping"]}, {"conceptId": "C106909", "definition": "Alzheimer's Disease Cooperative Study-Activities of Daily Living Inventory, MCI Version - If yes, which best describes his/her highest level of food preparation.", "preferredTerm": "ADCS-ADL MCI - Description of Highest Level of Food Preparation", "submissionValue": "ADL03-Highest Level of Food Preparation", "synonyms": ["ADL03-Highest Level of Food Preparation"]}, {"conceptId": "C106907", "definition": "Alzheimer's Disease Cooperative Study-Activities of Daily Living Inventory, MCI Version - If yes, which best describes his/her highest level of performance.", "preferredTerm": "ADCS-ADL MCI - Description of Highest Level of Performance of Telephone Use", "submissionValue": "ADL03-Highest Telephone Use Performance", "synonyms": ["ADL03-Highest Telephone Use Performance"]}, {"conceptId": "C106958", "definition": "Alzheimer's Disease Cooperative Study-Activities of Daily Living Inventory, MCI Version - Did {S} require supervision, or help, to perform any of these hobbies?", "preferredTerm": "ADCS-ADL MCI - Require Help to Perform Hobbies", "submissionValue": "ADL03-Hobbies Needed Help (Q18a)", "synonyms": ["ADL03-Hobbies Needed Help (Q18a)"]}, {"conceptId": "C106959", "definition": "Alzheimer's Disease Cooperative Study-Activities of Daily Living Inventory, MCI Version - List any hobby (ies) that the subject has lost the ability to perform.", "preferredTerm": "ADCS-ADL MCI - List Hobbies Lost Ability to Perform", "submissionValue": "ADL03-Hobbies Unable to Perform (Q18b)", "synonyms": ["ADL03-Hobbies Unable to Perform (Q18b)"]}, {"conceptId": "C106966", "definition": "Alzheimer's Disease Cooperative Study-Activities of Daily Living Inventory, MCI Version - During the past 4 weeks, to what extent did {S} initiate complex daily activities or projects (e.g., hobbies, travel)?", "preferredTerm": "ADCS-ADL MCI - Initiate Complex Daily Activities", "submissionValue": "ADL03-Initiate Complex Activities", "synonyms": ["ADL03-Initiate Complex Activities"]}, {"conceptId": "C106904", "definition": "Alzheimer's Disease Cooperative Study-Activities of Daily Living Inventory, MCI Version - In the past 4 weeks, did {S} keep appointments or meetings with other people, such as relatives, a doctor, the hairdresser, etc.?", "preferredTerm": "ADCS-ADL MCI - Keep Appointments", "submissionValue": "ADL03-Keep Appointments", "synonyms": ["ADL03-Keep Appointments"]}, {"conceptId": "C106903", "definition": "Alzheimer's Disease Cooperative Study-Activities of Daily Living Inventory, MCI Version - If yes, which best describes how he/she usually performed.", "preferredTerm": "ADCS-ADL MCI - Description of Usual Performance of Clean Laundry", "submissionValue": "ADL03-Laundry Cleaning Performance", "synonyms": ["ADL03-Laundry Cleaning Performance"]}, {"conceptId": "C106929", "definition": "Alzheimer's Disease Cooperative Study-Activities of Daily Living Inventory, MCI Version - Was {S} left away from home, for 15 minutes or longer, during the day?", "preferredTerm": "ADCS-ADL MCI - Left Away From Home Longer Than 15 Minutes", "submissionValue": "ADL03-Left Away From Home", "synonyms": ["ADL03-Left Away From Home"]}, {"conceptId": "C106928", "definition": "Alzheimer's Disease Cooperative Study-Activities of Daily Living Inventory, MCI Version - In the past 4 weeks, was {S} ever left on his/her own?", "preferredTerm": "ADCS-ADL MCI - Left on His or Her Own", "submissionValue": "ADL03-Left On His/Her Own", "synonyms": ["ADL03-Left On His/Her Own"]}, {"conceptId": "C106930", "definition": "Alzheimer's Disease Cooperative Study-Activities of Daily Living Inventory, MCI Version - Was {S} left at home, for an hour or longer, during the day?", "preferredTerm": "ADCS-ADL MCI - Left at Home Longer Than an Hour", "submissionValue": "ADL03-Left at Home for 1 Hour or Longer", "synonyms": ["ADL03-Left at Home for 1 Hour or Longer"]}, {"conceptId": "C106931", "definition": "Alzheimer's Disease Cooperative Study-Activities of Daily Living Inventory, MCI Version - Was {S} left at home, for less than 1 hour, during the day?", "preferredTerm": "ADCS-ADL MCI - Left at Home Less Than an Hour", "submissionValue": "ADL03-Left at Home for Less Than 1 Hour", "synonyms": ["ADL03-Left at Home for Less Than 1 Hour"]}, {"conceptId": "C106908", "definition": "Alzheimer's Disease Cooperative Study-Activities of Daily Living Inventory, MCI Version - In the past 4 weeks, did {S} make him/herself a meal or snack at home?", "preferredTerm": "ADCS-ADL MCI - Make a Meal or Snack", "submissionValue": "ADL03-Make a Meal", "synonyms": ["ADL03-Make a Meal"]}, {"conceptId": "C106901", "definition": "Alzheimer's Disease Cooperative Study-Activities of Daily Living Inventory, MCI Version - If yes, which best describes the most complicated things that he/she wrote.", "preferredTerm": "ADCS-ADL MCI - Description of Usual Performance of Most Complicated Things Written", "submissionValue": "ADL03-Most Complicated Writings", "synonyms": ["ADL03-Most Complicated Writings"]}, {"conceptId": "C106946", "definition": "Alzheimer's Disease Cooperative Study-Activities of Daily Living Inventory, MCI Version - Which pastimes did he/she perform: art.", "preferredTerm": "ADCS-ADL MCI - Perform Pastime, Hobby or Game: Art", "submissionValue": "ADL03-Pastime: Art", "synonyms": ["ADL03-Pastime: Art"]}, {"conceptId": "C106944", "definition": "Alzheimer's Disease Cooperative Study-Activities of Daily Living Inventory, MCI Version - Which pastimes did he/she perform: bingo.", "preferredTerm": "ADCS-ADL MCI - Perform Pastime, Hobby or Game: Bingo", "submissionValue": "ADL03-Pastime: Bingo", "synonyms": ["ADL03-Pastime: Bingo"]}, {"conceptId": "C106943", "definition": "Alzheimer's Disease Cooperative Study-Activities of Daily Living Inventory, MCI Version - Which pastimes did he/she perform: card or board games.", "preferredTerm": "ADCS-ADL MCI - Perform Pastime, Hobby or Game: Card or Board Games", "submissionValue": "ADL03-Pastime: Card or Board Games", "synonyms": ["ADL03-Pastime: Card or Board Games"]}, {"conceptId": "C106945", "definition": "Alzheimer's Disease Cooperative Study-Activities of Daily Living Inventory, MCI Version - Which pastimes did he/she perform: crosswords.", "preferredTerm": "ADCS-ADL MCI - Perform Pastime, Hobby or Game: Crosswords", "submissionValue": "ADL03-Pastime: Crosswords", "synonyms": ["ADL03-Pastime: Crosswords"]}, {"conceptId": "C106955", "definition": "Alzheimer's Disease Cooperative Study-Activities of Daily Living Inventory, MCI Version - Which pastimes did he/she perform: fishing.", "preferredTerm": "ADCS-ADL MCI - Perform Pastime, Hobby or Game: Fishing", "submissionValue": "ADL03-Pastime: Fishing", "synonyms": ["ADL03-Pastime: Fishing"]}, {"conceptId": "C106951", "definition": "Alzheimer's Disease Cooperative Study-Activities of Daily Living Inventory, MCI Version - Which pastimes did he/she perform: gardening.", "preferredTerm": "ADCS-ADL MCI - Perform Pastime, Hobby or Game: Gardening", "submissionValue": "ADL03-Pastime: Gardening", "synonyms": ["ADL03-Pastime: Gardening"]}, {"conceptId": "C106952", "definition": "Alzheimer's Disease Cooperative Study-Activities of Daily Living Inventory, MCI Version - Which pastimes did he/she perform: golf.", "preferredTerm": "ADCS-ADL MCI - Perform Pastime, Hobby or Game: Golf", "submissionValue": "ADL03-Pastime: Golf", "synonyms": ["ADL03-Pastime: Golf"]}, {"conceptId": "C106948", "definition": "Alzheimer's Disease Cooperative Study-Activities of Daily Living Inventory, MCI Version - Which pastimes did he/she perform: knitting.", "preferredTerm": "ADCS-ADL MCI - Perform Pastime, Hobby or Game: Knitting", "submissionValue": "ADL03-Pastime: Knitting", "synonyms": ["ADL03-Pastime: Knitting"]}, {"conceptId": "C106947", "definition": "Alzheimer's Disease Cooperative Study-Activities of Daily Living Inventory, MCI Version - Which pastimes did he/she perform: musical instrument.", "preferredTerm": "ADCS-ADL MCI - Perform Pastime, Hobby or Game: Musical Instrument", "submissionValue": "ADL03-Pastime: Musical Instrument", "synonyms": ["ADL03-Pastime: Musical Instrument"]}, {"conceptId": "C106956", "definition": "Alzheimer's Disease Cooperative Study-Activities of Daily Living Inventory, MCI Version - Which pastimes did he/she perform: other.", "preferredTerm": "ADCS-ADL MCI - Perform Pastime, Hobby or Game: Other", "submissionValue": "ADL03-Pastime: Other", "synonyms": ["ADL03-Pastime: Other"]}, {"conceptId": "C106957", "definition": "Alzheimer's Disease Cooperative Study-Activities of Daily Living Inventory, MCI Version - Which pastimes did he/she perform: other specify.", "preferredTerm": "ADCS-ADL MCI - Perform Pastime, Hobby or Game: Other Specify", "submissionValue": "ADL03-Pastime: Other Specify", "synonyms": ["ADL03-Pastime: Other Specify"]}, {"conceptId": "C106950", "definition": "Alzheimer's Disease Cooperative Study-Activities of Daily Living Inventory, MCI Version - Which pastimes did he/she perform: reading.", "preferredTerm": "ADCS-ADL MCI - Perform Pastime, Hobby or Game: Reading", "submissionValue": "ADL03-Pastime: Reading", "synonyms": ["ADL03-Pastime: Reading"]}, {"conceptId": "C106949", "definition": "Alzheimer's Disease Cooperative Study-Activities of Daily Living Inventory, MCI Version - Which pastimes did he/she perform: sewing.", "preferredTerm": "ADCS-ADL MCI - Perform Pastime, Hobby or Game: Sewing", "submissionValue": "ADL03-Pastime: Sewing", "synonyms": ["ADL03-Pastime: Sewing"]}, {"conceptId": "C106953", "definition": "Alzheimer's Disease Cooperative Study-Activities of Daily Living Inventory, MCI Version - Which pastimes did he/she perform: tennis.", "preferredTerm": "ADCS-ADL MCI - Perform Pastime, Hobby or Game: Tennis", "submissionValue": "ADL03-Pastime: Tennis", "synonyms": ["ADL03-Pastime: Tennis"]}, {"conceptId": "C106954", "definition": "Alzheimer's Disease Cooperative Study-Activities of Daily Living Inventory, MCI Version - Which pastimes did he/she perform: workshop.", "preferredTerm": "ADCS-ADL MCI - Perform Pastime, Hobby or Game: Workshop", "submissionValue": "ADL03-Pastime: Workshop", "synonyms": ["ADL03-Pastime: Workshop"]}, {"conceptId": "C106927", "definition": "Alzheimer's Disease Cooperative Study-Activities of Daily Living Inventory, MCI Version - Did {S} usually pay for items on his/her own?", "preferredTerm": "ADCS-ADL MCI - Pay for Items on His or Her Own", "submissionValue": "ADL03-Pay Items On His/Her Own", "synonyms": ["ADL03-Pay Items On His/Her Own"]}, {"conceptId": "C106942", "definition": "Alzheimer's Disease Cooperative Study-Activities of Daily Living Inventory, MCI Version - In the past 4 weeks, did {S} perform a pastime, hobby or game?", "preferredTerm": "ADCS-ADL MCI - Perform Pastime, Hobby or Game", "submissionValue": "ADL03-Perform Pastime", "synonyms": ["ADL03-Perform Pastime"]}, {"conceptId": "C106917", "definition": "Alzheimer's Disease Cooperative Study-Activities of Daily Living Inventory, MCI Version - In the past 4 weeks, did {S} read a magazine, newspaper or book for more than 5 minutes at a time?", "preferredTerm": "ADCS-ADL MCI - Read More Than 5 Minutes", "submissionValue": "ADL03-Read More Than 5 Minutes", "synonyms": ["ADL03-Read More Than 5 Minutes"]}, {"conceptId": "C106913", "definition": "Alzheimer's Disease Cooperative Study-Activities of Daily Living Inventory, MCI Version - If yes, did {S} talk about regional, national or international events?", "preferredTerm": "ADCS-ADL MCI - Talk About Regional, National or International Events", "submissionValue": "ADL03-Regional, National, International", "synonyms": ["ADL03-Regional, National, International"]}, {"conceptId": "C106893", "definition": "Alzheimer's Disease Cooperative Study-Activities of Daily Living Inventory, MCI Version - In the past 4 weeks, did {S} select his/her first set of clothes for the day?", "preferredTerm": "ADCS-ADL MCI - Select First Clothes for the Day", "submissionValue": "ADL03-Select First Clothes for the Day", "synonyms": ["ADL03-Select First Clothes for the Day"]}, {"conceptId": "C106926", "definition": "Alzheimer's Disease Cooperative Study-Activities of Daily Living Inventory, MCI Version - Did {S} usually select correct items without supervision or help?", "preferredTerm": "ADCS-ADL MCI - Select Correct Items Without Help", "submissionValue": "ADL03-Select Items Without Help", "synonyms": ["ADL03-Select Items Without Help"]}, {"conceptId": "C106922", "definition": "Alzheimer's Disease Cooperative Study-Activities of Daily Living Inventory, MCI Version - Did {S} usually select or ask for different programs or his/her favorite show?", "preferredTerm": "ADCS-ADL MCI - Select or Ask for Programs or Show", "submissionValue": "ADL03-Select Television Program", "synonyms": ["ADL03-Select Television Program"]}, {"conceptId": "C106918", "definition": "Alzheimer's Disease Cooperative Study-Activities of Daily Living Inventory, MCI Version - Did {S} usually select or ask for something to read?", "preferredTerm": "ADCS-ADL MCI - Select or Ask for Something to Read", "submissionValue": "ADL03-Select/Ask for Something to Read", "synonyms": ["ADL03-Select/Ask for Something to Read"]}, {"conceptId": "C106976", "definition": "Alzheimer's Disease Cooperative Study-Activities of Daily Living Inventory, MCI Version - Subscore for Page 7.", "preferredTerm": "ADCS-ADL MCI - Subscore for Item 17", "submissionValue": "ADL03-Subscore for Item 17", "synonyms": ["ADL03-Subscore for Item 17"]}, {"conceptId": "C106977", "definition": "Alzheimer's Disease Cooperative Study-Activities of Daily Living Inventory, MCI Version - Subscore for Page 8.", "preferredTerm": "ADCS-ADL MCI - Subscore for Item 18", "submissionValue": "ADL03-Subscore for Item 18", "synonyms": ["ADL03-Subscore for Item 18"]}, {"conceptId": "C106970", "definition": "Alzheimer's Disease Cooperative Study-Activities of Daily Living Inventory, MCI Version - Subscore for Page 1.", "preferredTerm": "ADCS-ADL MCI - Subscore for Items 1 to 3", "submissionValue": "ADL03-Subscore for Items 1 to 3", "synonyms": ["ADL03-Subscore for Items 1 to 3"]}, {"conceptId": "C106973", "definition": "Alzheimer's Disease Cooperative Study-Activities of Daily Living Inventory, MCI Version - Subscore for Page 4.", "preferredTerm": "ADCS-ADL MCI - Subscore for Items 11 to 12", "submissionValue": "ADL03-Subscore for Items 11 to 12d", "synonyms": ["ADL03-Subscore for Items 11 to 12d"]}, {"conceptId": "C106974", "definition": "Alzheimer's Disease Cooperative Study-Activities of Daily Living Inventory, MCI Version - Subscore for Page 5.", "preferredTerm": "ADCS-ADL MCI - Subscore for Items 13 to 14", "submissionValue": "ADL03-Subscore for Items 13 to 14c", "synonyms": ["ADL03-Subscore for Items 13 to 14c"]}, {"conceptId": "C106975", "definition": "Alzheimer's Disease Cooperative Study-Activities of Daily Living Inventory, MCI Version - Subscore for Page 6.", "preferredTerm": "ADCS-ADL MCI - Subscore for Items 15 to 16", "submissionValue": "ADL03-Subscore for Items 15 to 16c", "synonyms": ["ADL03-Subscore for Items 15 to 16c"]}, {"conceptId": "C106971", "definition": "Alzheimer's Disease Cooperative Study-Activities of Daily Living Inventory, MCI Version - Subscore for Page 2.", "preferredTerm": "ADCS-ADL MCI - Subscore for Items 4 to 7", "submissionValue": "ADL03-Subscore for Items 4 to 7", "synonyms": ["ADL03-Subscore for Items 4 to 7"]}, {"conceptId": "C106972", "definition": "Alzheimer's Disease Cooperative Study-Activities of Daily Living Inventory, MCI Version - Subscore for Page 3.", "preferredTerm": "ADCS-ADL MCI - Subscore for Items 8 to 10", "submissionValue": "ADL03-Subscore for Items 8 to 10", "synonyms": ["ADL03-Subscore for Items 8 to 10"]}, {"conceptId": "C106963", "definition": "Alzheimer's Disease Cooperative Study-Activities of Daily Living Inventory, MCI Version - If yes, was this.", "preferredTerm": "ADCS-ADL MCI - Description of Taking Medications Regularly", "submissionValue": "ADL03-Take Medications Performance", "synonyms": ["ADL03-Take Medications Performance"]}, {"conceptId": "C106962", "definition": "Alzheimer's Disease Cooperative Study-Activities of Daily Living Inventory, MCI Version - During the past 4 weeks, did {S} take his/her medications regularly?", "preferredTerm": "ADCS-ADL MCI - Take Medications Regularly", "submissionValue": "ADL03-Take Medications Regularly", "synonyms": ["ADL03-Take Medications Regularly"]}, {"conceptId": "C106912", "definition": "Alzheimer's Disease Cooperative Study-Activities of Daily Living Inventory, MCI Version - In the past 4 weeks, did {S} talk about current events?", "preferredTerm": "ADCS-ADL MCI - Talk About Current Events", "submissionValue": "ADL03-Talk About Current Events", "synonyms": ["ADL03-Talk About Current Events"]}, {"conceptId": "C106914", "definition": "Alzheimer's Disease Cooperative Study-Activities of Daily Living Inventory, MCI Version - Did {S} talk about events outside home involving family, friends, or neighbors?", "preferredTerm": "ADCS-ADL MCI - Talk About Outside Home Events", "submissionValue": "ADL03-Talk About Outside Events", "synonyms": ["ADL03-Talk About Outside Events"]}, {"conceptId": "C106923", "definition": "Alzheimer's Disease Cooperative Study-Activities of Daily Living Inventory, MCI Version - Did {S} usually talk about the content of a program while watching it?", "preferredTerm": "ADCS-ADL MCI - Talk About Content of Program While Watching", "submissionValue": "ADL03-Talk About TV Content While Watch", "synonyms": ["ADL03-Talk About TV Content While Watch"]}, {"conceptId": "C106924", "definition": "Alzheimer's Disease Cooperative Study-Activities of Daily Living Inventory, MCI Version - Did {S} talk about the content of a program within a day (24 hours) after watching it?", "preferredTerm": "ADCS-ADL MCI - Talk About Content of Program After Watching Within a Day", "submissionValue": "ADL03-Talk About TV Content Within a Day", "synonyms": ["ADL03-Talk About TV Content Within a Day"]}, {"conceptId": "C106915", "definition": "Alzheimer's Disease Cooperative Study-Activities of Daily Living Inventory, MCI Version - Did {S} talk about events that occurred at home that he/she took part in or watched?", "preferredTerm": "ADCS-ADL MCI - Talk About at Home Events", "submissionValue": "ADL03-Talk About at Home Events", "synonyms": ["ADL03-Talk About at Home Events"]}, {"conceptId": "C106920", "definition": "Alzheimer's Disease Cooperative Study-Activities of Daily Living Inventory, MCI Version - Did {S} usually talk about what he/she read 1-24 hours after reading?", "preferredTerm": "ADCS-ADL MCI - Talk Within 24 Hours After Reading", "submissionValue": "ADL03-Talk Within 1 Day After Reading", "synonyms": ["ADL03-Talk Within 1 Day After Reading"]}, {"conceptId": "C106919", "definition": "Alzheimer's Disease Cooperative Study-Activities of Daily Living Inventory, MCI Version - Did {S} usually talk about what he/she read while or shortly after reading (less than 1 hour)?", "preferredTerm": "ADCS-ADL MCI - Talk Within 1 Hour After Reading", "submissionValue": "ADL03-Talk Within 1 Hour After Reading", "synonyms": ["ADL03-Talk Within 1 Hour After Reading"]}, {"conceptId": "C106916", "definition": "Alzheimer's Disease Cooperative Study-Activities of Daily Living Inventory, MCI Version - Did {S} converse without repeating him/herself, or asking the same questions repeatedly?", "preferredTerm": "ADCS-ADL MCI - Converse Without Repeating", "submissionValue": "ADL03-Talk Without Repeating", "synonyms": ["ADL03-Talk Without Repeating"]}, {"conceptId": "C106967", "definition": "Alzheimer's Disease Cooperative Study-Activities of Daily Living Inventory, MCI Version - During the past 4 weeks, how long did it usually take {S} to complete complex or time-consuming tasks or activities?", "preferredTerm": "ADCS-ADL MCI - Time Taken to Complete Complex Activities", "submissionValue": "ADL03-Time to Complete Complex Tasks", "synonyms": ["ADL03-Time to Complete Complex Tasks"]}, {"conceptId": "C106978", "definition": "Alzheimer's Disease Cooperative Study-Activities of Daily Living Inventory, MCI Version - Total Score.", "preferredTerm": "ADCS-ADL MCI - ADL Total Score", "submissionValue": "ADL03-Total ADCS-ADL Score", "synonyms": ["ADL03-Total ADCS-ADL Score"]}, {"conceptId": "C107092", "definition": "Alzheimer's Disease Cooperative Study-Activities of Daily Living Inventory, MCI Version - Were any questions (1-18) answered 'Don't Know'? If yes, calculate total points for 'Don't Know'.", "preferredTerm": "ADCS-ADL MCI - Points for Questions (1-18) Answered 'Don't Know'", "submissionValue": "ADL03-Total Points for 'Don't Know'", "synonyms": ["ADL03-Total Points for 'Don't Know'"]}, {"conceptId": "C106941", "definition": "Alzheimer's Disease Cooperative Study-Activities of Daily Living Inventory, MCI Version - For the 1 or 2 most commonly used appliances, which best describes how {S} usually used them.", "preferredTerm": "ADCS-ADL MCI - Description of Usual Use of Commonly Used Appliances", "submissionValue": "ADL03-Use Common Used Appliances (q17a)", "synonyms": ["ADL03-Use Common Used Appliances (q17a)"]}, {"conceptId": "C106932", "definition": "Alzheimer's Disease Cooperative Study-Activities of Daily Living Inventory, MCI Version - In the past 4 weeks, did {S} use a household appliance to do chores?", "preferredTerm": "ADCS-ADL MCI - Use Household Appliance", "submissionValue": "ADL03-Use Household Appliance", "synonyms": ["ADL03-Use Household Appliance"]}, {"conceptId": "C106906", "definition": "Alzheimer's Disease Cooperative Study-Activities of Daily Living Inventory, MCI Version - In the past 4 weeks, did {S} use a telephone?", "preferredTerm": "ADCS-ADL MCI - Use a Telephone", "submissionValue": "ADL03-Use a Telephone", "synonyms": ["ADL03-Use a Telephone"]}, {"conceptId": "C106894", "definition": "Alzheimer's Disease Cooperative Study-Activities of Daily Living Inventory, MCI Version - If yes, which best describes his/her usual performance.", "preferredTerm": "ADCS-ADL MCI - Description of Usual Performance of Selecting First Clothes for the Day", "submissionValue": "ADL03-Usual Dressing Performance", "synonyms": ["ADL03-Usual Dressing Performance"]}, {"conceptId": "C106895", "definition": "Alzheimer's Disease Cooperative Study-Activities of Daily Living Inventory, MCI Version - Regarding physically getting dressed, which best describes his/her usual performance in the past 4 weeks.", "preferredTerm": "ADCS-ADL MCI - Description of Usual Performance of Physically Getting Dressed", "submissionValue": "ADL03-Usual Physically Dressing Perform", "synonyms": ["ADL03-Usual Physically Dressing Perform"]}, {"conceptId": "C106921", "definition": "Alzheimer's Disease Cooperative Study-Activities of Daily Living Inventory, MCI Version - In the past 4 weeks, did {S} watch television?", "preferredTerm": "ADCS-ADL MCI - Watch Television", "submissionValue": "ADL03-Watch Television", "synonyms": ["ADL03-Watch Television"]}, {"conceptId": "C106900", "definition": "Alzheimer's Disease Cooperative Study-Activities of Daily Living Inventory, MCI Version - In the past 4 weeks, did {S} ever write things down?", "preferredTerm": "ADCS-ADL MCI - Write Things Down", "submissionValue": "ADL03-Write Things Down", "synonyms": ["ADL03-Write Things Down"]}]}