{"_links": {"parentPackage": {"href": "/mdr/ct/packages/sdtmct-2019-06-28", "title": "SDTM Controlled Terminology Package 38 Effective 2019-06-28", "type": "Terminology"}, "priorVersion": {"href": "/mdr/ct/packages/sdtmct-2019-03-29/codelists/C117986", "title": "CDISC Questionnaire CHART-SF Interview Version Test Name Terminology", "type": "Code List"}, "rootItem": {"href": "/mdr/root/ct/sdtmct/codelists/C117986", "title": "Version-agnostic anchor resource for codelist C117986", "type": "Root Value Domain"}, "self": {"href": "/mdr/ct/packages/sdtmct-2019-06-28/codelists/C117986", "title": "CDISC Questionnaire CHART-SF Interview Version Test Name Terminology", "type": "Code List"}}, "conceptId": "C117986", "definition": "Craig Handicap Assessment and Reporting Technique - Short Form Interview Version test name.", "extensible": "false", "name": "Craig Handicap Assessment and Reporting Technique - Short Form Interview Version Questionnaire Test Name", "preferredTerm": "CDISC Questionnaire CHART-SF Interview Version Test Name Terminology", "submissionValue": "CHSF1TN", "synonyms": ["Craig Handicap Assessment and Reporting Technique - Short Form Interview Version Questionnaire Test Name"], "terms": [{"conceptId": "C118014", "definition": "Craig Handicap Assessment and Reporting Technique-Short Form Interview Version - How many business or organizational associates do you visit, phone, or write to at least once a month?", "preferredTerm": "CHART-SF Interview Version - Associates Contacted per Month", "submissionValue": "CHSF1-Associates Contacted per Month", "synonyms": ["CHSF1-Associates Contacted per Month"]}, {"conceptId": "C118001", "definition": "Craig Handicap Assessment and Reporting Technique-Short Form Interview Version - How much of the time is someone with you to help you with remembering, decision making, or judgment when you go away from your home?", "preferredTerm": "CHART-SF Interview Version - Cognitive Assistance Away From Home per Day", "submissionValue": "CHSF1-Away Cognitive Assistance per Day", "synonyms": ["CHSF1-Away Cognitive Assistance per Day"]}, {"conceptId": "C118017", "definition": "Craig Handicap Assessment and Reporting Technique-Short Form Interview Version - Approximately what was the combined annual income, in the last year, of all family members in your household?", "preferredTerm": "CHART-SF Interview Version - Combined Annual Household Income Last Year", "submissionValue": "CHSF1-Combined Household Income Last Yr", "synonyms": ["CHSF1-Combined Household Income Last Yr"]}, {"conceptId": "C118003", "definition": "Craig Handicap Assessment and Reporting Technique-Short Form Interview Version - In a typical week, how many days do you get out of your house and go somewhere?", "preferredTerm": "CHART-SF Interview Version - Days Out of the House per Week", "submissionValue": "CHSF1-Days Out of the House per Week", "synonyms": ["CHSF1-Days Out of the House per Week"]}, {"conceptId": "C118015", "definition": "Craig Handicap Assessment and Reporting Technique-Short Form Interview Version - How many friends do you visit, phone, or write to at least once a month?", "preferredTerm": "CHART-SF Interview Version - Friends Contacted per Month", "submissionValue": "CHSF1-Friends Contacted per Month", "synonyms": ["CHSF1-Friends Contacted per Month"]}, {"conceptId": "C118000", "definition": "Craig Handicap Assessment and Reporting Technique-Short Form Interview Version - How much time is someone with you in your home to assist you with activities that require remembering, decision making, or judgment?", "preferredTerm": "CHART-SF Interview Version - Cognitive Assistance at Home per Day", "submissionValue": "CHSF1-Home Cognitive Assistance per Day", "synonyms": ["CHSF1-Home Cognitive Assistance per Day"]}, {"conceptId": "C118002", "definition": "Craig Handicap Assessment and Reporting Technique-Short Form Interview Version - On a typical day, how many hours are you out of bed?", "preferredTerm": "CHART-SF Interview Version - Hours Out of Bed per Day", "submissionValue": "CHSF1-Hours Out of Bed per Day", "synonyms": ["CHSF1-Hours Out of Bed per Day"]}, {"conceptId": "C118009", "definition": "Craig Handicap Assessment and Reporting Technique-Short Form Interview Version - How many hours per week do you spend in home maintenance activities such as gardening, house repairs or home improvement?", "preferredTerm": "CHART-SF Interview Version - Hours of Home Maintenance per Week", "submissionValue": "CHSF1-Hours of Home Maintenance per Week", "synonyms": ["CHSF1-Hours of Home Maintenance per Week"]}, {"conceptId": "C118008", "definition": "Craig Handicap Assessment and Reporting Technique-Short Form Interview Version - How many hours per week do you spend in active homemaking including parenting, housekeeping, and food preparation?", "preferredTerm": "CHART-SF Interview Version - Hours of Homemaking per Week", "submissionValue": "CHSF1-Hours of Homemaking per Week", "synonyms": ["CHSF1-Hours of Homemaking per Week"]}, {"conceptId": "C118005", "definition": "Craig Handicap Assessment and Reporting Technique-Short Form Interview Version - How many hours per week do you spend working in a job for which you get paid?", "preferredTerm": "CHART-SF Interview Version - Hours of Paid Work per Week", "submissionValue": "CHSF1-Hours of Paid Work per Week", "synonyms": ["CHSF1-Hours of Paid Work per Week"]}, {"conceptId": "C118010", "definition": "Craig Handicap Assessment and Reporting Technique-Short Form Interview Version - How many hours per week do you spend in recreational activities such as sports, exercise, playing cards, or going to movies?", "preferredTerm": "CHART-SF Interview Version - Hours of Recreational Activities per Week", "submissionValue": "CHSF1-Hours of Recreation per Week", "synonyms": ["CHSF1-Hours of Recreation per Week"]}, {"conceptId": "C118007", "definition": "Craig Handicap Assessment and Reporting Technique-Short Form Interview Version - How many hours per week do you spend in school working toward a degree or in an accredited technical training program?", "preferredTerm": "CHART-SF Interview Version - Hours of Schoolwork per Week", "submissionValue": "CHSF1-Hours of Schoolwork per Week", "synonyms": ["CHSF1-Hours of Schoolwork per Week"]}, {"conceptId": "C118012", "definition": "Craig Handicap Assessment and Reporting Technique-Short Form Interview Version - Is one of them your spouse or significant other?", "preferredTerm": "CHART-SF Interview Version - Live With Spouse or Significant Other", "submissionValue": "CHSF1-Live With Spouse or Signif Other", "synonyms": ["CHSF1-Live With Spouse or Signif Other"]}, {"conceptId": "C118018", "definition": "Craig Handicap Assessment and Reporting Technique-Short Form Interview Version - Approximately how much did you pay last year for medical care expenses?", "preferredTerm": "CHART-SF Interview Version - Medical Care Expense Last Year", "submissionValue": "CHSF1-Medical Care Expenses Last Year", "synonyms": ["CHSF1-Medical Care Expenses Last Year"]}, {"conceptId": "C118004", "definition": "Craig Handicap Assessment and Reporting Technique-Short Form Interview Version - In the last year, how many nights have you spent away from your home?", "preferredTerm": "CHART-SF Interview Version - Nights Away From Home Last Year", "submissionValue": "CHSF1-Nights Away From Home Last Year", "synonyms": ["CHSF1-Nights Away From Home Last Year"]}, {"conceptId": "C118011", "definition": "Craig Handicap Assessment and Reporting Technique-Short Form Interview Version - How many people do you live with?", "preferredTerm": "CHART-SF Interview Version - Number of People You Live With", "submissionValue": "CHSF1-Number of People You Live With", "synonyms": ["CHSF1-Number of People You Live With"]}, {"conceptId": "C118013", "definition": "Craig Handicap Assessment and Reporting Technique-Short Form Interview Version - Of the people you live with how many are relatives?", "preferredTerm": "CHART-SF Interview Version - Number of Relatives You Live With", "submissionValue": "CHSF1-Number of Relatives You Live With", "synonyms": ["CHSF1-Number of Relatives You Live With"]}, {"conceptId": "C118006", "definition": "Craig Handicap Assessment and Reporting Technique-Short Form Interview Version - How many hours per week do you spend working in a job for which you get paid? (occupation).", "preferredTerm": "CHART-SF Interview Version - Occupation of Paid Work", "submissionValue": "CHSF1-Occupation of Paid Work", "synonyms": ["CHSF1-Occupation of Paid Work"]}, {"conceptId": "C117998", "definition": "Craig Handicap Assessment and Reporting Technique-Short Form Interview Version - How many hours in a typical 24-hour day do you have someone with you to provide physical assistance for personal care activities such as eating, bathing, dressing, toileting and mobility? (hours paid assistance).", "preferredTerm": "CHART-SF Interview Version - Paid Personal Care per Day", "submissionValue": "CHSF1-Paid Personal Care per Day", "synonyms": ["CHSF1-Paid Personal Care per Day"]}, {"conceptId": "C118016", "definition": "Craig Handicap Assessment and Reporting Technique-Short Form Interview Version - With how many strangers have you initiated a conversation in the last month?", "preferredTerm": "CHART-SF Interview Version - Initiated Conversation With Strangers Last Month", "submissionValue": "CHSF1-Strangers Spoke with Last Month", "synonyms": ["CHSF1-Strangers Spoke with Last Month"]}, {"conceptId": "C117999", "definition": "Craig Handicap Assessment and Reporting Technique-Short Form Interview Version - How many hours in a typical 24-hour day do you have someone with you to provide physical assistance for personal care activities such as eating, bathing, dressing, toileting and mobility? hours unpaid (family, others).", "preferredTerm": "CHART-SF Interview Version - Unpaid Personal Care per Day", "submissionValue": "CHSF1-Unpaid Personal Care per Day", "synonyms": ["CHSF1-Unpaid Personal Care per Day"]}]}