{"_links": {"parentPackage": {"href": "/mdr/ct/packages/sdtmct-2019-06-28", "title": "SDTM Controlled Terminology Package 38 Effective 2019-06-28", "type": "Terminology"}, "priorVersion": {"href": "/mdr/ct/packages/sdtmct-2019-03-29/codelists/C128682", "title": "CDISC SDTM Gastrointestinal Test Code Terminology", "type": "Code List"}, "rootItem": {"href": "/mdr/root/ct/sdtmct/codelists/C128682", "title": "Version-agnostic anchor resource for codelist C128682", "type": "Root Value Domain"}, "self": {"href": "/mdr/ct/packages/sdtmct-2019-06-28/codelists/C128682", "title": "CDISC SDTM Gastrointestinal Test Code Terminology", "type": "Code List"}}, "conceptId": "C128682", "definition": "A terminology codelist based on the test codes for physiological findings related to the gastrointestinal system.", "extensible": "true", "name": "Gastrointestinal Test Code", "preferredTerm": "CDISC SDTM Gastrointestinal Test Code Terminology", "submissionValue": "GASTROCD", "synonyms": ["Gastrointestinal Test Code"], "terms": [{"conceptId": "C156503", "definition": "An indication as to whether bowel obstruction has occurred.", "preferredTerm": "Bowel Obstruction Indicator", "submissionValue": "BWOBIND", "synonyms": ["Bowel Obstruction Indicator"]}, {"conceptId": "C156504", "definition": "An indication as to whether bowel perforation has occurred.", "preferredTerm": "Bowel Perforation Indicator", "submissionValue": "BWPFIND", "synonyms": ["Bowel Perforation Indicator"]}, {"conceptId": "C119332", "definition": "A quantitative measurement of an organ's ability to deform in response to physiological force and return to its normal shape by passive elastic recoil.", "preferredTerm": "Organ Elasticity", "submissionValue": "ELASTIC", "synonyms": ["Elasticity"]}, {"conceptId": "C156505", "definition": "An indication as to whether lymphovascular invasion by tumor cells has occurred.", "preferredTerm": "Lymphovascular Invasion Indicator", "submissionValue": "LVINVIND", "synonyms": ["Lymphovascular Invasion Indicator"]}, {"conceptId": "C139184", "definition": "A measurement of the distance between the rectal tumor and the anal margin.", "preferredTerm": "Rectal Tumor to Anal Verge Distance", "submissionValue": "RTAVDIST", "synonyms": ["Rectal Tumor to Anal Verge Distance"]}]}