{"_links": {"parentPackage": {"href": "/mdr/ct/packages/sdtmct-2019-06-28", "title": "SDTM Controlled Terminology Package 38 Effective 2019-06-28", "type": "Terminology"}, "priorVersion": {"href": "/mdr/ct/packages/sdtmct-2019-03-29/codelists/C130241", "title": "CDISC Clinical Classification VLERS Test Code Terminology", "type": "Code List"}, "rootItem": {"href": "/mdr/root/ct/sdtmct/codelists/C130241", "title": "Version-agnostic anchor resource for codelist C130241", "type": "Root Value Domain"}, "self": {"href": "/mdr/ct/packages/sdtmct-2019-06-28/codelists/C130241", "title": "CDISC Clinical Classification VLERS Test Code Terminology", "type": "Code List"}}, "conceptId": "C130241", "definition": "Vignos Lower Extremity Rating Scale test code.", "extensible": "false", "name": "Vignos Lower Extremity Rating Scale Clinical Classification Test Code", "preferredTerm": "CDISC Clinical Classification VLERS Test Code Terminology", "submissionValue": "VLERS1TC", "synonyms": ["Vignos Lower Extremity Rating Scale Clinical Classification Test Code"], "terms": [{"conceptId": "C130327", "definition": "Vignos Lower Extremity Rating Scale - Vignos rating scale.", "preferredTerm": "VLERS - Vignos Lower Extremity Rating", "submissionValue": "VLERS101", "synonyms": ["VLERS1-Vignos Lower Extremity Rating"]}]}