{"_links": {"parentPackage": {"href": "/mdr/ct/packages/sdtmct-2019-06-28", "title": "SDTM Controlled Terminology Package 38 Effective 2019-06-28", "type": "Terminology"}, "priorVersion": {"href": "/mdr/ct/packages/sdtmct-2019-03-29/codelists/C132320", "title": "CDISC SDTM Malaria Findings About Test Code Terminology", "type": "Code List"}, "rootItem": {"href": "/mdr/root/ct/sdtmct/codelists/C132320", "title": "Version-agnostic anchor resource for codelist C132320", "type": "Root Value Domain"}, "self": {"href": "/mdr/ct/packages/sdtmct-2019-06-28/codelists/C132320", "title": "CDISC SDTM Malaria Findings About Test Code Terminology", "type": "Code List"}}, "conceptId": "C132320", "definition": "Terminology relevant to the test codes that describe findings about a malaria event or intervention.", "extensible": "true", "name": "Malaria Findings About Test Code", "preferredTerm": "CDISC SDTM Malaria Findings About Test Code Terminology", "submissionValue": "MRFATSCD", "synonyms": ["Malaria Findings About Test Code"], "terms": [{"conceptId": "C127786", "definition": "An indication as to whether something has happened, such as an event or incident.", "preferredTerm": "Occurrence Indicator", "submissionValue": "OCCUR", "synonyms": ["Occurrence Indicator"]}, {"conceptId": "C25676", "definition": "The degree of something undesirable.", "preferredTerm": "Severity", "submissionValue": "SEV", "synonyms": ["Severity/Intensity"]}]}