{"_links": {"parentPackage": {"href": "/mdr/ct/packages/sdtmct-2019-06-28", "title": "SDTM Controlled Terminology Package 38 Effective 2019-06-28", "type": "Terminology"}, "priorVersion": {"href": "/mdr/ct/packages/sdtmct-2019-03-29/codelists/C138249", "title": "CDISC Questionnaire PedsQL Neuromuscular Module Version 3.0 Parent Report for Child Test Code Terminology", "type": "Code List"}, "rootItem": {"href": "/mdr/root/ct/sdtmct/codelists/C138249", "title": "Version-agnostic anchor resource for codelist C138249", "type": "Root Value Domain"}, "self": {"href": "/mdr/ct/packages/sdtmct-2019-06-28/codelists/C138249", "title": "CDISC Questionnaire PedsQL Neuromuscular Module Version 3.0 Parent Report for Child Test Code Terminology", "type": "Code List"}}, "conceptId": "C138249", "definition": "Pediatric Quality of Life Neuromuscular Module Version 3 Child Parent Report test code.", "extensible": "false", "name": "Pediatric Quality of Life Neuromuscular Module Version 3 Child Parent Report Questionnaire Test Code", "preferredTerm": "CDISC Questionnaire PedsQL Neuromuscular Module Version 3.0 Parent Report for Child Test Code Terminology", "submissionValue": "PQL06TC", "synonyms": ["Pediatric Quality of Life Neuromuscular Module Version 3 Child Parent Report Questionnaire Test Code"], "terms": [{"conceptId": "C138732", "definition": "Pediatric Quality of Life Neuromuscular Module Version 3 Child Parent Report - In the past one month, how much of a problem has this been for your child: It is hard for my child to breathe.", "preferredTerm": "PedsQL Neuromuscular Module Version 3.0 Parent Report for Child - Hard to Breathe", "submissionValue": "PQL0601", "synonyms": ["PQL06-Hard to Breathe"]}, {"conceptId": "C138733", "definition": "Pediatric Quality of Life Neuromuscular Module Version 3 Child Parent Report - In the past one month, how much of a problem has this been for your child: My child gets sick easily.", "preferredTerm": "PedsQL Neuromuscular Module Version 3.0 Parent Report for Child - Get Sick Easily", "submissionValue": "PQL0602", "synonyms": ["PQL06-Get Sick Easily"]}, {"conceptId": "C138734", "definition": "Pediatric Quality of Life Neuromuscular Module Version 3 Child Parent Report - In the past one month, how much of a problem has this been for your child: My child gets sores and/or rashes.", "preferredTerm": "PedsQL Neuromuscular Module Version 3.0 Parent Report for Child - Get Sores and/or Rashes", "submissionValue": "PQL0603", "synonyms": ["PQL06-Get Sores and/or Rashes"]}, {"conceptId": "C138735", "definition": "Pediatric Quality of Life Neuromuscular Module Version 3 Child Parent Report - In the past one month, how much of a problem has this been for your child: My child's legs hurt.", "preferredTerm": "PedsQL Neuromuscular Module Version 3.0 Parent Report for Child - Legs Hurt", "submissionValue": "PQL0604", "synonyms": ["PQL06-Legs Hurt"]}, {"conceptId": "C138736", "definition": "Pediatric Quality of Life Neuromuscular Module Version 3 Child Parent Report - In the past one month, how much of a problem has this been for your child: My child feels tired.", "preferredTerm": "PedsQL Neuromuscular Module Version 3.0 Parent Report for Child - Feel Tired", "submissionValue": "PQL0605", "synonyms": ["PQL06-Feel Tired"]}, {"conceptId": "C138737", "definition": "Pediatric Quality of Life Neuromuscular Module Version 3 Child Parent Report - In the past one month, how much of a problem has this been for your child: My child's back feels stiff.", "preferredTerm": "PedsQL Neuromuscular Module Version 3.0 Parent Report for Child - Back Feels Stiff", "submissionValue": "PQL0606", "synonyms": ["PQL06-Back Feels Stiff"]}, {"conceptId": "C138738", "definition": "Pediatric Quality of Life Neuromuscular Module Version 3 Child Parent Report - In the past one month, how much of a problem has this been for your child: My child wakes up tired.", "preferredTerm": "PedsQL Neuromuscular Module Version 3.0 Parent Report for Child - Wake Up Tired", "submissionValue": "PQL0607", "synonyms": ["PQL06-Wake Up Tired"]}, {"conceptId": "C138739", "definition": "Pediatric Quality of Life Neuromuscular Module Version 3 Child Parent Report - In the past one month, how much of a problem has this been for your child: My child's hands are weak.", "preferredTerm": "PedsQL Neuromuscular Module Version 3.0 Parent Report for Child - Hands Are Weak", "submissionValue": "PQL0608", "synonyms": ["PQL06-Hands Are Weak"]}, {"conceptId": "C138740", "definition": "Pediatric Quality of Life Neuromuscular Module Version 3 Child Parent Report - In the past one month, how much of a problem has this been for your child: It is hard for my child to use the bathroom.", "preferredTerm": "PedsQL Neuromuscular Module Version 3.0 Parent Report for Child - Hard to Use Bathroom", "submissionValue": "PQL0609", "synonyms": ["PQL06-Hard to Use Bathroom"]}, {"conceptId": "C138741", "definition": "Pediatric Quality of Life Neuromuscular Module Version 3 Child Parent Report - In the past one month, how much of a problem has this been for your child: It is hard for my child to gain or lose weight when he or she wants to.", "preferredTerm": "PedsQL Neuromuscular Module Version 3.0 Parent Report for Child - Hard to Gain or Lose Weight", "submissionValue": "PQL0610", "synonyms": ["PQL06-Hard to Gain/Lose Weight"]}, {"conceptId": "C138742", "definition": "Pediatric Quality of Life Neuromuscular Module Version 3 Child Parent Report - In the past one month, how much of a problem has this been for your child: It is hard for my child to use his or her hands.", "preferredTerm": "PedsQL Neuromuscular Module Version 3.0 Parent Report for Child - Hard to Use Hands", "submissionValue": "PQL0611", "synonyms": ["PQL06-Hard to Use Hands"]}, {"conceptId": "C138743", "definition": "Pediatric Quality of Life Neuromuscular Module Version 3 Child Parent Report - In the past one month, how much of a problem has this been for your child: It is hard for my child to swallow food.", "preferredTerm": "PedsQL Neuromuscular Module Version 3.0 Parent Report for Child - Hard to Swallow Food", "submissionValue": "PQL0612", "synonyms": ["PQL06-Hard to Swallow Food"]}, {"conceptId": "C138744", "definition": "Pediatric Quality of Life Neuromuscular Module Version 3 Child Parent Report - In the past one month, how much of a problem has this been for your child: It takes my child a long time to bathe or shower.", "preferredTerm": "PedsQL Neuromuscular Module Version 3.0 Parent Report for Child - Long Time to Bathe or Shower", "submissionValue": "PQL0613", "synonyms": ["PQL06-Long Time to Bathe/Shower"]}, {"conceptId": "C138745", "definition": "Pediatric Quality of Life Neuromuscular Module Version 3 Child Parent Report - In the past one month, how much of a problem has this been for your child: My child gets hurt accidentally.", "preferredTerm": "PedsQL Neuromuscular Module Version 3.0 Parent Report for Child - Get Hurt Accidentally", "submissionValue": "PQL0614", "synonyms": ["PQL06-Get Hurt Accidentally"]}, {"conceptId": "C138746", "definition": "Pediatric Quality of Life Neuromuscular Module Version 3 Child Parent Report - In the past one month, how much of a problem has this been for your child: My child takes a long time to eat.", "preferredTerm": "PedsQL Neuromuscular Module Version 3.0 Parent Report for Child - Take Long Time to Eat", "submissionValue": "PQL0615", "synonyms": ["PQL06-Take Long Time to Eat"]}, {"conceptId": "C138747", "definition": "Pediatric Quality of Life Neuromuscular Module Version 3 Child Parent Report - In the past one month, how much of a problem has this been for your child: It is hard for my child to turn him or herself during the night.", "preferredTerm": "PedsQL Neuromuscular Module Version 3.0 Parent Report for Child - Hard to Turn During Night", "submissionValue": "PQL0616", "synonyms": ["PQL06-Hard to Turn During Night"]}, {"conceptId": "C138748", "definition": "Pediatric Quality of Life Neuromuscular Module Version 3 Child Parent Report - In the past one month, how much of a problem has this been for your child: It is hard for my child to go places with his or her equipment.", "preferredTerm": "PedsQL Neuromuscular Module Version 3.0 Parent Report for Child - Hard to Go Places With Equipment", "submissionValue": "PQL0617", "synonyms": ["PQL06-Hard to Go Places With Equipment"]}, {"conceptId": "C138749", "definition": "Pediatric Quality of Life Neuromuscular Module Version 3 Child Parent Report - In the past one month, how much of a problem has this been for your child: It is hard for my child to tell the doctors and nurses how he or she feels.", "preferredTerm": "PedsQL Neuromuscular Module Version 3.0 Parent Report for Child - Hard Tell Doctors and Nurses How Feel", "submissionValue": "PQL0618", "synonyms": ["PQL06-Hard Tell Doctors/Nurses How Feel"]}, {"conceptId": "C138750", "definition": "Pediatric Quality of Life Neuromuscular Module Version 3 Child Parent Report - In the past one month, how much of a problem has this been for your child: It is hard for my child to ask the doctors and nurses questions.", "preferredTerm": "PedsQL Neuromuscular Module Version 3.0 Parent Report for Child - Hard Ask Doctors and Nurses Questions", "submissionValue": "PQL0619", "synonyms": ["PQL06-Hard Ask Doctors/Nurses Questions"]}, {"conceptId": "C138751", "definition": "Pediatric Quality of Life Neuromuscular Module Version 3 Child Parent Report - In the past one month, how much of a problem has this been for your child: It is hard for my child to explain his or her illness to other people.", "preferredTerm": "PedsQL Neuromuscular Module Version 3.0 Parent Report for Child - Hard Explain Illness to People", "submissionValue": "PQL0620", "synonyms": ["PQL06-Hard Explain Illness to People"]}, {"conceptId": "C138752", "definition": "Pediatric Quality of Life Neuromuscular Module Version 3 Child Parent Report - In the past one month, how much of a problem has this been for your child: It is hard for our family to plan activities like vacations.", "preferredTerm": "PedsQL Neuromuscular Module Version 3.0 Parent Report for Child - Hard for Family to Plan Activities", "submissionValue": "PQL0621", "synonyms": ["PQL06-Hard for Family to Plan Activities"]}, {"conceptId": "C138753", "definition": "Pediatric Quality of Life Neuromuscular Module Version 3 Child Parent Report - In the past one month, how much of a problem has this been for your child: It is hard for our family to get enough rest.", "preferredTerm": "PedsQL Neuromuscular Module Version 3.0 Parent Report for Child - Hard for Family to Rest", "submissionValue": "PQL0622", "synonyms": ["PQL06-Hard for Family to Rest"]}, {"conceptId": "C138754", "definition": "Pediatric Quality of Life Neuromuscular Module Version 3 Child Parent Report - In the past one month, how much of a problem has this been for your child: I think money is a problem in our family.", "preferredTerm": "PedsQL Neuromuscular Module Version 3.0 Parent Report for Child - Money Problem in Our Family", "submissionValue": "PQL0623", "synonyms": ["PQL06-Money Problem in Our Family"]}, {"conceptId": "C138755", "definition": "Pediatric Quality of Life Neuromuscular Module Version 3 Child Parent Report - In the past one month, how much of a problem has this been for your child: I think our family has a lot of problems.", "preferredTerm": "PedsQL Neuromuscular Module Version 3.0 Parent Report for Child - Family Has Lot of Problems", "submissionValue": "PQL0624", "synonyms": ["PQL06-Family Has Lot of Problems"]}, {"conceptId": "C138756", "definition": "Pediatric Quality of Life Neuromuscular Module Version 3 Child Parent Report - In the past one month, how much of a problem has this been for your child: My child does not have the equipment he or she needs.", "preferredTerm": "PedsQL Neuromuscular Module Version 3.0 Parent Report for Child - Do Not Have Equipment Need", "submissionValue": "PQL0625", "synonyms": ["PQL06-Do Not Have Equipment Need"]}]}