{"_links": {"parentPackage": {"href": "/mdr/ct/packages/sdtmct-2019-06-28", "title": "SDTM Controlled Terminology Package 38 Effective 2019-06-28", "type": "Terminology"}, "priorVersion": {"href": "/mdr/ct/packages/sdtmct-2019-03-29/codelists/C138229", "title": "CDISC Questionnaire PedsQL Neuromuscular Module Acute Version 3.0 Parent of Toddler Test Code Terminology", "type": "Code List"}, "rootItem": {"href": "/mdr/root/ct/sdtmct/codelists/C138229", "title": "Version-agnostic anchor resource for codelist C138229", "type": "Root Value Domain"}, "self": {"href": "/mdr/ct/packages/sdtmct-2019-06-28/codelists/C138229", "title": "CDISC Questionnaire PedsQL Neuromuscular Module Acute Version 3.0 Parent of Toddler Test Code Terminology", "type": "Code List"}}, "conceptId": "C138229", "definition": "Pediatric Quality of Life Neuromuscular Module Acute Version 3 Toddler Parent Report test code.", "extensible": "false", "name": "Pediatric Quality of Life Neuromuscular Module Acute Version 3 Toddler Parent Report Questionnaire Test Code", "preferredTerm": "CDISC Questionnaire PedsQL Neuromuscular Module Acute Version 3.0 Parent of Toddler Test Code Terminology", "submissionValue": "PQL18TC", "synonyms": ["Pediatric Quality of Life Neuromuscular Module Acute Version 3 Toddler Parent Report Questionnaire Test Code"], "terms": [{"conceptId": "C138490", "definition": "Pediatric Quality of Life Neuromuscular Module Acute Version 3 Toddler Parent Report - In the past 7 days, how much of a problem has this been for your child: It is hard for my child to breathe.", "preferredTerm": "PedsQL Neuromuscular Module Acute Version 3.0 Parent of Toddler - Hard to Breathe", "submissionValue": "PQL1801", "synonyms": ["PQL18-Hard to Breathe"]}, {"conceptId": "C138491", "definition": "Pediatric Quality of Life Neuromuscular Module Acute Version 3 Toddler Parent Report - In the past 7 days, how much of a problem has this been for your child: My child gets sick easily.", "preferredTerm": "PedsQL Neuromuscular Module Acute Version 3.0 Parent of Toddler - Get Sick Easily", "submissionValue": "PQL1802", "synonyms": ["PQL18-Get Sick Easily"]}, {"conceptId": "C138492", "definition": "Pediatric Quality of Life Neuromuscular Module Acute Version 3 Toddler Parent Report - In the past 7 days, how much of a problem has this been for your child: My child gets sores and/or rashes.", "preferredTerm": "PedsQL Neuromuscular Module Acute Version 3.0 Parent of Toddler - Get Sores and/or Rashes", "submissionValue": "PQL1803", "synonyms": ["PQL18-Get Sores and/or Rashes"]}, {"conceptId": "C138493", "definition": "Pediatric Quality of Life Neuromuscular Module Acute Version 3 Toddler Parent Report - In the past 7 days, how much of a problem has this been for your child: My child's legs hurt.", "preferredTerm": "PedsQL Neuromuscular Module Acute Version 3.0 Parent of Toddler - Legs Hurt", "submissionValue": "PQL1804", "synonyms": ["PQL18-Legs Hurt"]}, {"conceptId": "C138494", "definition": "Pediatric Quality of Life Neuromuscular Module Acute Version 3 Toddler Parent Report - In the past 7 days, how much of a problem has this been for your child: My child feels tired.", "preferredTerm": "PedsQL Neuromuscular Module Acute Version 3.0 Parent of Toddler - Feel Tired", "submissionValue": "PQL1805", "synonyms": ["PQL18-Feel Tired"]}, {"conceptId": "C138495", "definition": "Pediatric Quality of Life Neuromuscular Module Acute Version 3 Toddler Parent Report - In the past 7 days, how much of a problem has this been for your child: My child's back feels stiff.", "preferredTerm": "PedsQL Neuromuscular Module Acute Version 3.0 Parent of Toddler - Back Feels Stiff", "submissionValue": "PQL1806", "synonyms": ["PQL18-Back Feels Stiff"]}, {"conceptId": "C138496", "definition": "Pediatric Quality of Life Neuromuscular Module Acute Version 3 Toddler Parent Report - In the past 7 days, how much of a problem has this been for your child: My child wakes up tired.", "preferredTerm": "PedsQL Neuromuscular Module Acute Version 3.0 Parent of Toddler - Wake Up Tired", "submissionValue": "PQL1807", "synonyms": ["PQL18-Wake Up Tired"]}, {"conceptId": "C138497", "definition": "Pediatric Quality of Life Neuromuscular Module Acute Version 3 Toddler Parent Report - In the past 7 days, how much of a problem has this been for your child: My child's hands are weak.", "preferredTerm": "PedsQL Neuromuscular Module Acute Version 3.0 Parent of Toddler - Hands Are Weak", "submissionValue": "PQL1808", "synonyms": ["PQL18-Hands Are Weak"]}, {"conceptId": "C138498", "definition": "Pediatric Quality of Life Neuromuscular Module Acute Version 3 Toddler Parent Report - In the past 7 days, how much of a problem has this been for your child: It is hard for my child to use the bathroom.", "preferredTerm": "PedsQL Neuromuscular Module Acute Version 3.0 Parent of Toddler - Hard to Use Bathroom", "submissionValue": "PQL1809", "synonyms": ["PQL18-Hard to Use Bathroom"]}, {"conceptId": "C138499", "definition": "Pediatric Quality of Life Neuromuscular Module Acute Version 3 Toddler Parent Report - In the past 7 days, how much of a problem has this been for your child: It is hard for my child to gain or lose weight when he or she wants to.", "preferredTerm": "PedsQL Neuromuscular Module Acute Version 3.0 Parent of Toddler - Hard to Gain or Lose Weight", "submissionValue": "PQL1810", "synonyms": ["PQL18-Hard to Gain/Lose Weight"]}, {"conceptId": "C138500", "definition": "Pediatric Quality of Life Neuromuscular Module Acute Version 3 Toddler Parent Report - In the past 7 days, how much of a problem has this been for your child: It is hard for my child to use his or her hands.", "preferredTerm": "PedsQL Neuromuscular Module Acute Version 3.0 Parent of Toddler - Hard to Use Hands", "submissionValue": "PQL1811", "synonyms": ["PQL18-Hard to Use Hands"]}, {"conceptId": "C138501", "definition": "Pediatric Quality of Life Neuromuscular Module Acute Version 3 Toddler Parent Report - In the past 7 days, how much of a problem has this been for your child: It is hard for my child to swallow food.", "preferredTerm": "PedsQL Neuromuscular Module Acute Version 3.0 Parent of Toddler - Hard to Swallow Food", "submissionValue": "PQL1812", "synonyms": ["PQL18-Hard to Swallow Food"]}, {"conceptId": "C138502", "definition": "Pediatric Quality of Life Neuromuscular Module Acute Version 3 Toddler Parent Report - In the past 7 days, how much of a problem has this been for your child: It takes my child a long time to bathe or shower.", "preferredTerm": "PedsQL Neuromuscular Module Acute Version 3.0 Parent of Toddler - Long Time to Bathe or Shower", "submissionValue": "PQL1813", "synonyms": ["PQL18-Long Time to Bathe/Shower"]}, {"conceptId": "C138503", "definition": "Pediatric Quality of Life Neuromuscular Module Acute Version 3 Toddler Parent Report - In the past 7 days, how much of a problem has this been for your child: My child gets hurt accidentally.", "preferredTerm": "PedsQL Neuromuscular Module Acute Version 3.0 Parent of Toddler - Get Hurt Accidentally", "submissionValue": "PQL1814", "synonyms": ["PQL18-Get Hurt Accidentally"]}, {"conceptId": "C138504", "definition": "Pediatric Quality of Life Neuromuscular Module Acute Version 3 Toddler Parent Report - In the past 7 days, how much of a problem has this been for your child: My child takes a long time to eat.", "preferredTerm": "PedsQL Neuromuscular Module Acute Version 3.0 Parent of Toddler - Take Long Time to Eat", "submissionValue": "PQL1815", "synonyms": ["PQL18-Take Long Time to Eat"]}, {"conceptId": "C138505", "definition": "Pediatric Quality of Life Neuromuscular Module Acute Version 3 Toddler Parent Report - In the past 7 days, how much of a problem has this been for your child: It is hard for my child to turn him or herself during the night.", "preferredTerm": "PedsQL Neuromuscular Module Acute Version 3.0 Parent of Toddler - Hard to Turn During Night", "submissionValue": "PQL1816", "synonyms": ["PQL18-Hard to Turn During Night"]}, {"conceptId": "C138506", "definition": "Pediatric Quality of Life Neuromuscular Module Acute Version 3 Toddler Parent Report - In the past 7 days, how much of a problem has this been for your child: It is hard for my child to go places with his or her equipment.", "preferredTerm": "PedsQL Neuromuscular Module Acute Version 3.0 Parent of Toddler - Hard to Go Places With Equipment", "submissionValue": "PQL1817", "synonyms": ["PQL18-Hard to Go Places With Equipment"]}, {"conceptId": "C138507", "definition": "Pediatric Quality of Life Neuromuscular Module Acute Version 3 Toddler Parent Report - In the past 7 days, how much of a problem has this been for your child: It is hard for my child to tell the doctors and nurses how he or she feels.", "preferredTerm": "PedsQL Neuromuscular Module Acute Version 3.0 Parent of Toddler - Hard Tell Doctors and Nurses How Feel", "submissionValue": "PQL1818", "synonyms": ["PQL18-Hard Tell Doctors/Nurses How Feel"]}, {"conceptId": "C138508", "definition": "Pediatric Quality of Life Neuromuscular Module Acute Version 3 Toddler Parent Report - In the past 7 days, how much of a problem has this been for your child: It is hard for my child to ask the doctors and nurses questions.", "preferredTerm": "PedsQL Neuromuscular Module Acute Version 3.0 Parent of Toddler - Hard Ask Doctors and Nurses Questions", "submissionValue": "PQL1819", "synonyms": ["PQL18-Hard Ask Doctors/Nurses Questions"]}, {"conceptId": "C138509", "definition": "Pediatric Quality of Life Neuromuscular Module Acute Version 3 Toddler Parent Report - In the past 7 days, how much of a problem has this been for your child: It is hard for my child to explain his or her illness to other people.", "preferredTerm": "PedsQL Neuromuscular Module Acute Version 3.0 Parent of Toddler - Hard Explain Illness to People", "submissionValue": "PQL1820", "synonyms": ["PQL18-Hard Explain Illness to People"]}, {"conceptId": "C138510", "definition": "Pediatric Quality of Life Neuromuscular Module Acute Version 3 Toddler Parent Report - In the past 7 days, how much of a problem has this been for your child: It is hard for our family to plan activities like vacations.", "preferredTerm": "PedsQL Neuromuscular Module Acute Version 3.0 Parent of Toddler - Hard for Family to Plan Activities", "submissionValue": "PQL1821", "synonyms": ["PQL18-Hard for Family to Plan Activities"]}, {"conceptId": "C138511", "definition": "Pediatric Quality of Life Neuromuscular Module Acute Version 3 Toddler Parent Report - In the past 7 days, how much of a problem has this been for your child: It is hard for our family to get enough rest.", "preferredTerm": "PedsQL Neuromuscular Module Acute Version 3.0 Parent of Toddler - Hard for Family to Rest", "submissionValue": "PQL1822", "synonyms": ["PQL18-Hard for Family to Rest"]}, {"conceptId": "C138512", "definition": "Pediatric Quality of Life Neuromuscular Module Acute Version 3 Toddler Parent Report - In the past 7 days, how much of a problem has this been for your child: I think money is a problem in our family.", "preferredTerm": "PedsQL Neuromuscular Module Acute Version 3.0 Parent of Toddler - Money Problem in Our Family", "submissionValue": "PQL1823", "synonyms": ["PQL18-Money Problem in Our Family"]}, {"conceptId": "C138513", "definition": "Pediatric Quality of Life Neuromuscular Module Acute Version 3 Toddler Parent Report - In the past 7 days, how much of a problem has this been for your child: I think our family has a lot of problems.", "preferredTerm": "PedsQL Neuromuscular Module Acute Version 3.0 Parent of Toddler - Family Has Lot of Problems", "submissionValue": "PQL1824", "synonyms": ["PQL18-Family Has Lot of Problems"]}, {"conceptId": "C138514", "definition": "Pediatric Quality of Life Neuromuscular Module Acute Version 3 Toddler Parent Report - In the past 7 days, how much of a problem has this been for your child: My child does not have the equipment he or she needs.", "preferredTerm": "PedsQL Neuromuscular Module Acute Version 3.0 Parent of Toddler - Do Not Have Equipment Need", "submissionValue": "PQL1825", "synonyms": ["PQL18-Do Not Have Equipment Need"]}]}