{"_links": {"parentPackage": {"href": "/mdr/ct/packages/sdtmct-2019-06-28", "title": "SDTM Controlled Terminology Package 38 Effective 2019-06-28", "type": "Terminology"}, "priorVersion": {"href": "/mdr/ct/packages/sdtmct-2019-03-29/codelists/C138224", "title": "CDISC Questionnaire FLSI Test Name Terminology", "type": "Code List"}, "rootItem": {"href": "/mdr/root/ct/sdtmct/codelists/C138224", "title": "Version-agnostic anchor resource for codelist C138224", "type": "Root Value Domain"}, "self": {"href": "/mdr/ct/packages/sdtmct-2019-06-28/codelists/C138224", "title": "CDISC Questionnaire FLSI Test Name Terminology", "type": "Code List"}}, "conceptId": "C138224", "definition": "Functional Assessment of Cancer Therapy-Lung Symptom Index test name.", "extensible": "false", "name": "Functional Assessment of Cancer Therapy-Lung Symptom Index Questionnaire Test Name", "preferredTerm": "CDISC Questionnaire FLSI Test Name Terminology", "submissionValue": "FAC043TN", "synonyms": ["Functional Assessment of Cancer Therapy-Lung Symptom Index Questionnaire Test Name"], "terms": [{"conceptId": "C138464", "definition": "Functional Assessment of Cancer Therapy-Lung Symptom Index - I have certain parts of my body where I experience pain.", "preferredTerm": "FLSI - Certain Parts of Body Have Pain", "submissionValue": "FAC043-Certain Parts of Body Have Pain", "synonyms": ["FAC043-Certain Parts of Body Have Pain"]}, {"conceptId": "C138462", "definition": "Functional Assessment of Cancer Therapy-Lung Symptom Index - I am losing weight.", "preferredTerm": "FLSI - I Am Losing Weight", "submissionValue": "FAC043-I Am Losing Weight", "synonyms": ["FAC043-I Am Losing Weight"]}, {"conceptId": "C138463", "definition": "Functional Assessment of Cancer Therapy-Lung Symptom Index - I have been coughing.", "preferredTerm": "FLSI - I Have Been Coughing", "submissionValue": "FAC043-I Have Been Coughing", "synonyms": ["FAC043-I Have Been Coughing"]}, {"conceptId": "C138459", "definition": "Functional Assessment of Cancer Therapy-Lung Symptom Index - I have been short of breath.", "preferredTerm": "FLSI - I Have Been Short of Breath", "submissionValue": "FAC043-I Have Been Short of Breath", "synonyms": ["FAC043-I Have Been Short of Breath"]}, {"conceptId": "C138461", "definition": "Functional Assessment of Cancer Therapy-Lung Symptom Index - I have pain.", "preferredTerm": "FLSI - I Have Pain", "submissionValue": "FAC043-I Have Pain", "synonyms": ["FAC043-I Have Pain"]}, {"conceptId": "C138460", "definition": "Functional Assessment of Cancer Therapy-Lung Symptom Index - I have a lack of energy.", "preferredTerm": "FLSI - I Have a Lack of Energy", "submissionValue": "FAC043-I Have a Lack of Energy", "synonyms": ["FAC043-I Have a Lack of Energy"]}]}