{"_links": {"parentPackage": {"href": "/mdr/ct/packages/sdtmct-2019-06-28", "title": "SDTM Controlled Terminology Package 38 Effective 2019-06-28", "type": "Terminology"}, "priorVersion": {"href": "/mdr/ct/packages/sdtmct-2019-03-29/codelists/C154457", "title": "CDISC Questionnaire SMDDS Version 1.0 Test Code Terminology", "type": "Code List"}, "rootItem": {"href": "/mdr/root/ct/sdtmct/codelists/C154457", "title": "Version-agnostic anchor resource for codelist C154457", "type": "Root Value Domain"}, "self": {"href": "/mdr/ct/packages/sdtmct-2019-06-28/codelists/C154457", "title": "CDISC Questionnaire SMDDS Version 1.0 Test Code Terminology", "type": "Code List"}}, "conceptId": "C154457", "definition": "Symptoms of Major Depressive Disorder Scale v1.0 test code.", "extensible": "false", "name": "Symptoms of Major Depressive Disorder Scale v1.0 Questionnaire Test Code", "preferredTerm": "CDISC Questionnaire SMDDS Version 1.0 Test Code Terminology", "submissionValue": "SMDDS1TC", "synonyms": ["Symptoms of Major Depressive Disorder Scale v1.0 Questionnaire Test Code"], "terms": [{"conceptId": "C155629", "definition": "Symptoms of Major Depressive Disorder Scale v1.0 - Over the past 7 days, how sad have you felt?", "preferredTerm": "SMDDS Version 1.0 - How Sad Have You Felt", "submissionValue": "SMDDS101", "synonyms": ["SMDDS1-How Sad Have You Felt"]}, {"conceptId": "C155630", "definition": "Symptoms of Major Depressive Disorder Scale v1.0 - Over the past 7 days, how hopeless have you felt?", "preferredTerm": "SMDDS Version 1.0 - How Hopeless Have You Felt", "submissionValue": "SMDDS102", "synonyms": ["SMDDS1-How Hopeless Have You Felt"]}, {"conceptId": "C155631", "definition": "Symptoms of Major Depressive Disorder Scale v1.0 - Over the past 7 days, how irritable have you felt?", "preferredTerm": "SMDDS Version 1.0 - How Irritable Have You Felt", "submissionValue": "SMDDS103", "synonyms": ["SMDDS1-How Irritable Have You Felt"]}, {"conceptId": "C155632", "definition": "Symptoms of Major Depressive Disorder Scale v1.0 - Over the past 7 days, how overwhelmed have you felt?", "preferredTerm": "SMDDS Version 1.0 - How Overwhelmed Have You Felt", "submissionValue": "SMDDS104", "synonyms": ["SMDDS1-How Overwhelmed Have You Felt"]}, {"conceptId": "C155633", "definition": "Symptoms of Major Depressive Disorder Scale v1.0 - Over the past 7 days, how worried have you felt?", "preferredTerm": "SMDDS Version 1.0 - How Worried Have You Felt", "submissionValue": "SMDDS105", "synonyms": ["SMDDS1-How Worried Have You Felt"]}, {"conceptId": "C155634", "definition": "Symptoms of Major Depressive Disorder Scale v1.0 - Over the past 7 days, how tired have you felt?", "preferredTerm": "SMDDS Version 1.0 - How Tired Have You Felt", "submissionValue": "SMDDS106", "synonyms": ["SMDDS1-How Tired Have You Felt"]}, {"conceptId": "C155635", "definition": "Symptoms of Major Depressive Disorder Scale v1.0 - Over the past 7 days, how difficult was it for you to stop thinking about your problems?", "preferredTerm": "SMDDS Version 1.0 - How Difficult Stop Think Problems", "submissionValue": "SMDDS107", "synonyms": ["SMDDS1-How Difficult Stop Think Problems"]}, {"conceptId": "C155636", "definition": "Symptoms of Major Depressive Disorder Scale v1.0 - Over the past 7 days, how difficult was it for you to concentrate?", "preferredTerm": "SMDDS Version 1.0 - How Difficult to Concentrate", "submissionValue": "SMDDS108", "synonyms": ["SMDDS1-How Difficult to Concentrate"]}, {"conceptId": "C155637", "definition": "Symptoms of Major Depressive Disorder Scale v1.0 - Over the past 7 days, how difficult was it for you to enjoy your daily life?", "preferredTerm": "SMDDS Version 1.0 - How Difficult to Enjoy Daily Life", "submissionValue": "SMDDS109", "synonyms": ["SMDDS1-How Difficult to Enjoy Daily Life"]}, {"conceptId": "C155638", "definition": "Symptoms of Major Depressive Disorder Scale v1.0 - Over the past 7 days, how often did you have a problem with your sleep (falling asleep, staying asleep, or sleeping too much)?", "preferredTerm": "SMDDS Version 1.0 - How Often Problem With Sleep", "submissionValue": "SMDDS110", "synonyms": ["SMDDS1-How Often Problem With Sleep"]}, {"conceptId": "C155639", "definition": "Symptoms of Major Depressive Disorder Scale v1.0 - Over the past 7 days, how often did you have a poor appetite?", "preferredTerm": "SMDDS Version 1.0 - How Often Have Poor Appetite", "submissionValue": "SMDDS111", "synonyms": ["SMDDS1-How Often Have Poor Appetite"]}, {"conceptId": "C155640", "definition": "Symptoms of Major Depressive Disorder Scale v1.0 - Over the past 7 days, how often did you over eat?", "preferredTerm": "SMDDS Version 1.0 - How Often Did You Over Eat", "submissionValue": "SMDDS112", "synonyms": ["SMDDS1-How Often Did You Over Eat"]}, {"conceptId": "C155641", "definition": "Symptoms of Major Depressive Disorder Scale v1.0 - Over the past 7 days, how much of the time did you have to push yourself to do things?", "preferredTerm": "SMDDS Version 1.0 - How Much Push Yourself Do Things", "submissionValue": "SMDDS113", "synonyms": ["SMDDS1-How Much Push Yourself Do Things"]}, {"conceptId": "C155642", "definition": "Symptoms of Major Depressive Disorder Scale v1.0 - Over the past 7 days, how much of the time did you feel like doing nothing?", "preferredTerm": "SMDDS Version 1.0 - How Much Feel Like Doing Nothing", "submissionValue": "SMDDS114", "synonyms": ["SMDDS1-How Much Feel Like Doing Nothing"]}, {"conceptId": "C155643", "definition": "Symptoms of Major Depressive Disorder Scale v1.0 - Over the past 7 days, how much of the time did you blame yourself when bad things happened?", "preferredTerm": "SMDDS Version 1.0 - How Much Blame Yourself Bad Thing", "submissionValue": "SMDDS115", "synonyms": ["SMDDS1-How Much Blame Yourself Bad Thing"]}, {"conceptId": "C155644", "definition": "Symptoms of Major Depressive Disorder Scale v1.0 - Over the past 7 days, how much of the time did you feel that life is not worth living?", "preferredTerm": "SMDDS Version 1.0 - How Much Feel Not Worth Living", "submissionValue": "SMDDS116", "synonyms": ["SMDDS1-How Much Feel Not Worth Living"]}, {"conceptId": "C155645", "definition": "Symptoms of Major Depressive Disorder Scale v1.0 - Total score.", "preferredTerm": "SMDDS Version 1.0 - Total Score", "submissionValue": "SMDDS117", "synonyms": ["SMDDS1-Total Score"]}]}