{"_links": {"parentPackage": {"href": "/mdr/ct/packages/sdtmct-2019-06-28", "title": "SDTM Controlled Terminology Package 38 Effective 2019-06-28", "type": "Terminology"}, "priorVersion": {"href": "/mdr/ct/packages/sdtmct-2019-03-29/codelists/C154454", "title": "CDISC Questionnaire NSCLC-SAQ Version 1.0 Test Name Terminology", "type": "Code List"}, "rootItem": {"href": "/mdr/root/ct/sdtmct/codelists/C154454", "title": "Version-agnostic anchor resource for codelist C154454", "type": "Root Value Domain"}, "self": {"href": "/mdr/ct/packages/sdtmct-2019-06-28/codelists/C154454", "title": "CDISC Questionnaire NSCLC-SAQ Version 1.0 Test Name Terminology", "type": "Code List"}}, "conceptId": "C154454", "definition": "Non-Small Cell Lung Cancer Symptom Assessment Questionnaire v1.0 test name.", "extensible": "false", "name": "Non-Small Cell Lung Cancer Symptom Assessment Questionnaire v1.0 Questionnaire Test Name", "preferredTerm": "CDISC Questionnaire NSCLC-SAQ Version 1.0 Test Name Terminology", "submissionValue": "NSCLC1TN", "synonyms": ["Non-Small Cell Lung Cancer Symptom Assessment Questionnaire v1.0 Questionnaire Test Name"], "terms": [{"conceptId": "C155625", "definition": "Non-Small Cell Lung Cancer Symptom Assessment Questionnaire v1.0 - How often did you have low energy over the last 7 days?", "preferredTerm": "NSCLC-SAQ Version 1.0 - How Often Low Energy", "submissionValue": "NSCLC1-How Often Low Energy", "synonyms": ["NSCLC1-How Often Low Energy"]}, {"conceptId": "C155627", "definition": "Non-Small Cell Lung Cancer Symptom Assessment Questionnaire v1.0 - How often did you have a poor appetite over the last 7 days?", "preferredTerm": "NSCLC-SAQ Version 1.0 - How Often Poor Appetite", "submissionValue": "NSCLC1-How Often Poor Appetite", "synonyms": ["NSCLC1-How Often Poor Appetite"]}, {"conceptId": "C155626", "definition": "Non-Small Cell Lung Cancer Symptom Assessment Questionnaire v1.0 - How often did you tire easily over the last 7 days?", "preferredTerm": "NSCLC-SAQ Version 1.0 - How Often Tire Easily", "submissionValue": "NSCLC1-How Often Tire Easily", "synonyms": ["NSCLC1-How Often Tire Easily"]}, {"conceptId": "C155621", "definition": "Non-Small Cell Lung Cancer Symptom Assessment Questionnaire v1.0 - How would you rate your coughing at its worst over the last 7 days?", "preferredTerm": "NSCLC-SAQ Version 1.0 - Rate Coughing at Worst", "submissionValue": "NSCLC1-Rate Coughing at Worst", "synonyms": ["NSCLC1-Rate Coughing at Worst"]}, {"conceptId": "C155623", "definition": "Non-Small Cell Lung Cancer Symptom Assessment Questionnaire v1.0 - How would you rate the worst pain in areas other than your chest over the last 7 days?", "preferredTerm": "NSCLC-SAQ Version 1.0 - Rate Worst Pain Other Than Chest", "submissionValue": "NSCLC1-Rate Worst Pain Other Than Chest", "synonyms": ["NSCLC1-Rate Worst Pain Other Than Chest"]}, {"conceptId": "C155622", "definition": "Non-Small Cell Lung Cancer Symptom Assessment Questionnaire v1.0 - How would you rate the worst pain in your chest over the last 7 days?", "preferredTerm": "NSCLC-SAQ Version 1.0 - Rate Worst Pain in Chest", "submissionValue": "NSCLC1-Rate Worst Pain in Chest", "synonyms": ["NSCLC1-Rate Worst Pain in Chest"]}, {"conceptId": "C155624", "definition": "Non-Small Cell Lung Cancer Symptom Assessment Questionnaire v1.0 - How often did you feel short of breath during usual activities over the last 7 days?", "preferredTerm": "NSCLC-SAQ Version 1.0 - Short of Breath Usual Activities", "submissionValue": "NSCLC1-Short of Breath Usual Activities", "synonyms": ["NSCLC1-Short of Breath Usual Activities"]}, {"conceptId": "C155628", "definition": "Non-Small Cell Lung Cancer Symptom Assessment Questionnaire v1.0 - Total score.", "preferredTerm": "NSCLC-SAQ Version 1.0 - Total Score", "submissionValue": "NSCLC1-Total Score", "synonyms": ["NSCLC1-Total Score"]}]}