{"_links": {"parentPackage": {"href": "/mdr/ct/packages/sdtmct-2019-06-28", "title": "SDTM Controlled Terminology Package 38 Effective 2019-06-28", "type": "Terminology"}, "rootItem": {"href": "/mdr/root/ct/sdtmct/codelists/C160923", "title": "Version-agnostic anchor resource for codelist C160923", "type": "Root Value Domain"}, "self": {"href": "/mdr/ct/packages/sdtmct-2019-06-28/codelists/C160923", "title": "CDISC SDTM Model Version ResponseTerminology", "type": "Code List"}}, "conceptId": "C160923", "definition": "Terminology relevant to the version of the study data tabulation model used in the study.", "extensible": "true", "name": "SDTM Version Response", "preferredTerm": "CDISC SDTM Model Version ResponseTerminology", "submissionValue": "SDTMVRS", "synonyms": ["SDTM Version Response"], "terms": [{"conceptId": "C161425", "definition": "Version 1.1 of the CDISC Study Data Tabulation Model (SDTM).", "preferredTerm": "CDISC SDTM Model Version 1.1", "submissionValue": "1.1", "synonyms": ["SDTM Version 1.1"]}, {"conceptId": "C161426", "definition": "Version 1.2 of the CDISC Study Data Tabulation Model (SDTM).", "preferredTerm": "CDISC SDTM Model Version 1.2", "submissionValue": "1.2", "synonyms": ["SDTM Version 1.2"]}, {"conceptId": "C161427", "definition": "Version 1.3 of the CDISC Study Data Tabulation Model (SDTM).", "preferredTerm": "CDISC SDTM Model Version 1.3", "submissionValue": "1.3", "synonyms": ["SDTM Version 1.3"]}, {"conceptId": "C161428", "definition": "Version 1.4 of the CDISC Study Data Tabulation Model (SDTM).", "preferredTerm": "CDISC SDTM Model Version 1.4", "submissionValue": "1.4", "synonyms": ["SDTM Version 1.4"]}, {"conceptId": "C161429", "definition": "Version 1.5 of the CDISC Study Data Tabulation Model (SDTM).", "preferredTerm": "CDISC SDTM Model Version 1.5", "submissionValue": "1.5", "synonyms": ["SDTM Version 1.5"]}, {"conceptId": "C161430", "definition": "Version 1.6 of the CDISC Study Data Tabulation Model (SDTM).", "preferredTerm": "CDISC SDTM Model Version 1.6", "submissionValue": "1.6", "synonyms": ["SDTM Version 1.6"]}, {"conceptId": "C161431", "definition": "Version 1.7 of the CDISC Study Data Tabulation Model (SDTM).", "preferredTerm": "CDISC SDTM Model Version 1.7", "submissionValue": "1.7", "synonyms": ["SDTM Version 1.7"]}]}