{"_links": {"parentPackage": {"href": "/mdr/ct/packages/sdtmct-2019-06-28", "title": "SDTM Controlled Terminology Package 38 Effective 2019-06-28", "type": "Terminology"}, "rootItem": {"href": "/mdr/root/ct/sdtmct/codelists/C161618", "title": "Version-agnostic anchor resource for codelist C161618", "type": "Root Value Domain"}, "self": {"href": "/mdr/ct/packages/sdtmct-2019-06-28/codelists/C161618", "title": "CDISC Questionnaire EORTC QLQ-C30 Version 3 Test Name Terminology", "type": "Code List"}}, "conceptId": "C161618", "definition": "European Organisation for the Research and Treatment of Cancer Quality of Life Questionnaire - Core 30 Version 3.0 test name.", "extensible": "false", "name": "European Organisation for the Research and Treatment of Cancer Quality of Life Questionnaire - Core 30 Version 3.0 Questionnaire Test Name", "preferredTerm": "CDISC Questionnaire EORTC QLQ-C30 Version 3 Test Name Terminology", "submissionValue": "EOR01TN", "synonyms": ["European Organisation for the Research and Treatment of Cancer Quality of Life Questionnaire - Core 30 Version 3.0 Questionnaire Test Name"], "terms": [{"conceptId": "C161701", "definition": "European Organisation for the Research and Treatment of Cancer Quality of Life Questionnaire - Core 30 Version 3.0 - During the past week: Has your physical condition or medical treatment caused you financial difficulties?", "preferredTerm": "EORTC QLQ-C30 Version 3 - Condition Caused Financial Difficulties", "submissionValue": "EOR01-Condition Caused Financial Diff", "synonyms": ["EOR01-Condition Caused Financial Diff"]}, {"conceptId": "C161699", "definition": "European Organisation for the Research and Treatment of Cancer Quality of Life Questionnaire - Core 30 Version 3.0 - During the past week: Has your physical condition or medical treatment interfered with your family life?", "preferredTerm": "EORTC QLQ-C30 Version 3 - Condition Interfered Family Life", "submissionValue": "EOR01-Condition Interfered Family Life", "synonyms": ["EOR01-Condition Interfered Family Life"]}, {"conceptId": "C161700", "definition": "European Organisation for the Research and Treatment of Cancer Quality of Life Questionnaire - Core 30 Version 3.0 - During the past week: Has your physical condition or medical treatment interfered with your social activities?", "preferredTerm": "EORTC QLQ-C30 Version 3 - Condition Interfered Social Activities", "submissionValue": "EOR01-Condition Interfered Social Activ", "synonyms": ["EOR01-Condition Interfered Social Activ"]}, {"conceptId": "C161697", "definition": "European Organisation for the Research and Treatment of Cancer Quality of Life Questionnaire - Core 30 Version 3.0 - During the past week: Did you feel depressed?", "preferredTerm": "EORTC QLQ-C30 Version 3 - Did You Feel Depressed", "submissionValue": "EOR01-Did You Feel Depressed", "synonyms": ["EOR01-Did You Feel Depressed"]}, {"conceptId": "C161696", "definition": "European Organisation for the Research and Treatment of Cancer Quality of Life Questionnaire - Core 30 Version 3.0 - During the past week: Did you feel irritable?", "preferredTerm": "EORTC QLQ-C30 Version 3 - Did You Feel Irritable", "submissionValue": "EOR01-Did You Feel Irritable", "synonyms": ["EOR01-Did You Feel Irritable"]}, {"conceptId": "C161694", "definition": "European Organisation for the Research and Treatment of Cancer Quality of Life Questionnaire - Core 30 Version 3.0 - During the past week: Did you feel tense?", "preferredTerm": "EORTC QLQ-C30 Version 3 - Did You Feel Tense", "submissionValue": "EOR01-Did You Feel Tense", "synonyms": ["EOR01-Did You Feel Tense"]}, {"conceptId": "C161683", "definition": "European Organisation for the Research and Treatment of Cancer Quality of Life Questionnaire - Core 30 Version 3.0 - During the past week: Did you need to rest?", "preferredTerm": "EORTC QLQ-C30 Version 3 - Did You Need to Rest", "submissionValue": "EOR01-Did You Need to Rest", "synonyms": ["EOR01-Did You Need to Rest"]}, {"conceptId": "C161695", "definition": "European Organisation for the Research and Treatment of Cancer Quality of Life Questionnaire - Core 30 Version 3.0 - During the past week: Did you worry?", "preferredTerm": "EORTC QLQ-C30 Version 3 - Did You Worry", "submissionValue": "EOR01-Did You Worry", "synonyms": ["EOR01-Did You Worry"]}, {"conceptId": "C161693", "definition": "European Organisation for the Research and Treatment of Cancer Quality of Life Questionnaire - Core 30 Version 3.0 - During the past week: Have you had difficulty in concentrating on things, like reading a newspaper or watching television?", "preferredTerm": "EORTC QLQ-C30 Version 3 - Difficulty Concentrating on Things", "submissionValue": "EOR01-Difficulty Concentrating on Things", "synonyms": ["EOR01-Difficulty Concentrating on Things"]}, {"conceptId": "C161698", "definition": "European Organisation for the Research and Treatment of Cancer Quality of Life Questionnaire - Core 30 Version 3.0 - During the past week: Have you had difficulty remembering things?", "preferredTerm": "EORTC QLQ-C30 Version 3 - Had Difficulty Remembering Things", "submissionValue": "EOR01-Had Difficulty Remembering Things", "synonyms": ["EOR01-Had Difficulty Remembering Things"]}, {"conceptId": "C161689", "definition": "European Organisation for the Research and Treatment of Cancer Quality of Life Questionnaire - Core 30 Version 3.0 - During the past week: Have you been constipated?", "preferredTerm": "EORTC QLQ-C30 Version 3 - Have You Been Constipated", "submissionValue": "EOR01-Have You Been Constipated", "synonyms": ["EOR01-Have You Been Constipated"]}, {"conceptId": "C161687", "definition": "European Organisation for the Research and Treatment of Cancer Quality of Life Questionnaire - Core 30 Version 3.0 - During the past week: Have you felt nauseated?", "preferredTerm": "EORTC QLQ-C30 Version 3 - Have You Felt Nauseated", "submissionValue": "EOR01-Have You Felt Nauseated", "synonyms": ["EOR01-Have You Felt Nauseated"]}, {"conceptId": "C161685", "definition": "European Organisation for the Research and Treatment of Cancer Quality of Life Questionnaire - Core 30 Version 3.0 - During the past week: Have you felt weak?", "preferredTerm": "EORTC QLQ-C30 Version 3 - Have You Felt Weak", "submissionValue": "EOR01-Have You Felt Weak", "synonyms": ["EOR01-Have You Felt Weak"]}, {"conceptId": "C161690", "definition": "European Organisation for the Research and Treatment of Cancer Quality of Life Questionnaire - Core 30 Version 3.0 - During the past week: Have you had diarrhea?", "preferredTerm": "EORTC QLQ-C30 Version 3 - Have You Had Diarrhea", "submissionValue": "EOR01-Have You Had Diarrhea", "synonyms": ["EOR01-Have You Had Diarrhea"]}, {"conceptId": "C161682", "definition": "European Organisation for the Research and Treatment of Cancer Quality of Life Questionnaire - Core 30 Version 3.0 - During the past week: Have you had pain?", "preferredTerm": "EORTC QLQ-C30 Version 3 - Have You Had Pain", "submissionValue": "EOR01-Have You Had Pain", "synonyms": ["EOR01-Have You Had Pain"]}, {"conceptId": "C161684", "definition": "European Organisation for the Research and Treatment of Cancer Quality of Life Questionnaire - Core 30 Version 3.0 - During the past week: Have you had trouble sleeping?", "preferredTerm": "EORTC QLQ-C30 Version 3 - Have You Had Trouble Sleeping", "submissionValue": "EOR01-Have You Had Trouble Sleeping", "synonyms": ["EOR01-Have You Had Trouble Sleeping"]}, {"conceptId": "C161686", "definition": "European Organisation for the Research and Treatment of Cancer Quality of Life Questionnaire - Core 30 Version 3.0 - During the past week: Have you lacked appetite?", "preferredTerm": "EORTC QLQ-C30 Version 3 - Have You Lacked Appetite", "submissionValue": "EOR01-Have You Lacked Appetite", "synonyms": ["EOR01-Have You Lacked Appetite"]}, {"conceptId": "C161688", "definition": "European Organisation for the Research and Treatment of Cancer Quality of Life Questionnaire - Core 30 Version 3.0 - During the past week: Have you vomited?", "preferredTerm": "EORTC QLQ-C30 Version 3 - Have You Vomited", "submissionValue": "EOR01-Have You Vomited", "synonyms": ["EOR01-Have You Vomited"]}, {"conceptId": "C161680", "definition": "European Organisation for the Research and Treatment of Cancer Quality of Life Questionnaire - Core 30 Version 3.0 - During the past week: Were you limited in pursuing your hobbies or other leisure time activities?", "preferredTerm": "EORTC QLQ-C30 Version 3 - Limited Hobbies or Leisure Activities", "submissionValue": "EOR01-Limited Hobbies/Leisure Activities", "synonyms": ["EOR01-Limited Hobbies/Leisure Activities"]}, {"conceptId": "C161679", "definition": "European Organisation for the Research and Treatment of Cancer Quality of Life Questionnaire - Core 30 Version 3.0 - During the past week: Were you limited in doing either your work or other daily activities?", "preferredTerm": "EORTC QLQ-C30 Version 3 - Limited in Work or Daily Activities", "submissionValue": "EOR01-Limited in Work/Daily Activities", "synonyms": ["EOR01-Limited in Work/Daily Activities"]}, {"conceptId": "C161678", "definition": "European Organisation for the Research and Treatment of Cancer Quality of Life Questionnaire - Core 30 Version 3.0 - Do you need help with eating, dressing, washing yourself or using the toilet?", "preferredTerm": "EORTC QLQ-C30 Version 3 - Need Help Eating, Dressing, Washing", "submissionValue": "EOR01-Need Help Eating/Dressing/Washing", "synonyms": ["EOR01-Need Help Eating/Dressing/Washing"]}, {"conceptId": "C161692", "definition": "European Organisation for the Research and Treatment of Cancer Quality of Life Questionnaire - Core 30 Version 3.0 - During the past week: Did pain interfere with your daily activities?", "preferredTerm": "EORTC QLQ-C30 Version 3 - Pain Interfere Daily Activities", "submissionValue": "EOR01-Pain Interfere Daily Activities", "synonyms": ["EOR01-Pain Interfere Daily Activities"]}, {"conceptId": "C161702", "definition": "European Organisation for the Research and Treatment of Cancer Quality of Life Questionnaire - Core 30 Version 3.0 - How would you rate your overall health during the past week?", "preferredTerm": "EORTC QLQ-C30 Version 3 - Rate Your Overall Health", "submissionValue": "EOR01-Rate Your Overall Health", "synonyms": ["EOR01-Rate Your Overall Health"]}, {"conceptId": "C161703", "definition": "European Organisation for the Research and Treatment of Cancer Quality of Life Questionnaire - Core 30 Version 3.0 - How would you rate your overall quality of life during the past week?", "preferredTerm": "EORTC QLQ-C30 Version 3 - Rate Your Overall Quality of Life", "submissionValue": "EOR01-Rate Your Overall Quality of Life", "synonyms": ["EOR01-Rate Your Overall Quality of Life"]}, {"conceptId": "C161677", "definition": "European Organisation for the Research and Treatment of Cancer Quality of Life Questionnaire - Core 30 Version 3.0 - Do you need to stay in bed or a chair during the day?", "preferredTerm": "EORTC QLQ-C30 Version 3 - Stay in Bed or Chair During the Day", "submissionValue": "EOR01-Stay in Bed/Chair During the Day", "synonyms": ["EOR01-Stay in Bed/Chair During the Day"]}, {"conceptId": "C161674", "definition": "European Organisation for the Research and Treatment of Cancer Quality of Life Questionnaire - Core 30 Version 3.0 - Do you have any trouble doing strenuous activities, like carrying a heavy shopping bag or a suitcase?", "preferredTerm": "EORTC QLQ-C30 Version 3 - Trouble Doing Strenuous Activities", "submissionValue": "EOR01-Trouble Doing Strenuous Activities", "synonyms": ["EOR01-Trouble Doing Strenuous Activities"]}, {"conceptId": "C161675", "definition": "European Organisation for the Research and Treatment of Cancer Quality of Life Questionnaire - Core 30 Version 3.0 - Do you have any trouble taking a long walk?", "preferredTerm": "EORTC QLQ-C30 Version 3 - Trouble Taking Long Walk", "submissionValue": "EOR01-Trouble Taking Long Walk", "synonyms": ["EOR01-Trouble Taking Long Walk"]}, {"conceptId": "C161676", "definition": "European Organisation for the Research and Treatment of Cancer Quality of Life Questionnaire - Core 30 Version 3.0 - Do you have any trouble taking a short walk outside of the house?", "preferredTerm": "EORTC QLQ-C30 Version 3 - Trouble Taking Short Walk Outside", "submissionValue": "EOR01-Trouble Taking Short Walk Outside", "synonyms": ["EOR01-Trouble Taking Short Walk Outside"]}, {"conceptId": "C161681", "definition": "European Organisation for the Research and Treatment of Cancer Quality of Life Questionnaire - Core 30 Version 3.0 - During the past week: Were you short of breath?", "preferredTerm": "EORTC QLQ-C30 Version 3 - Were You Short of Breath", "submissionValue": "EOR01-Were You Short of Breath", "synonyms": ["EOR01-Were You Short of Breath"]}, {"conceptId": "C161691", "definition": "European Organisation for the Research and Treatment of Cancer Quality of Life Questionnaire - Core 30 Version 3.0 - During the past week: Were you tired?", "preferredTerm": "EORTC QLQ-C30 Version 3 - Were You Tired", "submissionValue": "EOR01-Were You Tired", "synonyms": ["EOR01-Were You Tired"]}]}