{"_links": {"parentPackage": {"href": "/mdr/ct/packages/sendct-2021-09-24", "title": "SEND Controlled Terminology Package 47 Effective 2021-09-24", "type": "Terminology"}, "priorVersion": {"href": "/mdr/ct/packages/sendct-2021-06-25/codelists/C163030", "title": "CDISC SEND Microbiology Test Code Terminology", "type": "Code List"}, "rootItem": {"href": "/mdr/root/ct/sendct/codelists/C163030", "title": "Version-agnostic anchor resource for codelist C163030", "type": "Root Value Domain"}, "self": {"href": "/mdr/ct/packages/sendct-2021-09-24/codelists/C163030", "title": "CDISC SEND Microbiology Test Code Terminology", "type": "Code List"}}, "conceptId": "C163030", "definition": "Terminology for the test code relevant to non-clinical microbiology findings.", "extensible": "true", "name": "SEND Microbiology Test Code", "preferredTerm": "CDISC SEND Microbiology Test Code Terminology", "submissionValue": "SMBTSTCD", "synonyms": ["SEND Microbiology Test Code"], "terms": [{"conceptId": "C100452", "definition": "A measurement of the parasites and ova in a biological specimen.", "preferredTerm": "Ova and Parasite Measurement", "submissionValue": "OVAPARS", "synonyms": ["Ova and Parasite"]}]}