{"_links": {"parentPackage": {"href": "/mdr/ct/packages/sendct-2021-09-24", "title": "SEND Controlled Terminology Package 47 Effective 2021-09-24", "type": "Terminology"}, "priorVersion": {"href": "/mdr/ct/packages/sendct-2021-06-25/codelists/C78737", "title": "CDISC SDTM Relationship Type Terminology", "type": "Code List"}, "rootItem": {"href": "/mdr/root/ct/sendct/codelists/C78737", "title": "Version-agnostic anchor resource for codelist C78737", "type": "Root Value Domain"}, "self": {"href": "/mdr/ct/packages/sendct-2021-09-24/codelists/C78737", "title": "CDISC SDTM Relationship Type Terminology", "type": "Code List"}}, "conceptId": "C78737", "definition": "The description of relationship types between a record or set of records.", "extensible": "false", "name": "Relationship Type", "preferredTerm": "CDISC SDTM Relationship Type Terminology", "submissionValue": "RELTYPE", "synonyms": ["Relationship Type"], "terms": [{"conceptId": "C170512", "definition": "A side of a dataset-to-dataset relationship that contains more than one element.", "preferredTerm": "Many Relationship Type", "submissionValue": "MANY"}, {"conceptId": "C66832", "definition": "A textual representation of the numeral 1.", "preferredTerm": "One", "submissionValue": "ONE"}]}