{"_links": {"parentPackage": {"href": "/mdr/ct/packages/ddfct-2023-06-30", "title": "DDF Controlled Terminology Package 54 Effective 2023-06-30", "type": "Terminology"}, "priorVersion": {"href": "/mdr/ct/packages/ddfct-2023-03-31/codelists/C188716", "title": "CDISC DDF Procedure Attribute Terminology", "type": "Code List"}, "rootItem": {"href": "/mdr/root/ct/ddfct/codelists/C188716", "title": "Version-agnostic anchor resource for codelist C188716", "type": "Root Value Domain"}, "self": {"href": "/mdr/ct/packages/ddfct-2023-06-30/codelists/C188716", "title": "CDISC DDF Procedure Attribute Terminology", "type": "Code List"}}, "conceptId": "C188716", "definition": "A terminology value set relevant to the attributes of the procedure.", "name": "DDF Procedure Attribute Terminology", "preferredTerm": "CDISC DDF Procedure Attribute Terminology", "submissionValue": "DDF Procedure Attribute Terminology", "synonyms": ["DDF Procedure Attribute Terminology"], "terms": [{"conceptId": "C154626", "definition": "A symbol or combination of symbols which is assigned to medical procedure.", "preferredTerm": "Procedure Code", "submissionValue": "Procedure Code"}, {"conceptId": "C188848", "definition": "A characterization or classification of the study procedure.", "preferredTerm": "Study Procedure Type", "submissionValue": "Procedure Type"}]}