{"_links": {"parentPackage": {"href": "/mdr/ct/packages/ddfct-2023-06-30", "title": "DDF Controlled Terminology Package 54 Effective 2023-06-30", "type": "Terminology"}, "priorVersion": {"href": "/mdr/ct/packages/ddfct-2023-03-31/codelists/C188727", "title": "CDISC DDF Study Arm Data Origin Type Value Set Terminology", "type": "Code List"}, "rootItem": {"href": "/mdr/root/ct/ddfct/codelists/C188727", "title": "Version-agnostic anchor resource for codelist C188727", "type": "Root Value Domain"}, "self": {"href": "/mdr/ct/packages/ddfct-2023-06-30/codelists/C188727", "title": "CDISC DDF Study Arm Data Origin Type Value Set Terminology", "type": "Code List"}}, "conceptId": "C188727", "definition": "The terminology relevant to the study arm data origin type.", "name": "Study Arm Data Origin Type Value Set Terminology", "preferredTerm": "CDISC DDF Study Arm Data Origin Type Value Set Terminology", "submissionValue": "Study Arm Data Origin Type Value Set Terminology", "synonyms": ["Study Arm Data Origin Type Value Set Terminology"], "terms": [{"conceptId": "C188866", "definition": "Data that are generated from the current study.", "preferredTerm": "Data Generated Within Study", "submissionValue": "Data Generated Within Study"}, {"conceptId": "C188864", "definition": "Data from studies that have occurred in the past.", "preferredTerm": "Historical Data", "submissionValue": "Historical Data"}, {"conceptId": "C165830", "definition": "Data relating to patient health status and/or the delivery of health care routinely collected from sources other than traditional clinical trials. NOTE: Examples of sources include data derived from electronic health records (EHRs); medical claims and billing data; data from product and disease registries; patient-generated data, including from in-home-use settings; and data gathered from other sources that can inform on health status, such as mobile devices. [After 21 U.S.C. 355g(b)).5 and Framework for FDA's Real-World Evidence Program December 2018] See also Real-World Evidence (RWE)", "preferredTerm": "Real-world Data", "submissionValue": "Real World Data"}, {"conceptId": "C176263", "definition": "Data that are artificially created rather than being generated by actual events. NOTE: Data are often created with the help of algorithms and used for a wide range of activities, including as test data for new products and tools, for model validation, and in AI optimization. [After The Ultimate Guide to Synthetic Data in 2020, August 29, 2020]. See also artificial intelligence.", "preferredTerm": "Synthetic Data", "submissionValue": "Synthetic Data"}, {"conceptId": "C188865", "definition": "Data that are generated from virtual encounters between investigators and subjects.", "preferredTerm": "Virtual Data", "submissionValue": "Virtual Data"}]}