{"_links": {"parentPackage": {"href": "/mdr/ct/packages/ddfct-2023-06-30", "title": "DDF Controlled Terminology Package 54 Effective 2023-06-30", "type": "Terminology"}, "priorVersion": {"href": "/mdr/ct/packages/ddfct-2023-03-31/codelists/C188701", "title": "CDISC DDF Study Identifier Attribute Terminology", "type": "Code List"}, "rootItem": {"href": "/mdr/root/ct/ddfct/codelists/C188701", "title": "Version-agnostic anchor resource for codelist C188701", "type": "Root Value Domain"}, "self": {"href": "/mdr/ct/packages/ddfct-2023-06-30/codelists/C188701", "title": "CDISC DDF Study Identifier Attribute Terminology", "type": "Code List"}}, "conceptId": "C188701", "definition": "A terminology value set relevant to the attributes of the study identifier.", "name": "DDF Study Identifier Attribute Terminology", "preferredTerm": "CDISC DDF Study Identifier Attribute Terminology", "submissionValue": "DDF Study Identifier Attribute Terminology", "synonyms": ["DDF Study Identifier Attribute Terminology"], "terms": [{"conceptId": "C83082", "definition": "A sequence of characters used to identify, name, or characterize the study.", "preferredTerm": "Study Identifier", "submissionValue": "Study Identifier"}]}