{"_links": {"parentPackage": {"href": "/mdr/ct/packages/ddfct-2023-06-30", "title": "DDF Controlled Terminology Package 54 Effective 2023-06-30", "type": "Terminology"}, "priorVersion": {"href": "/mdr/ct/packages/ddfct-2023-03-31/codelists/C188718", "title": "CDISC DDF Workflow Item Attribute Terminology", "type": "Code List"}, "rootItem": {"href": "/mdr/root/ct/ddfct/codelists/C188718", "title": "Version-agnostic anchor resource for codelist C188718", "type": "Root Value Domain"}, "self": {"href": "/mdr/ct/packages/ddfct-2023-06-30/codelists/C188718", "title": "CDISC DDF Workflow Item Attribute Terminology", "type": "Code List"}}, "conceptId": "C188718", "definition": "A terminology value set relevant to the attributes of the workflow item.", "name": "DDF Workflow Item Attribute Terminology", "preferredTerm": "CDISC DDF Workflow Item Attribute Terminology", "submissionValue": "DDF Workflow Item Attribute Terminology", "synonyms": ["DDF Workflow Item Attribute Terminology"], "terms": [{"conceptId": "C188852", "definition": "A system identifier assigned to a workflow item that occurs immediately after the current workflow item.", "preferredTerm": "Next Workflow Item Identifier", "submissionValue": "Next Workflow Item Identifier"}, {"conceptId": "C188851", "definition": "A system identifier assigned to a workflow item that occurs immediately prior to the current workflow item.", "preferredTerm": "Previous Workflow Item Identifier", "submissionValue": "Previous Workflow Item Identifier"}, {"conceptId": "C188812", "definition": "The textual representation of the workflow item.", "preferredTerm": "Workflow Item Description", "submissionValue": "Workflow Item Description"}]}