{"_links": {"parentPackage": {"href": "/mdr/ct/packages/ddfct-2023-06-30", "title": "DDF Controlled Terminology Package 54 Effective 2023-06-30", "type": "Terminology"}, "priorVersion": {"href": "/mdr/ct/packages/ddfct-2023-03-31/codelists/C188705", "title": "CDISC DDF Indication Attribute Terminology", "type": "Code List"}, "rootItem": {"href": "/mdr/root/ct/ddfct/codelists/C188705", "title": "Version-agnostic anchor resource for codelist C188705", "type": "Root Value Domain"}, "self": {"href": "/mdr/ct/packages/ddfct-2023-06-30/codelists/C188705", "title": "CDISC DDF Indication Attribute Terminology", "type": "Code List"}}, "conceptId": "C188705", "definition": "A terminology value set relevant to the attributes of the disease indication.", "name": "DDF Indication Attribute Terminology", "preferredTerm": "CDISC DDF Indication Attribute Terminology", "submissionValue": "DDF Indication Attribute Terminology", "synonyms": ["DDF Indication Attribute Terminology"], "terms": [{"conceptId": "C188822", "definition": "A short sequence of characters that represents the disease indication.", "preferredTerm": "Disease Indication Code", "submissionValue": "Disease Indication Code"}, {"conceptId": "C112038", "definition": "The textual representation of the condition, disease or disorder that the clinical trial is intended to investigate or address.", "preferredTerm": "Trial Indication", "submissionValue": "Trial Disease/Condition Indication Description", "synonyms": ["Trial Disease/Condition Indication", "Trial Disease/Condition Indication Description"]}]}