{"_links": {"parentPackage": {"href": "/mdr/ct/packages/ddfct-2023-06-30", "title": "DDF Controlled Terminology Package 54 Effective 2023-06-30", "type": "Terminology"}, "priorVersion": {"href": "/mdr/ct/packages/ddfct-2023-03-31/codelists/C188712", "title": "CDISC DDF Transition Rule Attribute Terminology", "type": "Code List"}, "rootItem": {"href": "/mdr/root/ct/ddfct/codelists/C188712", "title": "Version-agnostic anchor resource for codelist C188712", "type": "Root Value Domain"}, "self": {"href": "/mdr/ct/packages/ddfct-2023-06-30/codelists/C188712", "title": "CDISC DDF Transition Rule Attribute Terminology", "type": "Code List"}}, "conceptId": "C188712", "definition": "A terminology value set relevant to the attributes of the transition rule.", "name": "DDF Transition Rule Attribute Terminology", "preferredTerm": "CDISC DDF Transition Rule Attribute Terminology", "submissionValue": "DDF Transition Rule Attribute Terminology", "synonyms": ["DDF Transition Rule Attribute Terminology"], "terms": [{"conceptId": "C188835", "definition": "The textual representation of the transition rule.", "preferredTerm": "Transition Rule Description", "submissionValue": "Transition Rule Description"}]}