{"_links": {"parentPackage": {"href": "/mdr/ct/packages/ddfct-2023-06-30", "title": "DDF Controlled Terminology Package 54 Effective 2023-06-30", "type": "Terminology"}, "priorVersion": {"href": "/mdr/ct/packages/ddfct-2023-03-31/codelists/C188702", "title": "CDISC DDF Organization Attribute Terminology", "type": "Code List"}, "rootItem": {"href": "/mdr/root/ct/ddfct/codelists/C188702", "title": "Version-agnostic anchor resource for codelist C188702", "type": "Root Value Domain"}, "self": {"href": "/mdr/ct/packages/ddfct-2023-06-30/codelists/C188702", "title": "CDISC DDF Organization Attribute Terminology", "type": "Code List"}}, "conceptId": "C188702", "definition": "A terminology value set relevant to the attributes of the organization.", "name": "DDF Organization Attribute Terminology", "preferredTerm": "CDISC DDF Organization Attribute Terminology", "submissionValue": "DDF Organization Attribute Terminology", "synonyms": ["DDF Organization Attribute Terminology"], "terms": [{"conceptId": "C188819", "definition": "The name of the organization that provides the identifier for the entity.", "preferredTerm": "Identifier Provider Organization Name", "submissionValue": "Identifier Provider Organization Name"}, {"conceptId": "C93401", "definition": "A unique symbol that establishes identity of the organization. (BRIDG)", "preferredTerm": "Organization Identifier", "submissionValue": "Organization Identifier"}, {"conceptId": "C93874", "definition": "A non-unique textual identifier for the organization. (BRIDG)", "preferredTerm": "Organization Name", "submissionValue": "Organization Name"}, {"conceptId": "C188820", "definition": "A characterization or classification of the formalized group of persons or other organizations collected together for a common purpose (such as administrative, legal, political) and the infrastructure to carry out that purpose.", "preferredTerm": "Organization Type", "submissionValue": "Organization Type"}]}