{"_links": {"parentPackage": {"href": "/mdr/ct/packages/sendct-2021-03-26", "title": "SEND Controlled Terminology Package 45 Effective 2021-03-26", "type": "Terminology"}, "priorVersion": {"href": "/mdr/ct/packages/sendct-2020-12-18/codelists/C124311", "title": "CDISC SEND Fetal Measurement Test Code Terminology", "type": "Code List"}, "rootItem": {"href": "/mdr/root/ct/sendct/codelists/C124311", "title": "Version-agnostic anchor resource for codelist C124311", "type": "Root Value Domain"}, "self": {"href": "/mdr/ct/packages/sendct-2021-03-26/codelists/C124311", "title": "CDISC SEND Fetal Measurement Test Code Terminology", "type": "Code List"}}, "conceptId": "C124311", "definition": "Terminology for the test code relevant to fetal measurements.", "extensible": "true", "name": "Fetal Measurement Test Code", "preferredTerm": "CDISC SEND Fetal Measurement Test Code Terminology", "submissionValue": "FMTESTCD", "synonyms": ["Fetal Measurement Test Code"], "terms": [{"conceptId": "C124276", "definition": "A measurement of the length of the span between the anus and the base of the genitalia.", "preferredTerm": "Anogenital Distance", "submissionValue": "ANGDIST", "synonyms": ["Anogenital Distance"]}, {"conceptId": "C124478", "definition": "A measurement of the length of the span between the protuberances of the parietal bones of the skull.", "preferredTerm": "Biparietal Distance", "submissionValue": "BIPADIST", "synonyms": ["Biparietal Distance"]}, {"conceptId": "C124479", "definition": "The weight of a fetus.", "preferredTerm": "Fetal Body Weight", "submissionValue": "BWFETAL", "synonyms": ["Fetal Body Weight"]}, {"conceptId": "C64265", "definition": "The length of the closed curve of a circle; the size of something as given by the distance around it. (NCI)", "preferredTerm": "Circumference", "submissionValue": "CIRCUMF", "synonyms": ["Circumference"]}, {"conceptId": "C81242", "definition": "A measurement from the proximal aspect of the head to the buttocks or proximal aspect of the tail.", "preferredTerm": "Crown to Rump Length Measurement", "submissionValue": "CRWNRMPL", "synonyms": ["Crown Rump length"]}, {"conceptId": "C124480", "definition": "The amount of three dimensional space occupied by a fluid.", "preferredTerm": "Fluid Volume", "submissionValue": "FVOLUME", "synonyms": ["Fluid Volume"]}, {"conceptId": "C25334", "definition": "The linear extent in space from one end of something to the other end, or the extent of something from beginning to end. (NCI)", "preferredTerm": "Length", "submissionValue": "LENGTH", "synonyms": ["Length"]}, {"conceptId": "C124481", "definition": "A measurement of the skull, measured from the external occipital protuberance to the most prominent point of the frontal bone in the midline.", "preferredTerm": "Occipitofrontal Diameter", "submissionValue": "OCCFDIAM", "synonyms": ["Occipitofrontal Diameter"]}, {"conceptId": "C124482", "definition": "The number of skeletal elements with ossification centers present.", "preferredTerm": "Number of Ossified Skeletal Elements", "submissionValue": "OSSKELCT", "synonyms": ["Ossified Skeletal Element Count"]}, {"conceptId": "C124483", "definition": "The weight of a fetal organ.", "preferredTerm": "Fetal Organ Weight", "submissionValue": "OWFETAL", "synonyms": ["Fetal Organ Weight"]}, {"conceptId": "C124484", "definition": "Examination of the fetus to determine sex.", "preferredTerm": "Sex of Fetus", "submissionValue": "SEXFETAL", "synonyms": ["Fetal Sex"]}]}