{"_links": {"parentPackage": {"href": "/mdr/ct/packages/sendct-2021-03-26", "title": "SEND Controlled Terminology Package 45 Effective 2021-03-26", "type": "Terminology"}, "priorVersion": {"href": "/mdr/ct/packages/sendct-2020-12-18/codelists/C160931", "title": "CDISC SEND Genus and Species Response Terminology", "type": "Code List"}, "rootItem": {"href": "/mdr/root/ct/sendct/codelists/C160931", "title": "Version-agnostic anchor resource for codelist C160931", "type": "Root Value Domain"}, "self": {"href": "/mdr/ct/packages/sendct-2021-03-26/codelists/C160931", "title": "CDISC SEND Genus and Species Response Terminology", "type": "Code List"}}, "conceptId": "C160931", "definition": "Terminology related to taxonomic organism names at the genus, species, or subspecies level.", "extensible": "true", "name": "Genus and Species Response", "preferredTerm": "CDISC SEND Genus and Species Response Terminology", "submissionValue": "GENUSSPC", "synonyms": ["Genus and Species Response"], "terms": [{"conceptId": "C161014", "definition": "Any cattle belonging to the species Bos taurus.", "preferredTerm": "Bos taurus", "submissionValue": "BOS TAURUS", "synonyms": ["Bos bovis", "Bos primigenius taurus"]}, {"conceptId": "C77115", "definition": "The common marmoset, Callithrix jacchus.", "preferredTerm": "Callithrix jacchus", "submissionValue": "CALLITHRIX JACCHUS", "synonyms": ["Callithrix jacchus jacchus", "White-Ear-Tufted Marmoset"]}, {"conceptId": "C14201", "definition": "The domestic dog, Canis familiaris. (NCI)", "preferredTerm": "Dog", "submissionValue": "CANIS FAMILIARIS", "synonyms": ["Canis canis", "Canis domesticus", "Canis lupus familiaris"]}, {"conceptId": "C161015", "definition": "A goat belonging to the species Capra hircus.", "preferredTerm": "Capra hircus", "submissionValue": "CAPRA HIRCUS", "synonyms": ["Capra aegagrus hircus"]}, {"conceptId": "C14211", "definition": "The domesticated guinea pig, Cavia porcellus. (NCI)", "preferredTerm": "Guinea Pig", "submissionValue": "CAVIA PORCELLUS"}, {"conceptId": "C161032", "definition": "A monkey belonging to the species Chlorocebus aethiops.", "preferredTerm": "Chlorocebus aethiops", "submissionValue": "CHLOROCEBUS AETHIOPS", "synonyms": ["Cercopithecus aethiops", "Ceropithecus aethiops"]}, {"conceptId": "C77091", "definition": "Originating in the deserts of northern China and Mongolia and kept in captivity since 1919, these hamsters exhibit a whitish/grey/brown coat color with a black stripe down the spine.", "preferredTerm": "Chinese Hamster", "submissionValue": "CRICETULUS GRISEUS", "synonyms": ["Chinese Hamster", "Cricetulus barabensis griseus"]}, {"conceptId": "C14287", "definition": "A fish belonging to the species Danio rerio.", "preferredTerm": "Zebrafish", "submissionValue": "DANIO RERIO", "synonyms": ["Brachydanio rerio", "Cyprinus rerio", "Danio frankei", "Zebrafish"]}, {"conceptId": "C161037", "definition": "A monkey belonging to the species Erythrocebus patas.", "preferredTerm": "Erythrocebus patas", "submissionValue": "ERYTHROCEBUS PATAS", "synonyms": ["Cercopithecus patas", "Hussar Monkey", "Patas Monkey", "Wadi Monkey"]}, {"conceptId": "C14191", "definition": "The domestic cat, Felis catus. (NCI)", "preferredTerm": "Cat", "submissionValue": "FELIS CATUS", "synonyms": ["Felis domesticus", "Felis silvestris catus"]}, {"conceptId": "C14193", "definition": "The common domestic fowl, Gallus gallus. (NCI)", "preferredTerm": "Chicken", "submissionValue": "GALLUS GALLUS", "synonyms": ["Domestic Chicken", "Gallus domesticus", "Gallus gallus domesticus"]}, {"conceptId": "C14232", "definition": "The macaque, Macaca fascicularis.", "preferredTerm": "Cynomolgus Monkey", "submissionValue": "MACACA FASCICULARIS", "synonyms": ["Cynomolgus Macaque", "Macaca cynomolgus", "Macaca irus"]}, {"conceptId": "C14233", "definition": "A pale brown macaque, Macaca mulatta.", "preferredTerm": "Rhesus Monkey", "submissionValue": "MACACA MULATTA", "synonyms": ["Rhesus Macaque"]}, {"conceptId": "C161033", "definition": "A macaque belonging to the species Macaca nemestrina.", "preferredTerm": "Macaca nemestrina", "submissionValue": "MACACA NEMESTRINA", "synonyms": ["Southern Pig-Tailed Macaque"]}, {"conceptId": "C45247", "definition": "A mouse belonging to the species Mus musculus.", "preferredTerm": "Mus musculus", "submissionValue": "MUS MUSCULUS"}, {"conceptId": "C161001", "definition": "The common domestic ferret, Mustela putorious furo.", "preferredTerm": "Mustela putorius furo", "submissionValue": "MUSTELA PUTORIUS FURO", "synonyms": ["Domestic Ferret"]}, {"conceptId": "C161041", "definition": "A rabbit belonging to the species Oryctolagus cuniculus.", "preferredTerm": "Oryctolagus cuniculus", "submissionValue": "ORYCTOLAGUS CUNICULUS", "synonyms": ["Domestic Rabbit", "Lepus cuniculus"]}, {"conceptId": "C161044", "definition": "A sheep belonging to the species Ovis aries.", "preferredTerm": "Ovis aries", "submissionValue": "OVIS ARIES", "synonyms": ["Domestic Sheep", "Ovis ammon aries", "Ovis orientalis aries", "Ovis ovis"]}, {"conceptId": "C161025", "definition": "A baboon belonging to the species Papio anubis.", "preferredTerm": "Papio anubis", "submissionValue": "PAPIO ANUBIS", "synonyms": ["Doguera Baboon", "Kenya Baboon", "Papio cynocephalus anubis", "Papio doguera", "Papio hamadryas anubis"]}, {"conceptId": "C161026", "definition": "A baboon belonging to the species Papio cynocephalus.", "preferredTerm": "Papio cynocephalus", "submissionValue": "PAPIO CYNOCEPHALUS", "synonyms": ["Papio hamadryas cynocephalus", "Yellow Baboon"]}, {"conceptId": "C161027", "definition": "A baboon belonging to the species Papio hamadryas hamadryas.", "preferredTerm": "Papio hamadryas hamadryas", "submissionValue": "PAPIO HAMADRYAS HAMADRYAS"}, {"conceptId": "C161028", "definition": "A baboon belonging to the species Papio papio.", "preferredTerm": "Papio papio", "submissionValue": "PAPIO PAPIO", "synonyms": ["Guinea Baboon", "Papio cynocephalus papio", "Papio hamadryas papio"]}, {"conceptId": "C14266", "definition": "A rat belonging to the species Rattus norvegicus.", "preferredTerm": "Rattus norvegicus", "submissionValue": "RATTUS NORVEGICUS", "synonyms": ["Common Rat"]}, {"conceptId": "C161023", "definition": "A monkey belonging to the species Saimiri boliviensis boliviensis.", "preferredTerm": "Saimiri boliviensis boliviensis", "submissionValue": "SAIMIRI BOLIVIENSIS BOLIVIENSIS", "synonyms": ["Bolivian Squirrel Monkey"]}, {"conceptId": "C77114", "definition": "A small diurnal primate with nails instead of claws belonging to the species Saimiri sciureus.", "preferredTerm": "Saimiri sciureus", "submissionValue": "SAIMIRI SCIUREUS", "synonyms": ["Common Squirrel Monkey"]}, {"conceptId": "C160991", "definition": "A pig belonging to the species Sus scrofa.", "preferredTerm": "Sus scrofa", "submissionValue": "SUS SCROFA", "synonyms": ["Swine"]}, {"conceptId": "C77095", "definition": "A captive hamster strain derived from a mother and eight pups that were captured in the wild in Aleppo, Syria by Dr. Israel Aharoni in 1930.", "preferredTerm": "Syrian Hamster", "submissionValue": "SYRIAN", "synonyms": ["Golden Hamster", "MESOCRICETUS AURATUS", "Syrian Hamster"]}, {"conceptId": "C61089", "definition": "A frog belonging to the species Xenopus laevis.", "preferredTerm": "Xenopus laevis", "submissionValue": "XENOPUS LAEVIS", "synonyms": ["African Clawed Frog"]}, {"conceptId": "C161024", "definition": "A frog belonging to the species Xenopus tropicalis.", "preferredTerm": "Xenopus tropicalis", "submissionValue": "XENOPUS TROPICALIS", "synonyms": ["Tropical Clawed Frog", "Western Clawed Frog", "Xenopus laevis tropicalis"]}]}