{"_links": {"parentPackage": {"href": "/mdr/ct/packages/sendct-2021-03-26", "title": "SEND Controlled Terminology Package 45 Effective 2021-03-26", "type": "Terminology"}, "priorVersion": {"href": "/mdr/ct/packages/sendct-2020-12-18/codelists/C176226", "title": "CDISC SEND Microscopy Sexual Maturity Status Terminology", "type": "Code List"}, "rootItem": {"href": "/mdr/root/ct/sendct/codelists/C176226", "title": "Version-agnostic anchor resource for codelist C176226", "type": "Root Value Domain"}, "self": {"href": "/mdr/ct/packages/sendct-2021-03-26/codelists/C176226", "title": "CDISC SEND Microscopy Sexual Maturity Status Terminology", "type": "Code List"}}, "conceptId": "C176226", "definition": "Terminology related to the sexual maturity status determined by qualitative microscopic evaluation.", "extensible": "false", "name": "Microscopy Sexual Maturity Status", "preferredTerm": "CDISC SEND Microscopy Sexual Maturity Status Terminology", "submissionValue": "MISXMAT", "synonyms": ["Microscopy Sexual Maturity Status"], "terms": [{"conceptId": "C25531", "definition": "In an early period of life or development or growth; not fully developed.", "preferredTerm": "Immature", "submissionValue": "IMMATURE"}, {"conceptId": "C48658", "definition": "Cannot distinguish between two or more possible values in the current context. (NCI)", "preferredTerm": "Indeterminate", "submissionValue": "INDETERMINATE", "synonyms": ["Inconclusive"]}, {"conceptId": "C156784", "definition": "Having reached a completed state of development or growth; fully developed.", "preferredTerm": "Mature", "submissionValue": "MATURE"}, {"conceptId": "C176390", "definition": "The transitional period of life between immature and mature reproductive states.", "preferredTerm": "Peripubertal", "submissionValue": "PERIPUBERTAL"}]}