{"_links": {"parentPackage": {"href": "/mdr/ct/packages/sendct-2021-03-26", "title": "SEND Controlled Terminology Package 45 Effective 2021-03-26", "type": "Terminology"}, "priorVersion": {"href": "/mdr/ct/packages/sendct-2020-12-18/codelists/C71620", "title": "CDISC SDTM Unit of Measure Terminology", "type": "Code List"}, "rootItem": {"href": "/mdr/root/ct/sendct/codelists/C71620", "title": "Version-agnostic anchor resource for codelist C71620", "type": "Root Value Domain"}, "self": {"href": "/mdr/ct/packages/sendct-2021-03-26/codelists/C71620", "title": "CDISC SDTM Unit of Measure Terminology", "type": "Code List"}}, "conceptId": "C71620", "definition": "Terminology codelist used for units within CDISC.", "extensible": "true", "name": "Unit", "preferredTerm": "CDISC SDTM Unit of Measure Terminology", "submissionValue": "UNIT", "synonyms": ["Unit"], "terms": [{"conceptId": "C25613", "definition": "One hundred times the quotient of one quantity divided by another, with the same units of measurement.", "preferredTerm": "Percentage", "submissionValue": "%", "synonyms": ["Percentage"]}, {"conceptId": "C117963", "definition": "The rate of measured normal activity minus inhibited activity, divided by the rate of normal activity of a given object. It is expressed as a percentage.", "preferredTerm": "Percent Inhibition", "submissionValue": "% INHIBITION", "synonyms": ["Percent Inhibition"]}, {"conceptId": "C48571", "definition": "A percent ratio of volume to volume, defined by the equation: [volume of solute (in ml)/ volume of solution (in ml)](100), typically used for admixtures of solutions.(NCI)", "preferredTerm": "Percent Volume per Volume", "submissionValue": "%(v/v)", "synonyms": ["Percent Volume per Volume", "vol%"]}, {"conceptId": "C48527", "definition": "A percent ratio of weight to volume, defined by the equation: [weight of solute (in gm)/volume of solution (in dl)](100). Since the numerator and denominator of this ratio have different units, it is not a true percentage. A 1% w/v solution is defined as being 1 gram of solute dissolved in 100 milliliters of solvent.(NCI)", "preferredTerm": "Percent Mass per Volume", "submissionValue": "%(w/v)", "synonyms": ["Percent Weight per Volume"]}, {"conceptId": "C48528", "definition": "A percent ratio of weight to weight, defined by the equation: [weight of solute (in gm)/weight of solution (in gm)](100).(NCI)", "preferredTerm": "Percent Mass per Mass", "submissionValue": "%(w/w)", "synonyms": ["Percent Weight per Weight"]}, {"conceptId": "C114240", "definition": "A unit of frequency expressed as the percentage of entities or events per minute.", "preferredTerm": "Percent per Minute", "submissionValue": "%/min", "synonyms": ["Percent per Minute"]}, {"conceptId": "C163560", "definition": "A unit of frequency expressed as the percentage of entities or events per second.", "preferredTerm": "Percent per Second", "submissionValue": "%/s", "synonyms": ["Percent per Second"]}, {"conceptId": "C102695", "definition": "A unit of measurement of the number of entities per unit of area equal to one hundred high powered fields.", "preferredTerm": "Per 100 High Powered Fields", "submissionValue": "/100 HPFs", "synonyms": ["Per 100 High Powered Fields"]}, {"conceptId": "C67219", "definition": "Natural number unit of measurement for a portion of a particular type of cell (excluding white blood cell subtypes) per 100 white blood cells.", "preferredTerm": "Per 100 White Blood Cells", "submissionValue": "/100 WBC", "synonyms": ["Per 100 White Blood Cells"]}, {"conceptId": "C123634", "definition": "A unit equal to one thousand entities used as a denominator to build a derived unit expressed as a ratio. (NCI)", "preferredTerm": "Per Thousand", "submissionValue": "/10^3"}, {"conceptId": "C135515", "definition": "A unit equal to ten thousand entities used as a denominator to build a derived unit expressed as a ratio. (NCI)", "preferredTerm": "Per Ten Thousand", "submissionValue": "/10^4"}, {"conceptId": "C135516", "definition": "A unit equal to one hundred thousand entities used as a denominator to build a derived unit expressed as a ratio. (NCI)", "preferredTerm": "Per Hundred Thousand", "submissionValue": "/10^5"}, {"conceptId": "C132472", "definition": "A unit of measurement of the number of entities per unit of area equal to 200 high powered fields.", "preferredTerm": "Per 200 High Powered Fields", "submissionValue": "/200 HPFs"}, {"conceptId": "C132473", "definition": "Natural number unit of measurement for a portion of a particular type of cell (excluding red blood cell subtypes) per 2000 red blood cells.", "preferredTerm": "Per 2000 Red Blood Cells", "submissionValue": "/2000 RBC"}, {"conceptId": "C132474", "definition": "Natural number unit of measurement for a portion of a particular type of cell (excluding white blood cell subtypes) per 2500 white blood cells.", "preferredTerm": "Per 2500 White Blood Cells", "submissionValue": "/2500 WBC"}, {"conceptId": "C122197", "definition": "A volume unit equal to 4.0 milliliters used as a denominator to build a derived unit expressed as a ratio.", "preferredTerm": "per 4.0 Milliliters", "submissionValue": "/4.0 mL"}, {"conceptId": "C132475", "definition": "A unit of measurement of the number of entities per unit of area equal to 40 high powered fields.", "preferredTerm": "Per 40 High Powered Fields", "submissionValue": "/40 HPFs"}, {"conceptId": "C132476", "definition": "Natural number unit of measurement for a portion of a particular type of cell (excluding white blood cell subtypes) per 500 white blood cells.", "preferredTerm": "Per 500 White Blood Cells", "submissionValue": "/500 WBC"}, {"conceptId": "C170636", "definition": "Natural number unit of measurement for a portion of a particular type of cell (excluding white blood cell subtypes) per 50,000 white blood cells.", "preferredTerm": "Per 50,000 White Blood Cells", "submissionValue": "/5x10^4 WBC"}, {"conceptId": "C122198", "definition": "A volume unit equal to 7.5 milliliters used as a denominator to build a derived unit expressed as a ratio.", "preferredTerm": "per 7.5 Milliliters", "submissionValue": "/7.5 mL"}, {"conceptId": "C135517", "definition": "A unit of pressure equal to one centimeter of water used as a denominator to build a derived unit expressed as a ratio. (NCI)", "preferredTerm": "Per Centimeter of Water", "submissionValue": "/cmH2O"}, {"conceptId": "C25473", "definition": "A rate of occurrences within a period of time equal to one day.", "preferredTerm": "Daily", "submissionValue": "/day", "synonyms": ["/day", "Daily", "Per Day"]}, {"conceptId": "C66966", "definition": "A rate of occurrences within a period of time equal to one hour.", "preferredTerm": "Per Hour", "submissionValue": "/h", "synonyms": ["Per Hour"]}, {"conceptId": "C96619", "definition": "A unit of measure equal to the instances of an entity per visual field of a microscope set to a high magnification power.", "preferredTerm": "Per High Powered Field", "submissionValue": "/HPF", "synonyms": ["Per High Powered Field"]}, {"conceptId": "C120844", "definition": "A unit equal to one kilogram used as a denominator to build a derived unit expressed as a ratio. (NCI)", "preferredTerm": "Per Kilogram", "submissionValue": "/kg"}, {"conceptId": "C96620", "definition": "A unit of measure equal to the instances of an entity per visual field of a microscope set to a low magnification power.", "preferredTerm": "Per Low Powered Field", "submissionValue": "/LPF", "synonyms": ["Per Low Powered Field"]}, {"conceptId": "C130187", "definition": "A unit of measure equal to the instances of an entity per large square (with a 1 mm2 area) in a Neubauer chamber.", "preferredTerm": "Per Large Square Neubauer Chamber", "submissionValue": "/LSQN", "synonyms": ["/Large Square Neubauer"]}, {"conceptId": "C176387", "definition": "A unit equal to one million base pairs used as a denominator to build a derived unit expressed as a ratio.", "preferredTerm": "Per Megabase Pair", "submissionValue": "/MBP", "synonyms": ["/Mb", "/Mbp", "Per Megabase Pair"]}, {"conceptId": "C66967", "definition": "A rate of occurrences within a period of time equal to one minute.", "preferredTerm": "Per Minute", "submissionValue": "/min"}, {"conceptId": "C130188", "definition": "A unit of length equal to one millimeter used as a denominator to build a derived unit expressed as a ratio.", "preferredTerm": "Per Millimeter", "submissionValue": "/mm"}, {"conceptId": "C122199", "definition": "An area unit equal to one millimeter squared used as a denominator to build a derived unit expressed as a ratio.", "preferredTerm": "per Square Millimeter", "submissionValue": "/mm2"}, {"conceptId": "C64498", "definition": "Every month. (NCI)", "preferredTerm": "Monthly", "submissionValue": "/month", "synonyms": ["Every Month", "Per Month"]}, {"conceptId": "C161490", "definition": "A rate of occurrences within a period of time equal to one second.", "preferredTerm": "Per Millisecond", "submissionValue": "/ms", "synonyms": ["1/ms", "Reciprocal of Millisecond", "ms^-1"]}, {"conceptId": "C66965", "definition": "A rate of occurrences within a period of time equal to one second.", "preferredTerm": "Per Second", "submissionValue": "/sec"}, {"conceptId": "C105516", "definition": "A unit of measure equal to the instances of an entity per visual field of a microscope. (NCI)", "preferredTerm": "Per Visual Field", "submissionValue": "/VF", "synonyms": ["Per Visual Field"]}, {"conceptId": "C67069", "definition": "Every week. (NCI)", "preferredTerm": "Weekly", "submissionValue": "/wk", "synonyms": ["Every week", "Per Week", "QS"]}, {"conceptId": "C127804", "definition": "A unit of resistance equal to the inverse of one second times one kilopascal.", "preferredTerm": "One per Second Times Kilopascal", "submissionValue": "1/(s*kPa)", "synonyms": ["/(s*kPa)"]}, {"conceptId": "C71185", "definition": "A unit of arbitrary substance concentration (biologic activity concentration) defined as the concentration of one hundred international units per one milliliter of system volume.(NCI)", "preferredTerm": "100 International Units per Milliliter", "submissionValue": "100 IU/mL", "synonyms": ["100 International units/Milliliter"]}, {"conceptId": "C105517", "definition": "A unit of measurement equal to 10 to the tenth power of entities per unit of volume equal to one liter. (NCI)", "preferredTerm": "Ten Billion Per Liter", "submissionValue": "10^10/L", "synonyms": ["10^4/mm3", "10^4/uL", "10^7/mL"]}, {"conceptId": "C105488", "definition": "A unit of measurement equal to 10 to the eleventh power of entities per unit of volume equal to one liter.", "preferredTerm": "Hundred Billion Per Liter", "submissionValue": "10^11/L", "synonyms": ["10^5/mm3", "10^5/uL", "10^8/mL"]}, {"conceptId": "C105518", "definition": "Unit of arbitrary substance concentration (biologic activity concentration) defined as the concentration of 10^12 international unit per one liter of system volume.(NCI)", "preferredTerm": "Tera International Unit Per Liter", "submissionValue": "10^12 IU/L", "synonyms": ["TIU/L", "Tera International Unit per Liter"]}, {"conceptId": "C67308", "definition": "A unit of measurement equal to 10 to the twelfth power of the number of entities per unit of volume equal to one liter.", "preferredTerm": "Million per Microliter", "submissionValue": "10^12/L", "synonyms": ["/pL", "1/pL", "10^6/mm3", "10^6/uL", "M/uL", "Mill/mcL", "T/L", "TI/L", "Tera/L"]}, {"conceptId": "C68895", "definition": "A unit of measurement of viable bacterial numbers equal to 10 to the third power colony forming units.", "preferredTerm": "Thousand Colony Forming Units", "submissionValue": "10^3 CFU", "synonyms": ["Thousand CFU", "Thousand Colony Forming Units"]}, {"conceptId": "C68899", "definition": "A unit of measurement of viable bacterial organisms in a unit mass of substance of interest defined as the number of 10 to the third power colony forming units in one gram of substance.", "preferredTerm": "Thousand Colony Forming Units per Gram", "submissionValue": "10^3 CFU/g", "synonyms": ["Thousand CFU/g", "Thousand Colony Forming Units per Gram"]}, {"conceptId": "C68903", "definition": "A unit of measurement of viable bacterial organisms in a unit volume of substance of interest defined as the number of 10 to the third power colony forming units in one milliliter of substance.", "preferredTerm": "Thousand Colony Forming Units per Milliliter", "submissionValue": "10^3 CFU/mL", "synonyms": ["Thousand CFU/mL", "Thousand Colony Forming Units per Milliliter"]}, {"conceptId": "C100897", "definition": "The unit of concentration expressed as the number of 10 to the third power copies in unit volume equal to one milliliter. (NCI)", "preferredTerm": "Thousand Copies per Milliliter", "submissionValue": "10^3 copies/mL"}, {"conceptId": "C98788", "definition": "A unit of measurement equal to 10 to the third power of the number of deoxyribonucleic acid (DNA) copies per unit of volume equal to one milliliter.", "preferredTerm": "Thousand DNA Copies per Milliliter", "submissionValue": "10^3 DNA copies/mL"}, {"conceptId": "C71187", "definition": "A unit of measure of quantity of organisms expressed in 10 to the third power of organisms.", "preferredTerm": "Thousand Organisms", "submissionValue": "10^3 organisms", "synonyms": ["Thousand Organisms"]}, {"conceptId": "C71190", "definition": "A unit of measure of organism content expressed in 10 to the third power of organisms per unit of mass equal to one gram.", "preferredTerm": "Thousand Organisms per Gram", "submissionValue": "10^3 organisms/g", "synonyms": ["Thousand Organisms per Gram", "Thousand Organisms/g"]}, {"conceptId": "C71195", "definition": "A unit of measure of organism concentration expressed in 10 to the third power of organisms per unit of volume equal to one milliliter.", "preferredTerm": "Thousand Organisms per Milliliter", "submissionValue": "10^3 organisms/mL", "synonyms": ["Thousand Organisms per Milliliter", "Thousand Organisms/mL"]}, {"conceptId": "C98790", "definition": "A unit of measurement equal to 10 to the third power of the number of ribonucleic acid (RNA) copies per unit of volume equal to one milliliter.", "preferredTerm": "Thousand RNA Copies per Milliliter", "submissionValue": "10^3 RNA copies/mL"}, {"conceptId": "C98789", "definition": "A unit of measurement equal to 10 to the third power of the number of entities per unit of area equal to one high powered field.", "preferredTerm": "Thousand per High Powered Field", "submissionValue": "10^3/hpf"}, {"conceptId": "C105519", "definition": "A unit of measurement equal to 10 to the third power of entities per unit of volume equal to one liter.", "preferredTerm": "Thousand Per Liter", "submissionValue": "10^3/L", "synonyms": ["/mL", "1/mL"]}, {"conceptId": "C158293", "definition": "A unit of measurement of viable bacterial numbers equal to 10 to the fourth power colony forming units.", "preferredTerm": "Ten Thousand Colony Forming Units", "submissionValue": "10^4 CFU", "synonyms": ["Ten Thousand CFU", "Ten Thousand Colony Forming Units"]}, {"conceptId": "C166095", "definition": "A unit of measurement of viable bacterial organisms in a unit volume of substance of interest defined as the number of 10 to the fourth power colony forming units in one milliliter of substance.", "preferredTerm": "Ten Thousand Colony Forming Units Per Liter", "submissionValue": "10^4 CFU/mL", "synonyms": ["Ten Thousand CFU/mL", "Ten Thousand Colony Forming Units per Milliliter"]}, {"conceptId": "C98787", "definition": "A unit of measurement equal to 10 to the fourth power of the number of entities per unit of area equal to one high powered field.", "preferredTerm": "Ten Thousand per High Powered Field", "submissionValue": "10^4/hpf"}, {"conceptId": "C73771", "definition": "A unit of measurement equal to 10 to the fourth power of entities per unit of volume equal to one liter.", "preferredTerm": "Thousand per Deciliter", "submissionValue": "10^4/L"}, {"conceptId": "C98743", "definition": "A unit of measurement equal to 10 to the fifth power of the number of entities per unit of area equal to one high powered field.", "preferredTerm": "Hundred Thousand per High Powered Field", "submissionValue": "10^5/hpf"}, {"conceptId": "C105490", "definition": "A unit of measurement equal to 10 to the fifth power of entities per unit of volume equal to one liter.", "preferredTerm": "Hundred Thousand Per Liter", "submissionValue": "10^5/L", "synonyms": ["10^2/mL"]}, {"conceptId": "C68896", "definition": "A unit of measurement of viable bacterial numbers equal to 10 to the sixth power colony forming units.", "preferredTerm": "Million Colony Forming Units", "submissionValue": "10^6 CFU", "synonyms": ["Million CFU", "Million Colony Forming Units"]}, {"conceptId": "C68900", "definition": "A unit of measurement of viable bacterial organisms in a unit mass of substance of interest defined as the number of 10 to the sixth power colony forming units in one gram of substance.", "preferredTerm": "Million Colony Forming Units per Gram", "submissionValue": "10^6 CFU/g", "synonyms": ["Million CFU/g", "Million Colony Forming Units per Gram"]}, {"conceptId": "C68904", "definition": "A unit of measurement of viable bacterial organisms in a unit volume of substance of interest defined as the number of 10 to the sixth power colony forming units in one milliliter of substance.", "preferredTerm": "Million Colony Forming Units per Milliliter", "submissionValue": "10^6 CFU/mL", "synonyms": ["Million CFU/mL", "Million Colony Forming Units per Milliliter"]}, {"conceptId": "C100898", "definition": "The unit of concentration expressed as the number of 10 to the sixth power copies in unit volume equal to one milliliter. (NCI)", "preferredTerm": "Million Copies per Milliliter", "submissionValue": "10^6 copies/mL"}, {"conceptId": "C98756", "definition": "A unit of measurement equal to 10 to the sixth power of the number of deoxyribonucleic acid (DNA) copies per unit of volume equal to one milliliter.", "preferredTerm": "Million DNA Copies per Milliliter", "submissionValue": "10^6 DNA copies/mL"}, {"conceptId": "C67335", "definition": "A unit of biological activity equal to 10 to the sixth power international units.", "preferredTerm": "Million International Units", "submissionValue": "10^6 IU", "synonyms": ["Million IU", "Million International Units"]}, {"conceptId": "C98757", "definition": "A unit of measurement equal to 10 to the sixth power of the number of international units of an entity per unit of volume equal to one milliliter.", "preferredTerm": "Million International Units per Milliliter", "submissionValue": "10^6 IU/mL"}, {"conceptId": "C71188", "definition": "A unit of measure of quantity of organisms expressed in 10 to the sixth power of organisms.", "preferredTerm": "Million Organisms", "submissionValue": "10^6 organisms", "synonyms": ["Million Organisms"]}, {"conceptId": "C71191", "definition": "A unit of measure of organism content expressed in 10 to the sixth power of organisms per unit of mass equal to one gram.", "preferredTerm": "Million Organisms per Gram", "submissionValue": "10^6 organisms/g", "synonyms": ["Million Organisms per Gram", "Million Organisms/g"]}, {"conceptId": "C71193", "definition": "A unit of measure of organism content expressed in 10 to the sixth power of organisms per unit of mass equal to one milligram.", "preferredTerm": "Million Organisms per Milligram", "submissionValue": "10^6 organisms/mg", "synonyms": ["Million Organisms per Milligram", "Million Organisms/mg"]}, {"conceptId": "C71196", "definition": "A unit of measure of organism concentration expressed in 10 to the sixth power of organisms per unit of volume equal to one milliliter.", "preferredTerm": "Million Organisms per Milliliter", "submissionValue": "10^6 organisms/mL", "synonyms": ["Million Organisms per Milliliter", "Million Organisms/mL"]}, {"conceptId": "C98760", "definition": "A unit of measurement equal to 10 to the sixth power of the number of ribonucleic acid (RNA) copies per unit of volume equal to one milliliter.", "preferredTerm": "Million RNA Copies per Milliliter", "submissionValue": "10^6 RNA copies/mL"}, {"conceptId": "C67310", "definition": "A unit of measure equal to 10 to the sixth power of arbitrary units.", "preferredTerm": "Million Units", "submissionValue": "10^6 U", "synonyms": ["Million U", "Million Units"]}, {"conceptId": "C130189", "definition": "A unit of measurement equal to 10 to the sixth power of entities per unit equal to one ejaculation.", "preferredTerm": "Million Per Ejaculate Unit", "submissionValue": "10^6/Ejaculate U"}, {"conceptId": "C98758", "definition": "A unit of measurement equal to 10 to the sixth power of the number of entities per unit of mass equal to one gram.", "preferredTerm": "Million per Gram", "submissionValue": "10^6/g", "synonyms": ["/ug", "1/ug", "10^3/mg", "10^9/kg"]}, {"conceptId": "C98759", "definition": "A unit of measurement equal to 10 to the sixth power of the number of entities per unit of area equal to one high powered field.", "preferredTerm": "Million per High Powered Field", "submissionValue": "10^6/hpf"}, {"conceptId": "C67452", "definition": "A unit of measurement equal to 10 to the sixth power of the number of entities per unit of volume equal to one liter.", "preferredTerm": "Thousand per Milliliter", "submissionValue": "10^6/L", "synonyms": ["/mm3", "/uL", "1/mm3", "1/uL", "10^3/mL", "M/L", "Mega/L"]}, {"conceptId": "C158294", "definition": "A unit of measurement of viable bacterial numbers equal to 10 to the seventh power colony forming units.", "preferredTerm": "Ten Million Colony Forming Units", "submissionValue": "10^7 CFU", "synonyms": ["Ten Million CFU", "Ten Million Colony Forming Units"]}, {"conceptId": "C166096", "definition": "A unit of measurement of viable bacterial organisms in a unit volume of substance of interest defined as the number of 10 to the seventh power colony forming units in one milliliter of substance.", "preferredTerm": "Ten Million Colony Forming Units Per Liter", "submissionValue": "10^7 CFU/mL", "synonyms": ["Ten Million CFU/mL", "Ten Million Colony Forming Units per Milliliter"]}, {"conceptId": "C67265", "definition": "A unit of measurement of infectious entities with numbers equal to 10 to the seventh power plaque forming units.", "preferredTerm": "Ten Million Plaque Forming Units", "submissionValue": "10^7 PFU", "synonyms": ["Ten Million PFU", "Ten Million Plaque Forming Units"]}, {"conceptId": "C150416", "definition": "A potency unit equal to the potency at which one dose of preparation contains ten million (10^7) 50 percent tissue culture infective doses.", "preferredTerm": "Ten Million Tissue Culture Infectious Dose 50%", "submissionValue": "10^7 TCID 50/dose", "synonyms": ["10^7 50 Percent Tissue Culture Infective Dose per Dose"]}, {"conceptId": "C98786", "definition": "A unit of measurement equal to 10 to the seventh power of the number of entities per unit of volume equal to one liter.", "preferredTerm": "Ten Million per Liter", "submissionValue": "10^7/L", "synonyms": ["10^6/dL"]}, {"conceptId": "C67266", "definition": "A unit of measurement of infectious entities with numbers equal to 10 to the eighth power of plaque forming units.", "preferredTerm": "Hundred Million Plaque Forming Units", "submissionValue": "10^8 PFU", "synonyms": ["Hundred Million PFU", "Hundred Million Plaque Forming Units"]}, {"conceptId": "C105489", "definition": "A unit of measurement equal to 10 to the eighth power of entities per unit of volume equal to one liter.", "preferredTerm": "Hundred Million Per Liter", "submissionValue": "10^8/L", "synonyms": ["10^2/mm3", "10^2/uL", "10^5/mL"]}, {"conceptId": "C68897", "definition": "A unit of measurement of viable bacterial numbers equal to 10 to the ninth power colony forming units.", "preferredTerm": "Billion Colony Forming Units", "submissionValue": "10^9 CFU", "synonyms": ["Billion CFU", "Billion Colony Forming Units"]}, {"conceptId": "C68901", "definition": "A unit of measurement of viable bacterial organisms in a unit mass of substance of interest defined as the number of 10 to the ninth power colony forming units in one gram of substance.", "preferredTerm": "Billion Colony Forming Units per Gram", "submissionValue": "10^9 CFU/g", "synonyms": ["Billion CFU/g", "Billion Colony Forming Units per Gram"]}, {"conceptId": "C68905", "definition": "A unit of measurement of viable bacterial organisms in a unit volume of substance of interest defined as the number of 10 to the ninth power colony forming units in one milliliter of substance.", "preferredTerm": "Billion Colony Forming Units per Milliliter", "submissionValue": "10^9 CFU/mL", "synonyms": ["Billion CFU/mL", "Billion Colony Forming Units per Milliliter"]}, {"conceptId": "C71189", "definition": "A unit of measure of quantity of organisms expressed in 10 to the ninth power of organisms.", "preferredTerm": "Billion Organisms", "submissionValue": "10^9 organisms", "synonyms": ["Billion Organisms"]}, {"conceptId": "C71192", "definition": "A unit of measure of organism content expressed in 10 to the ninth power of organisms per unit of mass equal to one gram.", "preferredTerm": "Billion Organisms per Gram", "submissionValue": "10^9 organisms/g", "synonyms": ["Billion Organisms per Gram", "Billion Organisms/g"]}, {"conceptId": "C71194", "definition": "A unit of measure of organism content expressed in 10 to the ninth power of organisms per unit of mass equal to one milligram.", "preferredTerm": "Billion Organisms per Milligram", "submissionValue": "10^9 organisms/mg", "synonyms": ["Billion Organisms per Milligram", "Billion Organisms/mg"]}, {"conceptId": "C71197", "definition": "A unit of measure of organism concentration expressed in 10 to the ninth power of organisms per unit of volume equal to one milliliter.", "preferredTerm": "Billion Organisms per Milliliter", "submissionValue": "10^9 organisms/mL", "synonyms": ["Billion Organisms per Milliliter", "Billion Organisms/mL"]}, {"conceptId": "C163561", "definition": "A dose calculation unit equal to 10 to the ninth power of the number of entities per single dose.", "preferredTerm": "Billion per Dose", "submissionValue": "10^9/dose"}, {"conceptId": "C122200", "definition": "A unit of measurement equal to 10 to the ninth power of the number of entities per unit of mass equal to one gram.", "preferredTerm": "Billion per Gram", "submissionValue": "10^9/g", "synonyms": ["/ng", "1/ng", "10^12/kg", "10^3/ug", "10^6/mg"]}, {"conceptId": "C67255", "definition": "A unit of measurement equal to 10 to the ninth power of the number of entities per unit of volume equal to one liter.", "preferredTerm": "Billion per Liter", "submissionValue": "10^9/L", "synonyms": ["/nL", "1/nL", "10^3/mm3", "10^3/uL", "10^6/mL", "G/L", "GI/L", "Giga per Liter", "K/cumm", "Thou/mcL"]}, {"conceptId": "C73686", "definition": "A unit of optical density expressed as a logarithm of absorbance of light transmitted through a partially absorbing substance.", "preferredTerm": "Absorbance Unit", "submissionValue": "Absorbance U", "synonyms": ["Absorbance Unit"]}, {"conceptId": "C73687", "definition": "A unit of a speed of optical density change expressed as a logarithm of absorbance of light transmitted through a partially absorbing substance per minute. (NCI)", "preferredTerm": "Absorbance Unit per Minute", "submissionValue": "Absorbance U/min", "synonyms": ["Absorbance Unit per Minute"]}, {"conceptId": "C126078", "definition": "A unit of optical density expressed as a logarithm of absorbance of light transmitted through a partially absorbing substance per unit of volume equal to one milliliter.", "preferredTerm": "Absorbance Unit per Milliliter", "submissionValue": "Absorbance U/mL"}, {"conceptId": "C77534", "definition": "Arbitrary unit(s) of fluorescent luminescence. (NCI)", "preferredTerm": "Arbitrary Fluorescence Units", "submissionValue": "AFU", "synonyms": ["Arbitrary Fluorescence Unit"]}, {"conceptId": "C64553", "definition": "A unit of mass equal to one quintillionth of a gram (1E-18 gram). (NCI)", "preferredTerm": "Attogram", "submissionValue": "ag", "synonyms": ["Attogram"]}, {"conceptId": "C70500", "definition": "A measure of an antigen potency defined as a number of antigen units per one milliliter of product.(NCI)", "preferredTerm": "Antigen Unit per Milliliter", "submissionValue": "AgU/mL", "synonyms": ["Antigen Unit per Milliliter"]}, {"conceptId": "C163562", "definition": "A unit of measure for the arithmetic mean fluorescence intensity.", "preferredTerm": "Arithmetic Mean Fluorescence Intensity Unit", "submissionValue": "aMFI", "synonyms": ["Arithmetic Mean Fluorescence Intensity Unit"]}, {"conceptId": "C68855", "definition": "A unit of amount of substance equal to one quintillionth of a mole (1E-18 mole). (NCI)", "preferredTerm": "Attomole", "submissionValue": "amol", "synonyms": ["Attomole"]}, {"conceptId": "C42536", "definition": "A unit of electric current, named after the French physicist Andre Ampere. It is that constant current which, if maintained in two straight parallel conductors of infinite length and zero diameter separated by one meter in a vacuum, would produce between these conductors a force equal to 2(1E7) Newton per meter of length. This is dependent upon the definitions of the meter, kilogram, and second. One Ampere represents 6.24 x 1(E18) unit electric charge carriers, such as electrons, passing a specified fixed point in one second. (NCI)", "preferredTerm": "Ampere", "submissionValue": "amp", "synonyms": ["Ampere"]}, {"conceptId": "C48473", "definition": "A dosing measurement based on the ampule unit.(NCI)", "preferredTerm": "Ampule Dosing Unit", "submissionValue": "AMPULE", "synonyms": ["Ampule Dosing Unit"]}, {"conceptId": "C64559", "definition": "A small unit of mass used to express atomic and molecular masses. (NCI)", "preferredTerm": "Atomic Mass Unit", "submissionValue": "amu", "synonyms": ["Atomic Mass Unit"]}, {"conceptId": "C122201", "definition": "A unit of enzyme concentration which is defined as the amount of enzyme that can digest urea-denatured hemoglobin at the same initial rate as one milliequivalent of tyrosine at standard conditions.", "preferredTerm": "Anson Unit", "submissionValue": "Anson U"}, {"conceptId": "C70497", "definition": "A unit of unfractionated or low molecular weight heparin anticoagulation potency determined as the amount that neutralizes one unit of coagulation factor Xa preparation defined as an international biological standard by WHO (World Health Organization) First International Low Molecular Weight Heparin Reference Standard.(NCI)", "preferredTerm": "Anti-Xa Activity International Unit", "submissionValue": "anti-Xa IU", "synonyms": ["Anti-Xa Activity International Unit"]}, {"conceptId": "C70498", "definition": "A specific anticoagulation activity of unfractionated or low molecular weight heparin on factor Xa, expressed as a number of international anti-Xa heparin units per one milliliter of plasma.(NCI)", "preferredTerm": "Anti-Xa Activity International Unit per Milliliter", "submissionValue": "anti-Xa IU/mL", "synonyms": ["Anti-Xa Activity International Unit per Milliliter"]}, {"conceptId": "C111129", "definition": "A unit of antibody concentration measured by comparison against a known concentration of antibodies in a standard reference specimen.", "preferredTerm": "Antibody Unit", "submissionValue": "Antibody Unit"}, {"conceptId": "C122202", "definition": "A unit for semiquantitative measurement of IgA autoantibodies to proteins associated with negatively charged phospholipids evaluated against an established reference standard.", "preferredTerm": "IgA Phospholipid Unit", "submissionValue": "APL U", "synonyms": ["Immunoglobin A Phospholipid Units", "[APL'U]"]}, {"conceptId": "C117965", "definition": "A unit for semiquantitative measurement of IgA autoantibodies to proteins associated with negatively charged phospholipids evaluated against an established reference standard, per unit of volume equal to one milliliter.", "preferredTerm": "Immunoglobin A Phospholipid Unit per Milliliter", "submissionValue": "APL U/mL", "synonyms": ["Immunoglobin A Phospholipid Units per Milliliter"]}, {"conceptId": "C25397", "definition": "A dosing measurement based on the amount of substance applied.", "preferredTerm": "Application Unit", "submissionValue": "APPLICATION", "synonyms": ["Application Dosing Unit"]}, {"conceptId": "C161498", "definition": "A unit for semiquantitative measurement of IgA autoantibodies to proteins associated with phosphatidylserine evaluated against an established reference standard. (NCI)", "preferredTerm": "Phosphatidylserine IgA Antibody Unit", "submissionValue": "APS U", "synonyms": ["Immunoglobin A Phosphatidylserine Units", "Phosphatidylserine IgA Antibody Unit"]}, {"conceptId": "C75765", "definition": "A unit based on or subject to individual judgment, preference, or predetermined reference. (NCI)", "preferredTerm": "Arbitrary Unit", "submissionValue": "Arbitrary U"}, {"conceptId": "C54711", "definition": "A unit of pressure, equal to a barometer reading of 760 mm Hg. 1 atmosphere is 101325 Pascals and 1.01325 bar. This unit of pressure is roughly equal to the average atmospheric pressure at sea level on the earth.(NCI)", "preferredTerm": "Atmosphere", "submissionValue": "atm", "synonyms": ["Atmosphere"]}, {"conceptId": "C70504", "definition": "Unit of measure of potency of allergenic product expressed as a number of allergy units per one milliliter of formulation.(NCI)", "preferredTerm": "Allergy Unit per Milliliter", "submissionValue": "AU/mL", "synonyms": ["Allergy Unit per Milliliter"]}, {"conceptId": "C48474", "definition": "A dosing measurement based on the bag unit.(NCI)", "preferredTerm": "Bag Dosing Unit", "submissionValue": "BAG", "synonyms": ["Bag Dosing Unit"]}, {"conceptId": "C48475", "definition": "A dosing measurement based on the bar unit.(NCI)", "preferredTerm": "Bar Dosing Unit", "submissionValue": "BAR", "synonyms": ["Bar Dosing Unit"]}, {"conceptId": "C70505", "definition": "A unit used for standardization of an allergenic product based on evaluation of product potency against reference standard in combined in vivo (skin test) and in vitro (IgE-based ELISA) testing.(NCI)", "preferredTerm": "Bioequivalent Allergy Unit", "submissionValue": "BAU", "synonyms": ["Bioequivalent Allergy Unit"]}, {"conceptId": "C116235", "definition": "Unit of measure of potency of allergenic product expressed as a number of bioequivalent allergy units per one milliliter of formulation.", "preferredTerm": "Bioequivalent Allergy Unit per Milliliter", "submissionValue": "BAU/mL", "synonyms": ["Bioequivalent Allergy Unit per Milliliter"]}, {"conceptId": "C116231", "definition": "Unit of measure of potency of allergenic product expressed as a number of biological units per one milliliter of formulation.", "preferredTerm": "Biological Allergy Unit per Milliliter", "submissionValue": "BE/mL", "synonyms": ["Biological Unit per Milliliter"]}, {"conceptId": "C129002", "definition": "The unit of measure for the number of times in which light paths are interrupted by movement.", "preferredTerm": "Beam Break Unit", "submissionValue": "BEAM BREAKS"}, {"conceptId": "C49673", "definition": "The number of heartbeats measured per minute time. (NCI)", "preferredTerm": "Beats per Minute", "submissionValue": "beats/min", "synonyms": ["Beats per Minute"]}, {"conceptId": "C71200", "definition": "A logarithmic ratio unit (base-10 logarithms) used to express relative magnitude of a physical quantity (usually power or intensity) in comparison with a specified or implied reference level. Particularly, Bel is used as a unit of relative sound intensity. In the latter context it is equal to ten decibels or to approximately 1.151293 nepers.(NCI)", "preferredTerm": "Bel", "submissionValue": "bel", "synonyms": ["Bel"]}, {"conceptId": "C111139", "definition": "A measurement based on the biscuit unit.", "preferredTerm": "Biscuit Dosing Unit", "submissionValue": "BISCUIT", "synonyms": ["Biscuit Dosing Unit"]}, {"conceptId": "C111140", "definition": "A unit of measure to quantify the number of rectangular areas in a city surrounded by streets.", "preferredTerm": "Block Unit of Distance", "submissionValue": "BLOCKS"}, {"conceptId": "C48476", "definition": "A dosing measurement based on the bolus unit.(NCI)", "preferredTerm": "Bolus Dosing Unit", "submissionValue": "BOLUS", "synonyms": ["Bolus Dosing Unit"]}, {"conceptId": "C48477", "definition": "A dosing measurement based on the bottle unit.(NCI)", "preferredTerm": "Bottle Dosing Unit", "submissionValue": "BOTTLE", "synonyms": ["Bottle Dosing Unit"]}, {"conceptId": "C151970", "definition": "A dosing measurement based on the bowl unit.", "preferredTerm": "Bowl Dosing Unit", "submissionValue": "BOWL", "synonyms": ["Bowl Dosing Unit"]}, {"conceptId": "C48478", "definition": "A dosing measurement based on the box unit.(NCI)", "preferredTerm": "Box Dosing Unit", "submissionValue": "BOX", "synonyms": ["Box Dosing Unit"]}, {"conceptId": "C132477", "definition": "A number representing the paired nucleotides in a DNA or RNA sequence.", "preferredTerm": "Base Pair Unit", "submissionValue": "BP", "synonyms": ["BASE PAIRS"]}, {"conceptId": "C42562", "definition": "A unit of activity of a radionuclide, equal to one nuclear disintegration or other nuclear transition from a particular energy state occurring in an amount of a radionuclide during one second-long time interval.(NCI)", "preferredTerm": "Becquerel", "submissionValue": "Bq", "synonyms": ["Becquerel"]}, {"conceptId": "C70522", "definition": "A unit of specific radioactivity (massic activity) equal to activity of one Becquerel of the sample with total mass of one gram.(NCI)", "preferredTerm": "Becquerel per Gram", "submissionValue": "Bq/g", "synonyms": ["Becquerel per Gram"]}, {"conceptId": "C70521", "definition": "A unit of specific radioactivity (massic activity) equal to activity of one Becquerel of the sample with total mass of one kilogram.(NCI)", "preferredTerm": "Becquerel per Kilogram", "submissionValue": "Bq/kg", "synonyms": ["Becquerel per Kilogram"]}, {"conceptId": "C71165", "definition": "A unit of volumetric radioactivity concentration defined as a concentration of a radionuclide with an activity equal to one Becquerel per unit volume equal to one liter.(NCI)", "preferredTerm": "Becquerel per Liter", "submissionValue": "Bq/L", "synonyms": ["Becquerel per Liter"]}, {"conceptId": "C70524", "definition": "A unit of specific radioactivity (massic activity) equal to activity of one Becquerel of the sample with total mass of one milligram.(NCI)", "preferredTerm": "Becquerel per Milligram", "submissionValue": "Bq/mg", "synonyms": ["Becquerel per Milligram", "Kilobecquerel per Gram", "kBq/g"]}, {"conceptId": "C71167", "definition": "A unit of volumetric radioactivity concentration defined as a concentration of a radionuclide with an activity equal to one Becquerel per unit volume equal to one milliliter or one kilobecquerel per liter.(NCI)", "preferredTerm": "Becquerel per Milliliter", "submissionValue": "Bq/mL", "synonyms": ["Becquerel per Milliliter", "Kilobecquerel per Liter", "kBq/L"]}, {"conceptId": "C70523", "definition": "A unit of specific radioactivity (massic activity) equal to activity of one Becquerel of the sample with total mass of one microgram, or equal to activity of one kilobecquerel of the sample with total mass of one milligram.", "preferredTerm": "Becquerel per Microgram", "submissionValue": "Bq/ug", "synonyms": ["Becquerel per Microgram", "Bq/mcg", "Bq/ug", "Kilobecquerel per Milligram", "MBq/g", "Megabecquerel per Gram", "kBq/mg"]}, {"conceptId": "C71166", "definition": "A unit of volumetric radioactivity concentration defined as a concentration of a radionuclide with an activity equal to one Becquerel per unit volume equal to one millionth of a liter.(NCI)", "preferredTerm": "Becquerel per Microliter", "submissionValue": "Bq/uL", "synonyms": ["Becquerel per Microliter", "Kilobecquerel per Milliliter", "MBq/L", "Megabecquerel per Liter", "kBq/mL"]}, {"conceptId": "C176382", "definition": "The number of breaths (inhalation and exhalation) taken within a period of time equal to thirty seconds.", "preferredTerm": "Breaths per Thirty Seconds", "submissionValue": "breaths/30s", "synonyms": ["Breaths per 30 Seconds"]}, {"conceptId": "C49674", "definition": "The number of breaths (inhalation and exhalation) taken per minute time. (NCI)", "preferredTerm": "Breaths per Minute", "submissionValue": "breaths/min", "synonyms": ["Breaths per Minute"]}, {"conceptId": "C117966", "definition": "A unit of measurement for blood coagulation inhibitor activity, expressed in the amount of an inhibitor neutralizing 50% of a coagulant during the incubation period.", "preferredTerm": "Bethesda Unit", "submissionValue": "BU", "synonyms": ["Bethesda Unit"]}, {"conceptId": "C117967", "definition": "A unit of measurement for blood coagulation inhibitor activity, expressed as a Bethesda Unit per unit of volume equal to one milliliter. (NCI)", "preferredTerm": "Bethesda Unit per Milliliter", "submissionValue": "BU/mL", "synonyms": ["Bethesda Unit per Milliliter"]}, {"conceptId": "C42559", "definition": "A unit of temperature of the temperature scale designed so that the freezing point of water is 0 degrees and the boiling point is 100 degrees at standard atmospheric pressure. The current official definition of the Celsius sets 0.01 C to be at the triple point of water and a degree to be 1/273.16 of the difference in temperature between the triple point of water and absolute zero. One degree Celsius represents the same temperature difference as one Kelvin. (NCI)", "preferredTerm": "Degree Celsius", "submissionValue": "C", "synonyms": ["Degree Celsius"]}, {"conceptId": "C67193", "definition": "A measurement of nutritional energy. The quantity of thermal energy required to raise one gram of water one degree Centigrade under standard conditions. 1 calorie equals 4.186 joules. (NCI)", "preferredTerm": "calorie", "submissionValue": "cal", "synonyms": ["Calorie"]}, {"conceptId": "C48479", "definition": "A dosing measurement based on the can unit.(NCI)", "preferredTerm": "Can Dosing Unit", "submissionValue": "CAN", "synonyms": ["Can Dosing Unit"]}, {"conceptId": "C102405", "definition": "A unit of measure equal to the amount that the cap on the bottle can contain.", "preferredTerm": "Capful Dosing Unit", "submissionValue": "CAPFUL", "synonyms": ["Capful Dosing Unit"]}, {"conceptId": "C64696", "definition": "A dosing measurement based on the caplet unit.", "preferredTerm": "Caplet Dosing Unit", "submissionValue": "CAPLET", "synonyms": ["Caplet Dosing Unit"]}, {"conceptId": "C48480", "definition": "A dosing measurement based on the capsule unit.(NCI)", "preferredTerm": "Capsule Dosing Unit", "submissionValue": "CAPSULE", "synonyms": ["Capsule Dosing Unit", "cap"]}, {"conceptId": "C48481", "definition": "A dosing measurement based on the cartridge unit.(NCI)", "preferredTerm": "Cartridge Dosing Unit", "submissionValue": "CARTRIDGE", "synonyms": ["Cartridge Dosing Unit"]}, {"conceptId": "C70535", "definition": "A potency unit equal to the potency at which one dose of preparation contains one 50 percent cell culture infective dose.(NCI)", "preferredTerm": "50 Percent Cell Culture Infective Dose per Dose", "submissionValue": "CCID 50/dose", "synonyms": ["50 Percent Cell Culture Infective Dose per Dose"]}, {"conceptId": "C120845", "definition": "A potency unit equal to the potency at which one milliliter of preparation contains one 50 percent cell culture infective dose. (NCI)", "preferredTerm": "50 Percent Cell Culture Infective Dose per Milliliter", "submissionValue": "CCID 50/mL", "synonyms": ["50 Percent Cell Culture Infective Dose per Milliliter"]}, {"conceptId": "C42538", "definition": "The candela is the basic unit of luminous intensity. It is the luminous intensity in a given direction of a small monochromatic light source at 540 terahertz emitting 1/683 watt per steradian in that direction. This is dependent upon the definitions of the meter, kilogram, and second.(NCI)", "preferredTerm": "Candela", "submissionValue": "cd", "synonyms": ["Candela"]}, {"conceptId": "C122203", "definition": "A unit of luminous intensity expressed as one candela in one second of light emittance per square meter of area.", "preferredTerm": "Candela Second per Square Meter", "submissionValue": "cd*s/m2"}, {"conceptId": "C122204", "definition": "A unit of luminous intensity expressed as one candela per square meter of area.", "preferredTerm": "Candela per Square Meter", "submissionValue": "cd/m2"}, {"conceptId": "C68898", "definition": "A unit of measurement of viable bacterial organisms in a unit mass of substance of interest defined as the number of colony forming units in one gram of substance.(NCI)", "preferredTerm": "Colony Forming Unit per Gram", "submissionValue": "CFU/g", "synonyms": ["Colony Forming Unit per Gram"]}, {"conceptId": "C68902", "definition": "A unit of measurement of viable bacterial organisms in a unit volume of substance of interest defined as the number of colony forming units in one milliliter of substance.(NCI)", "preferredTerm": "Colony Forming Unit per Milliliter", "submissionValue": "CFU/mL", "synonyms": ["Colony Forming Unit per Milliliter"]}, {"conceptId": "C64554", "definition": "A unit of mass equal to one hundredth of a gram.(NCI)", "preferredTerm": "Centigram", "submissionValue": "cg", "synonyms": ["Centigram"]}, {"conceptId": "C64693", "definition": "The metric unit of absorbed radiation dose equal to the absorption of one hundredth of joule of radiation energy per kilogram of matter.", "preferredTerm": "Centigray", "submissionValue": "cGy", "synonyms": ["Centigray"]}, {"conceptId": "C48466", "definition": "A unit of radioactivity defined as 3.7 E10 atomic disintegrations or other nuclear transformations per second. One Curie is equal to 37 gigabecquerels.(NCI)", "preferredTerm": "Curie", "submissionValue": "Ci", "synonyms": ["Curie"]}, {"conceptId": "C70528", "definition": "A unit of specific radioactivity (massic activity) equal to activity of one Curie of the sample with total mass of one gram.(NCI)", "preferredTerm": "Curie per Gram", "submissionValue": "Ci/g", "synonyms": ["Curie per Gram", "Microcurie per Microgram", "Millicurie per Milligram", "mCi/mg", "uCi/ug"]}, {"conceptId": "C70529", "definition": "A unit of specific radioactivity (massic activity) equal to activity of one Curie of the sample with total mass of one kilogram.(NCI)", "preferredTerm": "Curie per Kilogram", "submissionValue": "Ci/kg", "synonyms": ["Curie per Kilogram", "Microcurie per Milligram", "Millicurie per Gram", "mCi/g", "uCi/mg"]}, {"conceptId": "C71170", "definition": "A unit of volumetric radioactivity concentration defined as a concentration of a radionuclide with an activity equal to one Curie per unit volume equal to one liter.(NCI)", "preferredTerm": "Curie per Liter", "submissionValue": "Ci/L", "synonyms": ["Curie per Liter", "Microcurie per Microliter", "uCi/uL"]}, {"conceptId": "C70531", "definition": "A unit of specific radioactivity (massic activity) equal to activity of one Curie of the sample with total mass of one milligram.(NCI)", "preferredTerm": "Curie per Milligram", "submissionValue": "Ci/mg", "synonyms": ["Curie per Milligram", "Millicurie per Microgram", "mCi/ug"]}, {"conceptId": "C71172", "definition": "A unit of volumetric radioactivity concentration defined as a concentration of a radionuclide with an activity equal to one Curie per unit volume equal to one milliliter.(NCI)", "preferredTerm": "Curie per Milliliter", "submissionValue": "Ci/mL", "synonyms": ["Curie per Milliliter"]}, {"conceptId": "C70530", "definition": "A unit of specific radioactivity (massic activity) equal to activity of one Curie of the sample with total mass of one microgram.(NCI)", "preferredTerm": "Curie per Microgram", "submissionValue": "Ci/ug", "synonyms": ["Ci/mcg", "Curie per Microgram"]}, {"conceptId": "C71171", "definition": "A unit of volumetric radioactivity concentration defined as a concentration of a radionuclide with an activity equal to one Curie per unit volume equal to one millionth of a liter.(NCI)", "preferredTerm": "Curie per Microliter", "submissionValue": "Ci/uL", "synonyms": ["Ci/mcL", "Curie per Microliter"]}, {"conceptId": "C116244", "definition": "A dosing measurement based on the cigar unit.", "preferredTerm": "Cigar Dosing Unit", "submissionValue": "CIGAR", "synonyms": ["Cigar Dosing Unit"]}, {"conceptId": "C116245", "definition": "A dosing measurement based on the cigarette unit.", "preferredTerm": "Cigarette Dosing Unit", "submissionValue": "CIGARETTE", "synonyms": ["Cigarette Dosing Unit"]}, {"conceptId": "C69087", "definition": "The unit of volume equal to one hundredth of a liter or 10 milliliters or 10 cubic centimeters or 0.6102 cubic inch.", "preferredTerm": "Centiliter", "submissionValue": "cL", "synonyms": ["Centiliter"]}, {"conceptId": "C49668", "definition": "A basic unit of length equal to one hundredth of a meter or approximately 0.393700787 inch.", "preferredTerm": "Centimeter", "submissionValue": "cm", "synonyms": ["Centimeter"]}, {"conceptId": "C91060", "definition": "A unit of pressure defined by a column of water with a height of one centimeter, frequently used to measure central venous pressure, intracranial pressure, and for pressures during mechanical ventilation.", "preferredTerm": "Centimeters of Water", "submissionValue": "cm H2O"}, {"conceptId": "C105481", "definition": "A unit of both speed (scalar) and velocity (vector), defined as the distance of one centimeter travelled per unit time equal to one minute. (NCI)", "preferredTerm": "Centimeter Per Minute", "submissionValue": "cm/min", "synonyms": ["Centimeters per Minute"]}, {"conceptId": "C102406", "definition": "A unit of both speed (scalar) and velocity (vector), defined as the distance of one centimeter travelled per unit time equal to one second. (NCI)", "preferredTerm": "Centimeter per Second", "submissionValue": "cm/s", "synonyms": ["cm/sec"]}, {"conceptId": "C48460", "definition": "A unit of area measurement equal to a square measuring one centimeter on each side. One square centimeter is equal to 1E-4 square meter. (NCI)", "preferredTerm": "Square Centimeter", "submissionValue": "cm2", "synonyms": ["Square Centimeter"]}, {"conceptId": "C135518", "definition": "A unit of pressure defined as centimeters of water times seconds per unit of volume equal to one milliliter.", "preferredTerm": "Centimeter of Water Times Second per Milliliter", "submissionValue": "cmH2O*s/mL"}, {"conceptId": "C135519", "definition": "A unit of pressure defined as centimeters of water times seconds squared per unit of volume equal to one milliliter.", "preferredTerm": "Centimeter of Water Times Second Squared per Milliliter", "submissionValue": "cmH2O*s2/mL"}, {"conceptId": "C135520", "definition": "A unit of pressure defined as centimeters of water per unit of volume equal to one milliliter.", "preferredTerm": "Centimeter of Water per Milliliter", "submissionValue": "cmH2O/mL"}, {"conceptId": "C147129", "definition": "A unit of pressure equal to 0.001316 atmosphere and equal to the pressure indicated by one centimeter rise of mercury in a barometer at the Earth's surface.", "preferredTerm": "Centimeters of Mercury", "submissionValue": "cmHg", "synonyms": ["Centimeter of Mercury"]}, {"conceptId": "C68687", "definition": "A unit of amount of substance equal to one hundredth of a mole (1E-2 mole). (NCI)", "preferredTerm": "Centimole", "submissionValue": "cmol", "synonyms": ["Centimole"]}, {"conceptId": "C68886", "definition": "A unit of concentration (molarity unit) equal to one centimole of solute in one liter of solution. (NCI)", "preferredTerm": "Centimole per Liter", "submissionValue": "cmol/L", "synonyms": ["Millimoles per Deciliter", "mmol/dL"]}, {"conceptId": "C48483", "definition": "A dosing measurement based on the coat unit.(NCI)", "preferredTerm": "Coat Dosing Unit", "submissionValue": "COAT", "synonyms": ["Coat Dosing Unit"]}, {"conceptId": "C48484", "definition": "A dosing measurement based on the container unit.(NCI)", "preferredTerm": "Container Dosing Unit", "submissionValue": "CONTAINER", "synonyms": ["Container Dosing Unit"]}, {"conceptId": "C100900", "definition": "A unit of concentration expressed as a number of copies per unit volume equal to one milliliter.", "preferredTerm": "Copies per Milliliter", "submissionValue": "copies/mL"}, {"conceptId": "C126079", "definition": "A unit of concentration expressed as a number of copies per unit volume equal to one microgram.", "preferredTerm": "Copies per Microgram", "submissionValue": "copies/ug"}, {"conceptId": "C116237", "definition": "A unit of concentration expressed as a number of copies per unit volume equal to one microliter.", "preferredTerm": "Copies per Microliter", "submissionValue": "copies/uL"}, {"conceptId": "C42550", "definition": "A unit of quantity of electricity, equal to the quantity of charge transferred in one second across a conductor in which there is a constant current of one Ampere.(NCI)", "preferredTerm": "Coulomb", "submissionValue": "Coulomb", "synonyms": ["Coulomb"]}, {"conceptId": "C69092", "definition": "A unit of dynamic viscosity equal to one hundredth of a poise.", "preferredTerm": "Centipoise", "submissionValue": "cP", "synonyms": ["Centipoise"]}, {"conceptId": "C73688", "definition": "A unit of frequency expressed as the detection rate of ionization events per minute.", "preferredTerm": "Count per Minute", "submissionValue": "cpm", "synonyms": ["Counts per Minute"]}, {"conceptId": "C105482", "definition": "A unit of time equal to one hundredth of a second (1E-2 seconds). (NCI)", "preferredTerm": "Centisecond", "submissionValue": "cs", "synonyms": ["10^-2 sec", "Centisecond", "csec"]}, {"conceptId": "C54703", "definition": "A dosing measurement based on the cup unit.(NCI)", "preferredTerm": "Cup Dosing Unit", "submissionValue": "CUP", "synonyms": ["Cup Dosing Unit"]}, {"conceptId": "C172604", "definition": "A unit of relative amount of a substance equal to one cup.", "preferredTerm": "Cup Equivalent", "submissionValue": "cup eq", "synonyms": ["Cup Equivalent", "cup-eq"]}, {"conceptId": "C114242", "definition": "A unit of measure for the number of repeating vertical or horizontal bars per unit of length equal to one centimeter on a visual acuity testing card.", "preferredTerm": "Grating Cycles per Centimeter", "submissionValue": "cy/cm", "synonyms": ["Grating Cycles per Centimeter", "cpcm"]}, {"conceptId": "C71176", "definition": "A unit of frequency equal to the frequency at which one complete execution of a periodically repeated phenomenon, alternation, event, or sequence of events occurs per unit of time equal to one minute.(NCI)", "preferredTerm": "Cycle per Minute", "submissionValue": "cycle/min", "synonyms": ["Cycle per Minute"]}, {"conceptId": "C48489", "definition": "A dosing measurement based on the cylinder unit.(NCI)", "preferredTerm": "Cylinder Dosing Unit", "submissionValue": "CYLINDER", "synonyms": ["Cylinder Dosing Unit"]}, {"conceptId": "C70501", "definition": "A unit of potency of poliovirus vaccine used for poliomyelitis prevention. The unit is poliovirus type-specific.(NCI)", "preferredTerm": "D Antigen Unit", "submissionValue": "DAgU", "synonyms": ["D Antigen Unit"]}, {"conceptId": "C70502", "definition": "A unit of potency of poliovirus vaccine expressed as a number of D antigen units per one milliliter of vaccine formulation.(NCI)", "preferredTerm": "D Antigen Unit per Milliliter", "submissionValue": "DAgU/mL", "synonyms": ["D Antigen Unit per Milliliter"]}, {"conceptId": "C105483", "definition": "A unit of concentration (molarity unit) equal to one decamole of solute in one liter of solution. (NCI)", "preferredTerm": "Decamole Per Liter", "submissionValue": "damol/L", "synonyms": ["Decamole per Liter", "Moles per Deciliter", "mol/dL"]}, {"conceptId": "C25301", "definition": "A unit of measurement of time equal to 24 hours.", "preferredTerm": "Day", "submissionValue": "DAYS"}, {"conceptId": "C170634", "definition": "A unit of measurement equal to the number of days within a period of time equal to one month.", "preferredTerm": "Days Per Month", "submissionValue": "days/month"}, {"conceptId": "C170633", "definition": "A unit of measurement equal to the number of days within a period of time equal to one week.", "preferredTerm": "Days Per Week", "submissionValue": "days/wk", "synonyms": ["days/week"]}, {"conceptId": "C102407", "definition": "A unit of measure representing the intensity of an electrical signal or sound which is equal to ten times the logarithm of the ratio of two signals.", "preferredTerm": "Decibel", "submissionValue": "dB", "synonyms": ["Decibel"]}, {"conceptId": "C161494", "definition": "A unit of measure for the concentration of fibrin degradation products in a sample, calculated based upon the mass of D-dimers contained within that sample. (NCI)", "preferredTerm": "D-Dimer Unit", "submissionValue": "DDU"}, {"conceptId": "C68667", "definition": "A unit of plane angle measurement equal to the length of the arc cut out by the angle, divided by the circumference of the circle, and multiplied by 360. The symbol for degrees is a small superscript circle. One radian is about 57 degrees and one degree is pi/180 radians.(NCI)", "preferredTerm": "Degree Unit of Plane Angle", "submissionValue": "deg", "synonyms": ["Degree Unit of Plane Angle"]}, {"conceptId": "C161488", "definition": "A unit of rotation expressed as the number of degrees per unit of length equal to one millimeter.", "preferredTerm": "Degree Per Millimeter", "submissionValue": "deg/mm"}, {"conceptId": "C166097", "definition": "A unit of angular velocity defined as the number of degrees per unit of time equal to one second.", "preferredTerm": "Degrees Per Second", "submissionValue": "deg/s"}, {"conceptId": "C166098", "definition": "A unit of solid angle equal to approximately 3.0462x10^-4 steradians.", "preferredTerm": "Degrees Squared", "submissionValue": "deg2", "synonyms": ["sq. deg."]}, {"conceptId": "C100899", "definition": "A unit of measurement of the optical power of a curved mirror or lens represented by the inverse of the focal length in meters.", "preferredTerm": "Diopter", "submissionValue": "DIOPTER", "synonyms": ["Diopter"]}, {"conceptId": "C82483", "definition": "A dosing measurement based on the dip unit.", "preferredTerm": "Dip Dosing Unit", "submissionValue": "DIP", "synonyms": ["Dip Dosing Unit", "Snuff Dosing Unit"]}, {"conceptId": "C48490", "definition": "A dosing measurement based on the disk unit.(NCI)", "preferredTerm": "Disk Dosing Unit", "submissionValue": "DISK", "synonyms": ["Disk Dosing Unit"]}, {"conceptId": "C64697", "definition": "The unit of volume equal to one tenth of a liter. Accepted for use with the SI. (NCI)", "preferredTerm": "Deciliter", "submissionValue": "dL", "synonyms": ["Deciliter"]}, {"conceptId": "C68685", "definition": "A unit of amount of substance equal to one tenth of a mole (1E-1 mole). (NCI)", "preferredTerm": "Decimole", "submissionValue": "dmol", "synonyms": ["Decimole"]}, {"conceptId": "C98719", "definition": "The unit of concentration of deoxyribonucleic acid (DNA) copies expressed as a number of copies in unit volume equal to one milliliter.", "preferredTerm": "DNA Copies per Milliliter", "submissionValue": "DNA copies/mL", "synonyms": ["DNA Copies per Milliliter"]}, {"conceptId": "C170632", "definition": "A unit of measurement equal to the number of deoxyribonucleic acid (DNA) copies per unit of mass equal to one microgram.", "preferredTerm": "DNA Copies Per Microgram", "submissionValue": "DNA copies/ug"}, {"conceptId": "C73710", "definition": "A unit of radioactive decay expressed in atoms of radioactive material that decay over a period of time equal to sixty seconds. (NCI)", "preferredTerm": "Disintegration per Minute", "submissionValue": "DPM", "synonyms": ["Disintegrations per Minute"]}, {"conceptId": "C120846", "definition": "A unit of radioactive decay expressed in atoms of radioactive material that decay over a period of time equal to sixty seconds in a volume unit equal to a half milliliter.", "preferredTerm": "Disintegrations per Minute per 0.5 Milliliter", "submissionValue": "dpm/0.5 mL", "synonyms": ["Disintegrations per Minute per 0.5 Milliliter"]}, {"conceptId": "C117968", "definition": "A unit of radioactive decay expressed in atoms of radioactive material that decay over a period of time equal to sixty seconds in a mass unit equal to one hundred milligrams.", "preferredTerm": "Disintegration per Minute per 100 milligrams", "submissionValue": "dpm/100mg", "synonyms": ["Disintegrations per Minute per 100 milligrams", "dpm/cg"]}, {"conceptId": "C117969", "definition": "A unit of radioactive decay expressed in atoms of radioactive material that decay over a period of time equal to sixty seconds in a mass unit equal to one milligram.", "preferredTerm": "Disintegration per Minute per Milligram", "submissionValue": "dpm/mg", "synonyms": ["Disintegrations per Minute per Milligram"]}, {"conceptId": "C117970", "definition": "A unit of radioactive decay expressed in atoms of radioactive material that decay over a period of time equal to sixty seconds in a volume unit equal to one milliliter.", "preferredTerm": "Disintegration per Minute per Milliliter", "submissionValue": "dpm/mL", "synonyms": ["Disintegrations per Minute per Milliliter"]}, {"conceptId": "C64564", "definition": "A unit of mass equal to 1/16 Avoirdupois ounce or 1/256 Avoirdupois pound. One dram equals approximately 1.7718451953125 grams.(NCI)", "preferredTerm": "Dram Mass Unit", "submissionValue": "dram", "synonyms": ["Dram"]}, {"conceptId": "C161487", "definition": "A dosing measurement based on the drink unit.", "preferredTerm": "Drink Dosing Unit", "submissionValue": "DRINK", "synonyms": ["Drink Dosing Unit"]}, {"conceptId": "C69441", "definition": "A unit of measure of volume defined as the amount of liquid dispensed as one drop from a dropper dispenser. The volume of a drop depends on the physical properties of the liquid dispensed, the dispenser device, and the technique used to produce the drop. (NCI)", "preferredTerm": "Drop", "submissionValue": "DROP", "synonyms": ["Drip"]}, {"conceptId": "C48492", "definition": "A dosing measurement based on the drum unit.(NCI)", "preferredTerm": "Drum Dosing Unit", "submissionValue": "DRUM", "synonyms": ["Drum Dosing Unit"]}, {"conceptId": "C70470", "definition": "A unit of force defined as the force that accelerates a mass of one gram at the rate of one centimeter per second squared. One dyne is equal to 1E-5 Newton and 2.248E-6 pounds of force. (NCI)", "preferredTerm": "Dyne", "submissionValue": "dyn", "synonyms": ["Dyne"]}, {"conceptId": "C161491", "definition": "A unit for measuring concentration or/and reactivity of a test substance as defined in the literature reference standard for the particular quantitative electrochemiluminescent method. (NCI)", "preferredTerm": "Electrochemiluminescence Unit", "submissionValue": "ECL unit", "synonyms": ["Electrochemiluminescence Unit"]}, {"conceptId": "C122205", "definition": "A unit for measuring concentration or/and reactivity of a test substance (an antigen or antibody of interest) as defined in the literature reference standard for the particular quantitative enzyme immunoassay method.", "preferredTerm": "Enzyme Immunoassay Unit", "submissionValue": "EIA unit", "synonyms": ["EIA value", "Enzyme Immunoassay Unit"]}, {"conceptId": "C70533", "definition": "A potency unit for measuring infectious activity of a biologic product or an infectious agent preparation equal to the potency at which one dose of infectious material contains one 50 percent embryo infective dose.(NCI)", "preferredTerm": "50 Percent Embryo Infective Dose per Dose", "submissionValue": "EID 50/dose", "synonyms": ["50 Percent Embryo Infective Dose per Dose"]}, {"conceptId": "C120847", "definition": "A potency unit equal to the potency at which one milliliter of preparation contains one 50 percent embryo infective dose.", "preferredTerm": "50 Percent Embryo Infective Dose per Milliliter", "submissionValue": "EID 50/mL", "synonyms": ["50 Percent Embryo Infective Dose per Milliliter"]}, {"conceptId": "C130046", "definition": "A unit of volume equal to the amount of seminal fluid produced by a single ejaculation event.", "preferredTerm": "Ejaculate Unit", "submissionValue": "Ejaculate U"}, {"conceptId": "C68875", "definition": "A unit for measuring concentration or/and reactivity of a test substance (an antigen or antibody of interest) as defined in the literature reference standard for the particular quantitative enzyme-linked immunosorbent assay method. The enzyme-linked immunosorbent assay unit is used to express potency of immunologically active substances and products, e.g. vaccines.(NCI)", "preferredTerm": "Enzyme-Linked Immunosorbent Assay Unit", "submissionValue": "ELISA unit", "synonyms": ["Enzyme-Linked Immunosorbent Assay Unit"]}, {"conceptId": "C68876", "definition": "A unit for measuring potency of immunologically active substance in a product determined as reactivity in a quantitative immunoassay for particular antigen or antibody and expressed per quantity of preparation used as a single dose.(NCI)", "preferredTerm": "Enzyme-Linked Immunosorbent Assay Unit per Dose", "submissionValue": "ELISA unit/dose", "synonyms": ["Enzyme-Linked Immunosorbent Assay Unit per Dose"]}, {"conceptId": "C68877", "definition": "A unit for measuring potency of immunologically active substance in a product determined as reactivity in a quantitative immunoassay for particular antigen or antibody and expressed per unit volume equal to one milliliter.(NCI)", "preferredTerm": "Enzyme-Linked Immunosorbent Assay Unit per Milliliter", "submissionValue": "ELISA unit/mL", "synonyms": ["Enzyme-Linked Immunosorbent Assay Unit per Milliliter"]}, {"conceptId": "C64778", "definition": "A unit of catalytic activity measurement defined as the quantity of a particular enzyme that catalyzes the transformation of one micromole of the substrate per minute under standard conditions for specified assay system.", "preferredTerm": "Enzyme Unit", "submissionValue": "Enzyme U", "synonyms": ["Enzyme Unit"]}, {"conceptId": "C154856", "definition": "A unit of concentration (biologic activity) equal to one enzyme unit of substance per gram of hemoglobin.", "preferredTerm": "Enzyme Unit per Gram Hemoglobin", "submissionValue": "Enzyme U/g Hb", "synonyms": ["Enzyme Unit per Gram of Hemoglobin"]}, {"conceptId": "C147130", "definition": "Unit of catalytic activity concentration defined as activity equal to one enzyme unit per one liter of system volume.", "preferredTerm": "Enzyme Unit per Liter", "submissionValue": "Enzyme U/L", "synonyms": ["Enzyme Unit/L"]}, {"conceptId": "C156467", "definition": "A unit of concentration (catalytic activity) equal to one enzyme unit of substance per one square meter of surface area.", "preferredTerm": "Enzyme Unit per Meter Squared", "submissionValue": "Enzyme U/m2"}, {"conceptId": "C176384", "definition": "An arbitrary unit established by the European Pharmacopoeia.", "preferredTerm": "European Pharmacopoeia Unit", "submissionValue": "EP U", "synonyms": ["European Pharmacopoeia Unit"]}, {"conceptId": "C67273", "definition": "A unit of relative amount of a substance that combines with or displaces 8.0 grams of oxygen or 1.008 gram of hydrogen. The unit is usually expressed in grams and is equal to the amount of substance that gains or loses one mole of electrons in a redox reaction, or to the amount of substances that releases or accepts one mole of hydrogen ions in a neutralization reaction; or to the amount of electrolyte that carries one mole of positive or negative charge. This is a large unit and measurements are more often done in its derivatives, e.g. in milliequivalents.(NCI)", "preferredTerm": "Equivalent Weight", "submissionValue": "eq", "synonyms": ["Equivalent Weight"]}, {"conceptId": "C96599", "definition": "A unit of measure equal to one milligram of urobilinogen per deciliter.", "preferredTerm": "Ehrlich Unit", "submissionValue": "EU", "synonyms": ["EU/dL", "Ehrlich Units"]}, {"conceptId": "C150901", "definition": "A unit of measurement for the number of specified occurrences.", "preferredTerm": "Event Unit", "submissionValue": "EVENTS"}, {"conceptId": "C44277", "definition": "The Fahrenheit temperature scale is named after the German physicist Gabriel Fahrenheit (1686-1736), who proposed it in 1724. In this scale, the freezing point of water is 32 degrees Fahrenheit and the boiling point is 212 degrees, placing the boiling and melting points of water 180 degrees apart. In this scale a degree Fahrenheit is 5/9ths of a Kelvin (or of a degree Celsius), and minus 40 degrees Fahrenheit is equal to minus 40 degrees Celsius. (NCI)", "preferredTerm": "Degree Fahrenheit", "submissionValue": "F", "synonyms": ["Degree Fahrenheit"]}, {"conceptId": "C42552", "definition": "A unit of capacitance equal to the capacitance of a capacitor having an equal and opposite charge of one coulomb on each plate and a potential difference of one volt between the plates.(NCI)", "preferredTerm": "Farad", "submissionValue": "Farad", "synonyms": ["Farad"]}, {"conceptId": "C96649", "definition": "A unit of measure for the concentration of fibrin degradation products in a sample, calculated based upon the mass of fibrinogen contained within that sample.", "preferredTerm": "Fibrinogen Equivalent Unit", "submissionValue": "FEU", "synonyms": ["Fibrinogen Equivalent Units"]}, {"conceptId": "C75303", "definition": "A unit of measurement of the number of visible clusters of transformed or infected cells.", "preferredTerm": "Focus Forming Unit", "submissionValue": "FFU", "synonyms": ["Focus-forming Units"]}, {"conceptId": "C64552", "definition": "A unit of mass equal to one quadrillionth of a gram (1E-15 gram). (NCI)", "preferredTerm": "Femtogram", "submissionValue": "fg", "synonyms": ["Femtogram"]}, {"conceptId": "C71321", "definition": "An arbitrary dosing unit used predominantly for semisolid topical formulations such as cream, ointment, paste, etc. One fingertip unit is the amount of a product that is squeezed out from a standard tube with 5-millimeter diameter nozzle along an adult's fingertip. A fingertip length is defined from the tip of the index finger to the first finger crease. A fingertip dosing unit varies with age and size of the body. The average fingertip unit is equal to approximately 0.5 gram for an adult male and 0.4 gram for an adult female.(NCI)", "preferredTerm": "Fingertip Dosing Unit", "submissionValue": "FINGERTIP UNIT", "synonyms": ["Fingertip Dosing Unit"]}, {"conceptId": "C163045", "definition": "A unit of measure for the fluorescence intensity when the mathematic calculation is unspecified or unknown.", "preferredTerm": "Fluorescence Intensity Unit", "submissionValue": "FIU", "synonyms": ["Fluorescence Intensity Unit", "MFI"]}, {"conceptId": "C64780", "definition": "The unit of volume equal 1E-15 liter.", "preferredTerm": "Femtoliter", "submissionValue": "fL", "synonyms": ["Cubic Micrometer", "Cubic Micron", "Femtoliter", "um3"]}, {"conceptId": "C68854", "definition": "A unit of amount of substance equal to one quadrillionth of a mole (1E-15 mole). (NCI)", "preferredTerm": "Femtomole", "submissionValue": "fmol", "synonyms": ["Femtomole"]}, {"conceptId": "C73711", "definition": "A molality unit that describes the amount of substance, expressed in femtomole(s) per gram. (NCI)", "preferredTerm": "Femtomole per Gram", "submissionValue": "fmol/g", "synonyms": ["Femtomole per Gram"]}, {"conceptId": "C68887", "definition": "A unit of concentration (molarity unit) equal to one quadrillionth of a mole (1E-15 mole) of solute in one liter of solution. (NCI)", "preferredTerm": "Femtomole per Liter", "submissionValue": "fmol/L", "synonyms": ["Femtomole per Liter"]}, {"conceptId": "C122206", "definition": "A concentration unit equal to one femtomole of solute in one liter of solution per unit of time equal to one second. (NCI)", "preferredTerm": "Femtomole per Liter per Second", "submissionValue": "fmol/L/sec", "synonyms": ["Femtomoles per Liter per Second"]}, {"conceptId": "C48577", "definition": "A traditional unit of liquid volume equal in the British Imperial system to 1/20 pint, or 1.733871 cubic inches or 28.413063 milliliters.", "preferredTerm": "Fluid Ounce British", "submissionValue": "foz_br", "synonyms": ["Fluid Ounce Imperial"]}, {"conceptId": "C48494", "definition": "A traditional unit of liquid volume equal in the US customary system to 1/16 pint, or 1.804687 cubic inches or 29.573531 milliliters.", "preferredTerm": "Fluid Ounce US", "submissionValue": "foz_us", "synonyms": ["Fluid Ounce US"]}, {"conceptId": "C105484", "definition": "A unit for expressing a percentage as a decimal whereby the total value is measured as a fraction of the numeric 1.", "preferredTerm": "Fraction of 1", "submissionValue": "fraction of 1", "synonyms": ["Proportion of 1"]}, {"conceptId": "C106524", "definition": "A unit of measure equal to the number of visual frames per unit of time equal to one second. (NCI)", "preferredTerm": "Frames Per Second", "submissionValue": "Frames/s", "synonyms": ["F/s", "FPS", "Frames per Second", "Frames/sec"]}, {"conceptId": "C71253", "definition": "A unit of length defined by the U.S. National Bureau of Standards as 30.48 centimeters. It is equal to 0.3048 meter, 12 inches, or to approximately 0.999998 survey foot.(NCI)", "preferredTerm": "International Foot", "submissionValue": "ft", "synonyms": ["Foot"]}, {"conceptId": "C48461", "definition": "A unit of area equal to 144 square inches, 929.0304 square centimeters, or 9.290304E-2 square meters.(NCI)", "preferredTerm": "Square Foot", "submissionValue": "ft2", "synonyms": ["Square Foot"]}, {"conceptId": "C68859", "definition": "A unit used in physical chemistry to express the amount of substance of an ideal gas in one cubic foot at 60 degrees Fahrenheit and pressure of one atmosphere.(NCI)", "preferredTerm": "Standard Cubic Foot", "submissionValue": "ft3", "synonyms": ["Standard Cubic Foot"]}, {"conceptId": "C48155", "definition": "A unit of mass equal to one thousandth (1E-3) of a kilogram, the kilogram being the base unit of mass in the International System of Units (SI).", "preferredTerm": "Gram", "submissionValue": "g", "synonyms": ["Gram"]}, {"conceptId": "C73713", "definition": "A unit of measure expressed in gram(s) per animal.", "preferredTerm": "Gram per Animal", "submissionValue": "g/animal", "synonyms": ["Gram per Animal"]}, {"conceptId": "C73714", "definition": "A unit of measure expressed in gram(s) per animal per period of time equal to twenty-four hours.", "preferredTerm": "Gram per Animal per Day", "submissionValue": "g/animal/day", "synonyms": ["Gram per Animal per Day"]}, {"conceptId": "C73715", "definition": "A unit of measure expressed in gram(s) per animal per period of time equal to seven days.", "preferredTerm": "Gram per Animal per Week", "submissionValue": "g/animal/wk", "synonyms": ["Gram per Animal per Week"]}, {"conceptId": "C73716", "definition": "A unit of measure expressed in gram(s) per cage.", "preferredTerm": "Gram per Cage", "submissionValue": "g/cage", "synonyms": ["Gram per Cage"]}, {"conceptId": "C73717", "definition": "A unit of measure expressed in gram(s) per cage per period of time equal to twenty-four hours.", "preferredTerm": "Gram per Cage per Day", "submissionValue": "g/cage/day", "synonyms": ["Gram per Cage per Day"]}, {"conceptId": "C73718", "definition": "A unit of measure expressed in gram(s) per cage per period of time equal to seven days.", "preferredTerm": "Gram per Cage per Week", "submissionValue": "g/cage/wk", "synonyms": ["Gram per Cage per Week"]}, {"conceptId": "C71201", "definition": "A unit of area density defined as a spread rate at which one gram of a substance is spread over the area of one square centimeter. The unit is also used as a dose calculation unit.(NCI)", "preferredTerm": "Gram per Square Centimeter", "submissionValue": "g/cm2", "synonyms": ["Gram per Square Centimeter"]}, {"conceptId": "C67372", "definition": "A unit of mass flow rate equal to one gram per day.", "preferredTerm": "Gram per 24 Hours", "submissionValue": "g/day", "synonyms": ["g/24h"]}, {"conceptId": "C64783", "definition": "A unit of mass concentration defined as the concentration of one gram of a substance per unit volume of the mixture equal to one deciliter (100 milliliters). The concept also refers to the metric unit of mass density (volumic mass) defined as the density of substance which mass equal to one gram occupies the volume one deciliter.(NCI)", "preferredTerm": "Gram per Deciliter", "submissionValue": "g/dL", "synonyms": ["Gram per Deciliter", "g%"]}, {"conceptId": "C70453", "definition": "A unit of a mass fraction expressed as a number of grams of substance per gram of mixture.", "preferredTerm": "Gram per Gram", "submissionValue": "g/g", "synonyms": ["kg/kg", "mcg/mcg", "mg/mg", "ug/ug"]}, {"conceptId": "C73720", "definition": "A unit of measure expressed in gram(s) per gram per period of time equal to twenty-four hours.", "preferredTerm": "Gram per Gram per Day", "submissionValue": "g/g/day", "synonyms": ["Gram per Gram per Day"]}, {"conceptId": "C69104", "definition": "Grams (weight), divided by kilograms (weight) or micrograms (weight) per milligrams (weight).", "preferredTerm": "Gram per Kilogram", "submissionValue": "g/kg", "synonyms": ["Gram per Kilogram", "Microgram per Milligram", "Milligram per Gram", "mg/g", "ug/mg"]}, {"conceptId": "C66975", "definition": "A dose administration rate unit equal to the rate at which one gram of a product per kilogram of body mass is delivered or administered over the period of one day. (NCI)", "preferredTerm": "Gram per Kilogram per Day", "submissionValue": "g/kg/day", "synonyms": ["Gram per Kilogram per Day", "Milligram per Gram per Day", "mg/g/day"]}, {"conceptId": "C42576", "definition": "A unit of concentration or mass density equal to one milligram of substance per milliliter of solution or one gram of substance per liter of solution.", "preferredTerm": "Kilogram per Cubic Meter", "submissionValue": "g/L", "synonyms": ["Gram per Liter", "Kilogram per Cubic Meter", "Microgram per Microliter", "Milligram per Milliliter", "g/L", "kg/m3", "mg/mL", "ug/uL"]}, {"conceptId": "C67282", "definition": "A unit of area density defined as a spread rate at which one gram of a substance is spread over the area of one square meter. It is equal to approximately 0.029 4935 ounce per square yard. Also used as a dose calculation unit.(NCI)", "preferredTerm": "Gram per Square Meter", "submissionValue": "g/m2", "synonyms": ["Gram per Square Meter"]}, {"conceptId": "C73722", "definition": "A dose calculation unit expressed in gram(s) per square meter per period of time equal to twenty-four hours.", "preferredTerm": "Gram per Square Meter per Day", "submissionValue": "g/m2/day", "synonyms": ["Gram per Square Meter per Day"]}, {"conceptId": "C73721", "definition": "A unit of mass commonly used to express the molar mass of a substance in gram(s) per mole. (NCI)", "preferredTerm": "Gram per Mole", "submissionValue": "g/mol", "synonyms": ["mg/mmol"]}, {"conceptId": "C166099", "definition": "A unit of concentration or mass density equal to one gram of substance per unit(s) of substance.", "preferredTerm": "Gram Per Unit", "submissionValue": "g/U"}, {"conceptId": "C68915", "definition": "The unit of magnetic flux density. A field of one Gauss exerts a force on a conductor, placed in the field of 0.1 dyne per Ampere of current per centimeter of conductor. One Gauss represents a magnetic flux of one Maxwell per square centimeter of cross-section perpendicular to the field. One Gauss equals 10-4 Tesla.(NCI)", "preferredTerm": "Gauss", "submissionValue": "Gauss", "synonyms": ["Gauss"]}, {"conceptId": "C70513", "definition": "A unit of radioactivity equal to one billion nuclear disintegrations or other nuclear transformations per second, or to 1E9 Becquerels. (NCI)", "preferredTerm": "Gigabecquerel", "submissionValue": "GBq", "synonyms": ["Gigabecquerel"]}, {"conceptId": "C70525", "definition": "A unit of specific radioactivity (massic activity) equal to activity of one gigabecquerel of the sample with total mass of one gram, or equal to activity of one megabecquerel of the sample with total mass of one milligram.", "preferredTerm": "Gigabecquerel per Gram", "submissionValue": "GBq/g", "synonyms": ["GBq/g", "Gigabecquerel per Gram", "Kilobecquerel per Microgram", "MBq/mg", "Megabecquerel per Milligram", "kBq/ug"]}, {"conceptId": "C70527", "definition": "A unit of specific radioactivity (massic activity) equal to activity of one gigabecquerel of the sample with total mass of one milligram.(NCI)", "preferredTerm": "Gigabecquerel per Milligram", "submissionValue": "GBq/mg", "synonyms": ["Gigabecquerel per Milligram", "MBq/mcg", "MBq/ug", "Megabecquerel per Microgram"]}, {"conceptId": "C70526", "definition": "A unit of specific radioactivity (massic activity) equal to activity of one gigabecquerel of the sample with total mass of one microgram.(NCI)", "preferredTerm": "Gigabecquerel per Microgram", "submissionValue": "GBq/ug", "synonyms": ["GBq/mcg", "Gigabecquerel per Microgram", "MBq/ng", "Megabecquerel per nanogram"]}, {"conceptId": "C161493", "definition": "A unit defined as the number of whole organism genomes in a sample. (NCI)", "preferredTerm": "Genomic Equivalents", "submissionValue": "genEq", "synonyms": ["GE", "Genomic Equivalents"]}, {"conceptId": "C161492", "definition": "A unit of concentration defined as the number of genomic equivalents per milliliter. (NCI)", "preferredTerm": "Genomic Equivalents per Milliliter", "submissionValue": "genEq/mL", "synonyms": ["GE/mL", "Genomic Equivalents per Milliliter"]}, {"conceptId": "C91803", "definition": "A dosing measurement based on the globule unit.", "preferredTerm": "Globule Unit", "submissionValue": "GLOBULE"}, {"conceptId": "C163563", "definition": "A unit of measure for the geometric mean fluorescence intensity.", "preferredTerm": "Geometric Mean Fluorescence Intensity Unit", "submissionValue": "gMFI", "synonyms": ["Geometric Mean Fluorescence Intensity Unit"]}, {"conceptId": "C130190", "definition": "A unit for measuring potency of immunologically active substance in a product determined as reactivity in a glycoprotein enzyme-linked immunosorbent assay for particular antigen or antibody and expressed per unit volume equal to one milliliter.", "preferredTerm": "Glycoprotein-ELISA Unit Per Milliliter", "submissionValue": "gpELISA unit/mL"}, {"conceptId": "C67347", "definition": "A unit for semiquantitative measurement of IgG autoantibodies to proteins associated with negatively charged phospholipids evaluated against an established reference standard. (NCI)", "preferredTerm": "IgG Phospholipid Unit", "submissionValue": "GPL U", "synonyms": ["Immunoglobin G Phospholipid Units", "[GPL'U]"]}, {"conceptId": "C117971", "definition": "A unit for semiquantitative measurement of IgG autoantibodies to proteins associated with negatively charged phospholipids evaluated against an established reference standard, per unit of volume equal to one milliliter.", "preferredTerm": "Immunoglobin G Phospholipid Unit per Milliliter", "submissionValue": "GPL U/mL", "synonyms": ["Immunoglobin G Phospholipid Units per Milliliter"]}, {"conceptId": "C161497", "definition": "A unit for semiquantitative measurement of IgG autoantibodies to proteins associated with phosphatidylserine evaluated against an established reference standard. (NCI)", "preferredTerm": "Phosphatidylserine IgG Antibody Unit", "submissionValue": "GPS U", "synonyms": ["Immunoglobin G Phosphatidylserine Units", "Phosphatidylserine IgG Antibody Unit"]}, {"conceptId": "C48497", "definition": "A unit of mass derived from the weight of a grain and equal to one seven-thousandth of a pound, or 1/480 troy ounce, or 64.79891 milligrams. The original English grain unit based on the mass of a ripe grain barleycorn was larger the corresponding grain units of France and other European nations which were based on the weight of the smaller wheat grain.(NCI)", "preferredTerm": "Grain", "submissionValue": "grain", "synonyms": ["Grain"]}, {"conceptId": "C73772", "definition": "A unit of acceleration expressed as a multiple of the force of gravity on earth (1 gravitational unit = 9.81m/s2).", "preferredTerm": "Unit of Gravity", "submissionValue": "Gravitational Unit"}, {"conceptId": "C48491", "definition": "A unit of volume equal to 0.05 milliliter (20 drops/ml).(NCI)", "preferredTerm": "Metric Drop", "submissionValue": "gtt", "synonyms": ["Metric Drop"]}, {"conceptId": "C18063", "definition": "A unit of absorbed radiation dose. One gray is equal to an absorbed dose of one joule per kilogram of matter, or to 100 rads.(NCI)", "preferredTerm": "Gray", "submissionValue": "Gy", "synonyms": ["Gray"]}, {"conceptId": "C158295", "definition": "A unit of absorbed radiation dose rate defined as the number of Grays per hour.", "preferredTerm": "Gray per Hour", "submissionValue": "Gy/h", "synonyms": ["Gray/Hour"]}, {"conceptId": "C158296", "definition": "A unit of absorbed radiation dose rate defined as the number of Grays per minute.", "preferredTerm": "Gray per Minute", "submissionValue": "Gy/min", "synonyms": ["Gray/Minute"]}, {"conceptId": "C139131", "definition": "A unit of measure for the area under an effect curve (AUEC) defined as hours times percent.", "preferredTerm": "Hour Times Percent", "submissionValue": "h*%"}, {"conceptId": "C170635", "definition": "A unit of measurement equal to the number of hours within a period of time equal to one week.", "preferredTerm": "Hours Per Week", "submissionValue": "h/wk", "synonyms": ["hours/week"]}, {"conceptId": "C42558", "definition": "A unit of electric inductance. A coil with an inductance of one Henry requires a flux of one Weber for each Ampere of induced current. If it is the current which changes, then the induced field will generate a potential difference within the coil: if the inductance is one Henry a current change of one Ampere per second generates a potential difference of one volt. The Henry is a large unit; inductances in practical circuits are measured in millihenrys or microhenrys.(NCI)", "preferredTerm": "Henry", "submissionValue": "Henry", "synonyms": ["Henry"]}, {"conceptId": "C116232", "definition": "Unit of measure of potency of allergenic product expressed as a number of histamine equivalent prick units.", "preferredTerm": "Histamine Equivalent Prick Unit", "submissionValue": "HEP", "synonyms": ["Histamine Equivalent Prick Unit"]}, {"conceptId": "C48498", "definition": "A dosing measurement based on the homeopathic dilution unit.(NCI)", "preferredTerm": "Homeopathic Dilution Unit", "submissionValue": "HOMEOPATHIC DILUTION", "synonyms": ["Homeopathic Dilution Unit"]}, {"conceptId": "C94908", "definition": "The unit of measure for the radiodensity of a substance. The radiodensity of distilled water at standard temperature and pressure is zero on the Hounsfield scale.", "preferredTerm": "Hounsfield Unit", "submissionValue": "Hounsfield Unit", "synonyms": ["HU"]}, {"conceptId": "C25529", "definition": "A unit of measurement of time equal to 60 minutes.", "preferredTerm": "Hour", "submissionValue": "HOURS", "synonyms": ["Hours", "h", "hr"]}, {"conceptId": "C105487", "definition": "A SI derived unit of pressure equivalent to one hundred pascals, 1 millibar or 0.0145 pounds per square inch.", "preferredTerm": "Hectopascal", "submissionValue": "hPa", "synonyms": ["Hectopascal"]}, {"conceptId": "C176380", "definition": "A unit of measurement equal to the number of hours within a period of time equal to one day.", "preferredTerm": "Hour per Day", "submissionValue": "hr/day", "synonyms": ["Hours per Day"]}, {"conceptId": "C42545", "definition": "A unit of frequency equal to one cycle per second.(NCI)", "preferredTerm": "Hertz", "submissionValue": "Hz", "synonyms": ["Cycle per Second", "Hertz", "cycle/sec"]}, {"conceptId": "C154854", "definition": "A unit of frequency rate change defined as the number of Hertz per unit of time equal to one second.", "preferredTerm": "Hertz Per Second", "submissionValue": "Hz/s", "synonyms": ["Hz/sec"]}, {"conceptId": "C48499", "definition": "A dosing measurement based on the implant unit.(NCI)", "preferredTerm": "Implant Dosing Unit", "submissionValue": "IMPLANT", "synonyms": ["Implant Dosing Unit"]}, {"conceptId": "C48500", "definition": "A traditional unit of length equal to 2.54 centimeters. (NCI)", "preferredTerm": "Inch", "submissionValue": "in", "synonyms": ["Inch"]}, {"conceptId": "C68871", "definition": "A unit of area equal to the area of a square with sides of one inch. It is equal to 6.4516 square centimeters.(NCI)", "preferredTerm": "Square Inch", "submissionValue": "in2", "synonyms": ["Square Inch"]}, {"conceptId": "C48501", "definition": "A dosing measurement based on the inhalation unit.(NCI)", "preferredTerm": "Inhalation Dosing Unit", "submissionValue": "INHALATION", "synonyms": ["Inhalation Dosing Unit"]}, {"conceptId": "C48579", "definition": "The unitage assigned by the WHO (World Health Organization) to International Biological Standards - substances, classed as biological according to the criteria provided by WHO Expert Committee on Biological Standardization, to enable the results of biological and immunological assay procedures to be expressed in the same way throughout the world. The definition of an international unit is generally arbitrary and technical, and has to be officially approved by the International Conference for Unification of Formulae.(NCI)", "preferredTerm": "International Unit", "submissionValue": "IU", "synonyms": ["IE", "International Unit"]}, {"conceptId": "C85645", "definition": "A unit of substance (biologic activity) flow rate equal to one international unit per day.", "preferredTerm": "International Unit per Day", "submissionValue": "IU/day"}, {"conceptId": "C120848", "definition": "Unit of arbitrary substance concentration (biologic activity concentration) defined as the concentration of one international unit per one deciliter of system volume.", "preferredTerm": "International Unit per Deciliter", "submissionValue": "IU/dL"}, {"conceptId": "C70493", "definition": "A unit of measure of quantity of substance per unit mass, expressed in terms of the International Unit per grams.(NCI)", "preferredTerm": "International Unit per Gram", "submissionValue": "IU/g", "synonyms": ["International Unit per Gram"]}, {"conceptId": "C122207", "definition": "A unit of concentration (biologic activity) equal to one international unit of substance per gram of hemoglobin.", "preferredTerm": "International Unit per Gram Hemoglobin", "submissionValue": "IU/g Hb"}, {"conceptId": "C67379", "definition": "An arbitrary unit of substance content expressed in international units of biological activity per one kilogram of mass of the system. It is also used as a dose calculation unit expressed in international units of biological activity per one kilogram of body mass.(NCI)", "preferredTerm": "International Unit per Kilogram", "submissionValue": "IU/kg", "synonyms": ["International Unit per Kilogram"]}, {"conceptId": "C71209", "definition": "A dose calculation unit equal to one international unit (an arbitrary unit of biological activity) of a product per one kilogram of body mass administered per unit of time equal to one hour.(NCI)", "preferredTerm": "International Unit per Kilogram per Hour", "submissionValue": "IU/kg/h", "synonyms": ["International units per Kilogram per Hour"]}, {"conceptId": "C67376", "definition": "A unit of concentration (biologic activity) equal to one milli-international unit of substance per milliliter of solution or one international unit of substance per liter of solution.", "preferredTerm": "International Unit per Liter", "submissionValue": "IU/L", "synonyms": ["IE/L", "IU/L", "International Unit per Liter", "mIU/mL"]}, {"conceptId": "C67380", "definition": "A unit of measure of quantity of substance per unit mass, expressed in terms of international units per milligram.", "preferredTerm": "International Unit per Milligram", "submissionValue": "IU/mg", "synonyms": ["International Unit per Milligram"]}, {"conceptId": "C67377", "definition": "A unit of concentration (biologic activity) equal to one international unit of substance per milliliter of solution.", "preferredTerm": "International Unit per Milliliter", "submissionValue": "IU/mL", "synonyms": ["IE/mL", "International Unit per Milliliter", "Kilo International Unit per Liter", "kIU/L"]}, {"conceptId": "C122208", "definition": "A unit of concentration (biologic activity) equal to one international unit of substance per millimole of substance.", "preferredTerm": "International Unit per Millimole", "submissionValue": "IU/mmol"}, {"conceptId": "C48502", "definition": "A dosing measurement based on the jar unit.(NCI)", "preferredTerm": "Jar Dosing Unit", "submissionValue": "JAR", "synonyms": ["Jar Dosing Unit"]}, {"conceptId": "C172606", "definition": "A unit of measure, defined by the Juvenile Diabetes Foundation, used to quantify islet cell antibodies in a biological sample.", "preferredTerm": "Juvenile Diabetes Foundation Unit", "submissionValue": "JDF Unit", "synonyms": ["JDF U", "Juvenile Diabetes Foundation Unit"]}, {"conceptId": "C42548", "definition": "A unit of electrical, mechanical, and thermal energy (as well as work and quantity of heat), equal to the work done when the point of application of a force of one Newton is displaced through a distance of one meter in the direction of the force or the work done when a current of one Ampere passes through a resistance of one ohm for one second. One joule is equal to 0.23889 gram-calorie (mean).(NCI)", "preferredTerm": "Joule", "submissionValue": "Joule", "synonyms": ["Joule"]}, {"conceptId": "C42537", "definition": "A basic unit of thermodynamic temperature, one of the seven base units of the International System of Units (Systeme International d'Unites, SI). It is 1/273.16th of the thermodynamic temperature of the triple point of water. This sets the size of the kelvin unit for temperature differences and defines the thermodynamic temperature of an equilibrium mixture of waters ice-liquid-vapor as 273.16 K, where 0 K is the lowest possible temperature (\"absolute zero\").", "preferredTerm": "Kelvin", "submissionValue": "K", "synonyms": ["Kelvin"]}, {"conceptId": "C122209", "definition": "A unit of phosphatase concentration that can free one milligram of phenol from disodium phenylphosphate at standard conditions, per unit volume of the mixture equal to one deciliter. (NCI)", "preferredTerm": "King-Armstrong Unit per Deciliter", "submissionValue": "ka_u/dL"}, {"conceptId": "C48503", "definition": "A dosing measurement based on the Kallikrein inhibitor unit.(NCI)", "preferredTerm": "Kallikrein Inhibitor Unit", "submissionValue": "KALLIKREIN INHIBITOR UNIT", "synonyms": ["Kallikrein Inhibitor Unit"]}, {"conceptId": "C42566", "definition": "A unit for measuring catalytic (e.g. enzymatic) activity, the ability of the compound to accelerate the chemical reaction by providing a lower energy pathway between the reactants and the products. One katal is that catalytic activity which will raise the rate of reaction by one mole per second in a specified assay system. When the katal is used, the measurand should be specified by reference to the measurement procedure; the measurement procedure must identify the indicator reaction. The katal is not used to express a rate of reaction itself, which should be expressed in moles per second.(NCI)", "preferredTerm": "Katal", "submissionValue": "kat", "synonyms": ["Katal"]}, {"conceptId": "C70511", "definition": "A unit of radioactivity equal to one thousand nuclear disintegrations or other nuclear transformations per second, or to 1E3 Becquerels. (NCI)", "preferredTerm": "Kilobecquerel", "submissionValue": "kBq", "synonyms": ["Kilobecquerel"]}, {"conceptId": "C71168", "definition": "A unit of volumetric radioactivity concentration defined as a concentration of a radionuclide with an activity equal to one thousand Becquerels per unit volume equal to one millionth of a liter.(NCI)", "preferredTerm": "Kilobecquerel per Microliter", "submissionValue": "kBq/uL", "synonyms": ["GBq/L", "Gigabecquerel per Liter", "Kilobecquerel per Microliter", "MBq/mL", "Megabecquerel per Milliliter"]}, {"conceptId": "C67194", "definition": "A unit of energy defined as the amount of heat required to raise the temperature of one kilogram of pure water by one degree Centigrade under standard conditions (the specific heat of the water at 15 degrees Celsius and the constant pressure of 101.325 kilopascals or one atm being defined as unity), equal to approximately 4.1855 kJ. It is also is used by nutritionists in measuring the energy-producing potential of food as a unit of potential energy contained by a substance, which can be liberated when the material is oxidized, usually by combustion in the presence of oxygen.(NCI)", "preferredTerm": "Calorie", "submissionValue": "kcal", "synonyms": ["Kilogram-Calorie"]}, {"conceptId": "C139135", "definition": "A unit of energy equal to one kilocalorie per day. (NCI)", "preferredTerm": "Kilocalorie per Day", "submissionValue": "kcal/day"}, {"conceptId": "C105491", "definition": "A mass unit equal to one thousand daltons.", "preferredTerm": "Kilodalton", "submissionValue": "kDa", "synonyms": ["Kilodalton", "Kilounified Atomic Mass Unit", "ku"]}, {"conceptId": "C67276", "definition": "A unit of energy equal to 1000 electronvolts, or (approximately) 1,602 177 x 10-16 joule.", "preferredTerm": "Kiloelectronvolt", "submissionValue": "keV", "synonyms": ["KeV", "Kiloelectronvolt"]}, {"conceptId": "C28252", "definition": "The base unit of mass in the International System of Units (SI) equal to the mass of the international prototype kilogram, a platinum-iridium cylinder in the custody of the International Bureau of Weights and Measures.", "preferredTerm": "Kilogram", "submissionValue": "kg", "synonyms": ["Kilogram"]}, {"conceptId": "C120849", "definition": "A unit of measure equal to kilograms per length unit equal to one centimeter.", "preferredTerm": "Kilogram per Centimeter", "submissionValue": "kg/cm"}, {"conceptId": "C69094", "definition": "A unit of spread rate of a substance by mass expressed in kilograms per area unit equal to one square centimeter, used also as a measure of area density and as a dose calculation unit.(NCI)", "preferredTerm": "Kilogram per Square Centimeter", "submissionValue": "kg/cm2", "synonyms": ["Kilogram per Square Centimeter"]}, {"conceptId": "C64566", "definition": "A unit of concentration or mass density equal to one gram of substance per milliliter of solution or one kilogram of substance per liter of solution.", "preferredTerm": "Kilogram per Liter", "submissionValue": "kg/L", "synonyms": ["Gram per Milliliter", "Kilogram per Liter", "g/mL", "gram/mL", "kg/L", "mg/uL"]}, {"conceptId": "C49671", "definition": "A unit expressed as kilogram of mass per square meter of area.(NCI)", "preferredTerm": "Kilogram per Square Meter", "submissionValue": "kg/m2", "synonyms": ["Kilogram per Square Meter"]}, {"conceptId": "C122210", "definition": "A unit of mass commonly used to express the molar mass of a substance in kilogram(s) per mole.", "preferredTerm": "Kilogram per Mole", "submissionValue": "kg/mol", "synonyms": ["g/mmol"]}, {"conceptId": "C67279", "definition": "A unit of measure denoting the frequency equal to 1000 cycles per second meaning e.g. that the cylical waveform changes from one state to the other (from one polarity to the other) 1000 times per second. (NCI)", "preferredTerm": "Kilohertz", "submissionValue": "kHz", "synonyms": ["kilohertz"]}, {"conceptId": "C48504", "definition": "A dosing measurement based on the kit unit.(NCI)", "preferredTerm": "Kit Dosing Unit", "submissionValue": "KIT", "synonyms": ["Kit Dosing Unit"]}, {"conceptId": "C70492", "definition": "A unit equal to one thousand international units.(NCI)", "preferredTerm": "Kilointernational Unit", "submissionValue": "kIU", "synonyms": ["Kilo International Unit"]}, {"conceptId": "C71177", "definition": "A unit of distance equal to 1000 meters, 0.621 miles, 1094 yards, or 3281 feet.(NCI)", "preferredTerm": "Kilometer", "submissionValue": "km", "synonyms": ["Kilometer"]}, {"conceptId": "C71203", "definition": "A unit of both speed (scalar) and velocity (vector), defined as the distance of one thousand meters travelled per unit time equal to one hour.(NCI)", "preferredTerm": "Kilometer per Hour", "submissionValue": "km/h", "synonyms": ["Kilometer Per Hour"]}, {"conceptId": "C92615", "definition": "The kilonewton per centimeter squared is an SI derived unit of pressure; one newton is computed as the force necessary to accelerate a mass of one gram at the rate of one centimeter per second squared. One kilonewton per centimeter squared is descriptive of the amount of force exerted in a particular area. This measurement is frequently used when describing conditions of cellular movement. (NCI)", "preferredTerm": "Kilonewton per Centimeter Squared", "submissionValue": "kN/cm2", "synonyms": ["Kilonewton per Centimeter Squared", "kdyn/cm2"]}, {"conceptId": "C67284", "definition": "A SI derived unit of pressure equivalent to 1000 newtons per square meter or 10000 bars or to 0.145 pound per square inch. (NCI)", "preferredTerm": "Kilopascal", "submissionValue": "kPa", "synonyms": ["Kilopascal"]}, {"conceptId": "C105492", "definition": "A unit of resistance equal to the number of kilopascals per unit of volume equal to one liter per unit of time equal to one second. (NCI)", "preferredTerm": "Kilopascal Per Liter Per Second", "submissionValue": "kPa/L/sec", "synonyms": ["Pa/mL/sec"]}, {"conceptId": "C105493", "definition": "A unit of time equal to one thousand seconds (1E3 seconds). (NCI)", "preferredTerm": "Kilosecond", "submissionValue": "ks", "synonyms": ["10^3 sec", "Kilosecond", "ksec"]}, {"conceptId": "C71202", "definition": "A unit of potency equal to one thousand US Pharmacopoeia Units.(NCI)", "preferredTerm": "Kilo United States Pharmacopeia Unit", "submissionValue": "kUSP", "synonyms": ["Kilo United States Pharmacopeia Unit"]}, {"conceptId": "C170630", "definition": "A unit of electric potential and electromotive force equal to one thousand volts.", "preferredTerm": "Kilovolt", "submissionValue": "kV", "synonyms": ["Kilovolt"]}, {"conceptId": "C48505", "definition": "A unit of volume equal to one thousandth (1E-3) of a cubic meter, the cubic meter being the standard derived unit of volume in the International System of Units (SI).", "preferredTerm": "Liter", "submissionValue": "L", "synonyms": ["Liter"]}, {"conceptId": "C69110", "definition": "A unit of flow rate equal to one liter per day.", "preferredTerm": "Liter per Day", "submissionValue": "L/day"}, {"conceptId": "C69160", "definition": "A unit of flow rate equal to one liter per hour.", "preferredTerm": "Liter per Hour", "submissionValue": "L/h"}, {"conceptId": "C105494", "definition": "Liters per hour (flow rate), divided by meters squared (surface area).", "preferredTerm": "Liter Per Hour Per Square Meter", "submissionValue": "L/h/m2", "synonyms": ["(L/h)/m2", "L/h/m2"]}, {"conceptId": "C73725", "definition": "Liters (volume) divided by kilograms (weight) or milliliters (volume), divided by grams (weight).", "preferredTerm": "Liter per Kilogram", "submissionValue": "L/kg", "synonyms": ["L/kg", "mL/g"]}, {"conceptId": "C105495", "definition": "A unit of volume concentration equal to the number of liters per unit of volume equal to one liter.", "preferredTerm": "Liter Per Liter", "submissionValue": "L/L", "synonyms": ["Liter per Liter", "dL/dL", "mL/mL", "uL/uL"]}, {"conceptId": "C67388", "definition": "A unit of flow rate equal to one liter per minute.", "preferredTerm": "Liter per Minute", "submissionValue": "L/min"}, {"conceptId": "C105496", "definition": "Liters per minute (flow rate), divided by meters squared (surface area).", "preferredTerm": "Liter Per Minute Per Square Meter", "submissionValue": "L/min/m2", "synonyms": ["(L/min)/m2", "L/min/m2"]}, {"conceptId": "C67390", "definition": "Liters per second.", "preferredTerm": "Liter per Second", "submissionValue": "L/s", "synonyms": ["L/sec"]}, {"conceptId": "C139133", "definition": "A unit of conductance equal to the number of liters per unit of time equal to one second per unit of pressure equal to one kilopascal.", "preferredTerm": "Liter per Second per Kilopascal", "submissionValue": "L/s/kPa"}, {"conceptId": "C48531", "definition": "A traditional unit of mass. By international agreement, one avoirdupois pound is equal to exactly 0.453 592 37 kilogram, 16 ounces, or 1.215 28 troy pounds. (NCI)", "preferredTerm": "Pound", "submissionValue": "LB", "synonyms": ["Pound"]}, {"conceptId": "C170638", "definition": "A dosing measurement based on the lens unit.", "preferredTerm": "Lens Dosing Unit", "submissionValue": "LENS", "synonyms": ["Lens Dosing Unit"]}, {"conceptId": "C139134", "definition": "A unit of measure that equals the work required to move one pound a linear distance of one foot in the direction of the applied force.", "preferredTerm": "Linear Foot Pound", "submissionValue": "Linear ft*LB", "synonyms": ["Linear Foot-pound", "Linear Pounds Feet", "Linear ft*lbf"]}, {"conceptId": "C178059", "definition": "A dosing unit based on lipase activity.", "preferredTerm": "Lipase Unit", "submissionValue": "Lipase Units"}, {"conceptId": "C178058", "definition": "A dosing unit based on lipase activity per kilogram of body mass.", "preferredTerm": "Lipase Units per Kilogram", "submissionValue": "Lipase Units/kg"}, {"conceptId": "C42560", "definition": "A unit of luminous flux. It is the amount of light that falls on a unit area at unit distance from a source of one candela.(NCI)", "preferredTerm": "Lumen", "submissionValue": "lm", "synonyms": ["Lumen"]}, {"conceptId": "C70480", "definition": "A logarithmic-scale (base 10) potency unit for measuring infectious activity of a biologic product or infectious agent preparation equal to the potency at which one dose of infectious material contains one 50 percent embryo infective dose.(NCI)", "preferredTerm": "Log10 50 Percent Embryo Infective Dose per Dose", "submissionValue": "log EID 50/dose", "synonyms": ["Log10 50 Percent Embryo Infective Dose per Dose"]}, {"conceptId": "C70485", "definition": "A logarithmic-scale (base 10) potency unit for measuring infectious activity of a biologic product or infectious agent preparation equal to the potency at which one dose of infectious material contains one 50 percent cell culture infective dose.(NCI)", "preferredTerm": "Log10 50 Percent Cell Culture Infective Dose per Dose", "submissionValue": "log10 CCID 50/dose", "synonyms": ["Log10 50 Percent Cell Culture Infective Dose per Dose"]}, {"conceptId": "C102658", "definition": "A logarithmic-scale (base 10) unit for measuring colony forming units per unit of mass equal to one gram.", "preferredTerm": "Log10 Colony Forming Units per Gram", "submissionValue": "log10 CFU/g"}, {"conceptId": "C102659", "definition": "A logarithmic-scale (base 10) unit for measuring colony forming units per unit of volume equal to one milliliter.", "preferredTerm": "Log10 Colony Forming Units per Milliliter", "submissionValue": "log10 CFU/mL"}, {"conceptId": "C117972", "definition": "A logarithmic-scale (base 10) unit for measuring copies per unit of volume equal to one milliliter.", "preferredTerm": "Log10 Copies per Milliliter", "submissionValue": "log10 copies/mL"}, {"conceptId": "C68878", "definition": "A logarithmic-scale (base 10) unit for measuring concentration and/or reactivity of a test substance (an antigen or antibody of interest) as defined in the literature reference for the particular quantitative enzyme-linked immunosorbent assay method.(NCI)", "preferredTerm": "Log10 Enzyme-Linked Immunosorbent Assay Unit", "submissionValue": "Log10 ELISA unit", "synonyms": ["Log10 Enzyme-Linked Immunosorbent Assay Unit"]}, {"conceptId": "C68879", "definition": "A logarithmic-scale (base 10) unit for measuring potency of immunologically active substance in a product determined as reactivity in a quantitative immunoassay for particular antigen or antibody and expressed per quantity of preparation used as a single dose.(NCI)", "preferredTerm": "Log10 Enzyme-Linked Immunosorbent Assay Unit per Dose", "submissionValue": "Log10 ELISA unit/dose", "synonyms": ["Log10 Enzyme-Linked Immunosorbent Assay Unit per Dose"]}, {"conceptId": "C116238", "definition": "A logarithmic-scale (base 10) unit for measuring international units per unit of volume equal to one milliliter.", "preferredTerm": "Log10 International Units per Milliliter", "submissionValue": "log10 IU/mL"}, {"conceptId": "C73568", "definition": "A logarithmic-scale (base 10) unit for measuring plaque forming units.", "preferredTerm": "Log10 Plaque Forming Unit", "submissionValue": "log10 PFU"}, {"conceptId": "C170631", "definition": "A logarithmic-scale (base 10) unit for measuring plaque forming units per unit of volume equal to one milliliter.", "preferredTerm": "log10 Plaque Forming Units Per Milliliter", "submissionValue": "log10 PFU/mL"}, {"conceptId": "C70489", "definition": "A logarithmic-scale (base 10) potency unit for measuring infectious activity of a biologic product or infectious agent preparation equal to the potency at which one dose of infectious material contains one 50 percent tissue culture infective dose.(NCI)", "preferredTerm": "Log10 50 Percent Tissue Culture Infective Dose per Dose", "submissionValue": "log10 TCID 50/dose", "synonyms": ["Log10 50 Percent Tissue Culture Infective Dose per Dose"]}, {"conceptId": "C132478", "definition": "A logarithmic-scale (base 10) potency unit for measuring infectious activity of a biologic product or infectious agent preparation equal to the potency at which one milliliter of infectious material contains one 50 percent tissue culture infective dose.", "preferredTerm": "Log10 50 Percent Tissue Culture Infective Dose per Milliliter", "submissionValue": "log10 TCID 50/mL", "synonyms": ["Log10 50 Percent Tissue Culture Infective Dose per Milliliter"]}, {"conceptId": "C132479", "definition": "A logarithmic-scale (base 10) potency unit for measuring infectious activity of a biologic product or infectious agent preparation equal to the potency at which one microliter of infectious material contains one 50 percent tissue culture infective dose.", "preferredTerm": "Log10 50 Percent Tissue Culture Infective Dose per Microliter", "submissionValue": "log10 TCID 50/uL", "synonyms": ["Log10 50 Percent Tissue Culture Infective Dose per Microliter"]}, {"conceptId": "C48506", "definition": "A dosing measurement based on the lozenge unit.(NCI)", "preferredTerm": "Lozenge Dosing Unit", "submissionValue": "LOZENGE", "synonyms": ["Lozenge Dosing Unit"]}, {"conceptId": "C42561", "definition": "A unit of illuminance equal to the direct illumination on a surface that is everywhere one meter from a uniform point source of one candela; a unit of illuminance that is equal to one lumen per square meter.(NCI)", "preferredTerm": "Lux", "submissionValue": "lx", "synonyms": ["Lux"]}, {"conceptId": "C41139", "definition": "A meter is defined as the length of the path traveled by light in a vacuum during a time interval of 1/299 792 458 of a second and is equal to 1.093 61 yards.(NCI)", "preferredTerm": "Meter", "submissionValue": "m", "synonyms": ["Meter"]}, {"conceptId": "C42571", "definition": "A unit of both speed (scalar) and velocity (vector), defined as the distance of one meter travelled per unit time equal to one second.(NCI)", "preferredTerm": "Meter per Second", "submissionValue": "m/sec", "synonyms": ["Meter Per Second"]}, {"conceptId": "C42572", "definition": "A unit of acceleration equal to one meter per unit of time equal to one second squared.", "preferredTerm": "Meter per Second Squared", "submissionValue": "m/sec2"}, {"conceptId": "C42569", "definition": "The standard derived unit of area in the International System of Units (SI) equal to the area of a square whose sides are one meter long.", "preferredTerm": "Square Meter", "submissionValue": "m2", "synonyms": ["Square Meter"]}, {"conceptId": "C42570", "definition": "A unit of volume or capacity equal to the volume of a cube with edges one meter in length. It is equal to 1,000 liters; 1,000 cubic decimeters; 10(E6) cubic centimeters; 25.3 cubic feet; 6.29 barrels.(NCI)", "preferredTerm": "Cubic Meter", "submissionValue": "m3", "synonyms": ["Cubic Meter"]}, {"conceptId": "C139130", "definition": "A unit of potency for inhalational gases defined as the concentration of gas in the lung required to immobilize 50 percent of individuals in response to a stimulus, such as pain.", "preferredTerm": "Minimum Alveolar Concentration 50 Percent", "submissionValue": "MAC50", "synonyms": ["Minimum Alveolar Concentration 50%"]}, {"conceptId": "C97343", "definition": "A unit of electric current equal to one thousandth of an ampere. (NCI)", "preferredTerm": "Milliampere", "submissionValue": "mAmp", "synonyms": ["Milliampere"]}, {"conceptId": "C122211", "definition": "A unit of enzymatic activity defined a one milli-Anson unit per unit volume equal to one milliliter.", "preferredTerm": "Milli-Anson Unit per Milliliter", "submissionValue": "mAnson U/mL"}, {"conceptId": "C170637", "definition": "A dosing measurement based on the mask unit.", "preferredTerm": "Mask Dosing Unit", "submissionValue": "MASK", "synonyms": ["Mask Dosing Unit"]}, {"conceptId": "C176388", "definition": "A number representing one million paired nucleotides in a DNA or RNA sequence.", "preferredTerm": "Megabase Pair", "submissionValue": "MBP", "synonyms": ["Mb", "Mbp", "Megabase Pair"]}, {"conceptId": "C70512", "definition": "A unit of radioactivity equal to one million nuclear disintegrations or other nuclear transformations per second, or to 1E6 Becquerels. (NCI)", "preferredTerm": "Megabecquerel", "submissionValue": "MBq", "synonyms": ["Megabecquerel"]}, {"conceptId": "C71169", "definition": "A unit of volumetric radioactivity concentration defined as a concentration of a radionuclide with an activity equal to one million Becquerels per unit volume equal to one millionth of a liter, or defined as a concentration of a radionuclide with an activity equal to one billion Becquerels per unit volume equal to one thousandth of a liter.", "preferredTerm": "Megabecquerel per Microliter", "submissionValue": "MBq/uL", "synonyms": ["GBq/mL", "Gigabecquerel per Milliliter", "MBq/uL", "Megabecquerel per Microliter"]}, {"conceptId": "C48511", "definition": "A unit of radioactivity equal to one thousandth of a Curie or 37 megabecquerels, and corresponding to a radioactivity of 37 millions of atomic disintegrations per second.(NCI)", "preferredTerm": "Millicurie", "submissionValue": "mCi", "synonyms": ["Millicurie"]}, {"conceptId": "C70570", "definition": "A unit of specific radioactivity (massic activity) equal to activity of one millicurie of the sample with total mass of one kilogram.(NCI)", "preferredTerm": "Millicurie per Kilogram", "submissionValue": "mCi/kg", "synonyms": ["Microcurie per Gram", "Millicurie per Kilogram", "uCi/g"]}, {"conceptId": "C71174", "definition": "A unit of volumetric radioactivity concentration defined as a concentration of a radionuclide with an activity equal to one thousandth of a Curie per unit volume equal to one liter.(NCI)", "preferredTerm": "Millicurie per Liter", "submissionValue": "mCi/L", "synonyms": ["Microcurie per Milliliter", "Millicurie per Liter", "uCi/mL"]}, {"conceptId": "C96687", "definition": "A unit of measure for the median fluorescence intensity.", "preferredTerm": "Median Fluorescence Intensity Unit", "submissionValue": "MdFI", "synonyms": ["MFI", "Median Fluorescence Intensity Unit"]}, {"conceptId": "C48512", "definition": "A unit of relative amount of a substance equal to one thousandth of an equivalent weight.(NCI)", "preferredTerm": "Milliequivalent", "submissionValue": "mEq", "synonyms": ["Milliequivalent"]}, {"conceptId": "C67471", "definition": "A unit of relative amount of substance flow rate equivalent to the rate at which one thousandth of an equivalent of substance travels to a given object or space over a period of time equal to twenty four hours.(NCI)", "preferredTerm": "Milliequivalent per 24 Hours", "submissionValue": "mEq/day", "synonyms": ["Milliequivalents per Day"]}, {"conceptId": "C67473", "definition": "A concentration unit measured as a number of milliequivalents of solute per deciliter of solution. (NCI)", "preferredTerm": "Milliequivalent per Deciliter", "submissionValue": "mEq/dL", "synonyms": ["Milliequivalent per Deciliter"]}, {"conceptId": "C70580", "definition": "A unit of relative amount of substance content equivalent to the content at which one gram of mixture contains one thousandth of an equivalent of a component. The unit is also used as a dose calculation unit.(NCI)", "preferredTerm": "Milliequivalent per Gram", "submissionValue": "mEq/g", "synonyms": ["Milliequivalent Per Gram"]}, {"conceptId": "C67475", "definition": "A unit of relative amount of substance content equivalent to the content at which one kilogram of mixture contains one thousandth of an equivalent of a component. The unit is also used as a dose calculation unit.(NCI)", "preferredTerm": "Milliequivalent per Kilogram", "submissionValue": "mEq/kg", "synonyms": ["Milliequivalent Per Kilogram"]}, {"conceptId": "C67474", "definition": "A concentration unit measured as a number of milliequivalents of solute per liter of solution.(NCI)", "preferredTerm": "Milliequivalent per Liter", "submissionValue": "mEq/L", "synonyms": ["Milliequivalent Per Liter", "Millivalent per Liter", "mval/L"]}, {"conceptId": "C73737", "definition": "A concentration unit expressed in milliequivalent(s) of solute per milliliter of solution. (NCI)", "preferredTerm": "Milliequivalent per Milliliter", "submissionValue": "mEq/mL", "synonyms": ["Milliequivalent per Milliliter"]}, {"conceptId": "C92616", "definition": "A concentration unit measured as a number of one thousandth of an equivalent weight per millimole of substance. (NCI)", "preferredTerm": "Milliequivalent per Millimole", "submissionValue": "mEq/mmol", "synonyms": ["Milliequivalent per Millimole"]}, {"conceptId": "C70581", "definition": "A unit of relative amount of substance content equivalent to the content at which one millionth of a gram of mixture contains one thousandth of an equivalent of a component. The unit is also used as a dose calculation unit.(NCI)", "preferredTerm": "Milliequivalent per Microgram", "submissionValue": "mEq/ug", "synonyms": ["Milliequivalent Per Microgram", "mEq/mcg"]}, {"conceptId": "C70578", "definition": "A concentration unit measured as a number of milliequivalents of solute per microliter of solution.(NCI)", "preferredTerm": "Milliequivalent per Microliter", "submissionValue": "mEq/uL", "synonyms": ["Milliequivalent Per Microliter"]}, {"conceptId": "C96691", "definition": "A unit of measure of the fluorescence intensity of a fluorochrome-labeled sample, which is equivalent to the fluorescence intensity of a solution containing an equivalent number of molecules of free fluorochrome in solution, under identical experimental conditions.", "preferredTerm": "Molecule of Equivalent Soluble Fluorochrome", "submissionValue": "MESF", "synonyms": ["Molecules of Equivalent Soluble Fluorochromes"]}, {"conceptId": "C127805", "definition": "A unit of energy expenditure equal to the ratio of metabolic rate during physical activity versus a reference metabolic rate.", "preferredTerm": "Metabolic Equivalent of Task Unit", "submissionValue": "MET", "synonyms": ["Metabolic Equivalent of Task"]}, {"conceptId": "C127806", "definition": "A unit of energy expenditure equal to the number of metabolic equivalent of task units times the number of hours of performed activity.", "preferredTerm": "Metabolic Equivalent of Task Hours", "submissionValue": "MET*h"}, {"conceptId": "C127807", "definition": "A unit of energy expenditure equal to the number of metabolic equivalent of task units times the number of minutes of performed activity.", "preferredTerm": "Metabolic Equivalent of Task Minute", "submissionValue": "MET*min"}, {"conceptId": "C28253", "definition": "A unit of mass equal to one thousandth (1E-3) of a gram.", "preferredTerm": "Milligram", "submissionValue": "mg", "synonyms": ["Milligram"]}, {"conceptId": "C73738", "definition": "A unit of measure expressed in milligram(s) per animal.", "preferredTerm": "Milligram per Animal", "submissionValue": "mg/animal", "synonyms": ["Milligram per Animal"]}, {"conceptId": "C124456", "definition": "A unit of area density defined as a spread rate at which one milligram of a substance is spread over the area of one square centimeter. The unit is also used as a dose calculation unit.", "preferredTerm": "Milligram per Squared Centimeter", "submissionValue": "mg/cm2"}, {"conceptId": "C67399", "definition": "A unit of mass flow rate equal to one milligram per day.", "preferredTerm": "Milligram per 24 Hours", "submissionValue": "mg/day"}, {"conceptId": "C67015", "definition": "A unit of mass concentration defined as the concentration of one milligram of a substance in unit volume of the mixture equal to one cubic deciliter or 100 cubic centimeters. It is also a unit of mass density (volumic mass) defined as the density of substance which mass equal to one milligram occupies the volume one cubic deciliter or 100 cubic centimeters.(NCI)", "preferredTerm": "Milligram per Deciliter", "submissionValue": "mg/dL", "synonyms": ["Milligram per Deciliter", "mg%"]}, {"conceptId": "C124457", "definition": "A unit of measure expressed in milligram(s) per dose.", "preferredTerm": "Milligram per Dose", "submissionValue": "mg/dose"}, {"conceptId": "C73740", "definition": "A dose calculation unit expressed in milligram(s) per gram per period of time equal to sixty minutes. (NCI)", "preferredTerm": "Milligram per Gram per Hour", "submissionValue": "mg/g/h", "synonyms": ["Milligram per Gram per Hour"]}, {"conceptId": "C73741", "definition": "A dose calculation unit expressed in milligram(s) per gram per period of time equal to sixty seconds. (NCI)", "preferredTerm": "Milligram per Gram per Minute", "submissionValue": "mg/g/min", "synonyms": ["Milligram per Gram per Minute"]}, {"conceptId": "C66969", "definition": "A unit of mass flow rate equal to one milligram per hour.", "preferredTerm": "Milligram per Hour", "submissionValue": "mg/h"}, {"conceptId": "C67401", "definition": "Milligrams (weight), divided by kilograms (weight) or nanograms (weight) per milligrams (weight).", "preferredTerm": "Milligram per Kilogram", "submissionValue": "mg/kg", "synonyms": ["Milligram per Kilogram", "Nanogram per Milligram", "ng/mg", "ug/g"]}, {"conceptId": "C66976", "definition": "A dose calculation unit expressed in milligram(s) per kilogram per period of time equal to twenty-four hours. (NCI)", "preferredTerm": "Milligram per Kilogram per Day", "submissionValue": "mg/kg/day", "synonyms": ["Milligram per Kilogram per Day"]}, {"conceptId": "C124458", "definition": "A dose calculation unit expressed in milligram(s) per kilogram per single dose.", "preferredTerm": "Milligram per Kilogram per Dose", "submissionValue": "mg/kg/dose"}, {"conceptId": "C71362", "definition": "A dose calculation unit equal to one thousandth of a gram of a preparation per one kilogram of body mass administered per unit of time equal to one hour.(NCI)", "preferredTerm": "Milligram per Kilogram per Hour", "submissionValue": "mg/kg/h", "synonyms": ["Milligram per Kilogram per Hour"]}, {"conceptId": "C71207", "definition": "A dose calculation unit equal to one thousandth of a gram of a preparation per one kilogram of body mass administered per unit of time equal to one minute.(NCI)", "preferredTerm": "Milligram per Kilogram per Minute", "submissionValue": "mg/kg/min", "synonyms": ["Milligram per Kilogram per Minute"]}, {"conceptId": "C161486", "definition": "A dose calculation unit expressed in milligram(s) per kilogram per period of time equal to seven days. (NCI)", "preferredTerm": "Milligram Per Kilogram Per Week", "submissionValue": "mg/kg/week", "synonyms": ["Milligram per Kilogram per Week"]}, {"conceptId": "C64572", "definition": "A unit of concentration or mass density equal to one microgram of substance per milliliter of solution or one milligram of substance per liter of solution.", "preferredTerm": "Microgram per Milliliter", "submissionValue": "mg/L", "synonyms": ["Gram per Cubic Meter", "Microgram per Milliliter", "Milligram per Liter", "g/m3", "mcg/mL", "mg/L", "ng/uL", "ug/mL"]}, {"conceptId": "C158291", "definition": "A unit of equivalent concentration equal to the number of milligrams of fibrinogen per unit volume equal to one liter.", "preferredTerm": "Milligram per Liter Fibrinogen Equivalent Units", "submissionValue": "mg/L FEU", "synonyms": ["FEU mg/L", "mg FEU/L", "mg-L-FEU"]}, {"conceptId": "C67402", "definition": "A unit of area density equal to approximately 2.94935E-5 ounce per square yard. Also used as a dose calculation unit.(NCI)", "preferredTerm": "Milligram per Square Meter", "submissionValue": "mg/m2", "synonyms": ["Milligram per Square Meter"]}, {"conceptId": "C66974", "definition": "A dose calculation unit expressed in milligram(s) per square meter per period of time equal to twenty-four hours. (NCI)", "preferredTerm": "Milligram per Square Meter per Day", "submissionValue": "mg/m2/day", "synonyms": ["Milligram per Square Meter per Day"]}, {"conceptId": "C73743", "definition": "A dose calculation unit expressed in milligram(s) per square meter per period of time equal to sixty minutes. (NCI)", "preferredTerm": "Milligram per Square Meter per Hour", "submissionValue": "mg/m2/h", "synonyms": ["Milligram per Square Meter per Hour"]}, {"conceptId": "C73744", "definition": "A dose calculation unit expressed in milligram(s) per square meter per period of time equal to sixty seconds. (NCI)", "preferredTerm": "Milligram per Square Meter per Minute", "submissionValue": "mg/m2/min", "synonyms": ["Milligram per Square Meter per Minute"]}, {"conceptId": "C73742", "definition": "A unit of mass flow rate equal to one milligram per minute.", "preferredTerm": "Milligram per Minute", "submissionValue": "mg/min"}, {"conceptId": "C176378", "definition": "A dose calculation unit expressed in milligrams per milliliter per day.", "preferredTerm": "Gram per Liter per Day", "submissionValue": "mg/mL/day", "synonyms": ["g/L/24 Hours", "g/L/day", "mg/mL/24 Hours"]}, {"conceptId": "C67403", "definition": "A unit expressed in milligrams per milliliter per period of time equal to sixty seconds.", "preferredTerm": "Milligram per Milliliter per Minute", "submissionValue": "mg/mL/min", "synonyms": ["Milligram per Milliliter per Minute"]}, {"conceptId": "C120843", "definition": "A unit of mass commonly used to express the molar mass of a substance in milligram(s) per mole.", "preferredTerm": "Milligram per Mole", "submissionValue": "mg/mol", "synonyms": ["ug/mmol"]}, {"conceptId": "C122212", "definition": "A unit of mass concentration defined as one square milligram of a substance in unit volume of the mixture equal to one square deciliter.", "preferredTerm": "Square Milligram per Square Deciliter", "submissionValue": "mg2/dL2"}, {"conceptId": "C156468", "definition": "A unit of relative amount of substance concentration equal to one thousandth of a gram of an equivalent weight.", "preferredTerm": "Milligram Equivalent", "submissionValue": "mgEq", "synonyms": ["Milligram Equivalent"]}, {"conceptId": "C67314", "definition": "The SI derived unit of frequency; equal to one million oscillations per second or to 1E6 hertz. (NCI)", "preferredTerm": "Megahertz", "submissionValue": "MHz", "synonyms": ["Megahertz"]}, {"conceptId": "C71183", "definition": "A unit of distance equal to 5280 international feet, 1760 international yards, or 1609.344 meters.(NCI)", "preferredTerm": "Mile", "submissionValue": "Mile", "synonyms": ["International Mile"]}, {"conceptId": "C48154", "definition": "A unit of measurement of time equal to 60 seconds.", "preferredTerm": "Minute", "submissionValue": "min", "synonyms": ["Minute"]}, {"conceptId": "C85729", "definition": "Minutes times milligrams per milliliter (area under the curve).", "preferredTerm": "Minute Times Milligram per Milliliter", "submissionValue": "min*mg/mL"}, {"conceptId": "C176381", "definition": "A unit of measurement equal to the number of minutes within a period of time equal to one day.", "preferredTerm": "Minute per Day", "submissionValue": "min/day", "synonyms": ["Minutes per Day"]}, {"conceptId": "C67405", "definition": "A unit of concentration (biologic activity) equal to one micro-international unit of substance per milliliter of solution or one milli-international unit of substance per liter of solution.", "preferredTerm": "Microinternational Unit per Milliliter", "submissionValue": "mIU/L", "synonyms": ["Micro-International Unit per milliliter", "mIE/L", "mIU/L", "mcIU/mL", "uIU/mL"]}, {"conceptId": "C116241", "definition": "A unit of radiant exposure defined as a unit of energy equal to one millijoule applied to a unit of area equal to one square centimeter.", "preferredTerm": "Millijoules per Square Centimeter", "submissionValue": "mJoule/cm2"}, {"conceptId": "C70507", "definition": "A unit of catalytic activity measurement equal to one thousandth of one katal (1E-3 katal). (NCI)", "preferredTerm": "Millikatal", "submissionValue": "mkat", "synonyms": ["Millikatal"]}, {"conceptId": "C28254", "definition": "A unit of volume equal to one thousandth (1E-3) of a liter.", "preferredTerm": "Milliliter", "submissionValue": "mL", "synonyms": ["Milliliter", "cm3"]}, {"conceptId": "C135521", "definition": "A unit of volume defined as milliliters times centimeter of water.", "preferredTerm": "Milliliter Times Centimeter of Water", "submissionValue": "mL*cmH2O"}, {"conceptId": "C130191", "definition": "A unit of flow rate expressed as the number of milliliters, divided by the number of minutes times a unit of volume equal to 100 milliliters.", "preferredTerm": "Milliliter Per Minute Times One Hundred Milliliters", "submissionValue": "mL/(min*100mL)"}, {"conceptId": "C154855", "definition": "A unit of flow rate expressed as the number of milliliters per 100g of material (e.g., tissue) per minute.", "preferredTerm": "Milliliter per 100 Grams per Minute", "submissionValue": "mL/100g/min"}, {"conceptId": "C73746", "definition": "A unit of measure expressed in milliliter(s) per animal.", "preferredTerm": "Milliliter per Animal", "submissionValue": "mL/animal", "synonyms": ["Milliliter per Animal"]}, {"conceptId": "C73747", "definition": "A unit of measure expressed in milliliter(s) per animal per period of time equal to twenty-four hours.", "preferredTerm": "Milliliter per Animal per Day", "submissionValue": "mL/animal/day", "synonyms": ["Milliliter per Animal per Day"]}, {"conceptId": "C73748", "definition": "A unit of measure expressed in milliliter(s) per animal per period of time equal to seven days.", "preferredTerm": "Milliliter per Animal per Week", "submissionValue": "mL/animal/wk", "synonyms": ["Milliliter per Animal per Week"]}, {"conceptId": "C127808", "definition": "A unit of measure expressed in milliliter(s) per heart beat.", "preferredTerm": "Milliliter per Heartbeat", "submissionValue": "mL/beat"}, {"conceptId": "C73749", "definition": "A unit of measure expressed in milliliter(s) per inspiration or expiration of breath.", "preferredTerm": "Milliliter per Breath", "submissionValue": "mL/breath", "synonyms": ["Milliliter per Breath"]}, {"conceptId": "C73750", "definition": "A unit of measure expressed in milliliter(s) per cage.", "preferredTerm": "Milliliter per Cage", "submissionValue": "mL/cage", "synonyms": ["Milliliter per Cage"]}, {"conceptId": "C73751", "definition": "A unit of measure expressed in milliliter(s) per cage per period of time equal to twenty-four hours.", "preferredTerm": "Milliliter per Cage per Day", "submissionValue": "mL/cage/day", "synonyms": ["Milliliter per Cage per Day"]}, {"conceptId": "C73752", "definition": "A unit of measure expressed in milliliter(s) per cage expressed per period of time equal to seven days.", "preferredTerm": "Milliliter per Cage per Week", "submissionValue": "mL/cage/wk", "synonyms": ["Milliliter per Cage per Week"]}, {"conceptId": "C105503", "definition": "A unit of measure equal to the number of milliliters per unit of length equal to one centimeter. (NCI)", "preferredTerm": "Milliliter per Centimeter", "submissionValue": "mL/cm", "synonyms": ["Milliliter per Centimeter", "dL/m"]}, {"conceptId": "C98755", "definition": "A unit of pressure expressed in milliliter(s) per centimeter of water. (NCI)", "preferredTerm": "Milliliter per Centimeter of Water", "submissionValue": "mL/cm H2O"}, {"conceptId": "C163564", "definition": "A unit of flow rate equal to one milliliter per cubic centimeter per unit of time equal to one minute.", "preferredTerm": "Milliliter per Cubic Centimeter per Minute", "submissionValue": "mL/cm3/min", "synonyms": ["mL/mL/min"]}, {"conceptId": "C67410", "definition": "A unit of flow rate equal to one milliliter per day.", "preferredTerm": "Milliliter per 24 Hours", "submissionValue": "mL/day", "synonyms": ["mL/24h"]}, {"conceptId": "C105504", "definition": "A unit of volume concentration equal to the number of milliliters per unit of volume equal to one deciliter.", "preferredTerm": "Milliliter per Deciliter", "submissionValue": "mL/dL", "synonyms": ["Milliliters per Deciliter"]}, {"conceptId": "C124459", "definition": "A unit of measure expressed in milliliter(s) per dose.", "preferredTerm": "Milliliter per Dose", "submissionValue": "mL/dose"}, {"conceptId": "C73755", "definition": "Milliliters per gram per day or liters per day (flow rate), divided by kilograms (weight) or milliliters per day (flow rate), divided by grams (weight).", "preferredTerm": "Milliliter per Gram per Day", "submissionValue": "mL/g/day", "synonyms": ["(L/day)/kg", "(mL/day)/g", "mL/g/day"]}, {"conceptId": "C73756", "definition": "Milliliters per gram per hour or liters per hour (flow rate), divided by kilograms (weight) or milliliters per hour (flow rate), divided by grams (weight).", "preferredTerm": "Milliliter per Gram per Hour", "submissionValue": "mL/g/h", "synonyms": ["(L/h)/kg", "(mL/h)/g", "mL/g/h"]}, {"conceptId": "C73757", "definition": "Milliliters per gram per minute or liters per minute (flow rate), divided by kilograms (weight) or milliliters per minute (flow rate), divided by grams (weight).", "preferredTerm": "Milliliter per Gram per Minute", "submissionValue": "mL/g/min", "synonyms": ["(L/min)/kg", "(mL/min)/g", "mL/g/min"]}, {"conceptId": "C66962", "definition": "A unit of flow rate equal to one milliliter per hour.", "preferredTerm": "Milliliter per Hour", "submissionValue": "mL/h", "synonyms": ["cc/hr", "cm3/h"]}, {"conceptId": "C67411", "definition": "Milliliters (volume) divided by kilograms (weight).", "preferredTerm": "Milliliter per Kilogram", "submissionValue": "mL/kg"}, {"conceptId": "C73758", "definition": "Milliliters per kilogram per day or milliliters per day (flow rate), divided by kilograms (weight).", "preferredTerm": "Milliliter per Kilogram per Day", "submissionValue": "mL/kg/day", "synonyms": ["(mL/day)/kg", "mL/kg/day"]}, {"conceptId": "C73759", "definition": "Milliliters per kilogram per hour or milliliters per hour (flow rate), divided by kilograms (weight).", "preferredTerm": "Milliliter per Kilogram per Hour", "submissionValue": "mL/kg/h", "synonyms": ["(mL/h)/kg", "mL/kg/h"]}, {"conceptId": "C73760", "definition": "Milliliters per kilogram per minute or milliliters per minute (flow rate), divided by kilograms (weight).", "preferredTerm": "Milliliter per Kilogram per Minute", "submissionValue": "mL/kg/min", "synonyms": ["(mL/min)/kg", "mL/kg/min"]}, {"conceptId": "C73761", "definition": "Milliliters (volume) divided by meters squared (surface area).", "preferredTerm": "Milliliter per Square Meter", "submissionValue": "mL/m2"}, {"conceptId": "C66977", "definition": "A dose calculation unit expressed in milliliter(s) per square meter per period of time equal to twenty-four hours. (NCI)", "preferredTerm": "Milliliter per Square Meter per Day", "submissionValue": "mL/m2/day", "synonyms": ["Milliliter per Square Meter per Day"]}, {"conceptId": "C73762", "definition": "A dose calculation unit expressed in milliliter(s) per square meter per period of time equal to sixty minutes. (NCI)", "preferredTerm": "Milliliter per Square Meter per Hour", "submissionValue": "mL/m2/h", "synonyms": ["Milliliter per Square Meter per Hour"]}, {"conceptId": "C73763", "definition": "A dose calculation unit expressed in milliliter(s) per square meter per period of time equal to sixty seconds. (NCI)", "preferredTerm": "Milliliter per Square Meter per Minute", "submissionValue": "mL/m2/min", "synonyms": ["Milliliter per Square Meter per Minute", "mL/min/m2"]}, {"conceptId": "C64777", "definition": "A unit of flow rate equal to one milliliter per minute.", "preferredTerm": "Milliliter per Minute", "submissionValue": "mL/min"}, {"conceptId": "C67412", "definition": "A metric unit of volumetric flow rate defined as the rate at which one milliliter of matter travels during the period of time equal to one minute per 1.73 meters squared of body surface area.", "preferredTerm": "Milliliter per Minute per 1.73 m2 of Body Surface Area", "submissionValue": "mL/min/1.73m2"}, {"conceptId": "C67417", "definition": "A unit of measure equal to the number of milliliters per unit of time equal to one minute per unit of pressure equal to one milliter of mercury (mmHg).", "preferredTerm": "Milliliter per Minute per Millimeters of Mercury", "submissionValue": "mL/min/mmHg", "synonyms": ["Milliliter per Minute per Torr"]}, {"conceptId": "C106542", "definition": "A unit equal to the volume in milliliters per one millimeter rise of mercury in a barometer at the Earth's surface. (NCI)", "preferredTerm": "Milliliters Per Millimeter of Mercury", "submissionValue": "mL/mmHg", "synonyms": ["Milliliters per Millimeter of Mercury"]}, {"conceptId": "C67418", "definition": "A unit of gas diffusion capacity equal to one milliliter per millimeter of mercury per minute per liter of volume.", "preferredTerm": "Milliliter per Minute per Millimeters of Mercury per Liter", "submissionValue": "mL/mmHg/min/L"}, {"conceptId": "C69073", "definition": "Milliliters per second.", "preferredTerm": "Milliliter per Second", "submissionValue": "mL/s", "synonyms": ["mL/sec"]}, {"conceptId": "C166100", "definition": "A metric unit of volumetric flow rate defined as the rate at which one milliliter of matter travels during the period of time equal to one second per meter squared.", "preferredTerm": "Milliliter Per Second Per Square Meter", "submissionValue": "mL/s/m2", "synonyms": ["mL/sec/m2"]}, {"conceptId": "C105505", "definition": "A metric unit of volumetric flow rate defined as the rate at which one milliliter of matter travels during the period of time equal to one second per 1.73 meters squared of body surface area.", "preferredTerm": "Milliliter Per Second Per 1.73 Meter Squared", "submissionValue": "mL/sec/1.73m2"}, {"conceptId": "C28251", "definition": "A unit of measure equal to one thousandth of a meter. (NCI)", "preferredTerm": "Millimeter", "submissionValue": "mm", "synonyms": ["Millimeter"]}, {"conceptId": "C105509", "definition": "A unit of both speed (scalar) and velocity (vector), defined as the distance of one centimeter travelled per unit time equal to two hours. (NCI)", "preferredTerm": "Millimeter per Two Hours", "submissionValue": "mm/2h", "synonyms": ["Millimeters per Two Hours"]}, {"conceptId": "C67419", "definition": "A unit of both speed (scalar) and velocity (vector), defined as the distance of one millimeter travels per unit time equal to one hour.(NCI)", "preferredTerm": "Millimeter per Hour", "submissionValue": "mm/h", "synonyms": ["Millimeter per Hour"]}, {"conceptId": "C105507", "definition": "A unit of both speed (scalar) and velocity (vector), defined as the distance of one millimeter travelled per unit time equal to one minute. (NCI)", "preferredTerm": "Millimeter Per Minute", "submissionValue": "mm/min", "synonyms": ["Millimeters per Minute"]}, {"conceptId": "C105508", "definition": "A unit of both speed (scalar) and velocity (vector), defined as the distance of one millimeter travelled per unit time equal to one second. (NCI)", "preferredTerm": "Millimeter Per Second", "submissionValue": "mm/sec", "synonyms": ["Millimeters per Second"]}, {"conceptId": "C65104", "definition": "A unit of area measurement equal to a square measuring one millimeter on each side. One square millimeter is equal to 10(E-2) square centimeter and 10(E-6) square meter.(NCI)", "preferredTerm": "Square Millimeter", "submissionValue": "mm2", "synonyms": ["Square Millimeter"]}, {"conceptId": "C126080", "definition": "A unit defined as the volume, in cubic millimeters, per area equal to one square millimeter per unit of time equal to one year.", "preferredTerm": "Cubic Millimeter per Square Millimeter per Year", "submissionValue": "mm3/mm2/year"}, {"conceptId": "C150898", "definition": "A unit defined as the thickness, in millimeters, of aluminum that has the equivalent degree of attenuation, under specified conditions, as the material that is the target of the procedure.", "preferredTerm": "Millimeters of Aluminum Equivalents", "submissionValue": "mmAL", "synonyms": ["Millimeters of Aluminum Equivalents"]}, {"conceptId": "C49670", "definition": "A unit of pressure equal to 0.001316 atmosphere and equal to the pressure indicated by one millimeter rise of mercury in a barometer at the Earth's surface. (NCI)", "preferredTerm": "Millimeter of Mercury", "submissionValue": "mmHg", "synonyms": ["Millimeter of Mercury"]}, {"conceptId": "C150900", "definition": "A unit of resistance equal to the number of millimeters of mercury times minutes, per unit of volume equal to one liter.", "preferredTerm": "Hybrid Resistance Units", "submissionValue": "mmHg*min/L", "synonyms": ["Hybrid Resistance Units", "Wood Units"]}, {"conceptId": "C105506", "definition": "A unit of resistance equal to the number of millimeters of mercury per unit of volume equal to one liter per unit of time equal to one minute.", "preferredTerm": "Millimeter Mercury Per Liter Per Minute", "submissionValue": "mmHg/L/min"}, {"conceptId": "C73764", "definition": "A rate of inflation or deflation of a manometric device based on the unit of pressure equal to 133,332 Pa or 1.316E10-3 standard atmosphere during period of time equal to one sixtieth of a minute. (NCI)", "preferredTerm": "Millimeter of Mercury per Second", "submissionValue": "mmHg/sec", "synonyms": ["Millimeter of Mercury per Second"]}, {"conceptId": "C48513", "definition": "A unit of amount of substance equal to one thousandth (1E-3) of a mole.", "preferredTerm": "Millimole", "submissionValue": "mmol", "synonyms": ["Millimole"]}, {"conceptId": "C67420", "definition": "A unit of substance flow rate equal to one millimole per day.", "preferredTerm": "Millimole per 24 Hours", "submissionValue": "mmol/day", "synonyms": ["mmol/24h"]}, {"conceptId": "C68740", "definition": "A unit amount of substance content (molality unit) defined as one mole of solute per one kilogram of solvent.(NCI)", "preferredTerm": "Mole per Kilogram", "submissionValue": "mmol/g", "synonyms": ["Millimole per Gram"]}, {"conceptId": "C68892", "definition": "A unit of amount of substance content (molality unit) defined as one thousandth of mole (1E-3 mole) of solute per one kilogram of solvent. (NCI)", "preferredTerm": "Millimole per Kilogram", "submissionValue": "mmol/kg", "synonyms": ["Millimole per Kilogram"]}, {"conceptId": "C64387", "definition": "A unit of concentration (molarity unit) equal to one millimole of solute per liter of solution.", "preferredTerm": "Millimole per Liter", "submissionValue": "mmol/L", "synonyms": ["Micromole per Milliliter", "Millimole per Liter", "Mole per Cubic Meter", "mcmol/mL", "mmol/L", "mol/m3", "nmol/uL", "umol/mL"]}, {"conceptId": "C116242", "definition": "A unit of gas diffusion capacity equal to one millimole per minute per kilopascal.", "preferredTerm": "Millimoles per Minute per Kilopascal", "submissionValue": "mmol/min/kPa"}, {"conceptId": "C67423", "definition": "A unit of gas diffusion capacity equal to one millimole per minute per kilopascal per liter of volume.", "preferredTerm": "Millimole per Minute per Thousand Pascal per Liter", "submissionValue": "mmol/min/kPa/L"}, {"conceptId": "C111253", "definition": "A unit of fraction expressed as the ratio of the amount of a substance in solution, in millimoles, to the amount of a different substance in the mixture, in moles.", "preferredTerm": "Millimole per Mole", "submissionValue": "mmol/mol", "synonyms": ["umol/mmol"]}, {"conceptId": "C85723", "definition": "A unit of substance flow rate equal to one millimole per second.", "preferredTerm": "Millimole per Second", "submissionValue": "mmol/s", "synonyms": ["Millimoles per Second", "mmol/sec"]}, {"conceptId": "C122213", "definition": "A unit of concentration (molarity unit) equal to one square millimole of solute per square liter of solution.", "preferredTerm": "Square Millimole per Square Liter", "submissionValue": "mmol2/L2"}, {"conceptId": "C132480", "definition": "A unit of concentration based on the vaccine specific number of titers that are the geometric mean titer at which an individual is considered to convert from a seronegative to a seropositive response due to the vaccine.", "preferredTerm": "MilliMerck Unit per Milliliter", "submissionValue": "mMU/mL", "synonyms": ["MilliMerck Unit per Milliliter"]}, {"conceptId": "C127809", "definition": "A unit of force equal to one thousandth of a Newton.", "preferredTerm": "Millinewton", "submissionValue": "mN", "synonyms": ["Millinewton"]}, {"conceptId": "C163046", "definition": "A unit of measure for the mean fluorescence intensity when the mathematic calculation is unspecified or unknown.", "preferredTerm": "Mean Fluorescence Intensity Unit", "submissionValue": "MnFI", "synonyms": ["MFI", "Mean Fluorescence Intensity Unit"]}, {"conceptId": "C42539", "definition": "The base unit of amount of substance in the International System of Units (SI). It is equal to the same number of elementary units as there are atoms in 0.012 kg of carbon-12.", "preferredTerm": "Mole", "submissionValue": "mol", "synonyms": ["Mole"]}, {"conceptId": "C85737", "definition": "A unit of substance flow rate equal to one mole per day.", "preferredTerm": "Mole per Day", "submissionValue": "mol/day"}, {"conceptId": "C68893", "definition": "A unit of amount of substance content (molality unit) defined as one mole of solute per one gram of solvent.(NCI)", "preferredTerm": "Mole per Gram", "submissionValue": "mol/g", "synonyms": ["mmol/mg"]}, {"conceptId": "C48555", "definition": "A unit of concentration (molarity unit) equal to one mole of solute in one liter of solution.(NCI)", "preferredTerm": "Mole per Liter", "submissionValue": "mol/L", "synonyms": ["Mole per Liter", "mmol/mL", "mol/L"]}, {"conceptId": "C68894", "definition": "A unit of amount of substance content (molality unit) defined as one mole of solute per one milligram of solvent.(NCI)", "preferredTerm": "Mole per Milligram", "submissionValue": "mol/mg", "synonyms": ["Mole per Milligram"]}, {"conceptId": "C68891", "definition": "A unit of concentration (molarity unit) equal to one mole of solute in one milliliter of solution.(NCI)", "preferredTerm": "Mole per Milliliter", "submissionValue": "mol/mL", "synonyms": ["Mole per Milliliter"]}, {"conceptId": "C70455", "definition": "A unit of fraction expressed as the ratio of the amount of substance of solute in moles to the amount of substance of the mixture in moles.(NCI)", "preferredTerm": "Mole per Mole", "submissionValue": "mol/mol", "synonyms": ["Mole per Mole", "mmol/mmol"]}, {"conceptId": "C29846", "definition": "One of the 12 divisions of a year as determined by a calendar. It corresponds to the unit of time of approximately to one cycle of the moon's phases, about 30 days or 4 weeks. (NCI)", "preferredTerm": "Month", "submissionValue": "MONTHS", "synonyms": ["Month"]}, {"conceptId": "C67318", "definition": "A unit of osmotic pressure equal to one thousandth of an osmole or osmotic pressure of 0.001 molar solution of a substance that does not dissociate. (NCI)", "preferredTerm": "Milliosmole", "submissionValue": "mOsm", "synonyms": ["Milliosmole"]}, {"conceptId": "C67427", "definition": "A unit of osmotic pressure equal to one thousandth of an osmole per kilogram substance.", "preferredTerm": "Milliosmole per Kilogram", "submissionValue": "mOsm/kg", "synonyms": ["Milliosmole per Kilogram"]}, {"conceptId": "C122214", "definition": "A unit of osmotic pressure equal to one thousandth of an osmole per unit of volume equal to one Liter.", "preferredTerm": "Milliosmole per Liter", "submissionValue": "mOsm/L"}, {"conceptId": "C73765", "definition": "A SI derived unit of pressure equivalent to one thousandth of one pascal. (NCI)", "preferredTerm": "Millipascal", "submissionValue": "mPa", "synonyms": ["Millipascal"]}, {"conceptId": "C105500", "definition": "A unit of both speed (scalar) and velocity (vector), defined as the distance of one mile travelled per unit time equal to one hour. (NCI)", "preferredTerm": "Mile Per Hour", "submissionValue": "mph", "synonyms": ["Miles per Hour"]}, {"conceptId": "C67348", "definition": "A unit for semiquantitative measurement of IgM autoantibodies to proteins associated with negatively charged phospholipids evaluated against an established reference standard.", "preferredTerm": "IgM Phospholipid Unit", "submissionValue": "MPL U", "synonyms": ["Immunoglobin M Phospholipid Units", "[MPL'U]"]}, {"conceptId": "C117973", "definition": "A unit for semiquantitative measurement of IgM autoantibodies to proteins associated with negatively charged phospholipids evaluated against an established reference standard, per unit of volume equal to one milliliter.", "preferredTerm": "Immunoglobin M Phospholipid Unit per Milliliter", "submissionValue": "MPL U/mL", "synonyms": ["Immunoglobin M Phospholipid Units per Milliliter"]}, {"conceptId": "C161496", "definition": "A unit for semiquantitative measurement of IgM autoantibodies to proteins associated with phosphatidylserine evaluated against an established reference standard. (NCI)", "preferredTerm": "Phosphatidylserine IgM Antibody Unit", "submissionValue": "MPS U", "synonyms": ["Immunoglobin M Phosphatidylserine Units", "Phosphatidylserine IgM Antibody Unit"]}, {"conceptId": "C163565", "definition": "A unit of measure equal to one millisecond per one millimeter of mercury (mmHg).", "preferredTerm": "Millisecond per Millimeter Mercury", "submissionValue": "ms/mmHg"}, {"conceptId": "C161489", "definition": "A unit of time, which is equal to one thousandth of a second squared.", "preferredTerm": "Square Millisecond", "submissionValue": "ms2"}, {"conceptId": "C41140", "definition": "A unit of time, which is equal to one thousandth of a second.(NCI)", "preferredTerm": "Millisecond", "submissionValue": "msec", "synonyms": ["Millisecond"]}, {"conceptId": "C67315", "definition": "A quantity equivalent to one thousandth of a unit (10E-3 unit).", "preferredTerm": "Milliunit", "submissionValue": "mU", "synonyms": ["Milliunit"]}, {"conceptId": "C122215", "definition": "An arbitrary unit of substance content expressed in milliunit(s) per gram.", "preferredTerm": "Milliunit per Gram", "submissionValue": "mU/g"}, {"conceptId": "C67408", "definition": "An arbitrary unit of substance concentration equal to the concentration at which one liter of mixture contains one thousandth of a unit of a substance.", "preferredTerm": "Microunit per Milliliter", "submissionValue": "mU/L", "synonyms": ["uU/mL"]}, {"conceptId": "C67324", "definition": "A unit of electric potential and electromotive force equal to one thousandth of a volt.(NCI)", "preferredTerm": "Millivolt", "submissionValue": "mV", "synonyms": ["Millivolt"]}, {"conceptId": "C105512", "definition": "A SI derived unit of magnetic flux, equal to the flux that produces in a circuit of one turn an electromotive force of one millivolt, when the flux is uniformly reduced to zero within one minute. (NCI)", "preferredTerm": "Millivolt Minute", "submissionValue": "mV*min", "synonyms": ["Millivolt * Minutes"]}, {"conceptId": "C122216", "definition": "A SI derived rate unit equal to one millivolt per unit of time equal to one second.", "preferredTerm": "Millivolt per Second", "submissionValue": "mV/sec", "synonyms": ["uV/msec"]}, {"conceptId": "C114241", "definition": "A unit equal to one thousandth of a volt squared per unit of frequency equal to one Hertz.", "preferredTerm": "Millivolt Squared per Hertz", "submissionValue": "mV2/Hz", "synonyms": ["Millivolt Squared per Hertz", "Millivolt^2/Hertz"]}, {"conceptId": "C67352", "definition": "A unit of radioactivity equal to one billionth of Curie or 37 Becquerels, and corresponding to a radioactivity of 37 atomic disintegrations per second.(NCI)", "preferredTerm": "Nanocurie", "submissionValue": "nCi", "synonyms": ["Nanocurie"]}, {"conceptId": "C71204", "definition": "A unit of measurement based on the nebule dosing unit.(NCI)", "preferredTerm": "Nebule Dosing Unit", "submissionValue": "NEBULE", "synonyms": ["Nebule Dosing Unit"]}, {"conceptId": "C101687", "definition": "A number representing the outer diameter of a needle. (NCI)", "preferredTerm": "Needle Gauge", "submissionValue": "NEEDLE GAUGE"}, {"conceptId": "C42546", "definition": "A unit of force which, when applied in a vacuum to a body having a mass of one kilogram, causes an acceleration of one meter per second squared. It is equal to 1E5 dynes. (NCI)", "preferredTerm": "Newton", "submissionValue": "Newton", "synonyms": ["Newton"]}, {"conceptId": "C154680", "definition": "A relative fluorescence intensity unit that is adjusted to a reference standard. (NCI)", "preferredTerm": "Normalized Fluorescence Intensity Unit", "submissionValue": "NFIU", "synonyms": ["NFIU", "NIU", "Normalized Fluorescence Intensity Unit", "Normalized Intensity Unit"]}, {"conceptId": "C48516", "definition": "A unit of mass equal to one billionth (1E-9) of a gram.", "preferredTerm": "Nanogram", "submissionValue": "ng", "synonyms": ["Nanogram"]}, {"conceptId": "C85741", "definition": "A unit of mass flow rate equal to one nanogram per day.", "preferredTerm": "Nanogram per Day", "submissionValue": "ng/day"}, {"conceptId": "C67326", "definition": "A unit of mass concentration defined as the concentration of one nanogram of a substance in unit volume of the mixture equal to one deciliter. The concept also refers to the unit of mass density (volumic mass) defined as the density of substance which mass equal to one nanogram occupies the volume one deciliter.(NCI)", "preferredTerm": "Nanogram per Deciliter", "submissionValue": "ng/dL", "synonyms": ["Nanogram per Deciliter"]}, {"conceptId": "C67327", "definition": "A unit of concentration or mass density equal to one picogram of substance per milliliter of solution or one nanogram of substance per liter of solution.", "preferredTerm": "Nanogram per Liter", "submissionValue": "ng/L", "synonyms": ["Microgram per Cubic Meter", "ng/L", "pg/mL", "ug/m3"]}, {"conceptId": "C176386", "definition": "A unit of mass commonly used to express the molar mass of a substance in nanogram(s) per mole.", "preferredTerm": "Nanogram per Mole", "submissionValue": "ng/mol", "synonyms": ["fg/umol", "pg/mmol"]}, {"conceptId": "C130192", "definition": "A concentration unit measured as a number of nanogram equivalent of solute per liter of solution.", "preferredTerm": "Nanogram Equivalents Per Liter", "submissionValue": "ngEq/L"}, {"conceptId": "C70508", "definition": "A unit of catalytic activity measurement equal to one billionth of one katal (1E-9 katal). (NCI)", "preferredTerm": "Nanokatal", "submissionValue": "nkat", "synonyms": ["Nanokatal"]}, {"conceptId": "C176383", "definition": "A unit of catalytic activity equal to one billionth of one katal (10E-9 katal) per gram of hemoglobin.", "preferredTerm": "Nanokatal per Gram Hemoglobin", "submissionValue": "nkat/g Hb", "synonyms": ["Nanokatals per Gram Hemoglobin"]}, {"conceptId": "C70510", "definition": "A unit of catalytic activity concentration defined as the catalytic activity of the component equal to one billionth of one katal (1E-9 katal) in the unit volume of the system equal to one liter. (NCI)", "preferredTerm": "Nanokatal per Liter", "submissionValue": "nkat/L", "synonyms": ["Nanokatal per Liter"]}, {"conceptId": "C69188", "definition": "A unit of volume equal to one billionth of a liter (1E-9 liter). (NCI)", "preferredTerm": "Nanoliter", "submissionValue": "nL", "synonyms": ["Nanoliter"]}, {"conceptId": "C67328", "definition": "A unit of length equal to one billionth of a meter (1E-9 meter). Nanometer is used as a unit for light wavelength measurement. (NCI)", "preferredTerm": "Nanometer", "submissionValue": "nm", "synonyms": ["Nanometer"]}, {"conceptId": "C48517", "definition": "A unit of amount of substance equal to one billionth (1E-9) of a mole. (NCI)", "preferredTerm": "Nanomole", "submissionValue": "nmol", "synonyms": ["Nanomole"]}, {"conceptId": "C117974", "definition": "A unit of relative amount of substance concentration equal to nanomoles of bone collagen equivalent weight per unit of volume equal to one liter.", "preferredTerm": "Nanomole Bone Collagen Equivalent per Liter", "submissionValue": "nmol BCE/L", "synonyms": ["Nanomoles Bone Collagen Equivalents per Liter"]}, {"conceptId": "C118137", "definition": "A unit of relative amount of substance concentration equal to nanomoles of bone collagen equivalent weight per unit of substance concentration equal to one millimole.", "preferredTerm": "Nanomole Bone Collagen Equivalent per Millimole", "submissionValue": "nmol BCE/mmol", "synonyms": ["Nanomoles Bone Collagen Equivalents per Millimole"]}, {"conceptId": "C122217", "definition": "A unit of relative amount of substance concentration equal to nanomoles of bone collagen equivalent weight per unit of substance concentration equal to one nanomole.", "preferredTerm": "Nanomole Bone Collagen Equivalents per Nanomole", "submissionValue": "nmol BCE/nmol", "synonyms": ["Nanomoles Bone Collagen Equivalents per Nanomole"]}, {"conceptId": "C85751", "definition": "A unit of substance flow rate equal to one nanomole per day.", "preferredTerm": "Nanomole per Day", "submissionValue": "nmol/day"}, {"conceptId": "C85752", "definition": "Nanomoles per gram.", "preferredTerm": "Nanomole per Gram", "submissionValue": "nmol/g", "synonyms": ["nmol/g", "pmol/mg", "umol/kg"]}, {"conceptId": "C176379", "definition": "A dose calculation unit expressed in nanomole(s) per kilogram per period of time equal to twenty-four hours.", "preferredTerm": "Nanomole per Kilogram per Day", "submissionValue": "nmol/kg/day", "synonyms": ["pmol/g/day"]}, {"conceptId": "C67432", "definition": "A unit of concentration (molarity unit) equal to one nanomole of solute per liter of solution.", "preferredTerm": "Nanomole per Liter", "submissionValue": "nmol/L", "synonyms": ["Nanomole per Liter", "pmol/mL"]}, {"conceptId": "C122218", "definition": "A rate unit expressed in nanomole(s) per liter of solution per period of time equal to sixty minutes.", "preferredTerm": "Nanomole per Liter per Hour", "submissionValue": "nmol/L/h", "synonyms": ["pmol/mL/h"]}, {"conceptId": "C122219", "definition": "A rate unit equal to the number of nanomoles per unit of volume equal to one liter per unit of time equal to one minute.", "preferredTerm": "Nanomole per Liter per Minute", "submissionValue": "nmol/L/min", "synonyms": ["nmol*min/L", "pmol/mL/min"]}, {"conceptId": "C92613", "definition": "A unit of concentration (molarity unit) equal to one billionth of a mole (1E-9 mole) of solute in one milliliter of solution to be administered per minute of time.", "preferredTerm": "Nanomole per Minute per Milliliter", "submissionValue": "nmol/mL/min", "synonyms": ["Nanomole per Milliliter per Minute"]}, {"conceptId": "C122220", "definition": "A unit of fraction expressed as the ratio of the amount of a substance in solution, in nanomoles, to the amount of a different substance in the mixture, in moles.", "preferredTerm": "Nanomole per Mole", "submissionValue": "nmol/mol", "synonyms": ["pmol/mmol"]}, {"conceptId": "C73767", "definition": "A unit of time equal to one billionth of a second. (NCI)", "preferredTerm": "Nanosecond", "submissionValue": "nsec", "synonyms": ["Nanosecond"]}, {"conceptId": "C105513", "definition": "An arbitrary unit of substance content expressed in nanounit(s) per centiliter. (NCI)", "preferredTerm": "Nanounit Per Centiliter", "submissionValue": "nU/cL", "synonyms": ["Nanounit per Centiliter"]}, {"conceptId": "C73681", "definition": "A unit of optical density expressed as the degree of absorption of light at a specified wavelength by a solution or suspension.", "preferredTerm": "Unit of Optical Density", "submissionValue": "OD Unit", "synonyms": ["OD", "OD_Unit", "Optical Density Unit"]}, {"conceptId": "C42554", "definition": "A unit of electrical resistance equal to the resistance between two points on a conductor when a potential difference of one volt between them produces a current of one Ampere. Ohm is also used to measure impedance and reactance for complex resistance. A measurement in ohms is the reciprocal of a measurement in Siemens. (NCI)", "preferredTerm": "Ohm", "submissionValue": "ohm", "synonyms": ["Ohm"]}, {"conceptId": "C130193", "definition": "A potency unit equal to the dilution of serum that causes opsonization and phagocytosis of 50% of the bacteria in a sample. (NCI)", "preferredTerm": "Opsonization Index 50%", "submissionValue": "OI50", "synonyms": ["Opsonization Index 50%"]}, {"conceptId": "C67330", "definition": "A unit of osmotic pressure equal to that of an ideal solution of a nondissociating substance that has a concentration of one mole of solute per liter of solution.(NCI)", "preferredTerm": "Osmole", "submissionValue": "Osm", "synonyms": ["Osmole"]}, {"conceptId": "C48519", "definition": "A unit of mass, the avoirdupois ounce is equal to 1/16 pound, or 28.3495 grams, or 0.911 457 troy ounce.(NCI)", "preferredTerm": "Ounce", "submissionValue": "oz", "synonyms": ["Ounce"]}, {"conceptId": "C172605", "definition": "A unit of relative amount of a substance equal to one ounce.", "preferredTerm": "Ounce Equivalent", "submissionValue": "oz eq", "synonyms": ["Ounce Equivalent", "oz-eq"]}, {"conceptId": "C154857", "definition": "A unit of dynamic viscosity equal to one pascal-second.", "preferredTerm": "Poise", "submissionValue": "P", "synonyms": ["Poise"]}, {"conceptId": "C74924", "definition": "A frequency rate of occurrences of something within a period of time equal to three hundred sixty-five days.", "preferredTerm": "Per Year", "submissionValue": "PA", "synonyms": ["/Year", "Every Year", "Per Annum", "Per Year"]}, {"conceptId": "C42547", "definition": "A unit of pressure equivalent to one Newton per square meter or 10 bars or to 1.45x10(E-4) pounds per square inch.(NCI)", "preferredTerm": "Pascal", "submissionValue": "Pa", "synonyms": ["Pascal"]}, {"conceptId": "C62653", "definition": "A number of individual items packaged as a unit.", "preferredTerm": "Pack Dosage Form", "submissionValue": "PACK"}, {"conceptId": "C73993", "definition": "A quantification of lifetime tobacco exposure defined as (number of cigarettes smoked per day x number of years smoked)/20. One pack-year is smoking 20 cigarettes a day for one year.", "preferredTerm": "Pack Year", "submissionValue": "Pack Year"}, {"conceptId": "C48520", "definition": "A dosing measurement based on the package unit.(NCI)", "preferredTerm": "Package Dosing Unit", "submissionValue": "PACKAGE", "synonyms": ["Pack Dosing Unit", "Package Dosing Unit"]}, {"conceptId": "C48521", "definition": "A dosing measurement based on the packet unit.(NCI)", "preferredTerm": "Packet Dosing Unit", "submissionValue": "PACKET", "synonyms": ["Packet Dosing Unit"]}, {"conceptId": "C48524", "definition": "A dosing measurement based on the patch unit.(NCI)", "preferredTerm": "Patch Dosing Unit", "submissionValue": "PATCH", "synonyms": ["Patch Dosing Unit"]}, {"conceptId": "C48525", "definition": "A dosing measurement based on the pellet unit.(NCI)", "preferredTerm": "Pellet Dosing Unit", "submissionValue": "PELLET", "synonyms": ["Pellet Dosing Unit"]}, {"conceptId": "C67264", "definition": "A measure of viable infectious entities (e.g. viral particle or group of particles) in the specimen or product defined as the smallest quantity that can produce a cytopathic effect in the host cell culture challenged with the defined inoculum, visible under the microscope or/and to the naked eye as a plaque. A number of plaque forming units (PFU) per unit volume is a conventional way to refer the titer of an infective entity in a specimen or preparation.(NCI)", "preferredTerm": "Plaque Forming Unit", "submissionValue": "PFU", "synonyms": ["Plaque Forming Unit"]}, {"conceptId": "C122221", "definition": "A unit of measure expressed in plaque forming unit(s) per animal.", "preferredTerm": "Plaque Forming Units per Animal", "submissionValue": "PFU/animal"}, {"conceptId": "C71198", "definition": "A unit of potency of a biological product expressed as a quantity of viable infectious entities capable to produce a cytopathic effect in the appropriate cell culture per a single dose of the preparation.(NCI)", "preferredTerm": "Plaque Forming Unit per Dose", "submissionValue": "PFU/dose", "synonyms": ["Plaque Forming Unit per Dose"]}, {"conceptId": "C71199", "definition": "A unit of potency of a biological product expressed as a quantity of viable infectious entities capable to produce a cytopathic effect in the appropriate cell culture per one milliliter of the preparation.(NCI)", "preferredTerm": "Plaque Forming Unit per Milliliter", "submissionValue": "PFU/mL", "synonyms": ["Plaque Forming Unit per Milliliter"]}, {"conceptId": "C64551", "definition": "A unit of mass equal to one trillionth of a gram (1E-12 gram). (NCI)", "preferredTerm": "Picogram", "submissionValue": "pg", "synonyms": ["Picogram"]}, {"conceptId": "C176377", "definition": "A unit of mass equal to one trillionth of a gram (1E-12 gram) per cell.", "preferredTerm": "Picogram Per Cell", "submissionValue": "pg/cell"}, {"conceptId": "C67331", "definition": "Picograms per deciliter.", "preferredTerm": "Picogram per Deciliter", "submissionValue": "pg/dL", "synonyms": ["Picogram per Deciliter"]}, {"conceptId": "C85597", "definition": "A unit of concentration or mass density equal to one femtogram of substance per milliliter of solution or one picogram of substance per liter of solution.", "preferredTerm": "Femtogram per Milliliter", "submissionValue": "pg/L", "synonyms": ["fg/mL", "pg/L"]}, {"conceptId": "C127810", "definition": "An arbitrary unit of substance concentration equal to the yield from a blood pheresis procedure.", "preferredTerm": "Pheresis Unit", "submissionValue": "PHERESIS UNIT"}, {"conceptId": "C116246", "definition": "A dosing measurement based on the pipe unit.", "preferredTerm": "Pipe Dosing Unit", "submissionValue": "PIPE", "synonyms": ["Pipe Dosing Unit"]}, {"conceptId": "C48367", "definition": "The smallest resolvable rectangular area of an image, either on a screen or stored in memory. (NCI)", "preferredTerm": "Pixel", "submissionValue": "PIXEL"}, {"conceptId": "C114238", "definition": "A unit of image resolution expressed in the numbers of pixels per centimeter in the horizontal or vertical direction.", "preferredTerm": "Pixels per Centimeter", "submissionValue": "PIXELS/cm", "synonyms": ["PPCM", "Pixels per Centimeter"]}, {"conceptId": "C114239", "definition": "A unit of image resolution expressed in the numbers of pixels per inch in the horizontal or vertical direction.", "preferredTerm": "Pixels per Inch", "submissionValue": "PIXELS/in", "synonyms": ["PPI", "Pixels per Inch"]}, {"conceptId": "C70509", "definition": "A unit of catalytic activity measurement equal to trillionth of one katal (1E-12 katal). (NCI)", "preferredTerm": "Picokatal", "submissionValue": "pkat", "synonyms": ["Picokatal"]}, {"conceptId": "C122222", "definition": "Unit of catalytic activity concentration defined as activity equal to a picokatal per one liter of the system volume.", "preferredTerm": "Picokatal per Liter", "submissionValue": "pkat/L", "synonyms": ["Picokatal per Liter"]}, {"conceptId": "C69189", "definition": "A unit of volume equal to one trillionth of a liter (1E-12 liter). (NCI)", "preferredTerm": "Picoliter", "submissionValue": "pL", "synonyms": ["Picoliter"]}, {"conceptId": "C149763", "definition": "A dosing measurement based on the plug unit.", "preferredTerm": "Plug Dosing Unit", "submissionValue": "PLUG", "synonyms": ["Plug Dosing Unit"]}, {"conceptId": "C69148", "definition": "A unit of length equal to one trillionth of a meter (1E-12 meter). (NCI)", "preferredTerm": "Picometer", "submissionValue": "pm", "synonyms": ["Picometer"]}, {"conceptId": "C65045", "definition": "A unit of amount of substance equal to a trillionth (1E-12) of a mole. (NCI)", "preferredTerm": "Picomole", "submissionValue": "pmol", "synonyms": ["Picomole"]}, {"conceptId": "C122223", "definition": "A unit of concentration (molarity unit) equal to one picomole of substance per 10^10 cells.", "preferredTerm": "Picomole per Ten Billion Cells", "submissionValue": "pmol/10^10 cells"}, {"conceptId": "C122224", "definition": "A unit of concentration (molarity unit) equal to one picomole of substance per 10^9 cells.", "preferredTerm": "Picomole per Billion Cells", "submissionValue": "pmol/10^9 cells"}, {"conceptId": "C122225", "definition": "A unit of substance flow rate equal to one picomole per day.", "preferredTerm": "Picomole per Day", "submissionValue": "pmol/day"}, {"conceptId": "C122226", "definition": "A unit of concentration (molarity unit) equal to one picomole of solute per deciliter of solution.", "preferredTerm": "Picomole per Deciliter", "submissionValue": "pmol/dL", "synonyms": ["Picomoles per Deciliter"]}, {"conceptId": "C85754", "definition": "Nanomoles (amount), divided by kilograms (weight) or picomoles per gram.", "preferredTerm": "Nanomole per Kilogram", "submissionValue": "pmol/g", "synonyms": ["nmol/kg", "pmol/g"]}, {"conceptId": "C67434", "definition": "A unit of concentration (molarity unit) equal to one picomole of solute per liter of solution.", "preferredTerm": "Picomole per Liter", "submissionValue": "pmol/L", "synonyms": ["Femtomole per Milliliter", "Picomole per Liter", "fmol/mL"]}, {"conceptId": "C122227", "definition": "A rate unit expressed in picomole(s) per liter of solution per period of time equal to sixty minutes.", "preferredTerm": "Picomole per Liter per Hour", "submissionValue": "pmol/L/h", "synonyms": ["Picomoles per Liter per Hour"]}, {"conceptId": "C116236", "definition": "Unit of measure of potency of an allergenic product expressed as a number of protein nitrogen units per one milliliter of formulation.", "preferredTerm": "Allergenic Protein Nitrogen Unit per Milliliter", "submissionValue": "PNU/mL", "synonyms": ["Protein Nitrogen Unit per Milliliter"]}, {"conceptId": "C113499", "definition": "A numeric unit used to quantify a score.", "preferredTerm": "Point", "submissionValue": "POINT"}, {"conceptId": "C48530", "definition": "A dosing measurement based on the pouch unit.(NCI)", "preferredTerm": "Pouch Dosing Unit", "submissionValue": "POUCH", "synonyms": ["Pouch Dosing Unit"]}, {"conceptId": "C70565", "definition": "A unit of measure referring to one entity counted per one billion entities.(NCI)", "preferredTerm": "Part Per Billion", "submissionValue": "ppb", "synonyms": ["Part per Billion"]}, {"conceptId": "C48523", "definition": "A unit of measurement referring to one entity counted per one million entities.(NCI)", "preferredTerm": "Part Per Million", "submissionValue": "ppm", "synonyms": ["Part per Million"]}, {"conceptId": "C69112", "definition": "A unit of proportion equal to 1E-3. (NCI)", "preferredTerm": "Part per Thousand", "submissionValue": "ppth", "synonyms": ["Part per Thousand", "per mil", "per mille", "permil"]}, {"conceptId": "C70566", "definition": "A unit of measure referring to one entity counted per one trillion entities.(NCI)", "preferredTerm": "Part Per Trillion", "submissionValue": "pptr", "synonyms": ["Parts per Trillion"]}, {"conceptId": "C48532", "definition": "A dosing measurement based on the pressor unit.(NCI)", "preferredTerm": "Pressor Unit", "submissionValue": "PRESSOR UNITS", "synonyms": ["Pressor Unit"]}, {"conceptId": "C73768", "definition": "A unit of time equal to one trillionth of a second. (NCI)", "preferredTerm": "Picosecond", "submissionValue": "psec", "synonyms": ["Picosecond"]}, {"conceptId": "C67334", "definition": "A unit of pressure equivalent to 6.894757 kilopascals, or 703.0696 kilograms per square meter, or 51.71507 millimeters of mercury.(NCI)", "preferredTerm": "Pound per Square Inch", "submissionValue": "psi", "synonyms": ["Pounds per Square Inch"]}, {"conceptId": "C69114", "definition": "A traditional unit of volume equal to 20 British fluid ounces, 34.678 cubic inches or approximately 568.261 milliliters.", "preferredTerm": "Pint British", "submissionValue": "pt_br", "synonyms": ["British Pint", "Imperial Pint"]}, {"conceptId": "C48529", "definition": "A United States liquid unit equal to 16 US fluid ounces or 28.875 cubic inches or approximately 473.177 milliliters.", "preferredTerm": "Pint", "submissionValue": "pt_us", "synonyms": ["US Pint"]}, {"conceptId": "C65060", "definition": "A means of delivering a defined dose of a therapeutic aerolized solution into either the upper or lower respiratory tract. Metered-dose inhalers or spray pumps are devices that provide a puff dose for delivery into either the oral or the nasal cavity.(NCI)", "preferredTerm": "Puff Dosing Unit", "submissionValue": "PUFF", "synonyms": ["Puff Dosing Unit"]}, {"conceptId": "C48590", "definition": "A quantity of an ingredient or product needed to bring up a volume or weight of the preparation to a final amount as it is indicated in the prescription; also refers to a determination of an adequate supply of medicine to fulfill either a prescribed amount or a sufficient quantity to provide treatment over a specified time frame.(NCI)", "preferredTerm": "Quantity Sufficient", "submissionValue": "QUANTITY SUFFICIENT", "synonyms": ["Quantity Sufficient"]}, {"conceptId": "C18064", "definition": "The special unit for absorbed radiation dose, which is the amount of energy from any type of ionizing radiation (e.g., alpha, beta, gamma, neutrons, etc.) deposited in any medium (e.g., water, tissue, air). A dose of one rad means the absorption of 100 ergs per gram of absorbing tissue. One rad is equal to 0.01 gray.(NCI)", "preferredTerm": "Rad", "submissionValue": "Rad", "synonyms": ["Rad"]}, {"conceptId": "C44256", "definition": "The quotient of one quantity divided by another, with the same units of measurement.", "preferredTerm": "Ratio", "submissionValue": "RATIO"}, {"conceptId": "C77535", "definition": "An arbitrary unit used to measure the intensity of the emitted fluorescent light in a sample; it is dependent on instrument and measurement parameters.", "preferredTerm": "Relative Fluorescence Intensity Unit", "submissionValue": "RFU", "synonyms": ["RFIU", "RIU", "Relative Fluorescence Intensity Unit", "Relative Fluorescence Unit", "Relative Intensity Unit"]}, {"conceptId": "C62609", "definition": "A dosing measurement based on the ring unit.(NCI)", "preferredTerm": "Ring Dosing Unit", "submissionValue": "RING", "synonyms": ["Ring Dosing Unit"]}, {"conceptId": "C67441", "definition": "The unit of concentration of Ribonucleic Acid (RNA) copies expressed as a number of copies in unit volume equal to one milliliter.(NCI)", "preferredTerm": "RNA Copy per Milliliter", "submissionValue": "RNA copies/mL", "synonyms": ["RNA Copies per Milliliter"]}, {"conceptId": "C70575", "definition": "A unit of exposure to ionizing radiation. One Roentgen is the amount of gamma or x-rays required to produce ions resulting in a charge of 2.58E-4 Coulombs/kilogram of air under standard conditions.(NCI)", "preferredTerm": "Roentgen", "submissionValue": "Roentgen", "synonyms": ["Roentgen"]}, {"conceptId": "C70469", "definition": "A unit of frequency equal to one revolution per unit of time equal to one minute.(NCI)", "preferredTerm": "Revolution per Minute", "submissionValue": "rpm", "synonyms": ["Revolution per Minute"]}, {"conceptId": "C139132", "definition": "A unit of resistance equal to one second times one kilopascal.", "preferredTerm": "Second Times Kilopascal", "submissionValue": "s*kPa"}, {"conceptId": "C150899", "definition": "A rate unit expressed in seconds per period of time equal to sixty minutes.", "preferredTerm": "Seconds Per Hour", "submissionValue": "s/h", "synonyms": ["Seconds per Hour", "sec/hr"]}, {"conceptId": "C130194", "definition": "A unit of oxygen transfer function expressed as the reciprocal of time in seconds, times the reciprocal of oxygen concentration.", "preferredTerm": "Reciprocal of Seconds Times Percent O2 Concentration", "submissionValue": "s^-1(%O2)^-1"}, {"conceptId": "C71324", "definition": "A dosing unit that contains a solid pharmaceutical preparation in the form of a small packet or bag made from a flexible, often porous material.(NCI)", "preferredTerm": "Sachet Dosing Unit", "submissionValue": "SACHET", "synonyms": ["Sachet dosing unit"]}, {"conceptId": "C116233", "definition": "Unit of measure of potency of allergenic product expressed as a number of standardized biological units per one milliliter of formulation.", "preferredTerm": "Standardized Allergy Biological Unit per Milliliter", "submissionValue": "SBE/mL", "synonyms": ["Standardized Biological Unit per Milliliter"]}, {"conceptId": "C68858", "definition": "A unit used in physical chemistry to express the amount of substance of an ideal gas in one cubic meter at standard conditions: temperature 273.15 K and pressure of one atmosphere (101.325 kilopascals).(NCI)", "preferredTerm": "Standard Cubic Meter", "submissionValue": "scm", "synonyms": ["Standard Cubic Meter"]}, {"conceptId": "C48536", "definition": "A dosing measurement based on the scoopful unit.(NCI)", "preferredTerm": "Scoopful Dosing Unit", "submissionValue": "SCOOPFUL", "synonyms": ["Scoopful Dosing Unit"]}, {"conceptId": "C42535", "definition": "The base unit of time in the International System of Units (SI) equal to the duration of 9,192,631,770 periods of the specified light radiation corresponding to the transition between the two hyperfine levels of the cesium 133 atom in its ground state at 0 K.", "preferredTerm": "Second", "submissionValue": "sec", "synonyms": ["Second"]}, {"conceptId": "C120850", "definition": "A unit of activity of cell-mediated immunity expressed as a quantity of spot forming cells per million peripheral blood mononuclear cells.", "preferredTerm": "Spot Forming Units Per Million Peripheral Blood Mononuclear Cells", "submissionValue": "SFC/10^6 PBMC", "synonyms": ["SFU/10^6 PBMC", "Spots/10^6 PBMC"]}, {"conceptId": "C112433", "definition": "A dosing measurement based on the shock wave unit.", "preferredTerm": "Shockwave Dosing Unit", "submissionValue": "Shock Wave", "synonyms": ["Shockwave Dosing Unit"]}, {"conceptId": "C42555", "definition": "A unit of electrical conductance, admittance, and susceptance. A conductor has a conductance of one Siemens if an electrical potential difference of one volt produces a one Ampere current in it. The conductance in Siemens is the reciprocal of its resistance in ohms.(NCI)", "preferredTerm": "Siemens", "submissionValue": "Siemens", "synonyms": ["Siemens"]}, {"conceptId": "C48537", "definition": "A dosing measurement based on the spray unit.(NCI)", "preferredTerm": "Spray Dosing Unit", "submissionValue": "SPRAY", "synonyms": ["Spray Dosing Unit"]}, {"conceptId": "C116234", "definition": "Unit of measure of potency of allergenic product expressed as a number of standardized quality units per one milliliter of formulation.", "preferredTerm": "Standardized Allergy Quality Unit per Milliliter", "submissionValue": "SQU/mL", "synonyms": ["Standardized Quality Unit per Milliliter"]}, {"conceptId": "C111318", "definition": "A unit of measure to quantify the number of strides taken during a normal walking gait.", "preferredTerm": "Step Unit of Distance", "submissionValue": "STEPS"}, {"conceptId": "C166101", "definition": "The number of steps, picking up one foot and putting it back down, occurring within a minute unit of time.", "preferredTerm": "Steps Per Minute", "submissionValue": "steps/min"}, {"conceptId": "C48538", "definition": "A dosing measurement based on the strip unit.(NCI)", "preferredTerm": "Strip Dosing Unit", "submissionValue": "STRIP", "synonyms": ["Strip Dosing Unit"]}, {"conceptId": "C48539", "definition": "A dosing measurement based on the suppository unit.(NCI)", "preferredTerm": "Suppository Dosing Unit", "submissionValue": "SUPPOSITORY", "synonyms": ["Suppository Dosing Unit"]}, {"conceptId": "C42553", "definition": "A unit of equivalent radiation dose. One Sv is received when the actual absorbed dose of ionizing radiation, after being multiplied by the dimensionless factors Q (the relative biological efficiency or quality factor) and N (the product of any other multiplying factors that takes into account the distribution of energy throughout the dose), is one joule per kilogram. In this scheme, the relationship between the absorbed dose of radiation D and the dose equivalent H is, therefore, given by H = QND. Both Q and N are stipulated by the International Commission on Radiological Protection. One Sv is equal to 100 rem.(NCI)", "preferredTerm": "Sievert", "submissionValue": "Sv", "synonyms": ["Sievert"]}, {"conceptId": "C48540", "definition": "A dosing measurement based on the syringe unit.(NCI)", "preferredTerm": "Syringe Dosing Unit", "submissionValue": "SYRINGE", "synonyms": ["Syringe Dosing Unit"]}, {"conceptId": "C48542", "definition": "A dosing measurement based on the tablet unit.(NCI)", "preferredTerm": "Tablet Dosing Unit", "submissionValue": "TABLET", "synonyms": ["Tablet Dosing Unit", "tab"]}, {"conceptId": "C48543", "definition": "A dosing measurement based on the tampon unit.(NCI)", "preferredTerm": "Tampon Dosing Unit", "submissionValue": "TAMPON", "synonyms": ["Tampon Dosing Unit"]}, {"conceptId": "C48541", "definition": "A unit of volume informally used in pharmacy. The tablespoon has been standardized at 15 milliliters in US, Britain, Canada, and New Zealand, and at 20 milliliters in Australia and some European countries.(NCI)", "preferredTerm": "Tablespoon Dosing Unit", "submissionValue": "Tbsp", "synonyms": ["Tablespoon Dosing Unit"]}, {"conceptId": "C70537", "definition": "A potency unit equal to the potency at which one dose of preparation contains one 50 percent tissue culture infective dose.(NCI)", "preferredTerm": "50 Percent Tissue Culture Infective Dose per Dose", "submissionValue": "TCID 50/dose", "synonyms": ["50 Percent Tissue Culture Infective Dose per Dose"]}, {"conceptId": "C42557", "definition": "A unit of magnetic flux density equal to the magnitude of the magnetic field vector necessary to produce a force of one Newton on a charge of one coulomb moving perpendicular to the direction of the magnetic field vector with a velocity of one meter per second. It is equivalent to one Weber per square meter.(NCI)", "preferredTerm": "Tesla", "submissionValue": "Tesla", "synonyms": ["Tesla"]}, {"conceptId": "C67454", "definition": "Concentration of a substance in a solution as determined by the quantitative reaction with added measured volume(s) of a solution of the precisely known concentration(s) of a standard reagent.", "preferredTerm": "Titer", "submissionValue": "titer"}, {"conceptId": "C112423", "definition": "A non-SI manometric unit of pressure equal to 1/760 of a standard atmosphere (a standard atmosphere being defined as equal to 101325 pascals). One Torr is equal to 133.3223684 pascals.", "preferredTerm": "Torr", "submissionValue": "Torr", "synonyms": ["Torr"]}, {"conceptId": "C48547", "definition": "An extremely small amount.(NCI)", "preferredTerm": "Trace Dosing Unit", "submissionValue": "TRACE", "synonyms": ["Trace Dosing Unit"]}, {"conceptId": "C124460", "definition": "A unit of biological activity described as the number of viral particles in solution that are capable of infecting a cell and stimulating expression of a transgene.", "preferredTerm": "Transducing Unit", "submissionValue": "TRANSDUCING UNIT"}, {"conceptId": "C124461", "definition": "Unit of measure of potency expressed as a number of transducing units per one milliliter of solution.", "preferredTerm": "Transducing Unit per Milliliter", "submissionValue": "TRANSDUCING UNIT/mL"}, {"conceptId": "C48548", "definition": "A dosing measurement based on the troche unit.(NCI)", "preferredTerm": "Troche Dosing Unit", "submissionValue": "TROCHE", "synonyms": ["Troche Dosing Unit"]}, {"conceptId": "C48544", "definition": "A unit of volume used in pharmacy equal to 5 milliliters.(NCI)", "preferredTerm": "Teaspoon Dosing Unit", "submissionValue": "tsp", "synonyms": ["Teaspoon Dosing Unit"]}, {"conceptId": "C172603", "definition": "A unit of relative amount of a substance equal to one teaspoon.", "preferredTerm": "Teaspoon Equivalent", "submissionValue": "tsp eq", "synonyms": ["Teaspoon Equivalent", "tsp-eq"]}, {"conceptId": "C48549", "definition": "A dosing measurement based on the tube unit.(NCI)", "preferredTerm": "Tube Dosing Unit", "submissionValue": "TUBE", "synonyms": ["Tube Dosing Unit"]}, {"conceptId": "C65132", "definition": "An arbitrary unit of tuberculin dosage defined by comparison of clinical response with a preparation of the purified protein derivative standardized for use in humans for tuberculin skin test reaction.(NCI)", "preferredTerm": "Tuberculin Unit", "submissionValue": "tuberculin unit", "synonyms": ["Tuberculin Unit"]}, {"conceptId": "C70506", "definition": "A unit of biologic activity of tuberculin expressed as a number of arbitrary units of tuberculin in one milliliter of preparation.(NCI)", "preferredTerm": "Tuberculin Unit per Milliliter", "submissionValue": "tuberculin unit/mL", "synonyms": ["Tuberculin Unit per Milliliter"]}, {"conceptId": "C44278", "definition": "A single undivided thing occurring in the composition of something else; a unit representing equivalence with a reference measurement.", "preferredTerm": "Unit", "submissionValue": "U", "synonyms": ["Unit"]}, {"conceptId": "C120851", "definition": "An arbitrary unit of substance concentration expressed in milligrams per a volume of hydrogen peroxide. One Carratelli unit is equal to 0.8mg substance per liter of hydrogen peroxide.", "preferredTerm": "Carratelli Unit", "submissionValue": "U.CARR", "synonyms": ["CARR U", "Carratelli Unit"]}, {"conceptId": "C122228", "definition": "A unit of substance content expressed in units of biological activity per 10^12 red blood cells.", "preferredTerm": "Unit per Trillion Red Blood Cells", "submissionValue": "U/10^12 RBC"}, {"conceptId": "C73773", "definition": "A dosing unit expressed in unit(s) per animal.", "preferredTerm": "Unit per Animal", "submissionValue": "U/animal", "synonyms": ["Unit per Animal"]}, {"conceptId": "C105520", "definition": "A unit of substance content expressed in unit(s) per centiliter.", "preferredTerm": "Unit Per Centiliter", "submissionValue": "U/cL", "synonyms": ["Unit per Centiliter"]}, {"conceptId": "C105521", "definition": "A unit of substance content expressed in unit(s) per deciliter.", "preferredTerm": "Unit Per Deciliter", "submissionValue": "U/dL", "synonyms": ["Unit per Deciliter"]}, {"conceptId": "C77606", "definition": "A unit of substance content expressed in unit(s) per gram.", "preferredTerm": "Unit per Gram", "submissionValue": "U/g", "synonyms": ["Unit per Gram"]}, {"conceptId": "C105522", "definition": "A unit of concentration (biologic activity) equal to one unit of substance per gram of hemoglobin.", "preferredTerm": "Unit Per Gram Hemoglobin", "submissionValue": "U/g Hb"}, {"conceptId": "C73774", "definition": "A unit of substance rate expressed in unit(s) per gram per period of time equal to twenty-four hours.", "preferredTerm": "Unit per Gram per Day", "submissionValue": "U/g/day", "synonyms": ["Unit per Gram per Day"]}, {"conceptId": "C73775", "definition": "A unit of substance rate expressed in unit(s) per gram per period of time equal to sixty minutes.", "preferredTerm": "Unit per Gram per Hour", "submissionValue": "U/g/h", "synonyms": ["Unit per Gram per Hour"]}, {"conceptId": "C73776", "definition": "A unit of substance rate expressed in unit(s) per gram per period of time equal to sixty seconds.", "preferredTerm": "Unit per Gram per Minute", "submissionValue": "U/g/min", "synonyms": ["Unit per Gram per Minute"]}, {"conceptId": "C67465", "definition": "A unit of substance content expressed in units of biological activity per unit of mass equal to one kilogram. Unit per kilogram is also used as a dose calculation unit expressed in arbitrary units per one kilogram of body mass.", "preferredTerm": "Unit per Kilogram", "submissionValue": "U/kg", "synonyms": ["Unit per Kilogram"]}, {"conceptId": "C73777", "definition": "A unit of substance rate expressed in unit(s) per kilogram per period of time equal to twenty-four hours.", "preferredTerm": "Unit per Kilogram per Day", "submissionValue": "U/kg/day", "synonyms": ["Unit per Kilogram per Day"]}, {"conceptId": "C73778", "definition": "A unit of substance rate expressed in unit(s) per kilogram per period of time equal to sixty minutes.", "preferredTerm": "Unit per Kilogram per Hour", "submissionValue": "U/kg/h", "synonyms": ["Unit per Kilogram per Hour"]}, {"conceptId": "C73779", "definition": "A unit of substance rate expressed in unit(s) per kilogram per period of time equal to sixty seconds.", "preferredTerm": "Unit per Kilogram per Minute", "submissionValue": "U/kg/min", "synonyms": ["Unit per Kilogram per Minute"]}, {"conceptId": "C67456", "definition": "A unit of substance concentration equal to the concentration at which one liter of mixture contains one unit of a substance.", "preferredTerm": "Unit per Liter", "submissionValue": "U/L", "synonyms": ["Unit per Liter", "mU/mL"]}, {"conceptId": "C67467", "definition": "A unit expressed as a number of arbitrary units of substance per one square meter of a body surface area.", "preferredTerm": "Unit per Square Meter", "submissionValue": "U/m2", "synonyms": ["Unit per Square Meter"]}, {"conceptId": "C73783", "definition": "A unit of substance rate expressed in unit(s) per square meter per period of time equal to twenty-four hours.", "preferredTerm": "Unit per Square Meter per Day", "submissionValue": "U/m2/day", "synonyms": ["Unit per Square Meter per Day"]}, {"conceptId": "C73784", "definition": "A unit of substance rate expressed in unit(s) per square meter per period of time equal to sixty minutes.", "preferredTerm": "Unit per Square Meter per Hour", "submissionValue": "U/m2/h", "synonyms": ["Unit per Square Meter per Hour"]}, {"conceptId": "C73785", "definition": "A unit of substance rate expressed in unit(s) per square meter per period of time equal to sixty seconds.", "preferredTerm": "Unit per Square Meter per Minute", "submissionValue": "U/m2/min", "synonyms": ["Unit per Square Meter per Minute"]}, {"conceptId": "C73780", "definition": "A unit of substance content expressed in unit(s) per milligram.", "preferredTerm": "Unit per Milligram", "submissionValue": "U/mg", "synonyms": ["Unit per Milligram"]}, {"conceptId": "C77607", "definition": "A unit of substance content expressed in unit(s) per milliliter.", "preferredTerm": "Unit per Milliliter", "submissionValue": "U/mL", "synonyms": ["Unit per Milliliter", "kU/L"]}, {"conceptId": "C92618", "definition": "A unit of substance concentration equal to the concentration at which one millimole of a mixture contains one unit of a substance.", "preferredTerm": "Unit per Millimole", "submissionValue": "U/mmol", "synonyms": ["Unit per Millimole"]}, {"conceptId": "C48507", "definition": "A unit of radioactivity equal to one millionth of a Curie or 37 kilobecquerels, and corresponding to a radioactivity of 37 000 atomic disintegrations per second.(NCI)", "preferredTerm": "Microcurie", "submissionValue": "uCi", "synonyms": ["Microcurie", "mcCi"]}, {"conceptId": "C70571", "definition": "A unit of specific radioactivity (massic activity) equal to activity of one microcurie of the sample with total mass of one kilogram.(NCI)", "preferredTerm": "Microcurie per Kilogram", "submissionValue": "uCi/kg", "synonyms": ["Microcurie per Kilogram", "mcCi/kg"]}, {"conceptId": "C71173", "definition": "A unit of volumetric radioactivity concentration defined as a concentration of a radionuclide with an activity equal to one millionth of a Curie per unit volume equal to one liter.(NCI)", "preferredTerm": "Microcurie per Liter", "submissionValue": "uCi/L", "synonyms": ["Microcurie per Liter", "mcCi/L"]}, {"conceptId": "C73726", "definition": "A unit of relative amount of a substance equal to one millionth of an equivalent weight.(NCI)", "preferredTerm": "Microequivalent", "submissionValue": "uEq", "synonyms": ["Microequivalent"]}, {"conceptId": "C117975", "definition": "A concentration unit measured as a number of microequivalents of solute per liter of solution.", "preferredTerm": "Microequivalent per Liter", "submissionValue": "uEq/L", "synonyms": ["Microequivalent per Liter", "Nanoequivalent per Milliliter", "nEq/mL"]}, {"conceptId": "C48152", "definition": "A unit of mass equal to one millionth (1E-6) of a gram.", "preferredTerm": "Microgram", "submissionValue": "ug", "synonyms": ["Microgram", "mcg"]}, {"conceptId": "C73728", "definition": "A unit of measure expressed in microgram(s) per animal.", "preferredTerm": "Microgram per Animal", "submissionValue": "ug/animal", "synonyms": ["Microgram per Animal"]}, {"conceptId": "C67311", "definition": "A unit of area density defined as a spread rate at which one microgram of a substance is spread over the area of one square centimeter. The unit is also used as a dose calculation unit.", "preferredTerm": "Microgram per Square Centimeter", "submissionValue": "ug/cm2", "synonyms": ["mcg/cm2"]}, {"conceptId": "C71205", "definition": "A unit of mass flow rate equal to one microgram per day.", "preferredTerm": "Microgram per Day", "submissionValue": "ug/day", "synonyms": ["mcg/day"]}, {"conceptId": "C67305", "definition": "A unit of mass concentration defined as the concentration of one microgram of a substance per unit volume of the mixture equal to one deciliter. The concept also refers to the unit of mass density (volumic mass) defined as the density of substance which mass equal to one microgram occupies the volume one deciliter. (NCI)", "preferredTerm": "Microgram per Deciliter", "submissionValue": "ug/dL", "synonyms": ["Microgram per Deciliter"]}, {"conceptId": "C124462", "definition": "A unit of measure expressed in microgram(s) per dose.", "preferredTerm": "Microgram per Dose", "submissionValue": "ug/dose"}, {"conceptId": "C74921", "definition": "A dose calculation unit expressed in microgram(s) per gram per period of time equal to twenty-four hours. (NCI)", "preferredTerm": "Microgram per Gram per Day", "submissionValue": "ug/g/day", "synonyms": ["Microgram per Gram per Day"]}, {"conceptId": "C74922", "definition": "A dose calculation unit expressed in microgram(s) per gram per period of time equal to sixty minutes. (NCI)", "preferredTerm": "Microgram per Gram per Hour", "submissionValue": "ug/g/h", "synonyms": ["Microgram per Gram per Hour"]}, {"conceptId": "C74923", "definition": "A dose calculation unit expressed in microgram(s) per gram per period of time equal to sixty seconds. (NCI)", "preferredTerm": "Microgram per Gram per Minute", "submissionValue": "ug/g/min", "synonyms": ["Microgram per Gram per Minute"]}, {"conceptId": "C67394", "definition": "A unit of mass flow rate equal to one microgram per hour.", "preferredTerm": "Microgram per Hour", "submissionValue": "ug/h", "synonyms": ["mcg/h"]}, {"conceptId": "C67396", "definition": "A unit of a mass fraction expressed as a number of micrograms of substance per kilogram of mixture. The unit is also used as a dose calculation unit.(NCI)", "preferredTerm": "Microgram per Kilogram", "submissionValue": "ug/kg", "synonyms": ["Microgram per Kilogram", "mcg/kg", "ng/g", "pg/mg", "ug/kg"]}, {"conceptId": "C73729", "definition": "A dose calculation unit expressed in microgram(s) per kilogram per period of time equal to twenty-four hours. (NCI)", "preferredTerm": "Microgram per Kilogram per Day", "submissionValue": "ug/kg/day", "synonyms": ["Microgram per Kilogram per Day"]}, {"conceptId": "C73730", "definition": "A dose calculation unit expressed in microgram(s) per kilogram per period of time equal to sixty minutes. (NCI)", "preferredTerm": "Microgram per Kilogram per Hour", "submissionValue": "ug/kg/h", "synonyms": ["Microgram per Kilogram per Hour"]}, {"conceptId": "C71210", "definition": "A dose calculation unit equal to one millionth of a gram of a preparation per one kilogram of body mass administered per unit of time equal to one minute.(NCI)", "preferredTerm": "Microgram per Kilogram per Minute", "submissionValue": "ug/kg/min", "synonyms": ["Gamma per Kilogram per Minute", "Microgram per Kilogram per Minute", "gamma/kg/min", "mcg/kg/min"]}, {"conceptId": "C67306", "definition": "A unit of concentration or mass density equal to one nanogram of substance per milliliter of solution or one microgram of substance per liter of solution.", "preferredTerm": "Microgram per Liter", "submissionValue": "ug/L", "synonyms": ["Microgram per Liter", "Milligram per Cubic Meter", "Nanogram per Milliliter", "mcg/L", "mg/m3", "ng/mL", "ug/L"]}, {"conceptId": "C161495", "definition": "A unit of equivalent concentration equal to the number of micrograms of D-dimer per unit volume equal to one liter. (NCI)", "preferredTerm": "Micrograms DDU Per Liter", "submissionValue": "ug/L DDU"}, {"conceptId": "C158292", "definition": "A unit of equivalent concentration equal to the number of micrograms of fibrinogen per unit volume equal to one liter.", "preferredTerm": "Microgram per Liter Fibrinogen Equivalent Units", "submissionValue": "ug/L FEU", "synonyms": ["FEU ug/L", "ng/mL FEU", "ug FEU/L", "ug-L-FEU"]}, {"conceptId": "C122229", "definition": "A rate unit equal to the number of micrograms per unit of volume equal to one liter per unit of time equal to one hour.", "preferredTerm": "Microgram per Liter per Hour", "submissionValue": "ug/L/h", "synonyms": ["ng/mL/h"]}, {"conceptId": "C67312", "