{"_links": {"parentPackage": {"href": "/mdr/ct/packages/sendct-2021-03-26", "title": "SEND Controlled Terminology Package 45 Effective 2021-03-26", "type": "Terminology"}, "priorVersion": {"href": "/mdr/ct/packages/sendct-2020-12-18/codelists/C89969", "title": "CDISC SEND Food and Water Consumption Test Name Terminology", "type": "Code List"}, "rootItem": {"href": "/mdr/root/ct/sendct/codelists/C89969", "title": "Version-agnostic anchor resource for codelist C89969", "type": "Root Value Domain"}, "self": {"href": "/mdr/ct/packages/sendct-2021-03-26/codelists/C89969", "title": "CDISC SEND Food and Water Consumption Test Name Terminology", "type": "Code List"}}, "conceptId": "C89969", "definition": "Terminology for the test names concerned with the subject's consumption of food and/or water.", "extensible": "true", "name": "Food and Water Consumption Test Name", "preferredTerm": "CDISC SEND Food and Water Consumption Test Name Terminology", "submissionValue": "FWTEST", "synonyms": ["Food and Water Consumption Test Name"], "terms": [{"conceptId": "C90384", "definition": "A measurement of a subject's nutritional intake. (NCI)", "preferredTerm": "Food Consumption", "submissionValue": "Food Consumption", "synonyms": ["Food Consumption"]}, {"conceptId": "C90385", "definition": "The ratio or percentage of nutritional intake to body weight. (NCI)", "preferredTerm": "Food Consumption Relative to Body Weight", "submissionValue": "Food Consumption Relative to Body Wt", "synonyms": ["Food Consumption Relative to Body Wt"]}, {"conceptId": "C90484", "definition": "A measurement of a subject's water intake. (NCI)", "preferredTerm": "Water Consumption", "submissionValue": "Water Consumption", "synonyms": ["Water Consumption"]}, {"conceptId": "C90485", "definition": "The ratio or percentage of water intake to body weight. (NCI)", "preferredTerm": "Water Consumption Relative to Body Weight", "submissionValue": "Water Consumption Relative to Body Wt", "synonyms": ["Water Consumption Relative to Body Wt"]}]}