{"_links": {"parentPackage": {"href": "/mdr/ct/packages/adamct-2022-06-24", "title": "ADaM Controlled Terminology Package 50 Effective 2022-06-24", "type": "Terminology"}, "priorVersion": {"href": "/mdr/ct/packages/adamct-2021-12-17/codelists/C158115", "title": "CDISC ADaM Geriatric Depression Scale Short Form Questionnaire Parameter Name Terminology", "type": "Code List"}, "rootItem": {"href": "/mdr/root/ct/adamct/codelists/C158115", "title": "Version-agnostic anchor resource for codelist C158115", "type": "Root Value Domain"}, "self": {"href": "/mdr/ct/packages/adamct-2022-06-24/codelists/C158115", "title": "CDISC ADaM Geriatric Depression Scale Short Form Questionnaire Parameter Name Terminology", "type": "Code List"}}, "conceptId": "C158115", "definition": "A parameter name codelist for the Geriatric Depression Scale Short Form questionnaire (GDS02) to support the calculation of total score in ADaM.", "extensible": "false", "name": "Geriatric Depression Scale Short Form Questionnaire Parameter Name", "preferredTerm": "CDISC ADaM Geriatric Depression Scale Short Form Questionnaire Parameter Name Terminology", "submissionValue": "GDS02PN", "synonyms": ["Geriatric Depression Scale Short Form Questionnaire Parameter Name"], "terms": [{"conceptId": "C158155", "definition": "Geriatric Depression Scale Short Form - Total score used for analysis.", "preferredTerm": "Geriatric Depression Scale Short Form - Total Score for Analysis", "submissionValue": "GDS02-Total Score - Analysis", "synonyms": ["GDS02-Total Score - Analysis"]}]}