{"_links": {"parentPackage": {"href": "/mdr/ct/packages/adamct-2022-06-24", "title": "ADaM Controlled Terminology Package 50 Effective 2022-06-24", "type": "Terminology"}, "priorVersion": {"href": "/mdr/ct/packages/adamct-2021-12-17/codelists/C165644", "title": "CDISC ADaM Pool for Integration Terminology", "type": "Code List"}, "rootItem": {"href": "/mdr/root/ct/adamct/codelists/C165644", "title": "Version-agnostic anchor resource for codelist C165644", "type": "Root Value Domain"}, "self": {"href": "/mdr/ct/packages/adamct-2022-06-24/codelists/C165644", "title": "CDISC ADaM Pool for Integration Terminology", "type": "Code List"}}, "conceptId": "C165644", "definition": "Terminology relevant to the name of the Pool, often defined in the integrated statistical analysis plan, which identifies the combination of subjects' clinical trial experience and will be the focus of the integrated analysis.", "extensible": "true", "name": "Pool for Integration", "preferredTerm": "CDISC ADaM Pool for Integration Terminology", "submissionValue": "POOLINT", "synonyms": ["Pool for Integration"], "terms": [{"conceptId": "C165858", "definition": "The pool that includes data across all studies within which the subject has participated, used for the overall integrated analysis.", "preferredTerm": "Overall Pooled Data", "submissionValue": "OVERALL"}]}