{"_links": {"parentPackage": {"href": "/mdr/ct/packages/adamct-2022-06-24", "title": "ADaM Controlled Terminology Package 50 Effective 2022-06-24", "type": "Terminology"}, "priorVersion": {"href": "/mdr/ct/packages/adamct-2021-12-17/codelists/C172334", "title": "CDISC ADaM Generalized Anxiety Disorder-7 Version 2 Questionnaire Parameter Code Terminology", "type": "Code List"}, "rootItem": {"href": "/mdr/root/ct/adamct/codelists/C172334", "title": "Version-agnostic anchor resource for codelist C172334", "type": "Root Value Domain"}, "self": {"href": "/mdr/ct/packages/adamct-2022-06-24/codelists/C172334", "title": "CDISC ADaM Generalized Anxiety Disorder-7 Version 2 Questionnaire Parameter Code Terminology", "type": "Code List"}}, "conceptId": "C172334", "definition": "A parameter code codelist for the Generalized Anxiety Disorder - 7 Version 2 Questionnaire (GAD-7 V2) to support the calculation of total score in ADaM.", "extensible": "false", "name": "Generalized Anxiety Disorder - 7 Version 2 Questionnaire Parameter Code", "preferredTerm": "CDISC ADaM Generalized Anxiety Disorder-7 Version 2 Questionnaire Parameter Code Terminology", "submissionValue": "GAD02PC", "synonyms": ["Generalized Anxiety Disorder - 7 Version 2 Questionnaire Parameter Code"], "terms": [{"conceptId": "C172451", "definition": "Generalized Anxiety Disorder - 7 Version 2 - Total score used for analysis.", "preferredTerm": "Generalized Anxiety Disorder - 7 Version 2 - Total Score for Analysis", "submissionValue": "GAD02TS", "synonyms": ["GAD02-Total Score - Analysis"]}]}