{"_links": {"parentPackage": {"href": "/mdr/ct/packages/adamct-2022-06-24", "title": "ADaM Controlled Terminology Package 50 Effective 2022-06-24", "type": "Terminology"}, "rootItem": {"href": "/mdr/root/ct/adamct/codelists/C187458", "title": "Version-agnostic anchor resource for codelist C187458", "type": "Root Value Domain"}, "self": {"href": "/mdr/ct/packages/adamct-2022-06-24/codelists/C187458", "title": "CDISC ADaM Craig Handicap Assessment and Reporting Technique-Short Form Questionnaires Parameter Code Terminology", "type": "Code List"}}, "conceptId": "C187458", "definition": "A parameter code codelist for the Craig Handicap Assessment and Reporting Technique-Short Form Questionnaires (CHART-SF) to support the calculation of subscores and total score for the Interview and Paper Versions in ADaM.", "extensible": "false", "name": "Craig Handicap Assessment and Reporting Technique-Short Form Questionnaires Parameter Code", "preferredTerm": "CDISC ADaM Craig Handicap Assessment and Reporting Technique-Short Form Questionnaires Parameter Code Terminology", "submissionValue": "CHSFPC", "synonyms": ["Craig Handicap Assessment and Reporting Technique-Short Form Questionnaires Parameter Code"], "terms": [{"conceptId": "C187467", "definition": "Craig Handicap Assessment and Reporting Technique-Short Form - How many hours in a typical 24-hour day do you have someone with you to provide physical assistance for personal care activities such as eating, bathing, dressing, toileting and mobility? (hours paid assistance).", "preferredTerm": "Craig Handicap Assessment and Reporting Technique-Short Form - Paid Personal Care per Day", "submissionValue": "CHSF01A", "synonyms": ["CHSF-Paid Personal Care per Day"]}, {"conceptId": "C187468", "definition": "Craig Handicap Assessment and Reporting Technique-Short Form - How many hours in a typical 24-hour day do you have someone with you to provide physical assistance for personal care activities such as eating, bathing, dressing, toileting and mobility? hours unpaid (family, others).", "preferredTerm": "Craig Handicap Assessment and Reporting Technique-Short Form - Unpaid Personal Care per Day", "submissionValue": "CHSF01B", "synonyms": ["CHSF-Unpaid Personal Care per Day"]}, {"conceptId": "C187469", "definition": "Craig Handicap Assessment and Reporting Technique-Short Form - How much time is someone with you in your home to assist you with activities that require remembering, decision making, or judgment?", "preferredTerm": "Craig Handicap Assessment and Reporting Technique-Short Form - Home Cognitive Assistance per Day", "submissionValue": "CHSF02", "synonyms": ["CHSF-Home Cognitive Assistance per Day"]}, {"conceptId": "C187470", "definition": "Craig Handicap Assessment and Reporting Technique-Short Form - How much of the time is someone with you to help you with remembering, decision making, or judgment when you go away from your home?", "preferredTerm": "Craig Handicap Assessment and Reporting Technique-Short Form - Away Cognitive Assistance per Day", "submissionValue": "CHSF03", "synonyms": ["CHSF-Away Cognitive Assistance per Day"]}, {"conceptId": "C187471", "definition": "Craig Handicap Assessment and Reporting Technique-Short Form - On a typical day, how many hours are you out of bed?", "preferredTerm": "Craig Handicap Assessment and Reporting Technique-Short Form - Hours Out of Bed per Day", "submissionValue": "CHSF04", "synonyms": ["CHSF-Hours Out of Bed per Day"]}, {"conceptId": "C187472", "definition": "Craig Handicap Assessment and Reporting Technique-Short Form - In a typical week, how many days do you get out of your house and go somewhere?", "preferredTerm": "Craig Handicap Assessment and Reporting Technique-Short Form - Days Out of the House per Week", "submissionValue": "CHSF05", "synonyms": ["CHSF-Days Out of the House per Week"]}, {"conceptId": "C187473", "definition": "Craig Handicap Assessment and Reporting Technique-Short Form - In the last year, how many nights have you spent away from your home?", "preferredTerm": "Craig Handicap Assessment and Reporting Technique-Short Form - Nights Away From Home Last Year", "submissionValue": "CHSF06", "synonyms": ["CHSF-Nights Away From Home Last Year"]}, {"conceptId": "C187474", "definition": "Craig Handicap Assessment and Reporting Technique-Short Form - How many hours per week do you spend working in a job for which you get paid?", "preferredTerm": "Craig Handicap Assessment and Reporting Technique-Short Form - Hours of Paid Work per Week", "submissionValue": "CHSF07A", "synonyms": ["CHSF-Hours of Paid Work per Week"]}, {"conceptId": "C187475", "definition": "Craig Handicap Assessment and Reporting Technique-Short Form - How many hours per week do you spend working in a job for which you get paid? (occupation).", "preferredTerm": "Craig Handicap Assessment and Reporting Technique-Short Form - Occupation of Paid Work", "submissionValue": "CHSF07B", "synonyms": ["CHSF-Occupation of Paid Work"]}, {"conceptId": "C187476", "definition": "Craig Handicap Assessment and Reporting Technique-Short Form - How many hours per week do you spend in school working toward a degree or in an accredited technical training program?", "preferredTerm": "Craig Handicap Assessment and Reporting Technique-Short Form - Hours of Schoolwork per Week", "submissionValue": "CHSF08", "synonyms": ["CHSF-Hours of Schoolwork per Week"]}, {"conceptId": "C187477", "definition": "Craig Handicap Assessment and Reporting Technique-Short Form - How many hours per week do you spend in active homemaking including parenting, housekeeping, and food preparation?", "preferredTerm": "Craig Handicap Assessment and Reporting Technique-Short Form - Hours of Homemaking per Week", "submissionValue": "CHSF09", "synonyms": ["CHSF-Hours of Homemaking per Week"]}, {"conceptId": "C187478", "definition": "Craig Handicap Assessment and Reporting Technique-Short Form - How many hours per week do you spend in home maintenance activities such as gardening, house repairs or home improvement?", "preferredTerm": "Craig Handicap Assessment and Reporting Technique-Short Form - Hours of Home Maintenance per Week", "submissionValue": "CHSF10", "synonyms": ["CHSF-Hours of Home Maintenance per Week"]}, {"conceptId": "C187479", "definition": "Craig Handicap Assessment and Reporting Technique-Short Form - How many hours per week do you spend in recreational activities such as sports, exercise, playing cards, or going to movies?", "preferredTerm": "Craig Handicap Assessment and Reporting Technique-Short Form - Hours of Recreation per Week", "submissionValue": "CHSF11", "synonyms": ["CHSF-Hours of Recreation per Week"]}, {"conceptId": "C187480", "definition": "Craig Handicap Assessment and Reporting Technique-Short Form - How many people do you live with?", "preferredTerm": "Craig Handicap Assessment and Reporting Technique-Short Form - Number of People You Live With", "submissionValue": "CHSF12", "synonyms": ["CHSF-Number of People You Live With"]}, {"conceptId": "C187481", "definition": "Craig Handicap Assessment and Reporting Technique-Short Form - Is one of them your spouse or significant other?", "preferredTerm": "Craig Handicap Assessment and Reporting Technique-Short Form - Live With Spouse or Significant Other", "submissionValue": "CHSF13", "synonyms": ["CHSF-Live With Spouse or Signif Other"]}, {"conceptId": "C187482", "definition": "Craig Handicap Assessment and Reporting Technique-Short Form - Of the people you live with how many are relatives?", "preferredTerm": "Craig Handicap Assessment and Reporting Technique-Short Form - Number of Relatives You Live With", "submissionValue": "CHSF14", "synonyms": ["CHSF-Number of Relatives You Live With"]}, {"conceptId": "C187483", "definition": "Craig Handicap Assessment and Reporting Technique-Short Form - How many business or organizational associates do you visit, phone, or write to at least once a month?", "preferredTerm": "Craig Handicap Assessment and Reporting Technique-Short Form - Associates Contacted per Month", "submissionValue": "CHSF15", "synonyms": ["CHSF-Associates Contacted per Month"]}, {"conceptId": "C187484", "definition": "Craig Handicap Assessment and Reporting Technique-Short Form - How many friends do you visit, phone, or write to at least once a month?", "preferredTerm": "Craig Handicap Assessment and Reporting Technique-Short Form - Friends Contacted per Month", "submissionValue": "CHSF16", "synonyms": ["CHSF-Friends Contacted per Month"]}, {"conceptId": "C187485", "definition": "Craig Handicap Assessment and Reporting Technique-Short Form - With how many strangers have you initiated a conversation in the last month?", "preferredTerm": "Craig Handicap Assessment and Reporting Technique-Short Form - Strangers Spoke with Last Month", "submissionValue": "CHSF17", "synonyms": ["CHSF-Strangers Spoke with Last Month"]}, {"conceptId": "C187486", "definition": "Craig Handicap Assessment and Reporting Technique-Short Form - Approximately what was the combined annual income, in the last year, of all family members in your household?", "preferredTerm": "Craig Handicap Assessment and Reporting Technique-Short Form - Combined Household Income Last Year", "submissionValue": "CHSF18", "synonyms": ["CHSF-Combined Household Income Last Yr"]}, {"conceptId": "C187487", "definition": "Craig Handicap Assessment and Reporting Technique-Short Form - Approximately how much did you pay last year for medical care expenses?", "preferredTerm": "Craig Handicap Assessment and Reporting Technique-Short Form - Medical Care Expenses Last Year", "submissionValue": "CHSF19", "synonyms": ["CHSF-Medical Care Expenses Last Year"]}, {"conceptId": "C187489", "definition": "Craig Handicap Assessment and Reporting Technique-Short Form - Cognitive independence subscore used for analysis.", "preferredTerm": "Craig Handicap Assessment and Reporting Technique-Short Form - Cognitive Independence Subscore for Analysis", "submissionValue": "CHSFCS", "synonyms": ["CHSF-Cognitive Independence Subscore-Analysis"]}, {"conceptId": "C187493", "definition": "Craig Handicap Assessment and Reporting Technique-Short Form - Economic self-sufficiency subscore used for analysis.", "preferredTerm": "Craig Handicap Assessment and Reporting Technique-Short Form - Economic Self-Sufficiency Subscore for Analysis", "submissionValue": "CHSFES", "synonyms": ["CHSF-Economic Self-Sufficiency Subscore-Analysis"]}, {"conceptId": "C187490", "definition": "Craig Handicap Assessment and Reporting Technique-Short Form - Mobility subscore used for analysis.", "preferredTerm": "Craig Handicap Assessment and Reporting Technique-Short Form - Mobility Subscore for Analysis", "submissionValue": "CHSFMS", "synonyms": ["CHSF-Mobility Subscore-Analysis"]}, {"conceptId": "C187491", "definition": "Craig Handicap Assessment and Reporting Technique-Short Form - Occupation subscore used for analysis.", "preferredTerm": "Craig Handicap Assessment and Reporting Technique-Short Form - Occupation Subscore for Analysis", "submissionValue": "CHSFOS", "synonyms": ["CHSF-Occupation Subscore-Analysis"]}, {"conceptId": "C187488", "definition": "Craig Handicap Assessment and Reporting Technique-Short Form - Physical independence subscore used for analysis.", "preferredTerm": "Craig Handicap Assessment and Reporting Technique-Short Form - Physical Independence Subscore for Analysis", "submissionValue": "CHSFPS", "synonyms": ["CHSF-Physical Independence Subscore-Analysis"]}, {"conceptId": "C187492", "definition": "Craig Handicap Assessment and Reporting Technique-Short Form - Social integration subscore used for analysis.", "preferredTerm": "Craig Handicap Assessment and Reporting Technique-Short Form - Social Integration Subscore for Analysis", "submissionValue": "CHSFSS", "synonyms": ["CHSF-Social Integration Subscore-Analysis"]}, {"conceptId": "C187494", "definition": "Craig Handicap Assessment and Reporting Technique-Short Form - Total score used for analysis.", "preferredTerm": "Craig Handicap Assessment and Reporting Technique-Short Form - Total Score for Analysis", "submissionValue": "CHSFTS", "synonyms": ["CHSF-Total Score-Analysis"]}]}