{"_links": {"parentPackage": {"href": "/mdr/ct/packages/protocolct-2020-11-06", "title": "PROTOCOL Controlled Terminology Package 43 Effective 2020-11-06", "type": "Terminology"}, "rootItem": {"href": "/mdr/root/ct/protocolct/codelists/C174220", "title": "Version-agnostic anchor resource for codelist C174220", "type": "Root Value Domain"}, "self": {"href": "/mdr/ct/packages/protocolct-2020-11-06/codelists/C174220", "title": "CDISC Protocol Study Product Attribute Terminology", "type": "Code List"}}, "conceptId": "C174220", "definition": "A terminology value set relevant to the attributes of the study product.", "name": "Study Product Attribute Terminology", "preferredTerm": "CDISC Protocol Study Product Attribute Terminology", "submissionValue": "Study Product Attribute Terminology", "synonyms": ["Study Product Attribute Terminology"], "terms": [{"conceptId": "C174265", "definition": "The characterization or classification of the material artifact(s) that is the focus of the study.", "preferredTerm": "Study Product Type", "submissionValue": "Study Product Type"}]}