{"_links": {"parentPackage": {"href": "/mdr/ct/packages/define-xmlct-2022-09-30", "title": "Define-XML Controlled Terminology Package 51 Effective 2022-09-30", "type": "Terminology"}, "priorVersion": {"href": "/mdr/ct/packages/define-xmlct-2021-12-17/codelists/C165635", "title": "CDISC Define-XML ADaM Basic Data Structure Subclass Terminology", "type": "Code List"}, "rootItem": {"href": "/mdr/root/ct/define-xmlct/codelists/C165635", "title": "Version-agnostic anchor resource for codelist C165635", "type": "Root Value Domain"}, "self": {"href": "/mdr/ct/packages/define-xmlct-2022-09-30/codelists/C165635", "title": "CDISC Define-XML ADaM Basic Data Structure Subclass Terminology", "type": "Code List"}}, "conceptId": "C165635", "definition": "Terminology relevant to the subclasses of the ADaM basic data structure.", "extensible": "false", "name": "ADaM Basic Data Structure Subclass", "preferredTerm": "CDISC Define-XML ADaM Basic Data Structure Subclass Terminology", "submissionValue": "BDSSC", "synonyms": ["ADaM Basic Data Structure Subclass"], "terms": [{"conceptId": "C172452", "definition": "A dataset containing data that is used for non-compartmental analyses.", "preferredTerm": "Non-Compartmental Analysis Dataset", "submissionValue": "NON-COMPARTMENTAL ANALYSIS", "synonyms": ["NCA"]}, {"conceptId": "C189348", "definition": "A dataset containing data that is used for population pharmacokinetic analyses.", "preferredTerm": "Population Pharmacokinetic Analysis Dataset", "submissionValue": "POPULATION PHARMACOKINETIC ANALYSIS", "synonyms": ["PPK"]}, {"conceptId": "C165637", "definition": "A dataset containing data that is used for Time-to-Event analyses.", "preferredTerm": "Time-to-Event Dataset", "submissionValue": "TIME-TO-EVENT", "synonyms": ["TTE"]}]}