{"_links": {"parentPackage": {"href": "/mdr/ct/packages/define-xmlct-2022-09-30", "title": "Define-XML Controlled Terminology Package 51 Effective 2022-09-30", "type": "Terminology"}, "priorVersion": {"href": "/mdr/ct/packages/define-xmlct-2021-12-17/codelists/C177903", "title": "CDISC Define-XML ADaM Medical Device Basic Data Structure Subclass Terminology", "type": "Code List"}, "rootItem": {"href": "/mdr/root/ct/define-xmlct/codelists/C177903", "title": "Version-agnostic anchor resource for codelist C177903", "type": "Root Value Domain"}, "self": {"href": "/mdr/ct/packages/define-xmlct-2022-09-30/codelists/C177903", "title": "CDISC Define-XML ADaM Medical Device Basic Data Structure Subclass Terminology", "type": "Code List"}}, "conceptId": "C177903", "definition": "Terminology relevant to the subclasses of the ADaM device level basic data structure.", "extensible": "false", "name": "ADaM Medical Device Basic Data Structure Subclass", "preferredTerm": "CDISC Define-XML ADaM Medical Device Basic Data Structure Subclass Terminology", "submissionValue": "MDBDSSC", "synonyms": ["ADaM Medical Device Basic Data Structure Subclass"], "terms": [{"conceptId": "C177920", "definition": "A dataset containing data that is used for medical device Time-to-Event analyses.", "preferredTerm": "Medical Device Time-to-Event Dataset", "submissionValue": "MEDICAL DEVICE TIME-TO-EVENT", "synonyms": ["MDTTE"]}]}