{"_links": {"parentPackage": {"href": "/mdr/ct/packages/sendct-2020-06-26", "title": "SEND Controlled Terminology Package 42 Effective 2020-06-26", "type": "Terminology"}, "priorVersion": {"href": "/mdr/ct/packages/sendct-2020-03-27/codelists/C124324", "title": "CDISC SEND Pregnancy Findings Test Code Terminology", "type": "Code List"}, "rootItem": {"href": "/mdr/root/ct/sendct/codelists/C124324", "title": "Version-agnostic anchor resource for codelist C124324", "type": "Root Value Domain"}, "self": {"href": "/mdr/ct/packages/sendct-2020-06-26/codelists/C124324", "title": "CDISC SEND Pregnancy Findings Test Code Terminology", "type": "Code List"}}, "conceptId": "C124324", "definition": "Terminology for the test codes relevant to pregnancy.", "extensible": "true", "name": "Pregnancy Findings Test Code", "preferredTerm": "CDISC SEND Pregnancy Findings Test Code Terminology", "submissionValue": "PYTESTCD", "synonyms": ["Pregnancy Findings Test Code"], "terms": [{"conceptId": "C124619", "definition": "The number of corpora lutea present in the ovary/ovaries.", "preferredTerm": "Corpora Lutea Number", "submissionValue": "CORPLUT", "synonyms": ["Corpora Lutea Count"]}, {"conceptId": "C124620", "definition": "A measurement of the number of dead fetuses in the uterus/uterine horn(s).", "preferredTerm": "Number of Dead Fetuses", "submissionValue": "FETDENUM", "synonyms": ["Number of Dead Fetuses"]}, {"conceptId": "C124621", "definition": "A measurement (expressed as a fraction or percent) of the number of live female fetuses to the total number of live male and female fetuses.", "preferredTerm": "Fetal Female Sex Ratio", "submissionValue": "FETFSEXR", "synonyms": ["Fetal Female Sex Ratio"]}, {"conceptId": "C124622", "definition": "A measurement of the number of live female fetuses present in the uterus/uterine horn(s).", "preferredTerm": "Number of Live Female Fetuses", "submissionValue": "FETLFNUM", "synonyms": ["Number of Live Female Fetuses"]}, {"conceptId": "C124623", "definition": "A measurement of the number of live male fetuses present in the uterus/uterine horn(s).", "preferredTerm": "Number of Live Male Fetuses", "submissionValue": "FETLMNUM", "synonyms": ["Number of Live Male Fetuses"]}, {"conceptId": "C124624", "definition": "A measurement of the number of live fetuses in the uterus/uterine horn(s).", "preferredTerm": "Number of Live Fetuses", "submissionValue": "FETLVNUM", "synonyms": ["Number of Live Fetuses"]}, {"conceptId": "C124625", "definition": "A measurement (expressed as a fraction or percent) of the number of live male fetuses to the total number of live male and female fetuses.", "preferredTerm": "Fetal Male Sex Ratio", "submissionValue": "FETMSEXR", "synonyms": ["Fetal Male Sex Ratio"]}, {"conceptId": "C124626", "definition": "A measurement of the total number of fetuses (alive plus dead) present in the uterus/uterine horn(s).", "preferredTerm": "Number of Fetuses", "submissionValue": "FETNUM", "synonyms": ["Number of Fetuses"]}, {"conceptId": "C124627", "definition": "A measurement of the average weight of all live fetuses.", "preferredTerm": "Average Live Fetal Weight", "submissionValue": "FWAVGL", "synonyms": ["Average Live Fetal Weight"]}, {"conceptId": "C124628", "definition": "A measurement of the average weight of all live female fetuses.", "preferredTerm": "Average Female Live Fetal Weight", "submissionValue": "FWAVGLF", "synonyms": ["Average Female Live Fetal Weight"]}, {"conceptId": "C124629", "definition": "A measurement of the average weight of all live male fetuses.", "preferredTerm": "Average Male Live Fetal Weight", "submissionValue": "FWAVGLM", "synonyms": ["Average Male Live Fetal Weight"]}, {"conceptId": "C124630", "definition": "A measurement of the total weight of all live fetuses.", "preferredTerm": "Total Live Fetal Weight", "submissionValue": "FWTOTL", "synonyms": ["Total Live Fetal Weight"]}, {"conceptId": "C124631", "definition": "A measurement of the number of implantations in the uterus/uterine horn(s).", "preferredTerm": "Number of Implantations", "submissionValue": "IMLNUM", "synonyms": ["Number of Implantations"]}, {"conceptId": "C124632", "definition": "A measurement of the total number of deaths (dead fetuses plus resorptions) in the uterus/uterine horn(s).", "preferredTerm": "Number of Intrauterine Deaths", "submissionValue": "IUDNUM", "synonyms": ["Number of Intrauterine Deaths"]}, {"conceptId": "C69218", "definition": "The condition or state of the subject with regards to pregnancy.", "preferredTerm": "Pregnancy Status", "submissionValue": "PREGSTAT", "synonyms": ["Pregnancy Status"]}, {"conceptId": "C124633", "definition": "The percentage of released ova that failed to implant, calculated as the number of corpora lutea minus the number of implantations, divided by the number of corpora lutea and multiplied by 100.", "preferredTerm": "Pre-implantation Loss Percent", "submissionValue": "PREIMLSP", "synonyms": ["Pre-implantation Loss Percent"]}, {"conceptId": "C124634", "definition": "The percentage of implants that died, calculated as the number of intrauterine deaths divided by the number of implantations and multiplied by 100.", "preferredTerm": "Post-implantation Loss Percent", "submissionValue": "PSTIMLSP", "synonyms": ["Post-implantation Loss Percent"]}, {"conceptId": "C124635", "definition": "A measurement of the number of early resorptions in the uterus/uterine horn(s).", "preferredTerm": "Number of Early Resorptions", "submissionValue": "RSRPENUM", "synonyms": ["Number of Early Resorptions"]}, {"conceptId": "C124636", "definition": "A measurement of the number of late resorptions in the uterus/uterine horn(s).", "preferredTerm": "Number of Late Resorptions", "submissionValue": "RSRPLNUM", "synonyms": ["Number of Late Resorptions"]}, {"conceptId": "C124637", "definition": "A measurement of the total number of resorptions (early plus late) in the uterus/uterine horn(s).", "preferredTerm": "Number of Resorptions", "submissionValue": "RSRPNUM", "synonyms": ["Number of Resorptions"]}]}