{"_links": {"parentPackage": {"href": "/mdr/ct/packages/sendct-2020-06-26", "title": "SEND Controlled Terminology Package 42 Effective 2020-06-26", "type": "Terminology"}, "priorVersion": {"href": "/mdr/ct/packages/sendct-2020-03-27/codelists/C158124", "title": "CDISC SEND Sexual Maturity Status Response Terminology", "type": "Code List"}, "rootItem": {"href": "/mdr/root/ct/sendct/codelists/C158124", "title": "Version-agnostic anchor resource for codelist C158124", "type": "Root Value Domain"}, "self": {"href": "/mdr/ct/packages/sendct-2020-06-26/codelists/C158124", "title": "CDISC SEND Sexual Maturity Status Response Terminology", "type": "Code List"}}, "conceptId": "C158124", "definition": "Terminology related to the capacity of an organism to reproduce via sexual reproduction.", "extensible": "true", "name": "Sexual Maturity Status Response", "preferredTerm": "CDISC SEND Sexual Maturity Status Response Terminology", "submissionValue": "SEXMAT", "synonyms": ["Sexual Maturity Status Response"], "terms": [{"conceptId": "C158352", "definition": "The life stage before which the organism has the capacity for sexual reproduction.", "preferredTerm": "Sexually Immature", "submissionValue": "SEXUALLY IMMATURE"}, {"conceptId": "C158351", "definition": "The life stage at which the organism has the capacity for sexual reproduction.", "preferredTerm": "Sexually Mature", "submissionValue": "SEXUALLY MATURE"}]}