{"_links": {"parentPackage": {"href": "/mdr/ct/packages/sendct-2020-06-26", "title": "SEND Controlled Terminology Package 42 Effective 2020-06-26", "type": "Terminology"}, "priorVersion": {"href": "/mdr/ct/packages/sendct-2020-03-27/codelists/C158118", "title": "CDISC SEND Age Estimation Method Response Terminology", "type": "Code List"}, "rootItem": {"href": "/mdr/root/ct/sendct/codelists/C158118", "title": "Version-agnostic anchor resource for codelist C158118", "type": "Root Value Domain"}, "self": {"href": "/mdr/ct/packages/sendct-2020-06-26/codelists/C158118", "title": "CDISC SEND Age Estimation Method Response Terminology", "type": "Code List"}}, "conceptId": "C158118", "definition": "Terminology related to the method by which the age of an individual is determined through estimation.", "extensible": "true", "name": "Age Estimation Method Response", "preferredTerm": "CDISC SEND Age Estimation Method Response Terminology", "submissionValue": "AGESMETH", "synonyms": ["Age Estimation Method Response"], "terms": [{"conceptId": "C158324", "definition": "Information obtained from medical records, acquisition records, or other official documentation associated with the animal.", "preferredTerm": "Animal Record Information", "submissionValue": "ANIMAL RECORDS"}, {"conceptId": "C158323", "definition": "A systematic evaluation of the mouth, face, and neck, which may include tooth counting, cleaning and visual assessment.", "preferredTerm": "Dental Examination", "submissionValue": "DENTAL EXAM"}, {"conceptId": "C20989", "definition": "A systemic evaluation of the body and its functions using visual inspection, palpation, percussion and auscultation.", "preferredTerm": "Physical Examination", "submissionValue": "PHYSICAL EXAMINATION", "synonyms": ["Physical Exam"]}, {"conceptId": "C128940", "definition": "A radiographic procedure using the emission of penetrating energy waves to form an image of the structure.", "preferredTerm": "Radiographic Examination", "submissionValue": "RADIOGRAPHY", "synonyms": ["Radiographic Exam"]}, {"conceptId": "C17998", "definition": "Not known, not observed, not recorded, or refused. (NCI)", "preferredTerm": "Unknown", "submissionValue": "UNKNOWN", "synonyms": ["U", "UNK", "Unknown"]}]}