{"_links": {"parentPackage": {"href": "/mdr/ct/packages/sendct-2020-06-26", "title": "SEND Controlled Terminology Package 42 Effective 2020-06-26", "type": "Terminology"}, "priorVersion": {"href": "/mdr/ct/packages/sendct-2020-03-27/codelists/C158117", "title": "CDISC SEND Challenge Agent Parameter Long Name Terminology", "type": "Code List"}, "rootItem": {"href": "/mdr/root/ct/sendct/codelists/C158117", "title": "Version-agnostic anchor resource for codelist C158117", "type": "Root Value Domain"}, "self": {"href": "/mdr/ct/packages/sendct-2020-06-26/codelists/C158117", "title": "CDISC SEND Challenge Agent Parameter Long Name Terminology", "type": "Code List"}}, "conceptId": "C158117", "definition": "Terminology related to the parameter names of the challenge agent characteristics within a study.", "extensible": "true", "name": "Challenge Agent Parameter Long Name", "preferredTerm": "CDISC SEND Challenge Agent Parameter Long Name Terminology", "submissionValue": "ACPARM", "synonyms": ["Challenge Agent Parameter Long Name"], "terms": [{"conceptId": "C158310", "definition": "The name of the direct supplier of the master bank or seed stock of organisms from which the biological challenge agent came.", "preferredTerm": "Master Bank or Seed Stock Immediate Supplier", "submissionValue": "Bio Ag Master Bank/Seed Stock Dir Supp", "synonyms": ["Bio Master Bank or Seed Stock Dir Supp", "Bio Master Bank or Seed Stock Direct Supplier"]}, {"conceptId": "C158314", "definition": "An indication as to whether the primary molecular and biological characteristics of the working bank or primary stock were confirmed.", "preferredTerm": "Working Bank or Primary Stock Characterized Indicator", "submissionValue": "Bio Ag Work Bank/Primary Stock Char Ind", "synonyms": ["Bio Ag Work Bank/Primary Stock Char Ind", "Biological Working Bank or Primary Stock Characterized Indicator"]}, {"conceptId": "C158303", "definition": "Identifying biovar name of the biological challenge agent.", "preferredTerm": "Biological Agent Biovar Name", "submissionValue": "Biological Agent Biovar Name", "synonyms": ["Biological Agent Biovar Name"]}, {"conceptId": "C158308", "definition": "A general classification of the biological challenge agent used in the study.", "preferredTerm": "Biological Agent Type", "submissionValue": "Biological Agent Category", "synonyms": ["Biological Agent Category"]}, {"conceptId": "C158307", "definition": "An indication as to whether a certificate of analysis exists for the biological challenge agent.", "preferredTerm": "Biological Agent Certificate of Analysis Indicator", "submissionValue": "Biological Agent CoA Indicator", "synonyms": ["Biological Agent Certificate of Analysis Indicator", "Biological Agent CoA Indicator"]}, {"conceptId": "C158306", "definition": "An indication as to whether the biological challenge agent is engineered rather than naturally occurring.", "preferredTerm": "Biological Agent Engineered Indicator", "submissionValue": "Biological Agent Engineered Indicator", "synonyms": ["Biological Agent Engineered Indicator"]}, {"conceptId": "C158309", "definition": "The genus and species of the biological challenge agent used in the study.", "preferredTerm": "Biological Agent Genus and Species", "submissionValue": "Biological Agent Genus and Species", "synonyms": ["Biological Agent Genus and Species"]}, {"conceptId": "C158311", "definition": "The unique identifier code assigned by the manufacturer or distributor to a specific quantity of biological challenge agent. This may include batch number, lot number, spore lot number, batch/lot number, etc.", "preferredTerm": "Material Identification Code", "submissionValue": "Biological Agent Material Ident Code", "synonyms": ["Biological Agent Material Ident Code"]}, {"conceptId": "C158312", "definition": "An indication as to whether the genetic sequence of the biological challenge agent has been determined.", "preferredTerm": "Biological Agent Nucleotide Sequence Indicator", "submissionValue": "Biological Agent Nucleotide Sequence Ind", "synonyms": ["Biological Agent Nucleotide Sequence Ind", "Biological Agent Nucleotide Sequence Indicator"]}, {"conceptId": "C158313", "definition": "The reference, citation, or database location of the nucleotide sequence for the biological challenge agent.", "preferredTerm": "Biological Agent Nucleotide Sequence Location", "submissionValue": "Biological Agent Nucleotide Sequence Loc", "synonyms": ["Biological Agent Nucleotide Sequence Loc", "Biological Agent Nucleotide Sequence Location"]}, {"conceptId": "C158304", "definition": "Identifying serovar name of the biological challenge agent.", "preferredTerm": "Biological Agent Serovar Name", "submissionValue": "Biological Agent Serovar Name", "synonyms": ["Biological Agent Serovar Name"]}, {"conceptId": "C158305", "definition": "Identifying strain name of the biological challenge agent.", "preferredTerm": "Biological Agent Strain Name", "submissionValue": "Biological Agent Strain Name", "synonyms": ["Biological Agent Strain Name"]}, {"conceptId": "C161499", "definition": "A description of the area or extent of the body that is exposed to radiation, which may include information about the body part that is irradiated and procedures that may be done in conjunction with the radiation.", "preferredTerm": "Body Irradiation Model", "submissionValue": "Body Irradiation Model", "synonyms": ["Body Irradiation Model"]}, {"conceptId": "C158298", "definition": "A general classification of the challenge agent used in the study.", "preferredTerm": "Challenge Agent Category", "submissionValue": "Challenge Agent Category", "synonyms": ["Challenge Agent Category"]}, {"conceptId": "C158302", "definition": "The geographic location of the person, company, organization, or institution that supplied the challenge agent used in the study.", "preferredTerm": "Challenge Agent Supplier Address", "submissionValue": "Challenge Agent Supplier Address", "synonyms": ["Challenge Agent Supplier Address"]}, {"conceptId": "C158301", "definition": "The name of the person, company, organization, or institution that supplied the challenge agent used in the study.", "preferredTerm": "Challenge Agent Supplier Name", "submissionValue": "Challenge Agent Supplier Name", "synonyms": ["Challenge Agent Supplier Name"]}, {"conceptId": "C158317", "definition": "An indication as to whether a metabolite of the chemical challenge agent is known to cause or contribute to the injury or condition of interest.", "preferredTerm": "Challenge Agent Metabolite Caused Injury Indicator", "submissionValue": "Chemical Ag Metabolite Causes Injury Ind", "synonyms": ["Chemical Ag Metabolite Causes Injury Ind", "Chemical Agent Metabolite Causes Injury Indicator"]}, {"conceptId": "C158316", "definition": "The unique numerical identifier assigned by the Chemical Abstract Service (CAS), a division of the American Chemical Society, to the chemical challenge agent used in the study.", "preferredTerm": "Chemical Agent CAS Number", "submissionValue": "Chemical Agent CAS Number", "synonyms": ["Chemical Agent CAS Number"]}, {"conceptId": "C161503", "definition": "An indication as to whether a certificate of analysis exists for the chemical challenge agent.", "preferredTerm": "Chemical Agent Certificate of Analysis Indicator", "submissionValue": "Chemical Agent CoA Indicator", "synonyms": ["Chemical Agent CoA Indicator"]}, {"conceptId": "C161504", "definition": "The unique identifier code assigned by the manufacturer or distributor to a specific quantity of chemical challenge agent. This may include batch number, lot number, batch/lot number, etc.", "preferredTerm": "Chemical Agent Material Identification Code", "submissionValue": "Chemical Agent Material Ident Code", "synonyms": ["Chemical Agent Material Ident Code", "Chemical Agent Material Identification Code"]}, {"conceptId": "C158315", "definition": "The name of the chemical challenge agent used in the study.", "preferredTerm": "Chemical Challenge Agent Name", "submissionValue": "Chemical Agent Name", "synonyms": ["Chemical Agent Name"]}, {"conceptId": "C163571", "definition": "An indication as to whether the radiation injury is combined with infectious, physical, thermal, and/or chemical trauma.", "preferredTerm": "Radiation Combined Injury Indicator", "submissionValue": "Combined Injury (Rad and Non-Rad) Ind", "synonyms": ["Combined Injury (Rad and Non-Rad) Ind", "Combined Injury (Radiation and Non-Radiation) Indicator"]}, {"conceptId": "C161502", "definition": "The relative timing of the expected onset of the targeted injury, with respect to radiation exposure.", "preferredTerm": "Expected Onset of Rad/Nuc Targeted Injury", "submissionValue": "Exp Onset of Rad/Nuc Targeted Injury", "synonyms": ["Exp Onset of Rad/Nuc Targeted Injury", "Expected Onset of Rad/Nuc Targeted Injury"]}, {"conceptId": "C163572", "definition": "A description of the irradiation field as it pertains to orientation to the body and, when appropriate, the sequencing of exposure(s).", "preferredTerm": "Irradiation Field Orientation Sequence", "submissionValue": "Irradiation Field Orientation/Sequence", "synonyms": ["Irradiation Field Orientation/Sequence"]}, {"conceptId": "C158299", "definition": "An indication as to whether the animal was challenged with agents from more than one challenge agent category.", "preferredTerm": "Multiple Challenge Agent Different Category Indicator", "submissionValue": "Multiple Challenge Agent Category Ind", "synonyms": ["Multiple Challenge Agent Category Ind", "Multiple Challenge Agent Category Indicator"]}, {"conceptId": "C158300", "definition": "An indication as to whether the animal was challenged with more than one agent from a single challenge agent category.", "preferredTerm": "Multiple Challenge Agent Same Category Indicator", "submissionValue": "Multiple Challenge Agent Same Cat Ind", "synonyms": ["Multiple Challenge Agent Same Cat Ind", "Multiple Challenge Agent Same Category Indicator"]}, {"conceptId": "C161500", "definition": "The proportion of bone marrow that is not irradiated, i.e., shielded or removed from field.", "preferredTerm": "Percent Bone Marrow Shielded", "submissionValue": "Percent Bone Marrow Not Irradiated", "synonyms": ["Percent Bone Marrow Not Irradiated"]}, {"conceptId": "C158319", "definition": "The form of ionizing radiation that is emitted by the rad/nuc agent source.", "preferredTerm": "Radiological/Nuclear Agent Ionizing Radiation Type", "submissionValue": "Rad/Nuc Agent Ionizing Radiation Type", "synonyms": ["Rad/Nuc Agent Ionizing Radiation Type"]}, {"conceptId": "C158320", "definition": "The energy of the irradiation beam produced by the source.", "preferredTerm": "Radiological/Nuclear Agent Irradiation Source Beam Strength", "submissionValue": "Rad/Nuc Agent Irrad Source Beam Strength", "synonyms": ["Rad/Nuc Agent Irrad Source Beam Strength", "Rad/Nuc Agent Irradiation Source Beam Strength"]}, {"conceptId": "C158321", "definition": "An indication as to whether there is more than one type of ionizing radiation associated with the rad/nuc challenge.", "preferredTerm": "Challenge Agent Type Mixed Field Indicator", "submissionValue": "Rad/Nuc Agent Mixed Field Indicator", "synonyms": ["Rad/Nuc Agent Mixed Field Indicator"]}, {"conceptId": "C158322", "definition": "The literal identifier of the radioisotope, specified as the symbol of the chemical element followed by the mass number.", "preferredTerm": "Radioisotope Species Name", "submissionValue": "Rad/Nuc Agent Radioisotope Species Name", "synonyms": ["Rad/Nuc Agent Radioisotope Species Name"]}, {"conceptId": "C158318", "definition": "The mode by which the radiological or nuclear challenge agent is delivered to the subject.", "preferredTerm": "Radiological/Nuclear Challenge Agent Source Type", "submissionValue": "Rad/Nuc Agent Source", "synonyms": ["Rad/Nuc Agent Source"]}, {"conceptId": "C161501", "definition": "The type of radiation injury that is being induced in the animal.", "preferredTerm": "Rad/Nuc Targeted Injury Model", "submissionValue": "Rad/Nuc Targeted Injury Model", "synonyms": ["Rad/Nuc Targeted Injury Model"]}]}