{"_links": {"parentPackage": {"href": "/mdr/ct/packages/sendct-2020-06-26", "title": "SEND Controlled Terminology Package 42 Effective 2020-06-26", "type": "Terminology"}, "priorVersion": {"href": "/mdr/ct/packages/sendct-2020-03-27/codelists/C89973", "title": "CDISC SEND Microscopic Findings Test Name Terminology", "type": "Code List"}, "rootItem": {"href": "/mdr/root/ct/sendct/codelists/C89973", "title": "Version-agnostic anchor resource for codelist C89973", "type": "Root Value Domain"}, "self": {"href": "/mdr/ct/packages/sendct-2020-06-26/codelists/C89973", "title": "CDISC SEND Microscopic Findings Test Name Terminology", "type": "Code List"}}, "conceptId": "C89973", "definition": "Terminology for the test codes concerned with the non-clinical findings from a specimen that are visible by microscopic analysis.", "extensible": "true", "name": "SEND Microscopic Findings Test Name", "preferredTerm": "CDISC SEND Microscopic Findings Test Name Terminology", "submissionValue": "MITEST", "synonyms": ["SEND Microscopic Findings Test Name"], "terms": [{"conceptId": "C147493", "definition": "A qualitative microscopic examination of tissue sections to determine the presence of pathologic finding(s). This term is intended to be used for non-targeted examinations.", "preferredTerm": "Qualitative Histopathologic Examination", "submissionValue": "General Histopathologic Exam, Qual", "synonyms": ["General Histopathologic Examination, Qualitative", "General Histopathological Exam, Qual"]}]}