{"_links": {"parentPackage": {"href": "/mdr/ct/packages/protocolct-2020-03-27", "title": "PROTOCOL Controlled Terminology Package 41 Effective 2020-03-27", "type": "Terminology"}, "rootItem": {"href": "/mdr/root/ct/protocolct/codelists/C170440", "title": "Version-agnostic anchor resource for codelist C170440", "type": "Root Value Domain"}, "self": {"href": "/mdr/ct/packages/protocolct-2020-03-27/codelists/C170440", "title": "CDISC Protocol Endpoint Attribute Terminology", "type": "Code List"}}, "conceptId": "C170440", "definition": "A terminology value set relevant to the attributes of the endpoint entity.", "name": "Endpoint Attribute Terminology", "preferredTerm": "CDISC Protocol Endpoint Attribute Terminology", "submissionValue": "Endpoint Attribute Terminology", "synonyms": ["Endpoint Attribute Terminology"], "terms": [{"conceptId": "C170557", "definition": "A characterization or classification of the identified endpoint(s) for the study.", "preferredTerm": "Study Endpoint Type", "submissionValue": "Endpoint Type"}, {"conceptId": "C170558", "definition": "The rationale or explanation for why each study endpoint was chosen.", "preferredTerm": "Justification for Study Endpoint", "submissionValue": "Justification for Endpoint"}]}