{"_links": {"parentPackage": {"href": "/mdr/ct/packages/protocolct-2020-03-27", "title": "PROTOCOL Controlled Terminology Package 41 Effective 2020-03-27", "type": "Terminology"}, "rootItem": {"href": "/mdr/root/ct/protocolct/codelists/C170442", "title": "Version-agnostic anchor resource for codelist C170442", "type": "Root Value Domain"}, "self": {"href": "/mdr/ct/packages/protocolct-2020-03-27/codelists/C170442", "title": "CDISC Protocol Outcome Measure Type Value Set Terminology", "type": "Code List"}}, "conceptId": "C170442", "definition": "The terminology relevant to the type of outcome measure for the study.", "name": "Outcome Measure Type Value Set Terminology", "preferredTerm": "CDISC Protocol Outcome Measure Type Value Set Terminology", "submissionValue": "Outcome Measure Type Value Set Terminology", "synonyms": ["Outcome Measure Type Value Set Terminology"], "terms": [{"conceptId": "C98724", "definition": "The outcome measure(s) that is part of a pre-specified analysis plan used to evaluate the exploratory endpoint(s) associated with exploratory study objective(s) and/or any other measures, excluding post-hoc measures, that are a focus of the study. (After clinicaltrials.gov)", "preferredTerm": "Exploratory Outcome Measure", "submissionValue": "Exploratory Outcome Measure", "synonyms": ["Exploratory Outcome Measure"]}, {"conceptId": "C98772", "definition": "The outcome measure(s) of greatest importance specified in the protocol, usually the one(s) used in the power calculation, to evaluate the primary endpoint(s) associated with the primary study objective(s). (After Clinicaltrials.gov)", "preferredTerm": "Primary Outcome Measure", "submissionValue": "Primary Outcome Measure", "synonyms": ["Primary Outcome Measure"]}, {"conceptId": "C98781", "definition": "The outcome measure(s) that is part of a pre-specified analysis plan used to evaluate the secondary endpoint(s) associated with secondary study objective(s) and/or used to evaluate any measure(s) ancillary to the primary or secondary endpoint(s). (After Clinicaltrials.gov).", "preferredTerm": "Secondary Outcome Measure", "submissionValue": "Secondary Outcome Measure", "synonyms": ["Secondary Outcome Measure"]}]}