{"_links": {"parentPackage": {"href": "/mdr/ct/packages/adamct-2023-03-31", "title": "ADaM Controlled Terminology Package 53 Effective 2023-03-31", "type": "Terminology"}, "priorVersion": {"href": "/mdr/ct/packages/adamct-2022-06-24/codelists/C158114", "title": "CDISC ADaM Geriatric Depression Scale Short Form Questionnaire Parameter Code Terminology", "type": "Code List"}, "rootItem": {"href": "/mdr/root/ct/adamct/codelists/C158114", "title": "Version-agnostic anchor resource for codelist C158114", "type": "Root Value Domain"}, "self": {"href": "/mdr/ct/packages/adamct-2023-03-31/codelists/C158114", "title": "CDISC ADaM Geriatric Depression Scale Short Form Questionnaire Parameter Code Terminology", "type": "Code List"}}, "conceptId": "C158114", "definition": "A parameter code codelist for the Geriatric Depression Scale Short Form questionnaire (GDS02) to support the calculation of total score in ADaM.", "extensible": "false", "name": "Geriatric Depression Scale Short Form Questionnaire Parameter Code", "preferredTerm": "CDISC ADaM Geriatric Depression Scale Short Form Questionnaire Parameter Code Terminology", "submissionValue": "GDS02PC", "synonyms": ["Geriatric Depression Scale Short Form Questionnaire Parameter Code"], "terms": [{"conceptId": "C158155", "definition": "Geriatric Depression Scale Short Form - Total score used for analysis.", "preferredTerm": "Geriatric Depression Scale Short Form - Total Score for Analysis", "submissionValue": "GDS02TS", "synonyms": ["GDS02-Total Score - Analysis"]}]}