{"_links": {"parentPackage": {"href": "/mdr/ct/packages/adamct-2023-03-31", "title": "ADaM Controlled Terminology Package 53 Effective 2023-03-31", "type": "Terminology"}, "priorVersion": {"href": "/mdr/ct/packages/adamct-2022-06-24/codelists/C187456", "title": "CDISC ADaM Hamilton Depression Rating Scale - 17 Item Clinical Classification Parameter Code Terminology", "type": "Code List"}, "rootItem": {"href": "/mdr/root/ct/adamct/codelists/C187456", "title": "Version-agnostic anchor resource for codelist C187456", "type": "Root Value Domain"}, "self": {"href": "/mdr/ct/packages/adamct-2023-03-31/codelists/C187456", "title": "CDISC ADaM Hamilton Depression Rating Scale - 17 Item Clinical Classification Parameter Code Terminology", "type": "Code List"}}, "conceptId": "C187456", "definition": "A parameter code codelist for the Hamilton Depression Rating Scale - 17 Item Clinical Classification (HAMD 17) to support the calculation of total score in ADaM.", "extensible": "false", "name": "Hamilton Depression Rating Scale - 17 Item Clinical Classification Parameter Code", "preferredTerm": "CDISC ADaM Hamilton Depression Rating Scale - 17 Item Clinical Classification Parameter Code Terminology", "submissionValue": "HAMD1PC", "synonyms": ["Hamilton Depression Rating Scale - 17 Item Clinical Classification Parameter Code"], "terms": [{"conceptId": "C187466", "definition": "Hamilton Depression Rating Scale - 17 Item - Total score used for analysis.", "preferredTerm": "Hamilton Depression Rating Scale - 17 Item - Total Score for Analysis", "submissionValue": "HAMD1TS", "synonyms": ["HAMD1-Total Score - Analysis"]}]}