{"_links": {"parentPackage": {"href": "/mdr/ct/packages/adamct-2023-03-31", "title": "ADaM Controlled Terminology Package 53 Effective 2023-03-31", "type": "Terminology"}, "rootItem": {"href": "/mdr/root/ct/adamct/codelists/C193278", "title": "Version-agnostic anchor resource for codelist C193278", "type": "Root Value Domain"}, "self": {"href": "/mdr/ct/packages/adamct-2023-03-31/codelists/C193278", "title": "CDISC ADaM National Early Warning Score 2 Clinical Classification Parameter Code Terminology", "type": "Code List"}}, "conceptId": "C193278", "definition": "A parameter code codelist for the National Early Warning Score 2 Clinical Classification (NEWS2) to support the calculation of total score in ADaM.", "extensible": "false", "name": "National Early Warning Score 2 Clinical Classification Parameter Code", "preferredTerm": "CDISC ADaM National Early Warning Score 2 Clinical Classification Parameter Code Terminology", "submissionValue": "NEWS1PC", "synonyms": ["National Early Warning Score 2 Clinical Classification Parameter Code"], "terms": [{"conceptId": "C193374", "definition": "National Early Warning Score 2 - Trigger used for analysis.", "preferredTerm": "National Early Warning Score 2 - Trigger for Analysis", "submissionValue": "NEWS1TRG", "synonyms": ["NEWS1-Trigger - Analysis"]}, {"conceptId": "C193373", "definition": "National Early Warning Score 2 - Total score used for analysis.", "preferredTerm": "National Early Warning Score 2 - Total Score for Analysis", "submissionValue": "NEWS1TS", "synonyms": ["NEWS1-Total Score - Analysis"]}]}