{"_links": {"parentPackage": {"href": "/mdr/ct/packages/adamct-2017-03-31", "title": "ADaM Controlled Terminology Package 29 Effective 2017-03-31", "type": "Terminology"}, "priorVersion": {"href": "/mdr/ct/packages/adamct-2016-12-16/codelists/C81225", "title": "CDISC ADaM Parameter Type Terminology", "type": "Code List"}, "rootItem": {"href": "/mdr/root/ct/adamct/codelists/C81225", "title": "Version-agnostic anchor resource for codelist C81225", "type": "Root Value Domain"}, "self": {"href": "/mdr/ct/packages/adamct-2017-03-31/codelists/C81225", "title": "CDISC ADaM Parameter Type Terminology", "type": "Code List"}}, "conceptId": "C81225", "definition": "Parameter Type: Indicates whether the parameter is derived as a function of one or more other parameters.", "extensible": "false", "name": "Parameter Type", "preferredTerm": "CDISC ADaM Parameter Type Terminology", "submissionValue": "PARAMTYP", "synonyms": ["Parameter Type"], "terms": [{"conceptId": "C81197", "definition": "Derived: Indicates that a parameter is derived as a function of one or more other parameters.", "preferredTerm": "Derived Flag", "submissionValue": "DERIVED"}]}