{"_links": {"parentPackage": {"href": "/mdr/ct/packages/sdtmct-2017-12-22", "title": "SDTM Controlled Terminology Package 32 Effective 2017-12-22", "type": "Terminology"}, "priorVersion": {"href": "/mdr/ct/packages/sdtmct-2017-09-29/codelists/C100136", "title": "CDISC Questionnaire EQ-5D-3L Test Code Terminology", "type": "Code List"}, "rootItem": {"href": "/mdr/root/ct/sdtmct/codelists/C100136", "title": "Version-agnostic anchor resource for codelist C100136", "type": "Root Value Domain"}, "self": {"href": "/mdr/ct/packages/sdtmct-2017-12-22/codelists/C100136", "title": "CDISC Questionnaire EQ-5D-3L Test Code Terminology", "type": "Code List"}}, "conceptId": "C100136", "definition": "European Quality of Life Five Dimension Three Level Scale test code.", "extensible": "false", "name": "European Quality of Life Five Dimension Three Level Scale Questionnaire Test Code", "preferredTerm": "CDISC Questionnaire EQ-5D-3L Test Code Terminology", "submissionValue": "EQ5D01TC", "synonyms": ["European Quality of Life Five Dimension Three Level Scale Questionnaire Test Code"], "terms": [{"conceptId": "C100392", "definition": "European Quality of Life Five Dimension Three Level Scale - Indicate which statements best describe your own health state today: Mobility.", "preferredTerm": "EQ-5D-3L - Mobility", "submissionValue": "EQ5D0101", "synonyms": ["EQ5D01-Mobility"]}, {"conceptId": "C100393", "definition": "European Quality of Life Five Dimension Three Level Scale - Indicate which statements best describe your own health state today: Self-care.", "preferredTerm": "EQ-5D-3L - Self-Care", "submissionValue": "EQ5D0102", "synonyms": ["EQ5D01-Self-Care"]}, {"conceptId": "C100394", "definition": "European Quality of Life Five Dimension Three Level Scale - Indicate which statements best describe your own health state today: Usual activities.", "preferredTerm": "EQ-5D-3L - Usual Activities", "submissionValue": "EQ5D0103", "synonyms": ["EQ5D01-Usual Activities"]}, {"conceptId": "C100395", "definition": "European Quality of Life Five Dimension Three Level Scale - Indicate which statements best describe your own health state today: Pain/discomfort.", "preferredTerm": "EQ-5D-3L - Pain or Discomfort", "submissionValue": "EQ5D0104", "synonyms": ["EQ5D01-Pain/Discomfort"]}, {"conceptId": "C100396", "definition": "European Quality of Life Five Dimension Three Level Scale - Indicate which statements best describe your own health state today: Anxiety/depression.", "preferredTerm": "EQ-5D-3L - Anxiety or Depression", "submissionValue": "EQ5D0105", "synonyms": ["EQ5D01-Anxiety/Depression"]}, {"conceptId": "C100397", "definition": "European Quality of Life Five Dimension Three Level Scale - Indicate on this scale how good or bad your own health is today, in your opinion.", "preferredTerm": "EQ-5D-3L - EQ VAS Score", "submissionValue": "EQ5D0106", "synonyms": ["EQ5D01-EQ VAS Score"]}]}