{"_links": {"parentPackage": {"href": "/mdr/ct/packages/sdtmct-2017-12-22", "title": "SDTM Controlled Terminology Package 32 Effective 2017-12-22", "type": "Terminology"}, "priorVersion": {"href": "/mdr/ct/packages/sdtmct-2017-09-29/codelists/C106479", "title": "CDISC SDTM Reproductive System Findings Test Code Terminology", "type": "Code List"}, "rootItem": {"href": "/mdr/root/ct/sdtmct/codelists/C106479", "title": "Version-agnostic anchor resource for codelist C106479", "type": "Root Value Domain"}, "self": {"href": "/mdr/ct/packages/sdtmct-2017-12-22/codelists/C106479", "title": "CDISC SDTM Reproductive System Findings Test Code Terminology", "type": "Code List"}}, "conceptId": "C106479", "definition": "A terminology codelist for the physiological test codes related to the male and female reproductive systems.", "extensible": "true", "name": "Reproductive System Findings Test Code", "preferredTerm": "CDISC SDTM Reproductive System Findings Test Code Terminology", "submissionValue": "RPTESTCD", "synonyms": ["Reproductive System Findings Test Code"], "terms": [{"conceptId": "C106550", "definition": "A measurement of the total number of instances in which there has been a spontaneous termination of pregnancy (miscarriage) or elective termination of pregnancy.", "preferredTerm": "Number of Abortions", "submissionValue": "ABORTN", "synonyms": ["Number of Abortions"]}, {"conceptId": "C106501", "definition": "The method by which conception or impregnation is prevented.", "preferredTerm": "Birth Control Method", "submissionValue": "BCMETHOD", "synonyms": ["Birth Control Method"]}, {"conceptId": "C139265", "definition": "A measurement of the total number of live birth events at which the gestational age of the neonate is 39 weeks and 0 days through 40 weeks and 6 days.", "preferredTerm": "Number of Full Term Live Births", "submissionValue": "BRTHFTN", "synonyms": ["Number Full Term Live Births"]}, {"conceptId": "C16955", "definition": "A measurement of the total number of live-born offspring a female has delivered.", "preferredTerm": "Parity", "submissionValue": "BRTHLVN", "synonyms": ["Number of Live Births"]}, {"conceptId": "C139266", "definition": "A measurement of the total number of live birth events at which the gestational age of the neonate is less than 37 weeks and 0 days.", "preferredTerm": "Number of Premature Live Births", "submissionValue": "BRTHPRN", "synonyms": ["Number of Premature Live Births"]}, {"conceptId": "C139267", "definition": "A measurement of the total number of birth events at which the fetus is of at least 20 weeks gestation, or of a birth weight of at least 350 grams if the gestational age is unknown, which is born without signs of life at the time of delivery, and with an Apgar score of zero at both one and five minutes.", "preferredTerm": "Number of Stillbirths", "submissionValue": "BRTHSTN", "synonyms": ["Number of Stillbirths"]}, {"conceptId": "C122187", "definition": "An indication as to whether any abnormality was present at birth or during the neonatal period.", "preferredTerm": "Congenital Abnormality Indicator", "submissionValue": "CABNIND", "synonyms": ["Congenital Abnormality Indicator"]}, {"conceptId": "C106508", "definition": "An indicator as to whether the female subject has the potential to become pregnant. (NCI)", "preferredTerm": "Childbearing Potential", "submissionValue": "CHILDPOT", "synonyms": ["Childbearing Potential"]}, {"conceptId": "C120832", "definition": "A measurement of the total number of ectopic pregnancies experienced by a female subject.", "preferredTerm": "Number of Ectopic Pregnancies", "submissionValue": "ECTPREGN", "synonyms": ["Number of Ectopic Pregnancies"]}, {"conceptId": "C120833", "definition": "An approximate calculated date at which the conception event took place.", "preferredTerm": "Estimated Date of Conception", "submissionValue": "EDCDTC", "synonyms": ["Estimated Date of Conception"]}, {"conceptId": "C81247", "definition": "An approximate calculation of the delivery date.", "preferredTerm": "Expected Date of Confinement", "submissionValue": "EDLVRDTC", "synonyms": ["Estimated Date of Delivery"]}, {"conceptId": "C122188", "definition": "An approximate calculation of the gestational age of the fetus.", "preferredTerm": "Estimated Gestational Age", "submissionValue": "EGESTAGE", "synonyms": ["Estimated Gestational Age"]}, {"conceptId": "C122189", "definition": "A measurement of the total number of birth events at which the gestational age of the neonate is 37 weeks and 0 days through 38 weeks and 6 days.", "preferredTerm": "Number of Early Term Births", "submissionValue": "ERLYTRMN", "synonyms": ["Number of Early Term Births"]}, {"conceptId": "C120834", "definition": "A measurement of the total number of fetal deaths (death of a fetus at 16 weeks, 0 days to 19 weeks, 6 days of gestation)  experienced by a female subject.", "preferredTerm": "Number of Late Fetal Deaths", "submissionValue": "FETLDTHN", "synonyms": ["Number of Late Fetal Deaths"]}, {"conceptId": "C122190", "definition": "A measurement of the total number of birth events (both live and dead) at which the gestational age of the neonate is 39 weeks and 0 days through 40 weeks and 6 days.", "preferredTerm": "Number of Full Term Births", "submissionValue": "FULLTRMN", "synonyms": ["Number of Full Term Births"]}, {"conceptId": "C120835", "definition": "A measurement of the total number of induced abortions experienced by a female subject.", "preferredTerm": "Number of Induced Abortions", "submissionValue": "INABORTN", "synonyms": ["Number of Induced Abortions"]}, {"conceptId": "C81257", "definition": "The first day of the most recent menstrual cycle.", "preferredTerm": "Last Menstrual Period", "submissionValue": "LMPSTDTC", "synonyms": ["Last Menstrual Period Start Date"]}, {"conceptId": "C19666", "definition": "The age at which the first menstruation event occurred. (NCI)", "preferredTerm": "Age at Menarche", "submissionValue": "MENARAGE", "synonyms": ["Menarche Age"]}, {"conceptId": "C106497", "definition": "The age at which permanent cessation of menses occurred. (NCI)", "preferredTerm": "Age at Menopause", "submissionValue": "MENOAGE", "synonyms": ["Menopause Age"]}, {"conceptId": "C106541", "definition": "The status of a female with respect to menopause.", "preferredTerm": "Menopause Status", "submissionValue": "MENOSTAT", "synonyms": ["Menopause Status"]}, {"conceptId": "C119549", "definition": "The length of time of the menses cycle, measured from the beginning of one menstrual period to the beginning of the next.", "preferredTerm": "Menstrual Cycle Duration", "submissionValue": "MENSDUR", "synonyms": ["Menstrual Cycle Duration"]}, {"conceptId": "C122191", "definition": "An indication as to whether any pregnancies resulted in miscarriages.", "preferredTerm": "Miscarriage Indicator", "submissionValue": "MSCRGIND", "synonyms": ["Miscarriage Indicator"]}, {"conceptId": "C122192", "definition": "An indication as to whether the subject's pregnancy has been confirmed.", "preferredTerm": "Pregnancy Confirmed Indicator", "submissionValue": "PCONFIND", "synonyms": ["Pregnancy Confirmed Indicator"]}, {"conceptId": "C139264", "definition": "An indication as to whether the subject or associated person is pregnant at the time the question is asked.", "preferredTerm": "Pregnancy Indicator", "submissionValue": "PREGIND", "synonyms": ["Pregnant Indicator"]}, {"conceptId": "C106551", "definition": "A measurement of the total number of pregnancy events experienced by a female.", "preferredTerm": "Number of Pregnancies", "submissionValue": "PREGNN", "synonyms": ["Number of Pregnancies"]}, {"conceptId": "C106561", "definition": "An indicator as to whether a female is pregnant during the study period. (NCI)", "preferredTerm": "Pregnant During the Study", "submissionValue": "PREGST", "synonyms": ["Pregnant During the Study"]}, {"conceptId": "C122193", "definition": "A measurement of the total number of birth events (both live and dead) at which the gestational age of the neonate is less than 37 weeks and 0 days.", "preferredTerm": "Number of Premature Births", "submissionValue": "PREMBTHN", "synonyms": ["Number of Premature Births"]}, {"conceptId": "C120836", "definition": "A measurement of the total number of pregnancy events experienced by the female subject prior to the current pregnancy.", "preferredTerm": "Number of Previous Pregnancies", "submissionValue": "PRVPREGN", "synonyms": ["Number of Previous Pregnancies"]}, {"conceptId": "C120837", "definition": "A measurement of the total number of spontaneous abortions (in which the fetus is less than 20 weeks gestational age) experienced by a female subject.", "preferredTerm": "Number of Spontaneous Abortions", "submissionValue": "SPABORTN", "synonyms": ["Number of Spontaneous Abortions"]}, {"conceptId": "C122194", "definition": "An indication as to whether any pregnancies resulted in stillbirths.", "preferredTerm": "Stillbirth Indicator", "submissionValue": "STILBIND", "synonyms": ["Stillbirth Indicator"]}]}