{"_links": {"parentPackage": {"href": "/mdr/ct/packages/sdtmct-2017-12-22", "title": "SDTM Controlled Terminology Package 32 Effective 2017-12-22", "type": "Terminology"}, "priorVersion": {"href": "/mdr/ct/packages/sdtmct-2017-09-29/codelists/C116108", "title": "CDISC SDTM Death Diagnosis Test Code Terminology", "type": "Code List"}, "rootItem": {"href": "/mdr/root/ct/sdtmct/codelists/C116108", "title": "Version-agnostic anchor resource for codelist C116108", "type": "Root Value Domain"}, "self": {"href": "/mdr/ct/packages/sdtmct-2017-12-22/codelists/C116108", "title": "CDISC SDTM Death Diagnosis Test Code Terminology", "type": "Code List"}}, "conceptId": "C116108", "definition": "Terminology relevant to the test codes that describe the death diagnosis.", "extensible": "true", "name": "SDTM Death Diagnosis Test Code", "preferredTerm": "CDISC SDTM Death Diagnosis Test Code Terminology", "submissionValue": "DTHDXCD", "synonyms": ["SDTM Death Diagnosis Test Code"], "terms": [{"conceptId": "C135383", "definition": "The age at which death occurred. (NCI)", "preferredTerm": "Age at Death", "submissionValue": "AGEDTH", "synonyms": ["Age at Death"]}, {"conceptId": "C135384", "definition": "An indication as to whether an autopsy was performed. (NCI)", "preferredTerm": "Autopsy Indicator", "submissionValue": "AUTOPIND", "synonyms": ["Autopsy Indicator"]}, {"conceptId": "C135385", "definition": "An indication as to whether a death certificate was obtained. (NCI)", "preferredTerm": "Death Certification Indicator", "submissionValue": "DTHCOIND", "synonyms": ["Death Certificate Obtained Indicator"]}, {"conceptId": "C135386", "definition": "An indication as to whether a hospital medical record was obtained.", "preferredTerm": "Hospital Medical Record Indicator", "submissionValue": "HMROIND", "synonyms": ["Hospital Medical Record Obtained Ind", "Hospital Medical Record Obtained Indicator"]}, {"conceptId": "C124331", "definition": "The physical location at which the subject ceased to live.", "preferredTerm": "Location of Death", "submissionValue": "LOCDTH", "synonyms": ["Location of Death"]}, {"conceptId": "C99531", "definition": "The primary significant event which ultimately led to death.", "preferredTerm": "Primary Cause of Death", "submissionValue": "PRCDTH", "synonyms": ["Primary Cause of Death"]}, {"conceptId": "C116142", "definition": "The secondary significant event which ultimately led to death.", "preferredTerm": "Secondary Cause of Death", "submissionValue": "SECDTH", "synonyms": ["Secondary Cause of Death"]}]}