{"_links": {"parentPackage": {"href": "/mdr/ct/packages/sdtmct-2017-12-22", "title": "SDTM Controlled Terminology Package 32 Effective 2017-12-22", "type": "Terminology"}, "priorVersion": {"href": "/mdr/ct/packages/sdtmct-2017-09-29/codelists/C119016", "title": "CDISC SDTM Cardiovascular Findings About Results Terminology", "type": "Code List"}, "rootItem": {"href": "/mdr/root/ct/sdtmct/codelists/C119016", "title": "Version-agnostic anchor resource for codelist C119016", "type": "Root Value Domain"}, "self": {"href": "/mdr/ct/packages/sdtmct-2017-12-22/codelists/C119016", "title": "CDISC SDTM Cardiovascular Findings About Results Terminology", "type": "Code List"}}, "conceptId": "C119016", "definition": "Terminology responses used for the cardiovascular findings about test codes and names codelist within CDISC.", "extensible": "false", "name": "Cardiovascular Findings About Results", "preferredTerm": "CDISC SDTM Cardiovascular Findings About Results Terminology", "submissionValue": "CVFARS", "synonyms": ["Cardiovascular Findings About Results"], "terms": [{"conceptId": "C20080", "definition": "A method used to create an image of blood vessels.", "preferredTerm": "Angiography", "submissionValue": "ANGIOGRAPHY"}, {"conceptId": "C119199", "definition": "Initiation or intensification of orally administered medication(s) that promote diuresis to treat heart failure.", "preferredTerm": "Oral Diuretic Therapy Augmentation for Heart Failure", "submissionValue": "AUGMENTATION OF ORAL DIURETIC THERAPY"}, {"conceptId": "C25153", "definition": "A postmortem examination of the body.", "preferredTerm": "Autopsy", "submissionValue": "AUTOPSY"}, {"conceptId": "C119200", "definition": "Weight gain thought to be related to fluid retention.", "preferredTerm": "Weight Gain Due to Fluid Retention", "submissionValue": "CLINICALLY SIGNIFICANT OR RAPID WEIGHT GAIN"}, {"conceptId": "C119201", "definition": "Angiographic evidence of new or worse greater than or equal to 70 percent lesion and/or thrombus in an epicardial coronary artery believed to be responsible for the myocardial ischemic symptoms/signs. (Hicks KA, Tcheng JE, Bozkurt B, Chaitman BR, Cutlip DE, Farb A, Fonarow GC, Jacobs JP, Jaff MR, Lichtman JH, Limacher MC, Mahaffey KW, Mehran, R, Nissen SE, Smith EE, Targum SL. 2014 ACC/AHA Key Data Elements and Definitions For Cardiovascular Endpoint Events In Clinical Trials: a report of the American College of Cardiology/American Heart Association Task Force on Clinical Data Standards (Writing Committee to Develop Cardiovascular End Points Data Standards) J Am Coll Cardiol 2014; In Press)", "preferredTerm": "Coronary Lesion by Angiographic Finding", "submissionValue": "CORONARY LESION ON ANGIOGRAPHY"}, {"conceptId": "C119202", "definition": "Need for coronary revascularization procedure (PCI or CABG) for the presumed culprit lesion(s). This criterion would be fulfilled if revascularization was undertaken during the unscheduled hospitalization, or subsequent to transfer to another institution without interceding home discharge. (Hicks KA, Tcheng JE, Bozkurt B, Chaitman BR, Cutlip DE, Farb A, Fonarow GC, Jacobs JP, Jaff MR, Lichtman JH, Limacher MC, Mahaffey KW, Mehran, R, Nissen SE, Smith EE, Targum SL. 2014 ACC/AHA Key Data Elements and Definitions For Cardiovascular Endpoint Events In Clinical Trials: a report of the American College of Cardiology/American Heart Association Task Force on Clinical Data Standards (Writing Committee to Develop Cardiovascular End Points Data Standards) J Am Coll Cardiol 2014; In Press)", "preferredTerm": "Coronary Revascularization Procedure", "submissionValue": "CORONARY REVASCULARIZATION"}, {"conceptId": "C119203", "definition": "Reduced ability to withstand or participate in activities that induce physical or mental exertion.", "preferredTerm": "Decreased Exercise Tolerance", "submissionValue": "DECREASED EXERCISE TOLERANCE"}, {"conceptId": "C2998", "definition": "Includes dyspnea on exertion, dyspnea at rest, orthopnea, and paroxysmal nocturnal dyspnea.", "preferredTerm": "Dyspnea", "submissionValue": "DYSPNEA"}, {"conceptId": "C3036", "definition": "Unusual tiredness and inability to perform usual activities.", "preferredTerm": "Fatigue", "submissionValue": "FATIGUE"}, {"conceptId": "C119204", "definition": "An event where the patient is admitted to the hospital with a primary diagnosis of heart failure (HF), where the length of stay is at least 24 hours (or extends over a calendar date), where the patient exhibits new or worsening symptoms of HF on presentation, has objective evidence of new or worsening HF, and receives initiation or intensification of treatment specifically for HF. (Hicks KA, Tcheng JE, Bozkurt B, Chaitman BR, Cutlip DE, Farb A, Fonarow GC, Jacobs JP, Jaff MR, Lichtman JH, Limacher MC, Mahaffey KW, Mehran, R, Nissen SE, Smith EE, Targum SL. 2014 ACC/AHA Key Data Elements and Definitions For Cardiovascular Endpoint Events In Clinical Trials: a report of the American College of Cardiology/American Heart Association Task Force on Clinical Data Standards (Writing Committee to Develop Cardiovascular End Points Data Standards) J Am Coll Cardiol 2014; In Press)", "preferredTerm": "Hospitalization Due to Heart Failure", "submissionValue": "HEART FAILURE HOSPITALIZATION"}, {"conceptId": "C95803", "definition": "An acute episode of focal or global cerebral or spinal dysfunction caused by intraparenchymal, intraventricular, or subarachnoid hemorrhage.", "preferredTerm": "Hemorrhagic Cerebrovascular Accident", "submissionValue": "HEMORRHAGIC STROKE"}, {"conceptId": "C119205", "definition": "Biomarker increase (B-type natriuretic peptide (BNP)/ N-terminal pro-BNP (NT-proBNP)) consistent with decompensation of heart failure (such as BNP greater than 500 pg/mL or NT-proBNP greater than 2,000 pg/mL). In patients with chronically elevated natriuretic peptides, a significant increase above baseline is required. (Hicks KA, Tcheng JE, Bozkurt B, Chaitman BR, Cutlip DE, Farb A, Fonarow GC, Jacobs JP, Jaff MR, Lichtman JH, Limacher MC, Mahaffey KW, Mehran, R, Nissen SE, Smith EE, Targum SL. 2014 ACC/AHA Key Data Elements and Definitions For Cardiovascular Endpoint Events In Clinical Trials: a report of the American College of Cardiology/American Heart Association Task Force on Clinical Data Standards (Writing Committee to Develop Cardiovascular End Points Data Standards) J Am Coll Cardiol 2014; In Press)", "preferredTerm": "Increase in B-type Natriuretic Peptide or N-terminal pro-B-type Natriuretic Peptide", "submissionValue": "INCREASE IN HEART FAILURE BIOMARKER"}, {"conceptId": "C119206", "definition": "Increase in the estimated height of the mean jugular venous waveform above the right atrium in cm.", "preferredTerm": "Increase in Jugular Venous Pressure", "submissionValue": "INCREASED JUGULAR VENOUS PRESSURE OR HEPATOJUGULAR REFLUX"}, {"conceptId": "C2885", "definition": "Abnormal collection of fluid in the peritoneal cavity.", "preferredTerm": "Ascites", "submissionValue": "INCREASING ABDOMINAL DISTENTION OR ASCITES"}, {"conceptId": "C119207", "definition": "Definite evidence of inducible myocardial ischemia believed to be responsible for the myocardial ischemic symptoms/signs, demonstrated by any of the following: a) an early positive exercise stress test, defined as ST elevation of greater than or equal to 2 mm ST depression prior to 5 mets, b) stress echocardiography (reversible wall motion abnormality), c) myocardial scintigraphy (reversible perfusion defect), d) MRI (myocardial perfusion deficit under pharmacologic stress). (Hicks KA, Tcheng JE, Bozkurt B, Chaitman BR, Cutlip DE, Farb A, Fonarow GC, Jacobs JP, Jaff MR, Lichtman JH, Limacher MC, Mahaffey KW, Mehran, R, Nissen SE, Smith EE, Targum SL. 2014 ACC/AHA Key Data Elements and Definitions For Cardiovascular Endpoint Events In Clinical Trials: a report of the American College of Cardiology/American Heart Association Task Force on Clinical Data Standards (Writing Committee to Develop Cardiovascular End Points Data Standards) J Am Coll Cardiol 2014; In Press)", "preferredTerm": "Inducible Myocardial Ischemia", "submissionValue": "INDUCIBLE MYOCARDIAL ISCHEMIA"}, {"conceptId": "C119208", "definition": "Initiation or intensification of medication(s) administered by vein to treat heart failure, to increase the production of urine, increase cardiac performance, and/or reduce cardiac preload or afterload.", "preferredTerm": "Intravenous Diuretic, Inotropic or Vasodilator Augmentation for Heart Failure", "submissionValue": "INTRAVENOUS DIURETIC, INOTROPE, OR VASODILATOR THERAPY"}, {"conceptId": "C119209", "definition": "Invasive diagnostic evidence with right heart catheterization showing a pulmonary capillary wedge pressure (pulmonary artery occlusion pressure) greater than or equal to 18 mmHg, central venous pressure greater than or equal to 12 mmHg, or a cardiac index less than 2.2 L/min/m2. (Hicks KA, Tcheng JE, Bozkurt B, Chaitman BR, Cutlip DE, Farb A, Fonarow GC, Jacobs JP, Jaff MR, Lichtman JH, Limacher MC, Mahaffey KW, Mehran, R, Nissen SE, Smith EE, Targum SL. 2014 ACC/AHA Key Data Elements and Definitions For Cardiovascular Endpoint Events In Clinical Trials: a report of the American College of Cardiology/American Heart Association Task Force on Clinical Data Standards (Writing Committee to Develop Cardiovascular End Points Data Standards) J Am Coll Cardiol 2014; In Press)", "preferredTerm": "Heart Failure by Invasive Diagnostic Technique", "submissionValue": "INVASIVE DIAGNOSTIC EVIDENCE OF HEART FAILURE"}, {"conceptId": "C95802", "definition": "Ischemic stroke is defined as an acute episode of focal cerebral, spinal, or retinal dysfunction caused by infarction of central nervous system tissue.", "preferredTerm": "Ischemic Cerebrovascular Accident", "submissionValue": "ISCHEMIC STROKE"}, {"conceptId": "C119210", "definition": "Angiographic loss of patency of a side branch.", "preferredTerm": "Loss of Patency of Side Branch", "submissionValue": "LOSS OF A SIDE BRANCH"}, {"conceptId": "C119211", "definition": "Angiographic loss of patency of a major epicardial vessel.", "preferredTerm": "Loss of Patency of Major Vessel", "submissionValue": "LOSS OF MAJOR CORONARY"}, {"conceptId": "C119212", "definition": "Mechanical circulatory support (e.g., intra-aortic balloon pump, ventricular assist device, extracorporeal membrane oxygenation, total artificial heart) or mechanical fluid removal (e.g., ultrafiltration, hemofiltration, dialysis). (Hicks KA, Tcheng JE, Bozkurt B, Chaitman BR, Cutlip DE, Farb A, Fonarow GC, Jacobs JP, Jaff MR, Lichtman JH, Limacher MC, Mahaffey KW, Mehran, R, Nissen SE, Smith EE, Targum SL. 2014 ACC/AHA Key Data Elements and Definitions For Cardiovascular Endpoint Events In Clinical Trials: a report of the American College of Cardiology/American Heart Association Task Force on Clinical Data Standards (Writing Committee to Develop Cardiovascular End Points Data Standards) J Am Coll Cardiol 2014; In Press)", "preferredTerm": "Vasculature Mechanical or Surgical Intervention", "submissionValue": "MECHANICAL OR SURGICAL INTERVENTION"}, {"conceptId": "C119213", "definition": "Non-invasive imaging evidence of a loss of viable myocardium when compared with the most recent previous non-invasive imaging study.", "preferredTerm": "New Loss of Viable Myocardium by Non-invasive Imaging Technique", "submissionValue": "NEW LOSS OF VIABLE MYOCARDIUM"}, {"conceptId": "C119214", "definition": "Non-invasive imaging evidence of a decrease in regional wall motion contractility compared with the most recent previous non-invasive imaging study.", "preferredTerm": "New Regional Wall Motion Abnormality by Non-invasive Imaging Technique", "submissionValue": "NEW REGIONAL WALL MOTION ABNORMALITY"}, {"conceptId": "C119215", "definition": "Non-invasive diagnostic evidence of clinically significant elevated left- or right-sided ventricular filling pressure or low cardiac output. For example, echocardiographic criteria could include: E/e' greater than 15 or D-dominant pulmonary venous inflow pattern, plethoric inferior vena cava with minimal collapse on inspiration, or decreased left ventricular outflow tract (LVOT) minute stroke distance (time velocity integral (TVI)). (Hicks KA, Tcheng JE, Bozkurt B, Chaitman BR, Cutlip DE, Farb A, Fonarow GC, Jacobs JP, Jaff MR, Lichtman JH, Limacher MC, Mahaffey KW, Mehran, R, Nissen SE, Smith EE, Targum SL. 2014 ACC/AHA Key Data Elements and Definitions For Cardiovascular Endpoint Events In Clinical Trials: a report of the American College of Cardiology/American Heart Association Task Force on Clinical Data Standards (Writing Committee to Develop Cardiovascular End Points Data Standards) J Am Coll Cardiol 2014; In Press)", "preferredTerm": "Heart Failure by Non-invasive Diagnostic Technique", "submissionValue": "NON-INVASIVE DIAGNOSTIC EVIDENCE OF HEART FAILURE"}, {"conceptId": "C78262", "definition": "Increased tissue fluid indicated by perceptible pitting indentation on lower leg, foot or sacrum after palpation.", "preferredTerm": "Edema Limbs", "submissionValue": "PERIPHERAL EDEMA"}, {"conceptId": "C119216", "definition": "Abnormal breath sounds caused by the accumulation of fluid in the lungs.", "preferredTerm": "Rales", "submissionValue": "PULMONARY RALES/CRACKLES/CREPITATIONS"}, {"conceptId": "C119217", "definition": "Imaging findings consistent with increased intravascular blood volume in the lungs.", "preferredTerm": "Pulmonary Congestion by Radiological Technique", "submissionValue": "RADIOLOGICAL EVIDENCE OF PULMONARY CONGESTION"}, {"conceptId": "C119218", "definition": "New or worsening ST or T wave changes on resting ECG (in the absence of confounders, such as LBBB or LVH), defined as either: a) Transient ST elevation (duration less than 20 minutes): new ST elevation at the J point in any two contiguous leads (other than leads V2-V3) of greater than or equal to 0.1 mV. In leads V2-V3, the following cut-points apply: greater than or equal to 0.2 mV in men greater than or equal to 40 years, greater than or equal to 0.25 mV in men less than 40 years, and greater than or equal to 0.15 mV in women, or b) ST depression and T-wave changes: new horizontal or down-sloping ST depression greater than or equal to 0.05 mV in two contiguous leads and/or new T inversion greater than or equal to 0.3 mV in two contiguous leads with prominent R wave or R/S ratio greater than 1.", "preferredTerm": "Resting ECG Changes", "submissionValue": "RESTING ECG CHANGES"}, {"conceptId": "C61455", "definition": "Presence of mid-diastolic heart sound.", "preferredTerm": "S3 Gallop", "submissionValue": "S3 GALLOP"}, {"conceptId": "C119219", "definition": "Angiographic reduction of flow into the coronary microcirculation.", "preferredTerm": "Flow Reduced in Coronary Microcirculation", "submissionValue": "SLOW-FLOW/NO-FLOW/EMBOLIZATION"}, {"conceptId": "C123439", "definition": "0 to 24 hours after stent implantation. (Cutlip DE, Windecker S, Mehran R, et al. Clinical End Points in Coronary Stent Trials : A Case for Standardized Definitions. Circulation. 2007;115:2344-2351)", "preferredTerm": "Academic Research Council Acute Stent Thrombosis", "submissionValue": "STENT THROMBOSIS ARC ACUTE"}, {"conceptId": "C123440", "definition": "Greater than 30 days to 1 year after stent implantation. (Cutlip DE, Windecker S, Mehran R, et al. Clinical End Points in Coronary Stent Trials : A Case for Standardized Definitions. Circulation. 2007;115:2344-2351)", "preferredTerm": "Academic Research Council Late Stent Thrombosis", "submissionValue": "STENT THROMBOSIS ARC LATE"}, {"conceptId": "C123441", "definition": "Greater than 24 hours to 30 days after stent implantation. (Cutlip DE, Windecker S, Mehran R, et al. Clinical End Points in Coronary Stent Trials : A Case for Standardized Definitions. Circulation. 2007;115:2344-2351)", "preferredTerm": "Academic Research Council Subacute Stent Thrombosis", "submissionValue": "STENT THROMBOSIS ARC SUBACUTE"}, {"conceptId": "C123442", "definition": "Greater than 1 year after stent implantation. (Cutlip DE, Windecker S, Mehran R, et al. Clinical End Points in Coronary Stent Trials : A Case for Standardized Definitions. Circulation. 2007;115:2344-2351)", "preferredTerm": "Academic Research Council Very Late Stent Thrombosis", "submissionValue": "STENT THROMBOSIS ARC VERY LATE"}, {"conceptId": "C119220", "definition": "Spontaneous clinical syndrome related to atherosclerotic plaque rupture, ulceration, fissuring, erosion, or dissection, with resulting intraluminal thrombus, and leading to decreased myocardial blood flow or distal platelet emboli with ensuing myocyte necrosis. This classification requires a) detection of a rise and/or fall of cardiac biomarker values [preferably cardiac troponin (cTn)] with at least one value greater than 99th percentile of the upper reference limit (URL) and b) at least one of the following: symptoms of myocardial ischemia; new or presumed new significant ST-segment-T wave (ST-T) changes or new left bundle branch block (LBBB) on the ECG; development of pathological Q waves on the ECG; imaging evidence of new loss of viable myocardium or new regional wall motion abnormality; identification of an intracoronary thrombus by angiography or autopsy. (Universal definition of myocardial infarction, Kristian Thygesen, Joseph S. Alpert and Harvey D. White on behalf of the Joint ESC/ACCF/AHA/WHF Task Force for the Redefinition of Myocardial Infarction, Eur Heart J (2007) 28 (20): 2525-2538.)", "preferredTerm": "Joint Task Force Type 1 Myocardial Infarction", "submissionValue": "TYPE 1 MYOCARDIAL INFARCTION"}, {"conceptId": "C119221", "definition": "Ischemic imbalance: Spontaneous clinical syndrome where a condition other than coronary artery disease contributes to an imbalance between myocardial oxygen supply and/or demand, e.g. coronary endothelial dysfunction, coronary artery spasm, coronary embolism, tachy-/brady-arrhythmias, anemia, respiratory failure, hypotension, and hypertension with or without left ventricular hypertrophy. This classification requires detection of a rise and/or fall of cardiac biomarker values [preferably cardiac troponin (cTn)] with at least one value greater than 99th percentile of the upper reference limit (URL) and b) at least one of the following: symptoms of myocardial ischemia; new or presumed new significant ST-segment-T wave (ST-T) changes or new left bundle branch block (LBBB) on the ECG; development of pathological Q waves on the ECG; imaging evidence of new loss of viable myocardium or new regional wall motion abnormality. (Universal definition of myocardial infarction, Kristian Thygesen, Joseph S. Alpert and Harvey D. White on behalf of the Joint ESC/ACCF/AHA/WHF Task Force for the Redefinition of Myocardial Infarction, Eur Heart J (2007) 28 (20): 2525-2538.)", "preferredTerm": "Joint Task Force Type 2 Myocardial Infarction", "submissionValue": "TYPE 2 MYOCARDIAL INFARCTION"}, {"conceptId": "C119222", "definition": "Death, No Biomarkers: Death where symptoms suggestive of myocardial ischemia are present, and with (presumed) new ischemic changes or new LBBB on ECG, but where death occurs before cardiac biomarkers can be obtained, or before cardiac biomarker values could rise. (Universal definition of myocardial infarction, Kristian Thygesen, Joseph S. Alpert and Harvey D. White on behalf of the Joint ESC/ACCF/AHA/WHF Task Force for the Redefinition of Myocardial Infarction, Eur Heart J (2007) 28 (20): 2525-2538.)", "preferredTerm": "Joint Task Force Type 3 Myocardial Infarction", "submissionValue": "TYPE 3 MYOCARDIAL INFARCTION"}, {"conceptId": "C119223", "definition": "PCI Related: PCI Related Myocardial infarction associated with and occurring within 48h of percutaneous coronary intervention, with elevation of cardiac biomarker values to greater than 5x 99th percentile of the upper reference limit (URL) in patients with normal baseline values (less than or equal to 99th percentile URL), or a rise of cardiac biomarker values greater than or equal to 20% if the baseline values are elevated and are stable or falling. This classification also requires at least one of the following: symptoms of myocardial ischemia; new ischemic ECG changes or new LBBB; angiographic loss of patency of a major coronary artery or a side branch or persistent slow- or no-flow or embolization; imaging evidence of new loss of viable myocardium or new regional wall motion abnormality. (Universal definition of myocardial infarction, Kristian Thygesen, Joseph S. Alpert and Harvey D. White on behalf of the Joint ESC/ACCF/AHA/WHF Task Force for the Redefinition of Myocardial Infarction, Eur Heart J (2007) 28 (20): 2525-2538.)", "preferredTerm": "Joint Task Force Type 4A Myocardial Infarction", "submissionValue": "TYPE 4A MYOCARDIAL INFARCTION"}, {"conceptId": "C119224", "definition": "Stent Thrombosis: Myocardial infarction associated with stent thrombosis as detected by coronary angiography or at autopsy, where symptoms suggestive of myocardial ischemia are present, and with a rise and/or fall of cardiac biomarkers values, with at least one value greater than 99th percentile of the upper reference limit. (Universal definition of myocardial infarction, Kristian Thygesen, Joseph S. Alpert and Harvey D. White on behalf of the Joint ESC/ACCF/AHA/WHF Task Force for the Redefinition of Myocardial Infarction, Eur Heart J (2007) 28 (20): 2525-2538.)", "preferredTerm": "Joint Task Force Type 4B Myocardial Infarction", "submissionValue": "TYPE 4B MYOCARDIAL INFARCTION"}, {"conceptId": "C119225", "definition": "Stent Restenosis: Myocardial infarction associated with stent restenosis as detected by coronary angiography or at autopsy, occurring more than 48h after percutaneous coronary intervention, without evidence of stent thrombosis but with symptoms suggestive of myocardial ischemia, and with elevation of cardiac biomarker values to greater than 99th percentile of the upper reference limit (URL). This classification also requires the following: does not meet criteria for any other classification of myocardial infarction; presence of a greater than or equal to 50 percent stenosis at the site of previous successful stent PCI. (Universal definition of myocardial infarction, Kristian Thygesen, Joseph S. Alpert and Harvey D. White on behalf of the Joint ESC/ACCF/AHA/WHF Task Force for the Redefinition of Myocardial Infarction, Eur Heart J (2007) 28 (20): 2525-2538.)", "preferredTerm": "Joint Task Force Type 4C Myocardial Infarction", "submissionValue": "TYPE 4C MYOCARDIAL INFARCTION"}, {"conceptId": "C119226", "definition": "CABG Related: Myocardial infarction associated with and occurring within 48h of coronary artery bypass graft surgery, with elevation of cardiac biomarker values to greater than 10x 99th percentile of the upper reference limit (URL) in patients with normal baseline cardiac biomarker values (less than or equal to 99th percentile URL). This classification also requires at least one of the following: new pathologic Q waves or new LBBB on ECG; angiographic new graft or new native coronary artery occlusion; imaging evidence of new loss of viable myocardium or new regional wall motion abnormality. (Universal definition of myocardial infarction, Kristian Thygesen, Joseph S. Alpert and Harvey D. White on behalf of the Joint ESC/ACCF/AHA/WHF Task Force for the Redefinition of Myocardial Infarction, Eur Heart J (2007) 28 (20): 2525-2538.)", "preferredTerm": "Joint Task Force Type 5 Myocardial Infarction", "submissionValue": "TYPE 5 MYOCARDIAL INFARCTION"}, {"conceptId": "C3390", "definition": "An acute episode of focal or global neurological dysfunction caused by presumed brain, spinal cord, or retinal vascular injury as a result of hemorrhage or infarction but with insufficient information to allow categorization as ischemic or hemorrhagic.", "preferredTerm": "Cerebrovascular Accident", "submissionValue": "UNDETERMINED STROKE"}, {"conceptId": "C119227", "definition": "An event where the patient has an urgent, unscheduled office/practice or emergency department visit for a primary diagnosis of heart failure (HF) but is not admitted to the hospital, where the patient exhibits new or worsening symptoms of HF on presentation, has objective evidence of new or worsening HF, and receives initiation or intensification of treatment specifically for HF, with the exception that changes to oral diuretic therapy do no qualify as initiation or intensification of treatment. (Hicks KA, Tcheng JE, Bozkurt B, Chaitman BR, Cutlip DE, Farb A, Fonarow GC, Jacobs JP, Jaff MR, Lichtman JH, Limacher MC, Mahaffey KW, Mehran, R, Nissen SE, Smith EE, Targum SL. 2014 ACC/AHA Key Data Elements and Definitions For Cardiovascular Endpoint Events In Clinical Trials: a report of the American College of Cardiology/American Heart Association Task Force on Clinical Data Standards (Writing Committee to Develop Cardiovascular End Points Data Standards) J Am Coll Cardiol 2014; In Press)", "preferredTerm": "ER or Office Visit Due to Heart Failure", "submissionValue": "URGENT HEART FAILURE VISIT"}, {"conceptId": "C50591", "definition": "Excessive accumulation of intravascular fluid resulting from compromised regulatory mechanisms.", "preferredTerm": "Hypervolemia", "submissionValue": "VOLUME OVERLOAD"}, {"conceptId": "C119228", "definition": "Decreased blood supply to the vital organs (kidney, liver, lungs, heart, brain).", "preferredTerm": "Worsened End-Organ Perfusion", "submissionValue": "WORSENED END-ORGAN PERFUSION"}]}