{"_links": {"parentPackage": {"href": "/mdr/ct/packages/sdtmct-2017-12-22", "title": "SDTM Controlled Terminology Package 32 Effective 2017-12-22", "type": "Terminology"}, "priorVersion": {"href": "/mdr/ct/packages/sdtmct-2017-09-29/codelists/C127268", "title": "CDISC SDTM Disease Presentation Type Terminology", "type": "Code List"}, "rootItem": {"href": "/mdr/root/ct/sdtmct/codelists/C127268", "title": "Version-agnostic anchor resource for codelist C127268", "type": "Root Value Domain"}, "self": {"href": "/mdr/ct/packages/sdtmct-2017-12-22/codelists/C127268", "title": "CDISC SDTM Disease Presentation Type Terminology", "type": "Code List"}}, "conceptId": "C127268", "definition": "Terminology relevant to the symptoms and/or clinical manifestation of a disease.", "extensible": "true", "name": "Disease Presentation Type", "preferredTerm": "CDISC SDTM Disease Presentation Type Terminology", "submissionValue": "DSPRTYP", "synonyms": ["Disease Presentation Type"], "terms": [{"conceptId": "C127606", "definition": "A lesion that demonstrates both cystic and solid components; the solid components can range from thin walls (septae) to a solid tissue mass.", "preferredTerm": "Complex Cystic Lesion", "submissionValue": "COMPLEX CYSTIC LESION"}, {"conceptId": "C3003", "definition": "Abnormal collection of fluid in a body cavity.", "preferredTerm": "Effusion", "submissionValue": "EFFUSION"}, {"conceptId": "C2885", "definition": "Abnormal collection of fluid in the peritoneal cavity.", "preferredTerm": "Ascites", "submissionValue": "INCREASING ABDOMINAL DISTENTION OR ASCITES"}, {"conceptId": "C4958", "definition": "A malignant neoplasm that has spread from its original site to the arachnoid mater and the pia mater, the two innermost layers of tissue that cover the brain and spinal cord.", "preferredTerm": "Leptomeningeal Neoplasm", "submissionValue": "LEPTOMENINGEAL DISEASE"}]}