{"_links": {"parentPackage": {"href": "/mdr/ct/packages/sdtmct-2017-12-22", "title": "SDTM Controlled Terminology Package 32 Effective 2017-12-22", "type": "Terminology"}, "priorVersion": {"href": "/mdr/ct/packages/sdtmct-2017-09-29/codelists/C127265", "title": "CDISC SDTM Mode of Disease Transmission Terminology", "type": "Code List"}, "rootItem": {"href": "/mdr/root/ct/sdtmct/codelists/C127265", "title": "Version-agnostic anchor resource for codelist C127265", "type": "Root Value Domain"}, "self": {"href": "/mdr/ct/packages/sdtmct-2017-12-22/codelists/C127265", "title": "CDISC SDTM Mode of Disease Transmission Terminology", "type": "Code List"}}, "conceptId": "C127265", "definition": "The terminology relevant to the mechanism by which a disease is transmitted.", "extensible": "true", "name": "Mode of Disease Transmission", "preferredTerm": "CDISC SDTM Mode of Disease Transmission Terminology", "submissionValue": "MODTRN", "synonyms": ["Mode of Disease Transmission"], "terms": [{"conceptId": "C127773", "definition": "The transmission of a disease from one individual to another within the same species.", "preferredTerm": "Horizontal Transmission", "submissionValue": "HORIZONTAL TRANSMISSION"}, {"conceptId": "C98977", "definition": "The transmission of a disease from the mother to the fetus or newborn.", "preferredTerm": "Maternal Transmission", "submissionValue": "VERTICAL TRANSMISSION"}]}