{"_links": {"parentPackage": {"href": "/mdr/ct/packages/sdtmct-2017-12-22", "title": "SDTM Controlled Terminology Package 32 Effective 2017-12-22", "type": "Terminology"}, "priorVersion": {"href": "/mdr/ct/packages/sdtmct-2017-09-29/codelists/C128681", "title": "CDISC SDTM Gastrointestinal Test Name Terminology", "type": "Code List"}, "rootItem": {"href": "/mdr/root/ct/sdtmct/codelists/C128681", "title": "Version-agnostic anchor resource for codelist C128681", "type": "Root Value Domain"}, "self": {"href": "/mdr/ct/packages/sdtmct-2017-12-22/codelists/C128681", "title": "CDISC SDTM Gastrointestinal Test Name Terminology", "type": "Code List"}}, "conceptId": "C128681", "definition": "A terminology codelist based on the test names for physiological findings related to the gastrointestinal system.", "extensible": "true", "name": "Gastrointestinal Test Name", "preferredTerm": "CDISC SDTM Gastrointestinal Test Name Terminology", "submissionValue": "GASTRO", "synonyms": ["Gastrointestinal Test Name"], "terms": [{"conceptId": "C119332", "definition": "A quantitative measurement of an organ's ability to deform in response to physiological force and return to its normal shape by passive elastic recoil.", "preferredTerm": "Organ Elasticity", "submissionValue": "Elasticity", "synonyms": ["Elasticity"]}, {"conceptId": "C139184", "definition": "A measurement of the distance between the rectal tumor and the anal margin.", "preferredTerm": "Rectal Tumor to Anal Verge Distance", "submissionValue": "Rectal Tumor to Anal Verge Distance", "synonyms": ["Rectal Tumor to Anal Verge Distance"]}]}