{"_links": {"parentPackage": {"href": "/mdr/ct/packages/sdtmct-2017-12-22", "title": "SDTM Controlled Terminology Package 32 Effective 2017-12-22", "type": "Terminology"}, "priorVersion": {"href": "/mdr/ct/packages/sdtmct-2017-09-29/codelists/C130253", "title": "CDISC Questionnaire FACT-LEU Version 4 Test Code Terminology", "type": "Code List"}, "rootItem": {"href": "/mdr/root/ct/sdtmct/codelists/C130253", "title": "Version-agnostic anchor resource for codelist C130253", "type": "Root Value Domain"}, "self": {"href": "/mdr/ct/packages/sdtmct-2017-12-22/codelists/C130253", "title": "CDISC Questionnaire FACT-LEU Version 4 Test Code Terminology", "type": "Code List"}}, "conceptId": "C130253", "definition": "Functional Assessment of Cancer Therapy-Leukemia Version 4 test code.", "extensible": "false", "name": "Functional Assessment of Cancer Therapy-Leukemia Version 4 Questionnaire Test Code", "preferredTerm": "CDISC Questionnaire FACT-LEU Version 4 Test Code Terminology", "submissionValue": "FAC017TC", "synonyms": ["Functional Assessment of Cancer Therapy-Leukemia Version 4 Questionnaire Test Code"], "terms": [{"conceptId": "C130414", "definition": "Functional Assessment of Cancer Therapy-Leukemia Version 4 - Physical Well-Being: I have a lack of energy.", "preferredTerm": "FACT-LEU Version 4 - I Have a Lack of Energy", "submissionValue": "FAC01701", "synonyms": ["FAC017-I Have a Lack of Energy"]}, {"conceptId": "C130415", "definition": "Functional Assessment of Cancer Therapy-Leukemia Version 4 - Physical Well-Being: I have nausea.", "preferredTerm": "FACT-LEU Version 4 - I Have Nausea", "submissionValue": "FAC01702", "synonyms": ["FAC017-I Have Nausea"]}, {"conceptId": "C130416", "definition": "Functional Assessment of Cancer Therapy-Leukemia Version 4 - Physical Well-Being: Because of my physical condition, I have trouble meeting the needs of my family.", "preferredTerm": "FACT-LEU Version 4 - Trouble Meeting Needs of Family", "submissionValue": "FAC01703", "synonyms": ["FAC017-Trouble Meeting Needs of Family"]}, {"conceptId": "C130417", "definition": "Functional Assessment of Cancer Therapy-Leukemia Version 4 - Physical Well-Being: I have pain.", "preferredTerm": "FACT-LEU Version 4 - I Have Pain", "submissionValue": "FAC01704", "synonyms": ["FAC017-I Have Pain"]}, {"conceptId": "C130418", "definition": "Functional Assessment of Cancer Therapy-Leukemia Version 4 - Physical Well-Being: I am bothered by side effects of treatment.", "preferredTerm": "FACT-LEU Version 4 - Bothered by Treatment Side Effect", "submissionValue": "FAC01705", "synonyms": ["FAC017-Bothered by Treatment Side Effect"]}, {"conceptId": "C130419", "definition": "Functional Assessment of Cancer Therapy-Leukemia Version 4 - Physical Well-Being: I feel ill.", "preferredTerm": "FACT-LEU Version 4 - I Feel Ill", "submissionValue": "FAC01706", "synonyms": ["FAC017-I Feel Ill"]}, {"conceptId": "C130420", "definition": "Functional Assessment of Cancer Therapy-Leukemia Version 4 - Physical Well-Being: I am forced to spend time in bed.", "preferredTerm": "FACT-LEU Version 4 - I Am Forced to Spend Time in Bed", "submissionValue": "FAC01707", "synonyms": ["FAC017-I Am Forced to Spend Time in Bed"]}, {"conceptId": "C130421", "definition": "Functional Assessment of Cancer Therapy-Leukemia Version 4 - Social/Family Well-Being: I feel close to my friends.", "preferredTerm": "FACT-LEU Version 4 - I Feel Close to My Friends", "submissionValue": "FAC01708", "synonyms": ["FAC017-I Feel Close to My Friends"]}, {"conceptId": "C130422", "definition": "Functional Assessment of Cancer Therapy-Leukemia Version 4 - Social/Family Well-Being: I get emotional support from my family.", "preferredTerm": "FACT-LEU Version 4 - Get Emotional Support From Family", "submissionValue": "FAC01709", "synonyms": ["FAC017-Get Emotional Support From Family"]}, {"conceptId": "C130423", "definition": "Functional Assessment of Cancer Therapy-Leukemia Version 4 - Social/Family Well-Being: I get support from my friends.", "preferredTerm": "FACT-LEU Version 4 - I Get Support From My Friends", "submissionValue": "FAC01710", "synonyms": ["FAC017-I Get Support From My Friends"]}, {"conceptId": "C130424", "definition": "Functional Assessment of Cancer Therapy-Leukemia Version 4 - Social/Family Well-Being: My family has accepted my illness.", "preferredTerm": "FACT-LEU Version 4 - My Family Has Accepted My Illness", "submissionValue": "FAC01711", "synonyms": ["FAC017-My Family Has Accepted My Illness"]}, {"conceptId": "C130425", "definition": "Functional Assessment of Cancer Therapy-Leukemia Version 4 - Social/Family Well-Being: I am satisfied with family communication about my illness.", "preferredTerm": "FACT-LEU Version 4 - Satisfied Communication Illness", "submissionValue": "FAC01712", "synonyms": ["FAC017-Satisfied Communication Illness"]}, {"conceptId": "C130426", "definition": "Functional Assessment of Cancer Therapy-Leukemia Version 4 - Social/Family Well-Being: I feel close to my partner (or the person who is my main support).", "preferredTerm": "FACT-LEU Version 4 - I Feel Close to My Partner", "submissionValue": "FAC01713", "synonyms": ["FAC017-I Feel Close to My Partner"]}, {"conceptId": "C130427", "definition": "Functional Assessment of Cancer Therapy-Leukemia Version 4 - Social/Family Well-Being: I am satisfied with my sex life.", "preferredTerm": "FACT-LEU Version 4 - I Am Satisfied With My Sex Life", "submissionValue": "FAC01714", "synonyms": ["FAC017-I Am Satisfied With My Sex Life"]}, {"conceptId": "C130428", "definition": "Functional Assessment of Cancer Therapy-Leukemia Version 4 - Emotional Well-Being: I feel sad.", "preferredTerm": "FACT-LEU Version 4 - I Feel Sad", "submissionValue": "FAC01715", "synonyms": ["FAC017-I Feel Sad"]}, {"conceptId": "C130429", "definition": "Functional Assessment of Cancer Therapy-Leukemia Version 4 - Emotional Well-Being: I am satisfied with how I am coping with my illness.", "preferredTerm": "FACT-LEU Version 4 - Satisfied With How I Am Coping", "submissionValue": "FAC01716", "synonyms": ["FAC017-Satisfied With How I Am Coping"]}, {"conceptId": "C130430", "definition": "Functional Assessment of Cancer Therapy-Leukemia Version 4 - Emotional Well-Being: I am losing hope in the fight against my illness.", "preferredTerm": "FACT-LEU Version 4 - Losing Hope Against Illness", "submissionValue": "FAC01717", "synonyms": ["FAC017-Losing Hope Against Illness"]}, {"conceptId": "C130431", "definition": "Functional Assessment of Cancer Therapy-Leukemia Version 4 - Emotional Well-Being: I feel nervous.", "preferredTerm": "FACT-LEU Version 4 - I Feel Nervous", "submissionValue": "FAC01718", "synonyms": ["FAC017-I Feel Nervous"]}, {"conceptId": "C130432", "definition": "Functional Assessment of Cancer Therapy-Leukemia Version 4 - Emotional Well-Being: I worry about dying.", "preferredTerm": "FACT-LEU Version 4 - I Worry About Dying", "submissionValue": "FAC01719", "synonyms": ["FAC017-I Worry About Dying"]}, {"conceptId": "C130433", "definition": "Functional Assessment of Cancer Therapy-Leukemia Version 4 - Emotional Well-Being: I worry that my condition will get worse.", "preferredTerm": "FACT-LEU Version 4 - Worry My Condition Will Get Worse", "submissionValue": "FAC01720", "synonyms": ["FAC017-Worry My Condition Will Get Worse"]}, {"conceptId": "C130434", "definition": "Functional Assessment of Cancer Therapy-Leukemia Version 4 - Functional Well-Being: I am able to work (include work at home).", "preferredTerm": "FACT-LEU Version 4 - I Am Able to Work", "submissionValue": "FAC01721", "synonyms": ["FAC017-I Am Able to Work"]}, {"conceptId": "C130435", "definition": "Functional Assessment of Cancer Therapy-Leukemia Version 4 - Functional Well-Being: My work (include work at home) is fulfilling.", "preferredTerm": "FACT-LEU Version 4 - My Work Is Fulfilling", "submissionValue": "FAC01722", "synonyms": ["FAC017-My Work Is Fulfilling"]}, {"conceptId": "C130436", "definition": "Functional Assessment of Cancer Therapy-Leukemia Version 4 - Functional Well-Being: I am able to enjoy life.", "preferredTerm": "FACT-LEU Version 4 - I Am Able to Enjoy Life", "submissionValue": "FAC01723", "synonyms": ["FAC017-I Am Able to Enjoy Life"]}, {"conceptId": "C130437", "definition": "Functional Assessment of Cancer Therapy-Leukemia Version 4 - Functional Well-Being: I have accepted my illness.", "preferredTerm": "FACT-LEU Version 4 - I Have Accepted My Illness", "submissionValue": "FAC01724", "synonyms": ["FAC017-I Have Accepted My Illness"]}, {"conceptId": "C130438", "definition": "Functional Assessment of Cancer Therapy-Leukemia Version 4 - Functional Well-Being: I am sleeping well.", "preferredTerm": "FACT-LEU Version 4 - I Am Sleeping Well", "submissionValue": "FAC01725", "synonyms": ["FAC017-I Am Sleeping Well"]}, {"conceptId": "C130439", "definition": "Functional Assessment of Cancer Therapy-Leukemia Version 4 - Functional Well-Being: I am enjoying the things I usually do for fun.", "preferredTerm": "FACT-LEU Version 4 - Enjoy Things I Usually Do for Fun", "submissionValue": "FAC01726", "synonyms": ["FAC017-Enjoy Things I Usually Do for Fun"]}, {"conceptId": "C130440", "definition": "Functional Assessment of Cancer Therapy-Leukemia Version 4 - Functional Well-Being: I am content with the quality of my life right now.", "preferredTerm": "FACT-LEU Version 4 - Content With Quality of My Life", "submissionValue": "FAC01727", "synonyms": ["FAC017-Content With Quality of My Life"]}, {"conceptId": "C130441", "definition": "Functional Assessment of Cancer Therapy-Leukemia Version 4 - Additional Concerns: I am bothered by fevers (episodes of high body temperature).", "preferredTerm": "FACT-LEU Version 4 - I Am Bothered by Fevers", "submissionValue": "FAC01728", "synonyms": ["FAC017-I Am Bothered by Fevers"]}, {"conceptId": "C130442", "definition": "Functional Assessment of Cancer Therapy-Leukemia Version 4 - Additional Concerns: I have certain parts of my body where I experience pain.", "preferredTerm": "FACT-LEU Version 4 - Certain Parts of Body Have Pain", "submissionValue": "FAC01729", "synonyms": ["FAC017-Certain Parts of Body Have Pain"]}, {"conceptId": "C130443", "definition": "Functional Assessment of Cancer Therapy-Leukemia Version 4 - Additional Concerns: I am bothered by the chills.", "preferredTerm": "FACT-LEU Version 4 - I Am Bothered by the Chills", "submissionValue": "FAC01730", "synonyms": ["FAC017-I Am Bothered by the Chills"]}, {"conceptId": "C130444", "definition": "Functional Assessment of Cancer Therapy-Leukemia Version 4 - Additional Concerns: I have night sweats.", "preferredTerm": "FACT-LEU Version 4 - I Have Night Sweats", "submissionValue": "FAC01731", "synonyms": ["FAC017-I Have Night Sweats"]}, {"conceptId": "C130445", "definition": "Functional Assessment of Cancer Therapy-Leukemia Version 4 - Additional Concerns: I am bothered by lumps or swelling in certain parts of my body (e.g., neck, armpits, or groin).", "preferredTerm": "FACT-LEU Version 4 - Bothered by Lumps or Swelling", "submissionValue": "FAC01732", "synonyms": ["FAC017-Bothered by Lumps or Swelling"]}, {"conceptId": "C130446", "definition": "Functional Assessment of Cancer Therapy-Leukemia Version 4 - Additional Concerns: I bleed easily.", "preferredTerm": "FACT-LEU Version 4 - I Bleed Easily", "submissionValue": "FAC01733", "synonyms": ["FAC017-I Bleed Easily"]}, {"conceptId": "C130447", "definition": "Functional Assessment of Cancer Therapy-Leukemia Version 4 - Additional Concerns: I bruise easily.", "preferredTerm": "FACT-LEU Version 4 - I Bruise Easily", "submissionValue": "FAC01734", "synonyms": ["FAC017-I Bruise Easily"]}, {"conceptId": "C130448", "definition": "Functional Assessment of Cancer Therapy-Leukemia Version 4 - Additional Concerns: I feel weak all over.", "preferredTerm": "FACT-LEU Version 4 - I Feel Weak All Over", "submissionValue": "FAC01735", "synonyms": ["FAC017-I Feel Weak All Over"]}, {"conceptId": "C130449", "definition": "Functional Assessment of Cancer Therapy-Leukemia Version 4 - Additional Concerns: I get tired easily.", "preferredTerm": "FACT-LEU Version 4 - I Get Tired Easily", "submissionValue": "FAC01736", "synonyms": ["FAC017-I Get Tired Easily"]}, {"conceptId": "C130450", "definition": "Functional Assessment of Cancer Therapy-Leukemia Version 4 - Additional Concerns: I am losing weight.", "preferredTerm": "FACT-LEU Version 4 - I Am Losing Weight", "submissionValue": "FAC01737", "synonyms": ["FAC017-I Am Losing Weight"]}, {"conceptId": "C130451", "definition": "Functional Assessment of Cancer Therapy-Leukemia Version 4 - Additional Concerns: I have a good appetite.", "preferredTerm": "FACT-LEU Version 4 - I Have a Good Appetite", "submissionValue": "FAC01738", "synonyms": ["FAC017-I Have a Good Appetite"]}, {"conceptId": "C130452", "definition": "Functional Assessment of Cancer Therapy-Leukemia Version 4 - Additional Concerns: I am able to do my usual activities.", "preferredTerm": "FACT-LEU Version 4 - Able to Do My Usual Activities", "submissionValue": "FAC01739", "synonyms": ["FAC017-Able to Do My Usual Activities"]}, {"conceptId": "C130453", "definition": "Functional Assessment of Cancer Therapy-Leukemia Version 4 - Additional Concerns: I worry about getting infections.", "preferredTerm": "FACT-LEU Version 4 - I Worry About Getting Infections", "submissionValue": "FAC01740", "synonyms": ["FAC017-I Worry About Getting Infections"]}, {"conceptId": "C130454", "definition": "Functional Assessment of Cancer Therapy-Leukemia Version 4 - Additional Concerns: I feel uncertain about my future health.", "preferredTerm": "FACT-LEU Version 4 - Uncertain About My Future Health", "submissionValue": "FAC01741", "synonyms": ["FAC017-Uncertain About My Future Health"]}, {"conceptId": "C130455", "definition": "Functional Assessment of Cancer Therapy-Leukemia Version 4 - Additional Concerns: I worry that I might get new symptoms of my illness.", "preferredTerm": "FACT-LEU Version 4 - Worry I Might Get New Symptoms", "submissionValue": "FAC01742", "synonyms": ["FAC017-Worry I Might Get New Symptoms"]}, {"conceptId": "C130456", "definition": "Functional Assessment of Cancer Therapy-Leukemia Version 4 - Additional Concerns: I have emotional ups and downs.", "preferredTerm": "FACT-LEU Version 4 - I Have Emotional Ups and Downs", "submissionValue": "FAC01743", "synonyms": ["FAC017-I Have Emotional Ups and Downs"]}, {"conceptId": "C130457", "definition": "Functional Assessment of Cancer Therapy-Leukemia Version 4 - Additional Concerns: I feel isolated from others because of my illness or treatment.", "preferredTerm": "FACT-LEU Version 4 - Feel Isolated Because of Illness", "submissionValue": "FAC01744", "synonyms": ["FAC017-Feel Isolated Because of Illness"]}]}