{"_links": {"parentPackage": {"href": "/mdr/ct/packages/sdtmct-2017-12-22", "title": "SDTM Controlled Terminology Package 32 Effective 2017-12-22", "type": "Terminology"}, "priorVersion": {"href": "/mdr/ct/packages/sdtmct-2017-09-29/codelists/C130254", "title": "CDISC Questionnaire FACT-HEP Version 4 Test Name Terminology", "type": "Code List"}, "rootItem": {"href": "/mdr/root/ct/sdtmct/codelists/C130254", "title": "Version-agnostic anchor resource for codelist C130254", "type": "Root Value Domain"}, "self": {"href": "/mdr/ct/packages/sdtmct-2017-12-22/codelists/C130254", "title": "CDISC Questionnaire FACT-HEP Version 4 Test Name Terminology", "type": "Code List"}}, "conceptId": "C130254", "definition": "Functional Assessment of Cancer Therapy-Hepatobiliary Version 4 test name.", "extensible": "false", "name": "Functional Assessment of Cancer Therapy-Hepatobiliary Version 4 Questionnaire Test Name", "preferredTerm": "CDISC Questionnaire FACT-HEP Version 4 Test Name Terminology", "submissionValue": "FAC015TN", "synonyms": ["Functional Assessment of Cancer Therapy-Hepatobiliary Version 4 Questionnaire Test Name"], "terms": [{"conceptId": "C130495", "definition": "Functional Assessment of Cancer Therapy-Hepatobiliary Version 4 - Additional Concerns: I am able to do my usual activities.", "preferredTerm": "FACT-HEP Version 4 - Able to Do My Usual Activities", "submissionValue": "FAC015-Able to Do My Usual Activities", "synonyms": ["FAC015-Able to Do My Usual Activities"]}, {"conceptId": "C130496", "definition": "Functional Assessment of Cancer Therapy-Hepatobiliary Version 4 - Additional Concerns: I am bothered by jaundice or yellow color to my skin.", "preferredTerm": "FACT-HEP Version 4 - Bothered by Jaundice or Yellow Skin", "submissionValue": "FAC015-Bothered by Jaundice/Yellow Skin", "synonyms": ["FAC015-Bothered by Jaundice/Yellow Skin"]}, {"conceptId": "C130462", "definition": "Functional Assessment of Cancer Therapy-Hepatobiliary Version 4 - Physical Well-Being: I am bothered by side effects of treatment.", "preferredTerm": "FACT-HEP Version 4 - Bothered by Treatment Side Effect", "submissionValue": "FAC015-Bothered by Treatment Side Effect", "synonyms": ["FAC015-Bothered by Treatment Side Effect"]}, {"conceptId": "C130484", "definition": "Functional Assessment of Cancer Therapy-Hepatobiliary Version 4 - Functional Well-Being: I am content with the quality of my life right now.", "preferredTerm": "FACT-HEP Version 4 - Content With Quality of My Life", "submissionValue": "FAC015-Content With Quality of My Life", "synonyms": ["FAC015-Content With Quality of My Life"]}, {"conceptId": "C130502", "definition": "Functional Assessment of Cancer Therapy-Hepatobiliary Version 4 - Additional Concerns: I have discomfort or pain in my stomach area.", "preferredTerm": "FACT-HEP Version 4 - Discomfort or Pain in Stomach Area", "submissionValue": "FAC015-Discomfort/Pain in Stomach Area", "synonyms": ["FAC015-Discomfort/Pain in Stomach Area"]}, {"conceptId": "C130483", "definition": "Functional Assessment of Cancer Therapy-Hepatobiliary Version 4 - Functional Well-Being: I am enjoying the things I usually do for fun.", "preferredTerm": "FACT-HEP Version 4 - Enjoy Things I Usually Do for Fun", "submissionValue": "FAC015-Enjoy Things I Usually Do for Fun", "synonyms": ["FAC015-Enjoy Things I Usually Do for Fun"]}, {"conceptId": "C130466", "definition": "Functional Assessment of Cancer Therapy-Hepatobiliary Version 4 - Social/Family Well-Being: I get emotional support from my family.", "preferredTerm": "FACT-HEP Version 4 - Get Emotional Support From Family", "submissionValue": "FAC015-Get Emotional Support From Family", "synonyms": ["FAC015-Get Emotional Support From Family"]}, {"conceptId": "C130499", "definition": "Functional Assessment of Cancer Therapy-Hepatobiliary Version 4 - Additional Concerns: I have had a change in the way food tastes.", "preferredTerm": "FACT-HEP Version 4 - Had Change in the Way Food Tastes", "submissionValue": "FAC015-Had Change in the Way Food Tastes", "synonyms": ["FAC015-Had Change in the Way Food Tastes"]}, {"conceptId": "C130480", "definition": "Functional Assessment of Cancer Therapy-Hepatobiliary Version 4 - Functional Well-Being: I am able to enjoy life.", "preferredTerm": "FACT-HEP Version 4 - I Am Able to Enjoy Life", "submissionValue": "FAC015-I Am Able to Enjoy Life", "synonyms": ["FAC015-I Am Able to Enjoy Life"]}, {"conceptId": "C130478", "definition": "Functional Assessment of Cancer Therapy-Hepatobiliary Version 4 - Functional Well-Being: I am able to work (include work at home).", "preferredTerm": "FACT-HEP Version 4 - I Am Able to Work", "submissionValue": "FAC015-I Am Able to Work", "synonyms": ["FAC015-I Am Able to Work"]}, {"conceptId": "C130493", "definition": "Functional Assessment of Cancer Therapy-Hepatobiliary Version 4 - Additional Concerns: I am bothered by constipation.", "preferredTerm": "FACT-HEP Version 4 - I Am Bothered by Constipation", "submissionValue": "FAC015-I Am Bothered by Constipation", "synonyms": ["FAC015-I Am Bothered by Constipation"]}, {"conceptId": "C130464", "definition": "Functional Assessment of Cancer Therapy-Hepatobiliary Version 4 - Physical Well-Being: I am forced to spend time in bed.", "preferredTerm": "FACT-HEP Version 4 - I Am Forced to Spend Time in Bed", "submissionValue": "FAC015-I Am Forced to Spend Time in Bed", "synonyms": ["FAC015-I Am Forced to Spend Time in Bed"]}, {"conceptId": "C130486", "definition": "Functional Assessment of Cancer Therapy-Hepatobiliary Version 4 - Additional Concerns: I am losing weight.", "preferredTerm": "FACT-HEP Version 4 - I Am Losing Weight", "submissionValue": "FAC015-I Am Losing Weight", "synonyms": ["FAC015-I Am Losing Weight"]}, {"conceptId": "C130471", "definition": "Functional Assessment of Cancer Therapy-Hepatobiliary Version 4 - Social/Family Well-Being: I am satisfied with my sex life.", "preferredTerm": "FACT-HEP Version 4 - I Am Satisfied With My Sex Life", "submissionValue": "FAC015-I Am Satisfied With My Sex Life", "synonyms": ["FAC015-I Am Satisfied With My Sex Life"]}, {"conceptId": "C130482", "definition": "Functional Assessment of Cancer Therapy-Hepatobiliary Version 4 - Functional Well-Being: I am sleeping well.", "preferredTerm": "FACT-HEP Version 4 - I Am Sleeping Well", "submissionValue": "FAC015-I Am Sleeping Well", "synonyms": ["FAC015-I Am Sleeping Well"]}, {"conceptId": "C130488", "definition": "Functional Assessment of Cancer Therapy-Hepatobiliary Version 4 - Additional Concerns: I can digest my food well.", "preferredTerm": "FACT-HEP Version 4 - I Can Digest My Food Well", "submissionValue": "FAC015-I Can Digest My Food Well", "synonyms": ["FAC015-I Can Digest My Food Well"]}, {"conceptId": "C130465", "definition": "Functional Assessment of Cancer Therapy-Hepatobiliary Version 4 - Social/Family Well-Being: I feel close to my friends.", "preferredTerm": "FACT-HEP Version 4 - I Feel Close to My Friends", "submissionValue": "FAC015-I Feel Close to My Friends", "synonyms": ["FAC015-I Feel Close to My Friends"]}, {"conceptId": "C130470", "definition": "Functional Assessment of Cancer Therapy-Hepatobiliary Version 4 - Social/Family Well-Being: I feel close to my partner (or the person who is my main support).", "preferredTerm": "FACT-HEP Version 4 - I Feel Close to My Partner", "submissionValue": "FAC015-I Feel Close to My Partner", "synonyms": ["FAC015-I Feel Close to My Partner"]}, {"conceptId": "C130494", "definition": "Functional Assessment of Cancer Therapy-Hepatobiliary Version 4 - Additional Concerns: I feel fatigued.", "preferredTerm": "FACT-HEP Version 4 - I Feel Fatigued", "submissionValue": "FAC015-I Feel Fatigued", "synonyms": ["FAC015-I Feel Fatigued"]}, {"conceptId": "C130463", "definition": "Functional Assessment of Cancer Therapy-Hepatobiliary Version 4 - Physical Well-Being: I feel ill.", "preferredTerm": "FACT-HEP Version 4 - I Feel Ill", "submissionValue": "FAC015-I Feel Ill", "synonyms": ["FAC015-I Feel Ill"]}, {"conceptId": "C130475", "definition": "Functional Assessment of Cancer Therapy-Hepatobiliary Version 4 - Emotional Well-Being: I feel nervous.", "preferredTerm": "FACT-HEP Version 4 - I Feel Nervous", "submissionValue": "FAC015-I Feel Nervous", "synonyms": ["FAC015-I Feel Nervous"]}, {"conceptId": "C130472", "definition": "Functional Assessment of Cancer Therapy-Hepatobiliary Version 4 - Emotional Well-Being: I feel sad.", "preferredTerm": "FACT-HEP Version 4 - I Feel Sad", "submissionValue": "FAC015-I Feel Sad", "synonyms": ["FAC015-I Feel Sad"]}, {"conceptId": "C130467", "definition": "Functional Assessment of Cancer Therapy-Hepatobiliary Version 4 - Social/Family Well-Being: I get support from my friends.", "preferredTerm": "FACT-HEP Version 4 - I Get Support From My Friends", "submissionValue": "FAC015-I Get Support From My Friends", "synonyms": ["FAC015-I Get Support From My Friends"]}, {"conceptId": "C130481", "definition": "Functional Assessment of Cancer Therapy-Hepatobiliary Version 4 - Functional Well-Being: I have accepted my illness.", "preferredTerm": "FACT-HEP Version 4 - I Have Accepted My Illness", "submissionValue": "FAC015-I Have Accepted My Illness", "synonyms": ["FAC015-I Have Accepted My Illness"]}, {"conceptId": "C130487", "definition": "Functional Assessment of Cancer Therapy-Hepatobiliary Version 4 - Additional Concerns: I have control of my bowels.", "preferredTerm": "FACT-HEP Version 4 - I Have Control of My Bowels", "submissionValue": "FAC015-I Have Control of My Bowels", "synonyms": ["FAC015-I Have Control of My Bowels"]}, {"conceptId": "C130489", "definition": "Functional Assessment of Cancer Therapy-Hepatobiliary Version 4 - Additional Concerns: I have diarrhea (diarrhoea).", "preferredTerm": "FACT-HEP Version 4 - I Have Diarrhea", "submissionValue": "FAC015-I Have Diarrhea", "synonyms": ["FAC015-I Have Diarrhea"]}, {"conceptId": "C130500", "definition": "Functional Assessment of Cancer Therapy-Hepatobiliary Version 4 - Additional Concerns: I have had chills.", "preferredTerm": "FACT-HEP Version 4 - I Have Had Chills", "submissionValue": "FAC015-I Have Had Chills", "synonyms": ["FAC015-I Have Had Chills"]}, {"conceptId": "C130497", "definition": "Functional Assessment of Cancer Therapy-Hepatobiliary Version 4 - Additional Concerns: I have had fevers (episodes of high body temperature).", "preferredTerm": "FACT-HEP Version 4 - I Have Had Fevers", "submissionValue": "FAC015-I Have Had Fevers", "synonyms": ["FAC015-I Have Had Fevers"]}, {"conceptId": "C130498", "definition": "Functional Assessment of Cancer Therapy-Hepatobiliary Version 4 - Additional Concerns: I have had itching.", "preferredTerm": "FACT-HEP Version 4 - I Have Had Itching", "submissionValue": "FAC015-I Have Had Itching", "synonyms": ["FAC015-I Have Had Itching"]}, {"conceptId": "C130459", "definition": "Functional Assessment of Cancer Therapy-Hepatobiliary Version 4 - Physical Well-Being: I have nausea.", "preferredTerm": "FACT-HEP Version 4 - I Have Nausea", "submissionValue": "FAC015-I Have Nausea", "synonyms": ["FAC015-I Have Nausea"]}, {"conceptId": "C130461", "definition": "Functional Assessment of Cancer Therapy-Hepatobiliary Version 4 - Physical Well-Being: I have pain.", "preferredTerm": "FACT-HEP Version 4 - I Have Pain", "submissionValue": "FAC015-I Have Pain", "synonyms": ["FAC015-I Have Pain"]}, {"conceptId": "C130492", "definition": "Functional Assessment of Cancer Therapy-Hepatobiliary Version 4 - Additional Concerns: I have pain in my back.", "preferredTerm": "FACT-HEP Version 4 - I Have Pain in My Back", "submissionValue": "FAC015-I Have Pain in My Back", "synonyms": ["FAC015-I Have Pain in My Back"]}, {"conceptId": "C130490", "definition": "Functional Assessment of Cancer Therapy-Hepatobiliary Version 4 - Additional Concerns: I have a good appetite.", "preferredTerm": "FACT-HEP Version 4 - I Have a Good Appetite", "submissionValue": "FAC015-I Have a Good Appetite", "synonyms": ["FAC015-I Have a Good Appetite"]}, {"conceptId": "C130458", "definition": "Functional Assessment of Cancer Therapy-Hepatobiliary Version 4 - Physical Well-Being: I have a lack of energy.", "preferredTerm": "FACT-HEP Version 4 - I Have a Lack of Energy", "submissionValue": "FAC015-I Have a Lack of Energy", "synonyms": ["FAC015-I Have a Lack of Energy"]}, {"conceptId": "C130476", "definition": "Functional Assessment of Cancer Therapy-Hepatobiliary Version 4 - Emotional Well-Being: I worry about dying.", "preferredTerm": "FACT-HEP Version 4 - I Worry About Dying", "submissionValue": "FAC015-I Worry About Dying", "synonyms": ["FAC015-I Worry About Dying"]}, {"conceptId": "C130474", "definition": "Functional Assessment of Cancer Therapy-Hepatobiliary Version 4 - Emotional Well-Being: I am losing hope in the fight against my illness.", "preferredTerm": "FACT-HEP Version 4 - Losing Hope Against Illness", "submissionValue": "FAC015-Losing Hope Against Illness", "synonyms": ["FAC015-Losing Hope Against Illness"]}, {"conceptId": "C130468", "definition": "Functional Assessment of Cancer Therapy-Hepatobiliary Version 4 - Social/Family Well-Being: My family has accepted my illness.", "preferredTerm": "FACT-HEP Version 4 - My Family Has Accepted My Illness", "submissionValue": "FAC015-My Family Has Accepted My Illness", "synonyms": ["FAC015-My Family Has Accepted My Illness"]}, {"conceptId": "C130501", "definition": "Functional Assessment of Cancer Therapy-Hepatobiliary Version 4 - Additional Concerns: My mouth is dry.", "preferredTerm": "FACT-HEP Version 4 - My Mouth Is Dry", "submissionValue": "FAC015-My Mouth Is Dry", "synonyms": ["FAC015-My Mouth Is Dry"]}, {"conceptId": "C130479", "definition": "Functional Assessment of Cancer Therapy-Hepatobiliary Version 4 - Functional Well-Being: My work (include work at home) is fulfilling.", "preferredTerm": "FACT-HEP Version 4 - My Work Is Fulfilling", "submissionValue": "FAC015-My Work Is Fulfilling", "synonyms": ["FAC015-My Work Is Fulfilling"]}, {"conceptId": "C130469", "definition": "Functional Assessment of Cancer Therapy-Hepatobiliary Version 4 - Social/Family Well-Being: I am satisfied with family communication about my illness.", "preferredTerm": "FACT-HEP Version 4 - Satisfied With Communication About Illness", "submissionValue": "FAC015-Satisfied Communication Illness", "synonyms": ["FAC015-Satisfied Communication Illness"]}, {"conceptId": "C130473", "definition": "Functional Assessment of Cancer Therapy-Hepatobiliary Version 4 - Emotional Well-Being: I am satisfied with how I am coping with my illness.", "preferredTerm": "FACT-HEP Version 4 - Satisfied With How I Am Coping", "submissionValue": "FAC015-Satisfied With How I Am Coping", "synonyms": ["FAC015-Satisfied With How I Am Coping"]}, {"conceptId": "C130485", "definition": "Functional Assessment of Cancer Therapy-Hepatobiliary Version 4 - Additional Concerns: I have swelling or cramps in my stomach area.", "preferredTerm": "FACT-HEP Version 4 - Swelling or Cramps in Stomach Area", "submissionValue": "FAC015-Swelling/Cramps in Stomach Area", "synonyms": ["FAC015-Swelling/Cramps in Stomach Area"]}, {"conceptId": "C130460", "definition": "Functional Assessment of Cancer Therapy-Hepatobiliary Version 4 - Physical Well-Being: Because of my physical condition, I have trouble meeting the needs of my family.", "preferredTerm": "FACT-HEP Version 4 - Trouble Meeting Needs of Family", "submissionValue": "FAC015-Trouble Meeting Needs of Family", "synonyms": ["FAC015-Trouble Meeting Needs of Family"]}, {"conceptId": "C130491", "definition": "Functional Assessment of Cancer Therapy-Hepatobiliary Version 4 - Additional Concerns: I am unhappy about a change in my appearance.", "preferredTerm": "FACT-HEP Version 4 - Unhappy About Change in My Appearance", "submissionValue": "FAC015-Unhappy About Change in My Appear", "synonyms": ["FAC015-Unhappy About Change in My Appear"]}, {"conceptId": "C130477", "definition": "Functional Assessment of Cancer Therapy-Hepatobiliary Version 4 - Emotional Well-Being: I worry that my condition will get worse.", "preferredTerm": "FACT-HEP Version 4 - Worry My Condition Will Get Worse", "submissionValue": "FAC015-Worry My Condition Will Get Worse", "synonyms": ["FAC015-Worry My Condition Will Get Worse"]}]}