{"_links": {"parentPackage": {"href": "/mdr/ct/packages/sdtmct-2017-12-22", "title": "SDTM Controlled Terminology Package 32 Effective 2017-12-22", "type": "Terminology"}, "priorVersion": {"href": "/mdr/ct/packages/sdtmct-2017-09-29/codelists/C132262", "title": "CDISC SDTM Microscopic Findings Test Name Terminology", "type": "Code List"}, "rootItem": {"href": "/mdr/root/ct/sdtmct/codelists/C132262", "title": "Version-agnostic anchor resource for codelist C132262", "type": "Root Value Domain"}, "self": {"href": "/mdr/ct/packages/sdtmct-2017-12-22/codelists/C132262", "title": "CDISC SDTM Microscopic Findings Test Name Terminology", "type": "Code List"}}, "conceptId": "C132262", "definition": "Terminology for the test names concerned with the clinical findings from a specimen that are visible by microscopic analysis.", "extensible": "true", "name": "SDTM Microscopic Findings Test Name", "preferredTerm": "CDISC SDTM Microscopic Findings Test Name Terminology", "submissionValue": "MITS", "synonyms": ["SDTM Microscopic Findings Test Name"], "terms": [{"conceptId": "C111124", "definition": "A measurement of the abnormal cells in a biological specimen.", "preferredTerm": "Abnormal Cell Count", "submissionValue": "Abnormal Cells", "synonyms": ["Abnormal Cells"]}, {"conceptId": "C132364", "definition": "A measurement of the alpha-methylacyl coenzyme A racemase in a biological specimen.", "preferredTerm": "Alpha-Methylacyl Coenzyme A Racemase Measurement", "submissionValue": "Alpha-Methylacyl Coenzyme A Racemase", "synonyms": ["Alpha-Methylacyl Coenzyme A Racemase"]}, {"conceptId": "C135463", "definition": "An evaluation of the arteriolar hyaline thickening of vessels in a biological specimen.", "preferredTerm": "Arteriolar Hyaline Thickening Assessment", "submissionValue": "Arteriolar Hyaline Thickening", "synonyms": ["Arteriolar Hyaline Thickening"]}, {"conceptId": "C135464", "definition": "The histologic evaluation and diagnosis of the type of renal allograft rejection based on kidney biopsies and the Banff Working Classification from the Banff Foundation for Allograft Pathology. (NCI)", "preferredTerm": "Banff Renal Diagnostic Category Assessment", "submissionValue": "Banff Diagnostic Category Renal", "synonyms": ["Banff Diagnostic Category Renal"]}, {"conceptId": "C122102", "definition": "A measurement of the beta-defensin 2 in a biological specimen.", "preferredTerm": "Beta-defensin 2 Measurement", "submissionValue": "Beta-defensin 2", "synonyms": ["Beta-defensin 2"]}, {"conceptId": "C139099", "definition": "A measurement of the bradykinin receptor B1 in a biological specimen.", "preferredTerm": "Bradykinin Receptor B1 Measurement", "submissionValue": "Bradykinin Receptor B1", "synonyms": ["BK-1 Receptor", "Bradykinin Receptor B1"]}, {"conceptId": "C123555", "definition": "A measurement of BRCA1 protein in a biological specimen.", "preferredTerm": "Breast Cancer Type 1 Susceptibility Protein Measurement", "submissionValue": "Breast Cancer Type 1 Susceptibility Prot", "synonyms": ["Breast Cancer Type 1 Susceptibility Prot"]}, {"conceptId": "C139098", "definition": "A measurement of the CDX2 antigen in a biological specimen.", "preferredTerm": "CDX2 Antigen Measurement", "submissionValue": "CDX2 Antigen", "synonyms": ["CDX2 Antigen"]}, {"conceptId": "C123556", "definition": "A relative measurement (ratio or percentage) of the neoplastic cells to total cells in a biological specimen.", "preferredTerm": "Cancer Cellularity Measurement", "submissionValue": "Cancer Cellularity", "synonyms": ["Cancer Cellularity"]}, {"conceptId": "C132430", "definition": "An evaluation of cellular maturity and specialization in a biological specimen.", "preferredTerm": "Cellular Differentiation Assessment", "submissionValue": "Cellular Differentiation", "synonyms": ["Cellular Differentiation"]}, {"conceptId": "C127763", "definition": "A measurement of the cytokeratin 16 in a biological specimen.", "preferredTerm": "Cytokeratin 16 Measurement", "submissionValue": "Cytokeratin 16", "synonyms": ["Cytokeratin 16"]}, {"conceptId": "C127764", "definition": "A measurement of the dendritic cell-lysosomal-associated membrane protein in a biological specimen.", "preferredTerm": "Dendritic Cell Lysosomal-Associated Membrane Protein Measurement", "submissionValue": "Dendritic Cell-Lysosomal-Assoc Memb Prot", "synonyms": ["Dendritic Cell-Lysosomal-Assoc Memb Prot"]}, {"conceptId": "C112274", "definition": "A measurement of estrogen receptor protein in a biological specimen.", "preferredTerm": "Estrogen Receptor Measurement", "submissionValue": "Estrogen Receptor", "synonyms": ["ER", "ESR", "Estrogen Receptor", "Oestrogen Receptor"]}, {"conceptId": "C127765", "definition": "An evaluation of fibrosis in a biological specimen.", "preferredTerm": "Fibrosis Assessment", "submissionValue": "Fibrosis", "synonyms": ["Fibrosis"]}, {"conceptId": "C132431", "definition": "A measurement of the folate hydrolase 1 in a biological specimen.", "preferredTerm": "Folate Hydrolase 1 Measurement", "submissionValue": "Folate Hydrolase 1", "synonyms": ["Folate Hydrolase 1"]}, {"conceptId": "C135465", "definition": "An evaluation of glomerulitis in a biological specimen.", "preferredTerm": "Glomerulitis Assessment", "submissionValue": "Glomerulitis", "synonyms": ["Glomerulitis"]}, {"conceptId": "C135466", "definition": "An evaluation of glomerulopathy in a biological specimen.", "preferredTerm": "Glomerulopathy Assessment", "submissionValue": "Glomerulopathy", "synonyms": ["Glomerulopathy"]}, {"conceptId": "C112312", "definition": "A measurement of HER2 protein in a biological specimen.", "preferredTerm": "Human Epidermal Growth Factor Receptor 2 Measurement", "submissionValue": "Human Epidermal Growth Factor Receptor 2", "synonyms": ["ERBB2", "HER2/NEU", "Human Epidermal Growth Factor Receptor 2"]}, {"conceptId": "C135468", "definition": "An evaluation of interstitial fibrosis in a biological specimen.", "preferredTerm": "Interstitial Fibrosis Assessment", "submissionValue": "Interstitial Fibrosis", "synonyms": ["Interstitial Fibrosis"]}, {"conceptId": "C135467", "definition": "An evaluation of intimal arteritis in a biological specimen.", "preferredTerm": "Intimal Arteritis Assessment", "submissionValue": "Intimal Arteritis", "synonyms": ["Intimal Arteritis"]}, {"conceptId": "C142347", "definition": "A measurement of the intraepidermal nerve fiber density in a biological specimen.", "preferredTerm": "Intraepidermal Nerve Fiber Density", "submissionValue": "Intraepidermal Nerve Fiber Density", "synonyms": ["Intraepidermal Nerve Fiber Density"]}, {"conceptId": "C123557", "definition": "A measurement of the Ki-67 protein in a biological specimen.", "preferredTerm": "Ki67 Measurement", "submissionValue": "Ki-67", "synonyms": ["Ki-67"]}, {"conceptId": "C106539", "definition": "A measurement of lipocalin-2 in a biological specimen.", "preferredTerm": "Lipocalin-2 Measurement", "submissionValue": "Lipocalin-2", "synonyms": ["Lipocalin-2"]}, {"conceptId": "C127766", "definition": "An evaluation of lymphatic invasion in a biological specimen.", "preferredTerm": "Lymphatic Invasion Assessment", "submissionValue": "Lymphatic Invasion", "synonyms": ["Lymphatic Invasion"]}, {"conceptId": "C135471", "definition": "An evaluation of mesangial matrix in a biological specimen.", "preferredTerm": "Mesangial Matrix Assessment", "submissionValue": "Mesangial Matrix", "synonyms": ["Mesangial Matrix"]}, {"conceptId": "C90424", "definition": "An assessment by microscope (e.g., light, electron, confocal, etc.).", "preferredTerm": "Microscopic Examination", "submissionValue": "Microscopic Examination", "synonyms": ["Microscopic Examination"]}, {"conceptId": "C139093", "definition": "The determination of the meaning of protein expression assessments across multiple mismatch repair proteins.", "preferredTerm": "Mismatch Repair Proteins Interpretation", "submissionValue": "Mismatch Repair Proteins Interpretation", "synonyms": ["Mismatch Repair Proteins Interpretation"]}, {"conceptId": "C135470", "definition": "A measurement of the cells containing mitotic figures in a biological specimen.", "preferredTerm": "Mitotic Figure Assessment", "submissionValue": "Mitotic Figure", "synonyms": ["Mitotic Figure"]}, {"conceptId": "C135469", "definition": "An evaluation of mononuclear cell interstitial inflammation in a biological specimen.", "preferredTerm": "Mononuclear Cell Interstitial Inflammation Assessment", "submissionValue": "Mononuc Cell Interstitial Inflammation", "synonyms": ["Mononuc Cell Interstitial Inflammation"]}, {"conceptId": "C139094", "definition": "A measurement of the MLH1 mismatch repair protein in a biological specimen.", "preferredTerm": "MutL Homolog 1 Measurement", "submissionValue": "MutL Homolog 1", "synonyms": ["MutL Homolog 1"]}, {"conceptId": "C139095", "definition": "A measurement of the MSH2 mismatch repair protein in a biological specimen.", "preferredTerm": "MutS Homolog 2 Measurement", "submissionValue": "MutS Homolog 2", "synonyms": ["MutS Homolog 2"]}, {"conceptId": "C139096", "definition": "A measurement of the MSH6 mismatch repair protein in a biological specimen.", "preferredTerm": "MutS Homolog 6 Measurement", "submissionValue": "MutS Homolog 6", "synonyms": ["MutS Homolog 6"]}, {"conceptId": "C123558", "definition": "A measurement of NK2 homeobox 1 protein in a biological specimen.", "preferredTerm": "NK2 Homeobox 1 Measurement", "submissionValue": "NK2 Homeobox 1", "synonyms": ["NK2 Homeobox 1", "TEBP", "TTF1", "Thyroid Transcription Factor 1"]}, {"conceptId": "C127767", "definition": "A relative measurement (ratio or percentage) of the normal cells to total cells in a biological specimen.", "preferredTerm": "Normal Cell to Total Cell Ratio Measurement", "submissionValue": "Normal Cells/Total Cells", "synonyms": ["Normal Cells/Total Cells"]}, {"conceptId": "C139092", "definition": "A measurement of the total number of core biopsies that contain malignant tissue. (NCI)", "preferredTerm": "Number of Malignant Biopsy Cores", "submissionValue": "Number of Malignant Biopsy Cores", "synonyms": ["Number of Malignant Biopsy Cores"]}, {"conceptId": "C142348", "definition": "A measurement of the PAX3-FKHR fusion protein in a biological specimen.", "preferredTerm": "PAX3-FKHR Fusion Protein Measurement", "submissionValue": "PAX3-FKHR Fusion Protein", "synonyms": ["PAX3-FKHR Fusion Protein"]}, {"conceptId": "C139097", "definition": "A measurement of the PMS2 mismatch repair protein in a biological specimen.", "preferredTerm": "PMS1 Homolog 2 Measurement", "submissionValue": "PMS1 Homolog 2", "synonyms": ["PMS1 Homolog 2"]}, {"conceptId": "C123559", "definition": "A relative measurement (percentage) of in situ component present in a carcinoma compared to the entire malignant cellular proliferation. (NCI)", "preferredTerm": "Percentage of in situ Carcinoma", "submissionValue": "Percentage of In situ Carcinoma", "synonyms": ["Percentage of In situ Carcinoma"]}, {"conceptId": "C127768", "definition": "An evaluation of perineural invasion in a biological specimen.", "preferredTerm": "Perineural Invasion Assessment", "submissionValue": "Perineural Invasion", "synonyms": ["Perineural Invasion"]}, {"conceptId": "C135473", "definition": "An evaluation of peritubular capillaritis in a biological specimen.", "preferredTerm": "Peritubular Capillaritis Assessment", "submissionValue": "Peritubular Capillaritis", "synonyms": ["Peritubular Capillaritis"]}, {"conceptId": "C135472", "definition": "A measurement of the platelet and endothelial cell adhesion molecule 1 in a biological specimen.", "preferredTerm": "Platelet Endothelial Cell Adhesion Molecule 1 Measurement", "submissionValue": "Platelet Endo Cell Adhesion Molecule 1", "synonyms": ["CD31 Antigen", "Platelet And Endothelial Cell Adhesion Molecule 1", "Platelet Endo Cell Adhesion Molecule 1"]}, {"conceptId": "C117846", "definition": "A measurement of the progesterone receptor protein in a biological specimen.", "preferredTerm": "Progesterone Receptor Measurement", "submissionValue": "Progesterone Receptor", "synonyms": ["NR3C3", "PR", "Progesterone Receptor"]}, {"conceptId": "C80204", "definition": "A measurement of the prostatic acid phosphatase in a biological specimen.", "preferredTerm": "Prostatic Acid Phosphatase Measurement", "submissionValue": "Prostatic Acid Phosphatase", "synonyms": ["Prostatic Acid Phosphatase"]}, {"conceptId": "C127769", "definition": "A measurement of the S100 calcium binding protein A7 in a biological specimen.", "preferredTerm": "S100 Calcium Binding Protein A7 Measurement", "submissionValue": "S100 Calcium Binding Protein A7", "synonyms": ["S100 Calcium Binding Protein A7"]}, {"conceptId": "C127770", "definition": "A relative measurement (ratio or percentage) of the stromal cells to total cells in a biological specimen.", "preferredTerm": "Stromal Cell to Total Cell Ratio Measurement", "submissionValue": "Stromal Cells/Total Cells", "synonyms": ["Stromal Cells/Total Cells"]}, {"conceptId": "C123560", "definition": "The determination of the presence of actual or potential neoplastic tissue which has been left outside the boundary of a resected specimen within the patient. (NCI)", "preferredTerm": "Surgical Margins Status", "submissionValue": "Surgical Margins Status", "synonyms": ["Surgical Margins Status"]}, {"conceptId": "C41145", "definition": "The dimension between two surfaces of an object, usually the smallest dimension as opposed to the width or the length.", "preferredTerm": "Thickness", "submissionValue": "Thickness", "synonyms": ["Thickness"]}, {"conceptId": "C135474", "definition": "An evaluation of tubular atrophy in a biological specimen.", "preferredTerm": "Tubular Atrophy Assessment", "submissionValue": "Tubular Atrophy", "synonyms": ["Tubular Atrophy"]}, {"conceptId": "C135475", "definition": "An evaluation of tubulitis in a biological specimen.", "preferredTerm": "Tubulitis Assessment", "submissionValue": "Tubulitis", "synonyms": ["Tubulitis"]}, {"conceptId": "C127771", "definition": "A relative measurement (ratio or percentage) of the tumor cells to total cells in a biological specimen.", "preferredTerm": "Tumor Cell to Total Cell Ratio Measurement", "submissionValue": "Tumor Cells/Total Cells", "synonyms": ["Tumor Cells/Total Cells"]}, {"conceptId": "C135476", "definition": "An evaluation of the fibrointimal thickening of vessels in a biological specimen.", "preferredTerm": "Vascular Fibrous Intimal Thickening Assessment", "submissionValue": "Vascular Fibrous Intimal Thickening", "synonyms": ["Vascular Fibrous Intimal Thickening"]}, {"conceptId": "C127772", "definition": "An evaluation of vascular invasion in a biological specimen.", "preferredTerm": "Vascular Invasion Assessment", "submissionValue": "Vascular Invasion", "synonyms": ["Vascular Invasion"]}]}