{"_links": {"parentPackage": {"href": "/mdr/ct/packages/sdtmct-2017-12-22", "title": "SDTM Controlled Terminology Package 32 Effective 2017-12-22", "type": "Terminology"}, "priorVersion": {"href": "/mdr/ct/packages/sdtmct-2017-09-29/codelists/C135694", "title": "CDISC Questionnaire PODCI Pediatric Parent-Reported Version Test Code Terminology", "type": "Code List"}, "rootItem": {"href": "/mdr/root/ct/sdtmct/codelists/C135694", "title": "Version-agnostic anchor resource for codelist C135694", "type": "Root Value Domain"}, "self": {"href": "/mdr/ct/packages/sdtmct-2017-12-22/codelists/C135694", "title": "CDISC Questionnaire PODCI Pediatric Parent-Reported Version Test Code Terminology", "type": "Code List"}}, "conceptId": "C135694", "definition": "Pediatric Outcomes Data Collection Instrument, Pediatric Parent-Reported Version test code.", "extensible": "false", "name": "Pediatric Outcomes Data Collection Instrument, Pediatric Parent-Reported Version Questionnaire Test Code", "preferredTerm": "CDISC Questionnaire PODCI Pediatric Parent-Reported Version Test Code Terminology", "submissionValue": "PODCI1TC", "synonyms": ["Pediatric Outcomes Data Collection Instrument, Pediatric Parent-Reported Version Questionnaire Test Code"], "terms": [{"conceptId": "C135942", "definition": "Pediatric Outcomes Data Collection Instrument, Pediatric Parent-Reported - During the last week, was it easy or hard for your child to: Lift heavy books?", "preferredTerm": "PODCI Pediatric Parent-Reported Version - Lift Heavy Books", "submissionValue": "PODCI101", "synonyms": ["PODCI1-Lift Heavy Books"]}, {"conceptId": "C135943", "definition": "Pediatric Outcomes Data Collection Instrument, Pediatric Parent-Reported - During the last week, was it easy or hard for your child to: Pour a half gallon of milk?", "preferredTerm": "PODCI Pediatric Parent-Reported Version - Pour a Half Gallon of Milk", "submissionValue": "PODCI102", "synonyms": ["PODCI1-Pour a Half Gallon of Milk"]}, {"conceptId": "C135944", "definition": "Pediatric Outcomes Data Collection Instrument, Pediatric Parent-Reported - During the last week, was it easy or hard for your child to: Open a jar that has been opened before?", "preferredTerm": "PODCI Pediatric Parent-Reported Version - Open a Jar Been Opened Before", "submissionValue": "PODCI103", "synonyms": ["PODCI1-Open a Jar Been Opened Before"]}, {"conceptId": "C135945", "definition": "Pediatric Outcomes Data Collection Instrument, Pediatric Parent-Reported - During the last week, was it easy or hard for your child to: Use a fork and spoon?", "preferredTerm": "PODCI Pediatric Parent-Reported Version - Use a Fork and Spoon", "submissionValue": "PODCI104", "synonyms": ["PODCI1-Use a Fork and Spoon"]}, {"conceptId": "C135946", "definition": "Pediatric Outcomes Data Collection Instrument, Pediatric Parent-Reported - During the last week, was it easy or hard for your child to: Comb his/her hair?", "preferredTerm": "PODCI Pediatric Parent-Reported Version - Comb His or Her Hair", "submissionValue": "PODCI105", "synonyms": ["PODCI1-Comb His/Her Hair"]}, {"conceptId": "C135947", "definition": "Pediatric Outcomes Data Collection Instrument, Pediatric Parent-Reported - During the last week, was it easy or hard for your child to: Button buttons?", "preferredTerm": "PODCI Pediatric Parent-Reported Version - Button Buttons", "submissionValue": "PODCI106", "synonyms": ["PODCI1-Button Buttons"]}, {"conceptId": "C135948", "definition": "Pediatric Outcomes Data Collection Instrument, Pediatric Parent-Reported - During the last week, was it easy or hard for your child to: Put on his/her coat?", "preferredTerm": "PODCI Pediatric Parent-Reported Version - Put on His or Her Coat", "submissionValue": "PODCI107", "synonyms": ["PODCI1-Put on His/Her Coat"]}, {"conceptId": "C135949", "definition": "Pediatric Outcomes Data Collection Instrument, Pediatric Parent-Reported - During the last week, was it easy or hard for your child to: Write with a pencil?", "preferredTerm": "PODCI Pediatric Parent-Reported Version - Write With a Pencil", "submissionValue": "PODCI108", "synonyms": ["PODCI1-Write With a Pencil"]}, {"conceptId": "C135950", "definition": "Pediatric Outcomes Data Collection Instrument, Pediatric Parent-Reported - On average, over the last 12 months, how often did your child miss school (preschool, day care, camp, etc.) because of his/her health?", "preferredTerm": "PODCI Pediatric Parent-Reported Version - Miss School Because of Health", "submissionValue": "PODCI109", "synonyms": ["PODCI1-Miss School Because of Health"]}, {"conceptId": "C135951", "definition": "Pediatric Outcomes Data Collection Instrument, Pediatric Parent-Reported - During the last week, how happy has your child been with: How he/she looks?", "preferredTerm": "PODCI Pediatric Parent-Reported Version - How He or She Looks", "submissionValue": "PODCI110", "synonyms": ["PODCI1-How He/She Looks"]}, {"conceptId": "C135952", "definition": "Pediatric Outcomes Data Collection Instrument, Pediatric Parent-Reported - During the last week, how happy has your child been with: His/her body?", "preferredTerm": "PODCI Pediatric Parent-Reported Version - His or Her Body", "submissionValue": "PODCI111", "synonyms": ["PODCI1-His/Her Body"]}, {"conceptId": "C135953", "definition": "Pediatric Outcomes Data Collection Instrument, Pediatric Parent-Reported - During the last week, how happy has your child been with: What clothes or shoes he/she can wear?", "preferredTerm": "PODCI Pediatric Parent-Reported Version - What Clothes or Shoes He or She Wear", "submissionValue": "PODCI112", "synonyms": ["PODCI1-What Clothes/Shoes He/She Wear"]}, {"conceptId": "C135954", "definition": "Pediatric Outcomes Data Collection Instrument, Pediatric Parent-Reported - During the last week, how happy has your child been with: His/her ability to do the same things his/her friends do?", "preferredTerm": "PODCI Pediatric Parent-Reported Version - Ability Do Same Things Friends Do", "submissionValue": "PODCI113", "synonyms": ["PODCI1-Ability Do Same Things Friends Do"]}, {"conceptId": "C135955", "definition": "Pediatric Outcomes Data Collection Instrument, Pediatric Parent-Reported - During the last week, how happy has your child been with: His/her health in general?", "preferredTerm": "PODCI Pediatric Parent-Reported Version - His or Her Health in General", "submissionValue": "PODCI114", "synonyms": ["PODCI1-His/Her Health in General"]}, {"conceptId": "C135956", "definition": "Pediatric Outcomes Data Collection Instrument, Pediatric Parent-Reported - During the last week, how much of the time: Did your child feel sick and tired?", "preferredTerm": "PODCI Pediatric Parent-Reported Version - Feel Sick and Tired", "submissionValue": "PODCI115", "synonyms": ["PODCI1-Feel Sick and Tired"]}, {"conceptId": "C135957", "definition": "Pediatric Outcomes Data Collection Instrument, Pediatric Parent-Reported - During the last week, how much of the time: Were your child full of pep and energy?", "preferredTerm": "PODCI Pediatric Parent-Reported Version - Full of Pep and Energy", "submissionValue": "PODCI116", "synonyms": ["PODCI1-Full of Pep and Energy"]}, {"conceptId": "C135958", "definition": "Pediatric Outcomes Data Collection Instrument, Pediatric Parent-Reported - During the last week, how much of the time: Did pain or discomfort interfere with your child's activities?", "preferredTerm": "PODCI Pediatric Parent-Reported Version - Pain or Discomfort Interfere With Activities", "submissionValue": "PODCI117", "synonyms": ["PODCI1-Pain/Discom Inter With Activities"]}, {"conceptId": "C135959", "definition": "Pediatric Outcomes Data Collection Instrument, Pediatric Parent-Reported - During the last week, has it been easy or hard for your child to: Run short distances?", "preferredTerm": "PODCI Pediatric Parent-Reported Version - Run Short Distances", "submissionValue": "PODCI118", "synonyms": ["PODCI1-Run Short Distances"]}, {"conceptId": "C135960", "definition": "Pediatric Outcomes Data Collection Instrument, Pediatric Parent-Reported - During the last week, has it been easy or hard for your child to: Bicycle or tricycle?", "preferredTerm": "PODCI Pediatric Parent-Reported Version - Bicycle or Tricycle", "submissionValue": "PODCI119", "synonyms": ["PODCI1-Bicycle or Tricycle"]}, {"conceptId": "C135961", "definition": "Pediatric Outcomes Data Collection Instrument, Pediatric Parent-Reported - During the last week, has it been easy or hard for your child to: Climb three flights of stairs?", "preferredTerm": "PODCI Pediatric Parent-Reported Version - Climb Three Flights of Stairs", "submissionValue": "PODCI120", "synonyms": ["PODCI1-Climb Three Flights of Stairs"]}, {"conceptId": "C135962", "definition": "Pediatric Outcomes Data Collection Instrument, Pediatric Parent-Reported - During the last week, has it been easy or hard for your child to: Climb one flight of stairs?", "preferredTerm": "PODCI Pediatric Parent-Reported Version - Climb One Flight of Stairs", "submissionValue": "PODCI121", "synonyms": ["PODCI1-Climb One Flight of Stairs"]}, {"conceptId": "C135963", "definition": "Pediatric Outcomes Data Collection Instrument, Pediatric Parent-Reported - During the last week, has it been easy or hard for your child to: Walk more than a mile?", "preferredTerm": "PODCI Pediatric Parent-Reported Version - Walk More Than a Mile", "submissionValue": "PODCI122", "synonyms": ["PODCI1-Walk More Than a Mile"]}, {"conceptId": "C135964", "definition": "Pediatric Outcomes Data Collection Instrument, Pediatric Parent-Reported - During the last week, has it been easy or hard for your child to: Walk three blocks?", "preferredTerm": "PODCI Pediatric Parent-Reported Version - Walk Three Blocks", "submissionValue": "PODCI123", "synonyms": ["PODCI1-Walk Three Blocks"]}, {"conceptId": "C135965", "definition": "Pediatric Outcomes Data Collection Instrument, Pediatric Parent-Reported - During the last week, has it been easy or hard for your child to: Walk one block?", "preferredTerm": "PODCI Pediatric Parent-Reported Version - Walk One Block", "submissionValue": "PODCI124", "synonyms": ["PODCI1-Walk One Block"]}, {"conceptId": "C135966", "definition": "Pediatric Outcomes Data Collection Instrument, Pediatric Parent-Reported - During the last week, has it been easy or hard for your child to: Get on and off a bus?", "preferredTerm": "PODCI Pediatric Parent-Reported Version - Get On and Off a Bus", "submissionValue": "PODCI125", "synonyms": ["PODCI1-Get On and Off a Bus"]}, {"conceptId": "C135967", "definition": "Pediatric Outcomes Data Collection Instrument, Pediatric Parent-Reported - How often does your child need help from another person for walking and climbing?", "preferredTerm": "PODCI Pediatric Parent-Reported Version - Need Help Walking and Climbing", "submissionValue": "PODCI126", "synonyms": ["PODCI1-Need Help Walking and Climbing"]}, {"conceptId": "C135968", "definition": "Pediatric Outcomes Data Collection Instrument, Pediatric Parent-Reported - How often does your child use assistive devices (such as braces, crutches, or wheelchair) for walking and climbing?", "preferredTerm": "PODCI Pediatric Parent-Reported Version - Use Assistive Devices for Walking", "submissionValue": "PODCI127", "synonyms": ["PODCI1-Use Assistive Devices for Walking"]}, {"conceptId": "C135969", "definition": "Pediatric Outcomes Data Collection Instrument, Pediatric Parent-Reported - During the last week, has it been easy or hard for your child to: Stand while washing his/her hands and face at a sink?", "preferredTerm": "PODCI Pediatric Parent-Reported Version - Stand Washing Hands at a Sink", "submissionValue": "PODCI128", "synonyms": ["PODCI1-Stand Washing Hands at a Sink"]}, {"conceptId": "C135970", "definition": "Pediatric Outcomes Data Collection Instrument, Pediatric Parent-Reported - During the last week, has it been easy or hard for your child to: Sit in a regular chair without holding on?", "preferredTerm": "PODCI Pediatric Parent-Reported Version - Sit in Chair Without Holding On", "submissionValue": "PODCI129", "synonyms": ["PODCI1-Sit in Chair Without Holding On"]}, {"conceptId": "C135971", "definition": "Pediatric Outcomes Data Collection Instrument, Pediatric Parent-Reported - During the last week, has it been easy or hard for your child to: Get on and off a toilet or chair?", "preferredTerm": "PODCI Pediatric Parent-Reported Version - Get On and Off a Toilet or Chair", "submissionValue": "PODCI130", "synonyms": ["PODCI1-Get On and Off a Toilet or Chair"]}, {"conceptId": "C135972", "definition": "Pediatric Outcomes Data Collection Instrument, Pediatric Parent-Reported - During the last week, has it been easy or hard for your child to: Get in and out of bed?", "preferredTerm": "PODCI Pediatric Parent-Reported Version - Get In and Out of Bed", "submissionValue": "PODCI131", "synonyms": ["PODCI1-Get In and Out of Bed"]}, {"conceptId": "C135973", "definition": "Pediatric Outcomes Data Collection Instrument, Pediatric Parent-Reported - During the last week, has it been easy or hard for your child to: Turn door knobs?", "preferredTerm": "PODCI Pediatric Parent-Reported Version - Turn Door Knobs", "submissionValue": "PODCI132", "synonyms": ["PODCI1-Turn Door Knobs"]}, {"conceptId": "C135974", "definition": "Pediatric Outcomes Data Collection Instrument, Pediatric Parent-Reported - During the last week, has it been easy or hard for your child to: Bend over from a standing position and pick up something off the floor?", "preferredTerm": "PODCI Pediatric Parent-Reported Version - Bend Over and Pick Up Something", "submissionValue": "PODCI133", "synonyms": ["PODCI1-Bend Over and Pick Up Something"]}, {"conceptId": "C135975", "definition": "Pediatric Outcomes Data Collection Instrument, Pediatric Parent-Reported - How often does your child need help from another person for sitting and standing?", "preferredTerm": "PODCI Pediatric Parent-Reported Version - Need Help Sitting and Standing", "submissionValue": "PODCI134", "synonyms": ["PODCI1-Need Help Sitting and Standing"]}, {"conceptId": "C135976", "definition": "Pediatric Outcomes Data Collection Instrument, Pediatric Parent-Reported - How often does your child use assistive devices (such as braces, crutches, or wheelchair) for sitting and standing?", "preferredTerm": "PODCI Pediatric Parent-Reported Version - Use Assistive Devices for Sitting", "submissionValue": "PODCI135", "synonyms": ["PODCI1-Use Assistive Devices for Sitting"]}, {"conceptId": "C135977", "definition": "Pediatric Outcomes Data Collection Instrument, Pediatric Parent-Reported - Can your child participate in recreational outdoor activities with other children the same age (For example: bicycling, tricycling, skating, hiking, jogging)?", "preferredTerm": "PODCI Pediatric Parent-Reported Version - Participate in Outdoor Activities", "submissionValue": "PODCI136", "synonyms": ["PODCI1-Participate in Outdoor Activities"]}, {"conceptId": "C135978", "definition": "Pediatric Outcomes Data Collection Instrument, Pediatric Parent-Reported - If you answered \"no\" to Question 36 above, was your child's activity limited by: Pain?", "preferredTerm": "PODCI Pediatric Parent-Reported Version - Outdoor Limited by: Pain", "submissionValue": "PODCI137", "synonyms": ["PODCI1-Outdoor Limited by: Pain"]}, {"conceptId": "C135979", "definition": "Pediatric Outcomes Data Collection Instrument, Pediatric Parent-Reported - If you answered \"no\" to Question 36 above, was your child's activity limited by: General health?", "preferredTerm": "PODCI Pediatric Parent-Reported Version - Outdoor Limited by: Health", "submissionValue": "PODCI138", "synonyms": ["PODCI1-Outdoor Limited by: Health"]}, {"conceptId": "C135980", "definition": "Pediatric Outcomes Data Collection Instrument, Pediatric Parent-Reported - If you answered \"no\" to Question 36 above, was your child's activity limited by: Doctor or parent instructions?", "preferredTerm": "PODCI Pediatric Parent-Reported Version - Outdoor Limited by: Instructions", "submissionValue": "PODCI139", "synonyms": ["PODCI1-Outdoor Limited by: Instructions"]}, {"conceptId": "C135981", "definition": "Pediatric Outcomes Data Collection Instrument, Pediatric Parent-Reported - If you answered \"no\" to Question 36 above, was your child's activity limited by: Fear the other kids won't like him/her?", "preferredTerm": "PODCI Pediatric Parent-Reported Version - Outdoor Limited by: Fear", "submissionValue": "PODCI140", "synonyms": ["PODCI1-Outdoor Limited by: Fear"]}, {"conceptId": "C135982", "definition": "Pediatric Outcomes Data Collection Instrument, Pediatric Parent-Reported - If you answered \"no\" to Question 36 above, was your child's activity limited by: Dislike of recreational outdoor activities?", "preferredTerm": "PODCI Pediatric Parent-Reported Version - Outdoor Limited by: Dislike", "submissionValue": "PODCI141", "synonyms": ["PODCI1-Outdoor Limited by: Dislike"]}, {"conceptId": "C135983", "definition": "Pediatric Outcomes Data Collection Instrument, Pediatric Parent-Reported - If you answered \"no\" to Question 36 above, was your child's activity limited by: Too young?", "preferredTerm": "PODCI Pediatric Parent-Reported Version - Outdoor Limited by: Too Young", "submissionValue": "PODCI142", "synonyms": ["PODCI1-Outdoor Limited by: Too Young"]}, {"conceptId": "C135984", "definition": "Pediatric Outcomes Data Collection Instrument, Pediatric Parent-Reported - If you answered \"no\" to Question 36 above, was your child's activity limited by: Activity not in season?", "preferredTerm": "PODCI Pediatric Parent-Reported Version - Outdoor Limited by: Season", "submissionValue": "PODCI143", "synonyms": ["PODCI1-Outdoor Limited by: Season"]}, {"conceptId": "C135985", "definition": "Pediatric Outcomes Data Collection Instrument, Pediatric Parent-Reported - Can your child participate in pickup games or sports with other children the same age (For example: tag, dodge ball, basketball, soccer, catch, jump rope, touch football, hop scotch)?", "preferredTerm": "PODCI Pediatric Parent-Reported Version - Participate in Pickup Games", "submissionValue": "PODCI144", "synonyms": ["PODCI1-Participate in Pickup Games"]}, {"conceptId": "C135986", "definition": "Pediatric Outcomes Data Collection Instrument, Pediatric Parent-Reported - If you answered \"no\" to Question 44 above, was your child's activity limited by: Pain?", "preferredTerm": "PODCI Pediatric Parent-Reported Version - Games Limited by: Pain", "submissionValue": "PODCI145", "synonyms": ["PODCI1-Games Limited by: Pain"]}, {"conceptId": "C135987", "definition": "Pediatric Outcomes Data Collection Instrument, Pediatric Parent-Reported - If you answered \"no\" to Question 44 above, was your child's activity limited by: General health?", "preferredTerm": "PODCI Pediatric Parent-Reported Version - Games Limited by: Health", "submissionValue": "PODCI146", "synonyms": ["PODCI1-Games Limited by: Health"]}, {"conceptId": "C135988", "definition": "Pediatric Outcomes Data Collection Instrument, Pediatric Parent-Reported - If you answered \"no\" to Question 44 above, was your child's activity limited by: Doctor or parent instructions?", "preferredTerm": "PODCI Pediatric Parent-Reported Version - Games Limited by: Instructions", "submissionValue": "PODCI147", "synonyms": ["PODCI1-Games Limited by: Instructions"]}, {"conceptId": "C135989", "definition": "Pediatric Outcomes Data Collection Instrument, Pediatric Parent-Reported - If you answered \"no\" to Question 44 above, was your child's activity limited by: Fear the other kids won't like him/her?", "preferredTerm": "PODCI Pediatric Parent-Reported Version - Games Limited by: Fear", "submissionValue": "PODCI148", "synonyms": ["PODCI1-Games Limited by: Fear"]}, {"conceptId": "C135990", "definition": "Pediatric Outcomes Data Collection Instrument, Pediatric Parent-Reported - If you answered \"no\" to Question 44 above, was your child's activity limited by: Dislike of pickup games or sports?", "preferredTerm": "PODCI Pediatric Parent-Reported Version - Games Limited by: Dislike", "submissionValue": "PODCI149", "synonyms": ["PODCI1-Games Limited by: Dislike"]}, {"conceptId": "C135991", "definition": "Pediatric Outcomes Data Collection Instrument, Pediatric Parent-Reported - If you answered \"no\" to Question 44 above, was your child's activity limited by: Too young?", "preferredTerm": "PODCI Pediatric Parent-Reported Version - Games Limited by: Too Young", "submissionValue": "PODCI150", "synonyms": ["PODCI1-Games Limited by: Too Young"]}, {"conceptId": "C135992", "definition": "Pediatric Outcomes Data Collection Instrument, Pediatric Parent-Reported - If you answered \"no\" to Question 44 above, was your child's activity limited by: Activity not in season?", "preferredTerm": "PODCI Pediatric Parent-Reported Version - Games Limited by: Season", "submissionValue": "PODCI151", "synonyms": ["PODCI1-Games Limited by: Season"]}, {"conceptId": "C135993", "definition": "Pediatric Outcomes Data Collection Instrument, Pediatric Parent-Reported - Can your child participate in competitive level sports with other children the same age (For example: hockey, basketball, soccer, football, baseball, swimming, running [track or cross country], gymnastics, or dance)?", "preferredTerm": "PODCI Pediatric Parent-Reported Version - Participate in Competitive Sports", "submissionValue": "PODCI152", "synonyms": ["PODCI1-Participate in Competitive Sports"]}, {"conceptId": "C135994", "definition": "Pediatric Outcomes Data Collection Instrument, Pediatric Parent-Reported - If you answered \"no\" to Question 52 above, was your child's activity limited by: Pain?", "preferredTerm": "PODCI Pediatric Parent-Reported Version - Competitive Sports Limited by: Pain", "submissionValue": "PODCI153", "synonyms": ["PODCI1-Comp Sports Limited by: Pain"]}, {"conceptId": "C135995", "definition": "Pediatric Outcomes Data Collection Instrument, Pediatric Parent-Reported - If you answered \"no\" to Question 52 above, was your child's activity limited by: General health?", "preferredTerm": "PODCI Pediatric Parent-Reported Version - Competitive Sports Limited by: Health", "submissionValue": "PODCI154", "synonyms": ["PODCI1-Comp Sports Limited by: Health"]}, {"conceptId": "C135996", "definition": "Pediatric Outcomes Data Collection Instrument, Pediatric Parent-Reported - If you answered \"no\" to Question 52 above, was your child's activity limited by: Doctor or parent instructions?", "preferredTerm": "PODCI Pediatric Parent-Reported Version - Competitive Sports Limited by: Instruction", "submissionValue": "PODCI155", "synonyms": ["PODCI1-Comp Sports Limited by: Instruct"]}, {"conceptId": "C135997", "definition": "Pediatric Outcomes Data Collection Instrument, Pediatric Parent-Reported - If you answered \"no\" to Question 52 above, was your child's activity limited by: Fear the other kids won't like him/her?", "preferredTerm": "PODCI Pediatric Parent-Reported Version - Competitive Sports Limited by: Fear", "submissionValue": "PODCI156", "synonyms": ["PODCI1-Comp Sports Limited by: Fear"]}, {"conceptId": "C135998", "definition": "Pediatric Outcomes Data Collection Instrument, Pediatric Parent-Reported - If you answered \"no\" to Question 52 above, was your child's activity limited by: Dislike of pickup games or sports?", "preferredTerm": "PODCI Pediatric Parent-Reported Version - Competitive Sports Limited by: Dislike", "submissionValue": "PODCI157", "synonyms": ["PODCI1-Comp Sports Limited by: Dislike"]}, {"conceptId": "C135999", "definition": "Pediatric Outcomes Data Collection Instrument, Pediatric Parent-Reported - If you answered \"no\" to Question 52 above, was your child's activity limited by: Too young?", "preferredTerm": "PODCI Pediatric Parent-Reported Version - Competitive Sports Limited by: Too Young", "submissionValue": "PODCI158", "synonyms": ["PODCI1-Comp Sports Limited by: Too Young"]}, {"conceptId": "C136000", "definition": "Pediatric Outcomes Data Collection Instrument, Pediatric Parent-Reported - If you answered \"no\" to Question 52 above, was your child's activity limited by: Activity not in season?", "preferredTerm": "PODCI Pediatric Parent-Reported Version - Competitive Sports Limited by: Season", "submissionValue": "PODCI159", "synonyms": ["PODCI1-Comp Sports Limited by: Season"]}, {"conceptId": "C136001", "definition": "Pediatric Outcomes Data Collection Instrument, Pediatric Parent-Reported - How often in the last week did your child get together and do things with friends?", "preferredTerm": "PODCI Pediatric Parent-Reported Version - Get Together With Friends", "submissionValue": "PODCI160", "synonyms": ["PODCI1-Get Together With Friends"]}, {"conceptId": "C136002", "definition": "Pediatric Outcomes Data Collection Instrument, Pediatric Parent-Reported - If you answered \"sometimes\" or \"never or rarely\" to Question 60 above, was your child's activity limited by: Pain?", "preferredTerm": "PODCI Pediatric Parent-Reported Version - Friends Limited by: Pain", "submissionValue": "PODCI161", "synonyms": ["PODCI1-Friends Limited by: Pain"]}, {"conceptId": "C136003", "definition": "Pediatric Outcomes Data Collection Instrument, Pediatric Parent-Reported - If you answered \"sometimes\" or \"never or rarely\" to Question 60 above, was your child's activity limited by: General health?", "preferredTerm": "PODCI Pediatric Parent-Reported Version - Friends Limited by: Health", "submissionValue": "PODCI162", "synonyms": ["PODCI1-Friends Limited by: Health"]}, {"conceptId": "C136004", "definition": "Pediatric Outcomes Data Collection Instrument, Pediatric Parent-Reported - If you answered \"sometimes\" or \"never or rarely\" to Question 60 above, was your child's activity limited by: Doctor or parent instructions?", "preferredTerm": "PODCI Pediatric Parent-Reported Version - Friends Limited by: Instructions", "submissionValue": "PODCI163", "synonyms": ["PODCI1-Friends Limited by: Instructions"]}, {"conceptId": "C136005", "definition": "Pediatric Outcomes Data Collection Instrument, Pediatric Parent-Reported - If you answered \"sometimes\" or \"never or rarely\" to Question 60 above, was your child's activity limited by: Fear the other kids won't like him/her?", "preferredTerm": "PODCI Pediatric Parent-Reported Version - Friends Limited by: Fear", "submissionValue": "PODCI164", "synonyms": ["PODCI1-Friends Limited by: Fear"]}, {"conceptId": "C136006", "definition": "Pediatric Outcomes Data Collection Instrument, Pediatric Parent-Reported - If you answered \"sometimes\" or \"never or rarely\" to Question 60 above, was your child's activity limited by: Friends not around?", "preferredTerm": "PODCI Pediatric Parent-Reported Version - Friends Limited by: Not Around", "submissionValue": "PODCI165", "synonyms": ["PODCI1-Friends Limited by: Not Around"]}, {"conceptId": "C136007", "definition": "Pediatric Outcomes Data Collection Instrument, Pediatric Parent-Reported - How often in the last week did your child participate in gym/recess?", "preferredTerm": "PODCI Pediatric Parent-Reported Version - Participate in Gym or Recess", "submissionValue": "PODCI166", "synonyms": ["PODCI1-Participate in Gym/Recess"]}, {"conceptId": "C136008", "definition": "Pediatric Outcomes Data Collection Instrument, Pediatric Parent-Reported - If you answered \"sometimes\" or \"never or rarely\" to Question 66 above, was your child's activity limited by: Pain?", "preferredTerm": "PODCI Pediatric Parent-Reported Version - Gym Limited by: Pain", "submissionValue": "PODCI167", "synonyms": ["PODCI1-Gym Limited by: Pain"]}, {"conceptId": "C136009", "definition": "Pediatric Outcomes Data Collection Instrument, Pediatric Parent-Reported - If you answered \"sometimes\" or \"never or rarely\" to Question 66 above, was your child's activity limited by: General health?", "preferredTerm": "PODCI Pediatric Parent-Reported Version - Gym Limited by: Health", "submissionValue": "PODCI168", "synonyms": ["PODCI1-Gym Limited by: Health"]}, {"conceptId": "C136010", "definition": "Pediatric Outcomes Data Collection Instrument, Pediatric Parent-Reported - If you answered \"sometimes\" or \"never or rarely\" to Question 66 above, was your child's activity limited by: Doctor or parent instructions?", "preferredTerm": "PODCI Pediatric Parent-Reported Version - Gym Limited by: Instructions", "submissionValue": "PODCI169", "synonyms": ["PODCI1-Gym Limited by: Instructions"]}, {"conceptId": "C136011", "definition": "Pediatric Outcomes Data Collection Instrument, Pediatric Parent-Reported - If you answered \"sometimes\" or \"never or rarely\" to Question 66 above, was your child's activity limited by: Fear the other kids won't like him/her?", "preferredTerm": "PODCI Pediatric Parent-Reported Version - Gym Limited by: Fear", "submissionValue": "PODCI170", "synonyms": ["PODCI1-Gym Limited by: Fear"]}, {"conceptId": "C136012", "definition": "Pediatric Outcomes Data Collection Instrument, Pediatric Parent-Reported - If you answered \"sometimes\" or \"never or rarely\" to Question 66 above, was your child's activity limited by: Dislike of gym/recess?", "preferredTerm": "PODCI Pediatric Parent-Reported Version - Gym Limited by: Dislike", "submissionValue": "PODCI171", "synonyms": ["PODCI1-Gym Limited by: Dislike"]}, {"conceptId": "C136013", "definition": "Pediatric Outcomes Data Collection Instrument, Pediatric Parent-Reported - If you answered \"sometimes\" or \"never or rarely\" to Question 66 above, was your child's activity limited by: School not in session?", "preferredTerm": "PODCI Pediatric Parent-Reported Version - Gym Limited by: Not in Session", "submissionValue": "PODCI172", "synonyms": ["PODCI1-Gym Limited by: Not in Session"]}, {"conceptId": "C136014", "definition": "Pediatric Outcomes Data Collection Instrument, Pediatric Parent-Reported - If you answered \"sometimes\" or \"never or rarely\" to Question 66 above, was your child's activity limited by: Does not attend school?", "preferredTerm": "PODCI Pediatric Parent-Reported Version - Gym Limited by: Not Attend School", "submissionValue": "PODCI173", "synonyms": ["PODCI1-Gym Limited by: Not Attend School"]}, {"conceptId": "C136015", "definition": "Pediatric Outcomes Data Collection Instrument, Pediatric Parent-Reported - Is it easy or hard for your child to make friends with children his/her own age?", "preferredTerm": "PODCI Pediatric Parent-Reported Version - Easy to Make Friends", "submissionValue": "PODCI174", "synonyms": ["PODCI1-Easy to Make Friends"]}, {"conceptId": "C136016", "definition": "Pediatric Outcomes Data Collection Instrument, Pediatric Parent-Reported - How much pain has your child had during the last week?", "preferredTerm": "PODCI Pediatric Parent-Reported Version - Pain During the Last Week", "submissionValue": "PODCI175", "synonyms": ["PODCI1-Pain During the Last Week"]}, {"conceptId": "C136017", "definition": "Pediatric Outcomes Data Collection Instrument, Pediatric Parent-Reported - During the last week, how much did pain interfere with your child's normal activities (including at home, outside of the home, and at school)?", "preferredTerm": "PODCI Pediatric Parent-Reported Version - Pain Interfere With Activities", "submissionValue": "PODCI176", "synonyms": ["PODCI1-Pain Interfere With Activities"]}, {"conceptId": "C136018", "definition": "Pediatric Outcomes Data Collection Instrument, Pediatric Parent-Reported - As a result of my child's treatment, I expect my child: To have pain relief.", "preferredTerm": "PODCI Pediatric Parent-Reported Version - Have Pain Relief", "submissionValue": "PODCI177", "synonyms": ["PODCI1-Have Pain Relief"]}, {"conceptId": "C136019", "definition": "Pediatric Outcomes Data Collection Instrument, Pediatric Parent-Reported - As a result of my child's treatment, I expect my child: To look better.", "preferredTerm": "PODCI Pediatric Parent-Reported Version - Look Better", "submissionValue": "PODCI178", "synonyms": ["PODCI1-Look Better"]}, {"conceptId": "C136020", "definition": "Pediatric Outcomes Data Collection Instrument, Pediatric Parent-Reported - As a result of my child's treatment, I expect my child: To feel better about himself/herself.", "preferredTerm": "PODCI Pediatric Parent-Reported Version - Feel Better", "submissionValue": "PODCI179", "synonyms": ["PODCI1-Feel Better"]}, {"conceptId": "C136021", "definition": "Pediatric Outcomes Data Collection Instrument, Pediatric Parent-Reported - As a result of my child's treatment, I expect my child: To sleep more comfortably.", "preferredTerm": "PODCI Pediatric Parent-Reported Version - Sleep More Comfortably", "submissionValue": "PODCI180", "synonyms": ["PODCI1-Sleep More Comfortably"]}, {"conceptId": "C136022", "definition": "Pediatric Outcomes Data Collection Instrument, Pediatric Parent-Reported - As a result of my child's treatment, I expect my child: To be able to do activities at home.", "preferredTerm": "PODCI Pediatric Parent-Reported Version - Able to Do Activities at Home", "submissionValue": "PODCI181", "synonyms": ["PODCI1-Able to Do Activities at Home"]}, {"conceptId": "C136023", "definition": "Pediatric Outcomes Data Collection Instrument, Pediatric Parent-Reported - As a result of my child's treatment, I expect my child: To be able to do more at school.", "preferredTerm": "PODCI Pediatric Parent-Reported Version - Able to Do More at School", "submissionValue": "PODCI182", "synonyms": ["PODCI1-Able to Do More at School"]}, {"conceptId": "C136024", "definition": "Pediatric Outcomes Data Collection Instrument, Pediatric Parent-Reported - As a result of my child's treatment, I expect my child: To be able to do more play or recreational activities (biking, walking, doing things with friends).", "preferredTerm": "PODCI Pediatric Parent-Reported Version - Able to Do More Play", "submissionValue": "PODCI183", "synonyms": ["PODCI1-Able to Do More Play"]}, {"conceptId": "C136025", "definition": "Pediatric Outcomes Data Collection Instrument, Pediatric Parent-Reported - As a result of my child's treatment, I expect my child: To be able to do more sports.", "preferredTerm": "PODCI Pediatric Parent-Reported Version - Able to Do More Sports", "submissionValue": "PODCI184", "synonyms": ["PODCI1-Able to Do More Sports"]}, {"conceptId": "C136026", "definition": "Pediatric Outcomes Data Collection Instrument, Pediatric Parent-Reported - As a result of my child's treatment, I expect my child: To be free from pain or disability as an adult.", "preferredTerm": "PODCI Pediatric Parent-Reported Version - Free From Pain as Adult", "submissionValue": "PODCI185", "synonyms": ["PODCI1-Free From Pain as Adult"]}, {"conceptId": "C136027", "definition": "Pediatric Outcomes Data Collection Instrument, Pediatric Parent-Reported - If your child had to spend the rest of his/her life with his/her bone and muscle condition as it is right now, how would you feel about it?", "preferredTerm": "PODCI Pediatric Parent-Reported Version - Spend Rest of Life With Condition", "submissionValue": "PODCI186", "synonyms": ["PODCI1-Spend Rest of Life With Condition"]}, {"conceptId": "C136028", "definition": "Pediatric Outcomes Data Collection Instrument, Pediatric Parent-Reported - Upper extremity and physical function core scale.", "preferredTerm": "PODCI Pediatric Parent-Reported Version - Upper Extremity and Physical Function Scale", "submissionValue": "PODCI187", "synonyms": ["PODCI1-Up Extremity/Phys Function Scale"]}, {"conceptId": "C136029", "definition": "Pediatric Outcomes Data Collection Instrument, Pediatric Parent-Reported - Transfer and basic mobility core scale.", "preferredTerm": "PODCI Pediatric Parent-Reported Version - Transfer and Basic Mobility Scale", "submissionValue": "PODCI188", "synonyms": ["PODCI1-Transfer/Basic Mobility Scale"]}, {"conceptId": "C136030", "definition": "Pediatric Outcomes Data Collection Instrument, Pediatric Parent-Reported - Sports and physical functioning core scale.", "preferredTerm": "PODCI Pediatric Parent-Reported Version - Sports and Physical Function Scale", "submissionValue": "PODCI189", "synonyms": ["PODCI1-Sports/Phys Function Scale"]}, {"conceptId": "C136031", "definition": "Pediatric Outcomes Data Collection Instrument, Pediatric Parent-Reported - Pain/comfort core scale.", "preferredTerm": "PODCI Pediatric Parent-Reported Version - Pain or Comfort Scale", "submissionValue": "PODCI190", "synonyms": ["PODCI1-Pain/Comfort Scale"]}, {"conceptId": "C136032", "definition": "Pediatric Outcomes Data Collection Instrument, Pediatric Parent-Reported - Happiness core scale.", "preferredTerm": "PODCI Pediatric Parent-Reported Version - Happiness Scale", "submissionValue": "PODCI191", "synonyms": ["PODCI1-Happiness Scale"]}, {"conceptId": "C136033", "definition": "Pediatric Outcomes Data Collection Instrument, Pediatric Parent-Reported - Global functioning scale.", "preferredTerm": "PODCI Pediatric Parent-Reported Version - Global Functioning Scale", "submissionValue": "PODCI192", "synonyms": ["PODCI1-Global Functioning Scale"]}]}