{"_links": {"parentPackage": {"href": "/mdr/ct/packages/sdtmct-2017-12-22", "title": "SDTM Controlled Terminology Package 32 Effective 2017-12-22", "type": "Terminology"}, "priorVersion": {"href": "/mdr/ct/packages/sdtmct-2017-09-29/codelists/C138216", "title": "CDISC Functional Test PUL 1.2 Test Name Terminology", "type": "Code List"}, "rootItem": {"href": "/mdr/root/ct/sdtmct/codelists/C138216", "title": "Version-agnostic anchor resource for codelist C138216", "type": "Root Value Domain"}, "self": {"href": "/mdr/ct/packages/sdtmct-2017-12-22/codelists/C138216", "title": "CDISC Functional Test PUL 1.2 Test Name Terminology", "type": "Code List"}}, "conceptId": "C138216", "definition": "Performance of the Upper Limb Module for DMD Version 1.2 test name.", "extensible": "false", "name": "Performance of the Upper Limb Module for DMD Version 1.2 Functional Test Test Name", "preferredTerm": "CDISC Functional Test PUL 1.2 Test Name Terminology", "submissionValue": "PUL01TN", "synonyms": ["Performance of the Upper Limb Module for DMD Version 1.2 Functional Test Test Name"], "terms": [{"conceptId": "C138391", "definition": "Performance of the Upper Limb Module for DMD Version 1.2 - 3 point grip.", "preferredTerm": "PUL 1.2 - 3 Point Grip", "submissionValue": "PUL01-3 Point Grip", "synonyms": ["PUL01-3 Point Grip"]}, {"conceptId": "C138395", "definition": "Performance of the Upper Limb Module for DMD Version 1.2 - Distal wrist and hand dimension score.", "preferredTerm": "PUL 1.2 - Distal Wrist or Hand Dimension", "submissionValue": "PUL01-Distal Wrist/Hand Dimension", "synonyms": ["PUL01-Distal Wrist/Hand Dimension"]}, {"conceptId": "C138366", "definition": "Performance of the Upper Limb Module for DMD Version 1.2 - Elbow contractures of the preferred arm.", "preferredTerm": "PUL 1.2 - Elbow Contractures", "submissionValue": "PUL01-Elbow Contractures", "synonyms": ["PUL01-Elbow Contractures"]}, {"conceptId": "C138367", "definition": "Performance of the Upper Limb Module for DMD Version 1.2 - Entry item.", "preferredTerm": "PUL 1.2 - Entry Item", "submissionValue": "PUL01-Entry Item", "synonyms": ["PUL01-Entry Item"]}, {"conceptId": "C138390", "definition": "Performance of the Upper Limb Module for DMD Version 1.2 - Finger pinch grip.", "preferredTerm": "PUL 1.2 - Finger Pinch Grip", "submissionValue": "PUL01-Finger Pinch Grip", "synonyms": ["PUL01-Finger Pinch Grip"]}, {"conceptId": "C138372", "definition": "Performance of the Upper Limb Module for DMD Version 1.2 - Hand(s) to mouth.", "preferredTerm": "PUL 1.2 - Hand(s) to Mouth", "submissionValue": "PUL01-Hand(s) to Mouth", "synonyms": ["PUL01-Hand(s) to Mouth"]}, {"conceptId": "C138373", "definition": "Performance of the Upper Limb Module for DMD Version 1.2 - Hand(s) to table from lap.", "preferredTerm": "PUL 1.2 - Hand(s) to Table From Lap", "submissionValue": "PUL01-Hand(s) to Table From Lap", "synonyms": ["PUL01-Hand(s) to Table From Lap"]}, {"conceptId": "C138393", "definition": "Performance of the Upper Limb Module for DMD Version 1.2 - High level shoulder dimension score.", "preferredTerm": "PUL 1.2 - High Level Shoulder Dimension", "submissionValue": "PUL01-High Level Shoulder Dimension", "synonyms": ["PUL01-High Level Shoulder Dimension"]}, {"conceptId": "C138377", "definition": "Performance of the Upper Limb Module for DMD Version 1.2 - Lifting heavy cans.", "preferredTerm": "PUL 1.2 - Lifting Heavy Cans", "submissionValue": "PUL01-Lifting Heavy Cans", "synonyms": ["PUL01-Lifting Heavy Cans"]}, {"conceptId": "C138378", "definition": "Performance of the Upper Limb Module for DMD Version 1.2 - Lifting heavy cans, time.", "preferredTerm": "PUL 1.2 - Lifting Heavy Cans Time", "submissionValue": "PUL01-Lifting Heavy Cans Time", "synonyms": ["PUL01-Lifting Heavy Cans Time"]}, {"conceptId": "C138375", "definition": "Performance of the Upper Limb Module for DMD Version 1.2 - Lifting light cans.", "preferredTerm": "PUL 1.2 - Lifting Light Cans", "submissionValue": "PUL01-Lifting Light Cans", "synonyms": ["PUL01-Lifting Light Cans"]}, {"conceptId": "C138376", "definition": "Performance of the Upper Limb Module for DMD Version 1.2 - Lifting light cans, time.", "preferredTerm": "PUL 1.2 - Lifting Light Cans Time", "submissionValue": "PUL01-Lifting Light Cans Time", "synonyms": ["PUL01-Lifting Light Cans Time"]}, {"conceptId": "C138394", "definition": "Performance of the Upper Limb Module for DMD Version 1.2 - Mid level elbow dimension score.", "preferredTerm": "PUL 1.2 - Mid Level Elbow Dimension", "submissionValue": "PUL01-Mid Level Elbow Dimension", "synonyms": ["PUL01-Mid Level Elbow Dimension"]}, {"conceptId": "C138374", "definition": "Performance of the Upper Limb Module for DMD Version 1.2 - Move weight on table.", "preferredTerm": "PUL 1.2 - Move Weight on Table", "submissionValue": "PUL01-Move Weight on Table", "synonyms": ["PUL01-Move Weight on Table"]}, {"conceptId": "C138388", "definition": "Performance of the Upper Limb Module for DMD Version 1.2 - Picking up coins.", "preferredTerm": "PUL 1.2 - Picking Up Coins", "submissionValue": "PUL01-Picking Up Coins", "synonyms": ["PUL01-Picking Up Coins"]}, {"conceptId": "C138389", "definition": "Performance of the Upper Limb Module for DMD Version 1.2 - Placing finger on number diagram.", "preferredTerm": "PUL 1.2 - Placing Finger on Number Diagram", "submissionValue": "PUL01-Placing Finger on Number Diagram", "synonyms": ["PUL01-Placing Finger on Number Diagram"]}, {"conceptId": "C138365", "definition": "Performance of the Upper Limb Module for DMD Version 1.2 - Preferred arm.", "preferredTerm": "PUL 1.2 - Preferred Arm", "submissionValue": "PUL01-Preferred Arm", "synonyms": ["PUL01-Preferred Arm"]}, {"conceptId": "C138386", "definition": "Performance of the Upper Limb Module for DMD Version 1.2 - Push on the light.", "preferredTerm": "PUL 1.2 - Push on The Light", "submissionValue": "PUL01-Push on The Light", "synonyms": ["PUL01-Push on The Light"]}, {"conceptId": "C138383", "definition": "Performance of the Upper Limb Module for DMD Version 1.2 - Remove lid from container.", "preferredTerm": "PUL 1.2 - Remove Lid From Container", "submissionValue": "PUL01-Remove Lid From Container", "synonyms": ["PUL01-Remove Lid From Container"]}, {"conceptId": "C138369", "definition": "Performance of the Upper Limb Module for DMD Version 1.2 - Shoulder abduction above shoulder height.", "preferredTerm": "PUL 1.2 - Shoulder Abduction Above Height", "submissionValue": "PUL01-Shoulder Abduction Above Shldr Hgt", "synonyms": ["PUL01-Shoulder Abduction Above Shldr Hgt"]}, {"conceptId": "C138368", "definition": "Performance of the Upper Limb Module for DMD Version 1.2 - Shoulder abduction to shoulder height.", "preferredTerm": "PUL 1.2 - Shoulder Abduction to Height", "submissionValue": "PUL01-Shoulder Abduction to Shldr Hgt", "synonyms": ["PUL01-Shoulder Abduction to Shldr Hgt"]}, {"conceptId": "C138371", "definition": "Performance of the Upper Limb Module for DMD Version 1.2 - Shoulder flexion above shoulder height.", "preferredTerm": "PUL 1.2 - Shoulder Flexion Above Height", "submissionValue": "PUL01-Shoulder Flexion Above Shldr Hgt", "synonyms": ["PUL01-Shoulder Flexion Above Shldr Hgt"]}, {"conceptId": "C138370", "definition": "Performance of the Upper Limb Module for DMD Version 1.2 - Shoulder flexion to shoulder height.", "preferredTerm": "PUL 1.2 - Shoulder Flexion to Height", "submissionValue": "PUL01-Shoulder Flexion to Shldr Height", "synonyms": ["PUL01-Shoulder Flexion to Shldr Height"]}, {"conceptId": "C138381", "definition": "Performance of the Upper Limb Module for DMD Version 1.2 - Stacking heavy cans.", "preferredTerm": "PUL 1.2 - Stacking Heavy Cans", "submissionValue": "PUL01-Stacking Heavy Cans", "synonyms": ["PUL01-Stacking Heavy Cans"]}, {"conceptId": "C138382", "definition": "Performance of the Upper Limb Module for DMD Version 1.2 - Stacking heavy cans, time.", "preferredTerm": "PUL 1.2 - Stacking Heavy Cans Time", "submissionValue": "PUL01-Stacking Heavy Cans Time", "synonyms": ["PUL01-Stacking Heavy Cans Time"]}, {"conceptId": "C138379", "definition": "Performance of the Upper Limb Module for DMD Version 1.2 - Stacking light cans.", "preferredTerm": "PUL 1.2 - Stacking Light Cans", "submissionValue": "PUL01-Stacking Light Cans", "synonyms": ["PUL01-Stacking Light Cans"]}, {"conceptId": "C138380", "definition": "Performance of the Upper Limb Module for DMD Version 1.2 - Stacking light cans, time.", "preferredTerm": "PUL 1.2 - Stacking Light Cans Time", "submissionValue": "PUL01-Stacking Light Cans Time", "synonyms": ["PUL01-Stacking Light Cans Time"]}, {"conceptId": "C138387", "definition": "Performance of the Upper Limb Module for DMD Version 1.2 - Supination.", "preferredTerm": "PUL 1.2 - Supination", "submissionValue": "PUL01-Supination", "synonyms": ["PUL01-Supination"]}, {"conceptId": "C138384", "definition": "Performance of the Upper Limb Module for DMD Version 1.2 - Tearing paper.", "preferredTerm": "PUL 1.2 - Tearing Paper", "submissionValue": "PUL01-Tearing Paper", "synonyms": ["PUL01-Tearing Paper"]}, {"conceptId": "C138392", "definition": "Performance of the Upper Limb Module for DMD Version 1.2 - Thumb (key) grip.", "preferredTerm": "PUL 1.2 - Thumb (Key) Grip", "submissionValue": "PUL01-Thumb (Key) Grip", "synonyms": ["PUL01-Thumb (Key) Grip"]}, {"conceptId": "C138396", "definition": "Performance of the Upper Limb Module for DMD Version 1.2 - Total Score.", "preferredTerm": "PUL 1.2 - Total Score", "submissionValue": "PUL01-Total Score", "synonyms": ["PUL01-Total Score"]}, {"conceptId": "C138385", "definition": "Performance of the Upper Limb Module for DMD Version 1.2 - Tracing path.", "preferredTerm": "PUL 1.2 - Tracing Path", "submissionValue": "PUL01-Tracing Path", "synonyms": ["PUL01-Tracing Path"]}]}