{"_links": {"parentPackage": {"href": "/mdr/ct/packages/sdtmct-2017-12-22", "title": "SDTM Controlled Terminology Package 32 Effective 2017-12-22", "type": "Terminology"}, "priorVersion": {"href": "/mdr/ct/packages/sdtmct-2017-09-29/codelists/C138230", "title": "CDISC Questionnaire PedsQL Neuromuscular Module Acute Version 3.0 Parent Report for Child Test Name Terminology", "type": "Code List"}, "rootItem": {"href": "/mdr/root/ct/sdtmct/codelists/C138230", "title": "Version-agnostic anchor resource for codelist C138230", "type": "Root Value Domain"}, "self": {"href": "/mdr/ct/packages/sdtmct-2017-12-22/codelists/C138230", "title": "CDISC Questionnaire PedsQL Neuromuscular Module Acute Version 3.0 Parent Report for Child Test Name Terminology", "type": "Code List"}}, "conceptId": "C138230", "definition": "Pediatric Quality of Life Neuromuscular Module Acute Version 3 Child Parent Report test name.", "extensible": "false", "name": "Pediatric Quality of Life Neuromuscular Module Acute Version 3 Child Parent Report Questionnaire Test Name", "preferredTerm": "CDISC Questionnaire PedsQL Neuromuscular Module Acute Version 3.0 Parent Report for Child Test Name Terminology", "submissionValue": "PQL15TN", "synonyms": ["Pediatric Quality of Life Neuromuscular Module Acute Version 3 Child Parent Report Questionnaire Test Name"], "terms": [{"conceptId": "C138520", "definition": "Pediatric Quality of Life Neuromuscular Module Acute Version 3 Child Parent Report - In the past 7 days, how much of a problem has this been for your child: My child's back feels stiff.", "preferredTerm": "PedsQL Neuromuscular Module Acute Version 3.0 Parent Report for Child - Back Feels Stiff", "submissionValue": "PQL15-Back Feels Stiff", "synonyms": ["PQL15-Back Feels Stiff"]}, {"conceptId": "C138539", "definition": "Pediatric Quality of Life Neuromuscular Module Acute Version 3 Child Parent Report - In the past 7 days, how much of a problem has this been for your child: My child does not have the equipment he or she needs.", "preferredTerm": "PedsQL Neuromuscular Module Acute Version 3.0 Parent Report for Child - Do Not Have Equipment Need", "submissionValue": "PQL15-Do Not Have Equipment Need", "synonyms": ["PQL15-Do Not Have Equipment Need"]}, {"conceptId": "C138538", "definition": "Pediatric Quality of Life Neuromuscular Module Acute Version 3 Child Parent Report - In the past 7 days, how much of a problem has this been for your child: I think our family has a lot of problems.", "preferredTerm": "PedsQL Neuromuscular Module Acute Version 3.0 Parent Report for Child - Family Has Lot of Problems", "submissionValue": "PQL15-Family Has Lot of Problems", "synonyms": ["PQL15-Family Has Lot of Problems"]}, {"conceptId": "C138519", "definition": "Pediatric Quality of Life Neuromuscular Module Acute Version 3 Child Parent Report - In the past 7 days, how much of a problem has this been for your child: My child feels tired.", "preferredTerm": "PedsQL Neuromuscular Module Acute Version 3.0 Parent Report for Child - Feel Tired", "submissionValue": "PQL15-Feel Tired", "synonyms": ["PQL15-Feel Tired"]}, {"conceptId": "C138528", "definition": "Pediatric Quality of Life Neuromuscular Module Acute Version 3 Child Parent Report - In the past 7 days, how much of a problem has this been for your child: My child gets hurt accidentally.", "preferredTerm": "PedsQL Neuromuscular Module Acute Version 3.0 Parent Report for Child - Get Hurt Accidentally", "submissionValue": "PQL15-Get Hurt Accidentally", "synonyms": ["PQL15-Get Hurt Accidentally"]}, {"conceptId": "C138516", "definition": "Pediatric Quality of Life Neuromuscular Module Acute Version 3 Child Parent Report - In the past 7 days, how much of a problem has this been for your child: My child gets sick easily.", "preferredTerm": "PedsQL Neuromuscular Module Acute Version 3.0 Parent Report for Child - Get Sick Easily", "submissionValue": "PQL15-Get Sick Easily", "synonyms": ["PQL15-Get Sick Easily"]}, {"conceptId": "C138517", "definition": "Pediatric Quality of Life Neuromuscular Module Acute Version 3 Child Parent Report - In the past 7 days, how much of a problem has this been for your child: My child gets sores and/or rashes.", "preferredTerm": "PedsQL Neuromuscular Module Acute Version 3.0 Parent Report for Child - Get Sores and/or Rashes", "submissionValue": "PQL15-Get Sores and/or Rashes", "synonyms": ["PQL15-Get Sores and/or Rashes"]}, {"conceptId": "C138522", "definition": "Pediatric Quality of Life Neuromuscular Module Acute Version 3 Child Parent Report - In the past 7 days, how much of a problem has this been for your child: My child's hands are weak.", "preferredTerm": "PedsQL Neuromuscular Module Acute Version 3.0 Parent Report for Child - Hands Are Weak", "submissionValue": "PQL15-Hands Are Weak", "synonyms": ["PQL15-Hands Are Weak"]}, {"conceptId": "C138533", "definition": "Pediatric Quality of Life Neuromuscular Module Acute Version 3 Child Parent Report - In the past 7 days, how much of a problem has this been for your child: It is hard for my child to ask the doctors and nurses questions.", "preferredTerm": "PedsQL Neuromuscular Module Acute Version 3.0 Parent Report for Child - Hard Ask Doctors and Nurses Questions", "submissionValue": "PQL15-Hard Ask Doctors/Nurses Questions", "synonyms": ["PQL15-Hard Ask Doctors/Nurses Questions"]}, {"conceptId": "C138534", "definition": "Pediatric Quality of Life Neuromuscular Module Acute Version 3 Child Parent Report - In the past 7 days, how much of a problem has this been for your child: It is hard for my child to explain his or her illness to other people.", "preferredTerm": "PedsQL Neuromuscular Module Acute Version 3.0 Parent Report for Child - Hard Explain Illness to People", "submissionValue": "PQL15-Hard Explain Illness to People", "synonyms": ["PQL15-Hard Explain Illness to People"]}, {"conceptId": "C138532", "definition": "Pediatric Quality of Life Neuromuscular Module Acute Version 3 Child Parent Report - In the past 7 days, how much of a problem has this been for your child: It is hard for my child to tell the doctors and nurses how he or she feels.", "preferredTerm": "PedsQL Neuromuscular Module Acute Version 3.0 Parent Report for Child - Hard Tell Doctors and Nurses How Feel", "submissionValue": "PQL15-Hard Tell Doctors/Nurses How Feel", "synonyms": ["PQL15-Hard Tell Doctors/Nurses How Feel"]}, {"conceptId": "C138535", "definition": "Pediatric Quality of Life Neuromuscular Module Acute Version 3 Child Parent Report - In the past 7 days, how much of a problem has this been for your child: It is hard for our family to plan activities like vacations.", "preferredTerm": "PedsQL Neuromuscular Module Acute Version 3.0 Parent Report for Child - Hard for Family to Plan Activities", "submissionValue": "PQL15-Hard for Family to Plan Activities", "synonyms": ["PQL15-Hard for Family to Plan Activities"]}, {"conceptId": "C138536", "definition": "Pediatric Quality of Life Neuromuscular Module Acute Version 3 Child Parent Report - In the past 7 days, how much of a problem has this been for your child: It is hard for our family to get enough rest.", "preferredTerm": "PedsQL Neuromuscular Module Acute Version 3.0 Parent Report for Child - Hard for Family to Rest", "submissionValue": "PQL15-Hard for Family to Rest", "synonyms": ["PQL15-Hard for Family to Rest"]}, {"conceptId": "C138515", "definition": "Pediatric Quality of Life Neuromuscular Module Acute Version 3 Child Parent Report - In the past 7 days, how much of a problem has this been for your child: It is hard for my child to breathe.", "preferredTerm": "PedsQL Neuromuscular Module Acute Version 3.0 Parent Report for Child - Hard to Breathe", "submissionValue": "PQL15-Hard to Breathe", "synonyms": ["PQL15-Hard to Breathe"]}, {"conceptId": "C138524", "definition": "Pediatric Quality of Life Neuromuscular Module Acute Version 3 Child Parent Report - In the past 7 days, how much of a problem has this been for your child: It is hard for my child to gain or lose weight when he or she wants to.", "preferredTerm": "PedsQL Neuromuscular Module Acute Version 3.0 Parent Report for Child - Hard to Gain or Lose Weight", "submissionValue": "PQL15-Hard to Gain/Lose Weight", "synonyms": ["PQL15-Hard to Gain/Lose Weight"]}, {"conceptId": "C138531", "definition": "Pediatric Quality of Life Neuromuscular Module Acute Version 3 Child Parent Report - In the past 7 days, how much of a problem has this been for your child: It is hard for my child to go places with his or her equipment.", "preferredTerm": "PedsQL Neuromuscular Module Acute Version 3.0 Parent Report for Child - Hard to Go Places With Equipment", "submissionValue": "PQL15-Hard to Go Places With Equipment", "synonyms": ["PQL15-Hard to Go Places With Equipment"]}, {"conceptId": "C138526", "definition": "Pediatric Quality of Life Neuromuscular Module Acute Version 3 Child Parent Report - In the past 7 days, how much of a problem has this been for your child: It is hard for my child to swallow food.", "preferredTerm": "PedsQL Neuromuscular Module Acute Version 3.0 Parent Report for Child - Hard to Swallow Food", "submissionValue": "PQL15-Hard to Swallow Food", "synonyms": ["PQL15-Hard to Swallow Food"]}, {"conceptId": "C138530", "definition": "Pediatric Quality of Life Neuromuscular Module Acute Version 3 Child Parent Report - In the past 7 days, how much of a problem has this been for your child: It is hard for my child to turn him or herself during the night.", "preferredTerm": "PedsQL Neuromuscular Module Acute Version 3.0 Parent Report for Child - Hard to Turn During Night", "submissionValue": "PQL15-Hard to Turn During Night", "synonyms": ["PQL15-Hard to Turn During Night"]}, {"conceptId": "C138523", "definition": "Pediatric Quality of Life Neuromuscular Module Acute Version 3 Child Parent Report - In the past 7 days, how much of a problem has this been for your child: It is hard for my child to use the bathroom.", "preferredTerm": "PedsQL Neuromuscular Module Acute Version 3.0 Parent Report for Child - Hard to Use Bathroom", "submissionValue": "PQL15-Hard to Use Bathroom", "synonyms": ["PQL15-Hard to Use Bathroom"]}, {"conceptId": "C138525", "definition": "Pediatric Quality of Life Neuromuscular Module Acute Version 3 Child Parent Report - In the past 7 days, how much of a problem has this been for your child: It is hard for my child to use his or her hands.", "preferredTerm": "PedsQL Neuromuscular Module Acute Version 3.0 Parent Report for Child - Hard to Use Hands", "submissionValue": "PQL15-Hard to Use Hands", "synonyms": ["PQL15-Hard to Use Hands"]}, {"conceptId": "C138518", "definition": "Pediatric Quality of Life Neuromuscular Module Acute Version 3 Child Parent Report - In the past 7 days, how much of a problem has this been for your child: My child's legs hurt.", "preferredTerm": "PedsQL Neuromuscular Module Acute Version 3.0 Parent Report for Child - Legs Hurt", "submissionValue": "PQL15-Legs Hurt", "synonyms": ["PQL15-Legs Hurt"]}, {"conceptId": "C138527", "definition": "Pediatric Quality of Life Neuromuscular Module Acute Version 3 Child Parent Report - In the past 7 days, how much of a problem has this been for your child: It takes my child a long time to bathe or shower.", "preferredTerm": "PedsQL Neuromuscular Module Acute Version 3.0 Parent Report for Child - Long Time to Bathe or Shower", "submissionValue": "PQL15-Long Time to Bathe/Shower", "synonyms": ["PQL15-Long Time to Bathe/Shower"]}, {"conceptId": "C138537", "definition": "Pediatric Quality of Life Neuromuscular Module Acute Version 3 Child Parent Report - In the past 7 days, how much of a problem has this been for your child: I think money is a problem in our family.", "preferredTerm": "PedsQL Neuromuscular Module Acute Version 3.0 Parent Report for Child - Money Problem in Our Family", "submissionValue": "PQL15-Money Problem in Our Family", "synonyms": ["PQL15-Money Problem in Our Family"]}, {"conceptId": "C138529", "definition": "Pediatric Quality of Life Neuromuscular Module Acute Version 3 Child Parent Report - In the past 7 days, how much of a problem has this been for your child: My child takes a long time to eat.", "preferredTerm": "PedsQL Neuromuscular Module Acute Version 3.0 Parent Report for Child - Take Long Time to Eat", "submissionValue": "PQL15-Take Long Time to Eat", "synonyms": ["PQL15-Take Long Time to Eat"]}, {"conceptId": "C138521", "definition": "Pediatric Quality of Life Neuromuscular Module Acute Version 3 Child Parent Report - In the past 7 days, how much of a problem has this been for your child: My child wakes up tired.", "preferredTerm": "PedsQL Neuromuscular Module Acute Version 3.0 Parent Report for Child - Wake Up Tired", "submissionValue": "PQL15-Wake Up Tired", "synonyms": ["PQL15-Wake Up Tired"]}]}