{"_links": {"parentPackage": {"href": "/mdr/ct/packages/sdtmct-2017-12-22", "title": "SDTM Controlled Terminology Package 32 Effective 2017-12-22", "type": "Terminology"}, "rootItem": {"href": "/mdr/root/ct/sdtmct/codelists/C141656", "title": "Version-agnostic anchor resource for codelist C141656", "type": "Root Value Domain"}, "self": {"href": "/mdr/ct/packages/sdtmct-2017-12-22/codelists/C141656", "title": "CDISC Functional Test 10 Meter Walk/Run Test Name Terminology", "type": "Code List"}}, "conceptId": "C141656", "definition": "Ten Meter Walk/Run test name.", "extensible": "false", "name": "Ten Meter Walk/Run Functional Test Test Name", "preferredTerm": "CDISC Functional Test 10 Meter Walk/Run Test Name Terminology", "submissionValue": "TENMW1TN", "synonyms": ["Ten Meter Walk/Run Functional Test Test Name"], "terms": [{"conceptId": "C141701", "definition": "Ten Meter Walk/Run - Test grade.", "preferredTerm": "10 Meter Walk/Run - Test Grade", "submissionValue": "TENMW1-Test Grade", "synonyms": ["TENMW1-Test Grade"]}, {"conceptId": "C141700", "definition": "Ten Meter Walk/Run - Time to walk or run 10 meters.", "preferredTerm": "10 Meter Walk/Run - Time to Walk/Run 10 Meters", "submissionValue": "TENMW1-Time to Walk/Run 10 Meters", "synonyms": ["TENMW1-Time to Walk/Run 10 Meters"]}]}