{"_links": {"parentPackage": {"href": "/mdr/ct/packages/sdtmct-2017-12-22", "title": "SDTM Controlled Terminology Package 32 Effective 2017-12-22", "type": "Terminology"}, "rootItem": {"href": "/mdr/root/ct/sdtmct/codelists/C141671", "title": "Version-agnostic anchor resource for codelist C141671", "type": "Root Value Domain"}, "self": {"href": "/mdr/ct/packages/sdtmct-2017-12-22/codelists/C141671", "title": "CDISC Questionnaire IPAQ Short Last 7 Days Telephone Format Version Test Code Terminology", "type": "Code List"}}, "conceptId": "C141671", "definition": "International Physical Activity Questionnaire (August 2002) Short Last 7 Days Telephone Format test code.", "extensible": "false", "name": "International Physical Activity Questionnaire (August 2002) Short Last 7 Days Telephone Format Questionnaire Test Code", "preferredTerm": "CDISC Questionnaire IPAQ Short Last 7 Days Telephone Format Version Test Code Terminology", "submissionValue": "IPAQ01TC", "synonyms": ["International Physical Activity Questionnaire (August 2002) Short Last 7 Days Telephone Format Questionnaire Test Code"], "terms": [{"conceptId": "C141848", "definition": "International Physical Activity Questionnaire (August 2002) - Short Last 7 Days Telephone Format - During the last 7 days, on how many days did you do vigorous physical activities?", "preferredTerm": "IPAQ Short Last 7 Days Telephone Format Version - Days Vigorous Physical Activities", "submissionValue": "IPA0101", "synonyms": ["IPA01-Days Vigorous Physical Activities"]}, {"conceptId": "C141849", "definition": "International Physical Activity Questionnaire (August 2002) - Short Last 7 Days Telephone Format - How much time did you usually spend doing vigorous physical activities on one of those days?: Hours per day.", "preferredTerm": "IPAQ Short Last 7 Days Telephone Format Version - Vigorous Physical Hours per Day", "submissionValue": "IPA0102A", "synonyms": ["IPA01-Vigorous Physical Hours per Day"]}, {"conceptId": "C141850", "definition": "International Physical Activity Questionnaire (August 2002) - Short Last 7 Days Telephone Format - How much time did you usually spend doing vigorous physical activities on one of those days?: Minutes per day.", "preferredTerm": "IPAQ Short Last 7 Days Telephone Format Version - Vigorous Physical Minutes per Day", "submissionValue": "IPA0102B", "synonyms": ["IPA01-Vigorous Physical Minutes per Day"]}, {"conceptId": "C141851", "definition": "International Physical Activity Questionnaire (August 2002) - Short Last 7 Days Telephone Format - How much time in total would you spend over the last 7 days doing vigorous physical activities?: Hours per week.", "preferredTerm": "IPAQ Short Last 7 Days Telephone Format Version - Total Vigorous Hours per Week", "submissionValue": "IPA0102C", "synonyms": ["IPA01-Total Vigorous Hours per Week"]}, {"conceptId": "C141852", "definition": "International Physical Activity Questionnaire (August 2002) - Short Last 7 Days Telephone Format - How much time in total would you spend over the last 7 days doing vigorous physical activities?: Minutes per week.", "preferredTerm": "IPAQ Short Last 7 Days Telephone Format Version - Total Vigorous Minutes per Week", "submissionValue": "IPA0102D", "synonyms": ["IPA01-Total Vigorous Minutes per Week"]}, {"conceptId": "C141853", "definition": "International Physical Activity Questionnaire (August 2002) - Short Last 7 Days Telephone Format - During the last 7 days, on how many days did you do moderate physical activities?", "preferredTerm": "IPAQ Short Last 7 Days Telephone Format Version - Days Moderate Physical Activities", "submissionValue": "IPA0103", "synonyms": ["IPA01-Days Moderate Physical Activities"]}, {"conceptId": "C141854", "definition": "International Physical Activity Questionnaire (August 2002) - Short Last 7 Days Telephone Format - How much time did you usually spend doing moderate physical activities on one of those days?: Hours per day.", "preferredTerm": "IPAQ Short Last 7 Days Telephone Format Version - Moderate Physical Hours per Day", "submissionValue": "IPA0104A", "synonyms": ["IPA01-Moderate Physical Hours per Day"]}, {"conceptId": "C141855", "definition": "International Physical Activity Questionnaire (August 2002) - Short Last 7 Days Telephone Format - How much time did you usually spend doing moderate physical activities on one of those days?: Minutes per day.", "preferredTerm": "IPAQ Short Last 7 Days Telephone Format Version - Moderate Physical Minutes per Day", "submissionValue": "IPA0104B", "synonyms": ["IPA01-Moderate Physical Minutes per Day"]}, {"conceptId": "C141856", "definition": "International Physical Activity Questionnaire (August 2002) - Short Last 7 Days Telephone Format - What is the total amount of time you spent over the last 7 days doing moderate physical activities?: Hours per week.", "preferredTerm": "IPAQ Short Last 7 Days Telephone Format Version - Total Moderate Hours per Week", "submissionValue": "IPA0104C", "synonyms": ["IPA01-Total Moderate Hours per Week"]}, {"conceptId": "C141857", "definition": "International Physical Activity Questionnaire (August 2002) - Short Last 7 Days Telephone Format - What is the total amount of time you spent over the last 7 days doing moderate physical activities?: Minutes per week.", "preferredTerm": "IPAQ Short Last 7 Days Telephone Format Version - Total Moderate Minutes per Week", "submissionValue": "IPA0104D", "synonyms": ["IPA01-Total Moderate Minutes per Week"]}, {"conceptId": "C141858", "definition": "International Physical Activity Questionnaire (August 2002) - Short Last 7 Days Telephone Format - During the last 7 days, on how many days did you walk for at least 10 minutes at a time?", "preferredTerm": "IPAQ Short Last 7 Days Telephone Format Version - Days Walk at Least 10 Minutes", "submissionValue": "IPA0105", "synonyms": ["IPA01-Days Walk at Least 10 Minutes"]}, {"conceptId": "C141859", "definition": "International Physical Activity Questionnaire (August 2002) - Short Last 7 Days Telephone Format - How much time did you usually spend walking on one of those days?: Hours per day.", "preferredTerm": "IPAQ Short Last 7 Days Telephone Format Version - Walking Hours per Day", "submissionValue": "IPA0106A", "synonyms": ["IPA01-Walking Hours per Day"]}, {"conceptId": "C141860", "definition": "International Physical Activity Questionnaire (August 2002) - Short Last 7 Days Telephone Format - How much time did you usually spend walking on one of those days?: Minutes per day.", "preferredTerm": "IPAQ Short Last 7 Days Telephone Format Version - Walking Minutes per Day", "submissionValue": "IPA0106B", "synonyms": ["IPA01-Walking Minutes per Day"]}, {"conceptId": "C141861", "definition": "International Physical Activity Questionnaire (August 2002) - Short Last 7 Days Telephone Format - What is the total amount of time you spent walking over the last 7 days?: Hours per week.", "preferredTerm": "IPAQ Short Last 7 Days Telephone Format Version - Total Walking Hours per Week", "submissionValue": "IPA0106C", "synonyms": ["IPA01-Total Walking Hours per Week"]}, {"conceptId": "C141862", "definition": "International Physical Activity Questionnaire (August 2002) - Short Last 7 Days Telephone Format - What is the total amount of time you spent walking over the last 7 days?: Minutes per week.", "preferredTerm": "IPAQ Short Last 7 Days Telephone Format Version - Total Walking Minutes per Week", "submissionValue": "IPA0106D", "synonyms": ["IPA01-Total Walking Minutes per Week"]}, {"conceptId": "C141863", "definition": "International Physical Activity Questionnaire (August 2002) - Short Last 7 Days Telephone Format - During the last 7 days, how much time did you usually spend sitting on a weekday?: Hours per weekday.", "preferredTerm": "IPAQ Short Last 7 Days Telephone Format Version - Sitting Hours per Weekday", "submissionValue": "IPA0107A", "synonyms": ["IPA01-Sitting Hours per Weekday"]}, {"conceptId": "C141864", "definition": "International Physical Activity Questionnaire (August 2002) - Short Last 7 Days Telephone Format - During the last 7 days, how much time did you usually spend sitting on a weekday?: Minutes per weekday.", "preferredTerm": "IPAQ Short Last 7 Days Telephone Format Version - Sitting Minutes per Weekday", "submissionValue": "IPA0107B", "synonyms": ["IPA01-Sitting Minutes per Weekday"]}, {"conceptId": "C141865", "definition": "International Physical Activity Questionnaire (August 2002) - Short Last 7 Days Telephone Format - What is the total amount of time you spent sitting last Wednesday?: Hours on Wednesday.", "preferredTerm": "IPAQ Short Last 7 Days Telephone Format Version - Total Sitting Hours on Wednesday", "submissionValue": "IPA0107C", "synonyms": ["IPA01-Total Sitting Hours on Wednesday"]}, {"conceptId": "C141866", "definition": "International Physical Activity Questionnaire (August 2002) - Short Last 7 Days Telephone Format - What is the total amount of time you spent sitting last Wednesday?: Minutes on Wednesday.", "preferredTerm": "IPAQ Short Last 7 Days Telephone Format Version - Total Sitting Minutes on Wednesday", "submissionValue": "IPA0107D", "synonyms": ["IPA01-Total Sitting Minutes on Wednesday"]}]}