{"_links": {"parentPackage": {"href": "/mdr/ct/packages/sdtmct-2017-12-22", "title": "SDTM Controlled Terminology Package 32 Effective 2017-12-22", "type": "Terminology"}, "priorVersion": {"href": "/mdr/ct/packages/sdtmct-2017-09-29/codelists/C78733", "title": "CDISC SDTM Specimen Condition Terminology", "type": "Code List"}, "rootItem": {"href": "/mdr/root/ct/sdtmct/codelists/C78733", "title": "Version-agnostic anchor resource for codelist C78733", "type": "Root Value Domain"}, "self": {"href": "/mdr/ct/packages/sdtmct-2017-12-22/codelists/C78733", "title": "CDISC SDTM Specimen Condition Terminology", "type": "Code List"}}, "conceptId": "C78733", "definition": "The physical state or quality of a biological specimen.", "extensible": "true", "name": "Specimen Condition", "preferredTerm": "CDISC SDTM Specimen Condition Terminology", "submissionValue": "SPECCOND", "synonyms": ["Specimen Condition"], "terms": [{"conceptId": "C78725", "definition": "A specimen that has undergone autolysis, or self-digestion by the specimen's own digestive enzymes. (NCI)", "preferredTerm": "Autolized Specimen", "submissionValue": "AUTOLYZED"}, {"conceptId": "C78723", "definition": "A specimen that has undergone calcification. (NCI)", "preferredTerm": "Calcified Specimen", "submissionValue": "CALCIFIED", "synonyms": ["Calcified Specimen"]}, {"conceptId": "C78724", "definition": "A specimen that has become coagulated. (NCI)", "preferredTerm": "Clotted Specimen", "submissionValue": "CLOTTED", "synonyms": ["Clotted Specimen"]}, {"conceptId": "C128999", "definition": "A specimen that has undergone concentration to increase the content of a targeted entity.", "preferredTerm": "Concentrated Specimen", "submissionValue": "CONCENTRATED", "synonyms": ["Concentrated Specimen"]}, {"conceptId": "C68768", "definition": "The presence of any substance or organism that makes a preparation impure. (NCI)", "preferredTerm": "Contamination", "submissionValue": "CONTAMINATED"}, {"conceptId": "C142366", "definition": "Normal or abnormal secretions expelled from a body location.", "preferredTerm": "Discharge Body Fluid", "submissionValue": "DISCHARGE"}, {"conceptId": "C84516", "definition": "A specimen that has become dessicated or dehydrated.", "preferredTerm": "Dried Specimen", "submissionValue": "DRIED", "synonyms": ["Dried Specimen"]}, {"conceptId": "C84517", "definition": "A specimen that is analyzed in the state that it was collected.", "preferredTerm": "Fresh Specimen", "submissionValue": "FRESH", "synonyms": ["Fresh Specimen"]}, {"conceptId": "C70717", "definition": "A specimen that has been subjected to and immobilized by severe cold. (NCI)", "preferredTerm": "Frozen Specimen", "submissionValue": "FROZEN", "synonyms": ["Frozen Specimen"]}, {"conceptId": "C135503", "definition": "A specimen that has a gelatinous consistency. (NCI)", "preferredTerm": "Gelatinous Specimen", "submissionValue": "GELLED", "synonyms": ["Gelled Specimen"]}, {"conceptId": "C70720", "definition": "A specimen that has undergone the destruction of red blood cells followed by the release of the hemoglobin. (NCI)", "preferredTerm": "Hemolysis in Specimen", "submissionValue": "HEMOLYZED", "synonyms": ["Hemolysis in Specimen"]}, {"conceptId": "C98744", "definition": "A specimen that exhibits a yellowish pigmentation due to jaundice. (NCI)", "preferredTerm": "Icteric Specimen", "submissionValue": "ICTERIC", "synonyms": ["Icteric Specimen"]}, {"conceptId": "C70715", "definition": "A specimen that consists of or contains excessive amounts of fat and fatty substances. (NCI)", "preferredTerm": "Lipemic Specimen", "submissionValue": "LIPEMIC", "synonyms": ["Lipemic Specimen"]}, {"conceptId": "C19597", "definition": "A specimen that has been fixed and preserved in paraffin.", "preferredTerm": "Paraffin Embedded Tissue", "submissionValue": "PARAFFIN-EMBEDDED", "synonyms": ["Paraffin Block", "Paraffin-Embedded Specimen"]}, {"conceptId": "C70718", "definition": "A specimen that has been kept or preserved at a low temperature in a refrigerator. (NCI)", "preferredTerm": "Refrigerated Specimen", "submissionValue": "REFRIGERATED", "synonyms": ["Refrigerated Specimen"]}, {"conceptId": "C70719", "definition": "A specimen that has been subjected to and adjusted to the average ambient temperature of a room, usually considered to be around 20 degrees C (68 degrees F). (NCI)", "preferredTerm": "Specimen at Room Temperature", "submissionValue": "ROOM TEMPERATURE", "synonyms": ["Ambient Temperature", "Specimen at Room Temperature"]}, {"conceptId": "C135504", "definition": "A specimen that has a regular, firm consistency and retains a definite size and shape.", "preferredTerm": "Solidified Specimen", "submissionValue": "SOLIDIFIED", "synonyms": ["Solidified Specimen"]}, {"conceptId": "C135505", "definition": "A specimen that has an unanticipated odor.", "preferredTerm": "Specimen with Unexpected Odor", "submissionValue": "UNEXPECTED ODOR", "synonyms": ["Specimen with Unexpected Odor"]}]}