{"_links": {"parentPackage": {"href": "/mdr/ct/packages/sdtmct-2017-12-22", "title": "SDTM Controlled Terminology Package 32 Effective 2017-12-22", "type": "Terminology"}, "priorVersion": {"href": "/mdr/ct/packages/sdtmct-2017-09-29/codelists/C99078", "title": "CDISC SDTM Intervention Type Terminology", "type": "Code List"}, "rootItem": {"href": "/mdr/root/ct/sdtmct/codelists/C99078", "title": "Version-agnostic anchor resource for codelist C99078", "type": "Root Value Domain"}, "self": {"href": "/mdr/ct/packages/sdtmct-2017-12-22/codelists/C99078", "title": "CDISC SDTM Intervention Type Terminology", "type": "Code List"}}, "conceptId": "C99078", "definition": "A terminology codelist relevant to the kind of product or procedure studied in a trial.", "extensible": "false", "name": "Intervention Type Response", "preferredTerm": "CDISC SDTM Intervention Type Terminology", "submissionValue": "INTTYPE", "synonyms": ["Intervention Type Response"], "terms": [{"conceptId": "C15184", "definition": "A technique used to change subjects' behavior, for example, psychotherapy, lifestyle counseling or hypnosis.", "preferredTerm": "Behavioral Intervention", "submissionValue": "BEHAVIORAL THERAPY"}, {"conceptId": "C307", "definition": "A substance made from living organisms or things they produce, for example: virus, therapeutic serum, toxin, antitoxin, vaccine, blood, blood component or derivative, allergenic product, or analogous product.", "preferredTerm": "Biological Agent", "submissionValue": "BIOLOGIC"}, {"conceptId": "C16830", "definition": "An instrument, apparatus, implement, machine, contrivance, implant, in vitro reagent, or other similar or related article, including any component, part, or accessory, which is recognized in the official National Formulary, or the United States Pharmacopeia, or any supplement to them, intended for use in the diagnosis of disease or other conditions, or in the cure, mitigation, treatment, or prevention of disease, in man or other animals, or intended to affect the structure or any function of the body of man or other animals, and which does not achieve its primary intended purposes through chemical action within or on the body of man or other animals and which is not dependent upon being metabolized for the achievement of its primary intended purposes. (FDA)", "preferredTerm": "Medical Device", "submissionValue": "DEVICE"}, {"conceptId": "C1505", "definition": "Oral preparations containing dietary ingredient(s) intended to supplement the diet. Dietary ingredients include vitamins, minerals, herbs, amino acids, extracts and metabolites.", "preferredTerm": "Dietary Supplement", "submissionValue": "DIETARY SUPPLEMENT"}, {"conceptId": "C1909", "definition": "An active natural, synthetic or semi-synthetic ingredient including endogenous body substance that is intended to furnish pharmacological activity or other direct effect in the diagnosis, cure, mitigation, treatment, or prevention of disease or to affect the structure or any function of the human body, but does not include intermediates used in the synthesis of such ingredient (21 CFR 314.3(b)).", "preferredTerm": "Pharmacologic Substance", "submissionValue": "DRUG"}, {"conceptId": "C15238", "definition": "Application of genetic material into cells in order to correct an inherited or acquired disease.", "preferredTerm": "Gene Therapy", "submissionValue": "GENETIC"}, {"conceptId": "C17649", "definition": "Different than the one(s) previously specified or mentioned. (NCI)", "preferredTerm": "Other", "submissionValue": "OTHER", "synonyms": ["Other"]}, {"conceptId": "C98769", "definition": "A treatment procedure performed by manual and/or instrumental means, for example: surgery, lithotripsy, or external manipulation.", "preferredTerm": "Physical Medical Procedure", "submissionValue": "PROCEDURE"}, {"conceptId": "C15313", "definition": "Treatment of a disease by means of exposure of the target or the whole body to radiation.", "preferredTerm": "Radiation Therapy", "submissionValue": "RADIATION"}]}