{"_links": {"parentPackage": {"href": "/mdr/ct/packages/sdtmct-2019-03-29", "title": "SDTM Controlled Terminology Package 37 Effective 2019-03-29", "type": "Terminology"}, "priorVersion": {"href": "/mdr/ct/packages/sdtmct-2018-12-21/codelists/C100167", "title": "CDISC Questionnaire C-SSRS Baseline Test Name Terminology", "type": "Code List"}, "rootItem": {"href": "/mdr/root/ct/sdtmct/codelists/C100167", "title": "Version-agnostic anchor resource for codelist C100167", "type": "Root Value Domain"}, "self": {"href": "/mdr/ct/packages/sdtmct-2019-03-29/codelists/C100167", "title": "CDISC Questionnaire C-SSRS Baseline Test Name Terminology", "type": "Code List"}}, "conceptId": "C100167", "definition": "Columbia-Suicide Severity Rating Scale Baseline test name.", "extensible": "false", "name": "Columbia-Suicide Severity Rating Scale Baseline Questionnaire Test Name", "preferredTerm": "CDISC Questionnaire C-SSRS Baseline Test Name Terminology", "submissionValue": "CSS01TN", "synonyms": ["Columbia-Suicide Severity Rating Scale Baseline Questionnaire Test Name"], "terms": [{"conceptId": "C100998", "definition": "Columbia-Suicide Severity Rating Scale Baseline - Has there been a time when you started to do something to try to end your life but you stopped yourself before you actually did anything?", "preferredTerm": "C-SSRS Baseline - Aborted Suicide Attempt", "submissionValue": "CSS01-Aborted Attempt", "synonyms": ["CSS01-Aborted Attempt"]}, {"conceptId": "C101000", "definition": "Columbia-Suicide Severity Rating Scale Baseline - Description of aborted attempt.", "preferredTerm": "C-SSRS Baseline - Description of Aborted Suicide Attempt", "submissionValue": "CSS01-Aborted Attempt, Describe", "synonyms": ["CSS01-Aborted Attempt, Describe"]}, {"conceptId": "C100991", "definition": "Columbia-Suicide Severity Rating Scale Baseline - Have you made a suicide attempt? Have you done anything to harm yourself? Have you done anything dangerous where you could have died?", "preferredTerm": "C-SSRS Baseline - Actual Suicide Attempt", "submissionValue": "CSS01-Actual Attempt", "synonyms": ["CSS01-Actual Attempt"]}, {"conceptId": "C100993", "definition": "Columbia-Suicide Severity Rating Scale Baseline - Description of actual attempt.", "preferredTerm": "C-SSRS Baseline - Description of Actual Suicide Attempts", "submissionValue": "CSS01-Actual Attempt, Describe", "synonyms": ["CSS01-Actual Attempt, Describe"]}, {"conceptId": "C101011", "definition": "Columbia-Suicide Severity Rating Scale Baseline - Initial/first attempt actual lethality/medical damage.", "preferredTerm": "C-SSRS Baseline - First Suicide Attempt Damage", "submissionValue": "CSS01-First Attempt Damage", "synonyms": ["CSS01-First Attempt Damage"]}, {"conceptId": "C101010", "definition": "Columbia-Suicide Severity Rating Scale Baseline - Initial/first attempt date.", "preferredTerm": "C-SSRS Baseline - First Suicide Attempt Date", "submissionValue": "CSS01-First Attempt Date", "synonyms": ["CSS01-First Attempt Date"]}, {"conceptId": "C101012", "definition": "Columbia-Suicide Severity Rating Scale Baseline - Initial/first attempt potential lethality.", "preferredTerm": "C-SSRS Baseline - First Suicide Attempt Potential", "submissionValue": "CSS01-First Attempt Potential", "synonyms": ["CSS01-First Attempt Potential"]}, {"conceptId": "C101015", "definition": "Columbia-Suicide Severity Rating Scale Baseline - Description of active suicidal ideation with some intent to act, without specific plan.", "preferredTerm": "C-SSRS Baseline - Description of Ideation With Intent, No Plan", "submissionValue": "CSS01-Ideation With Intent No Plan Descr", "synonyms": ["CSS01-Ideation With Intent No Plan Descr"]}, {"conceptId": "C101014", "definition": "Columbia-Suicide Severity Rating Scale Baseline - Have you have these thoughts and had some intention of acting on them?", "preferredTerm": "C-SSRS Baseline - Ideation With Intent, No Plan", "submissionValue": "CSS01-Ideation With Intent, No Plan", "synonyms": ["CSS01-Ideation With Intent, No Plan"]}, {"conceptId": "C100982", "definition": "Columbia-Suicide Severity Rating Scale Baseline - Have you started to work out or worked out the details of how to kill yourself? Do you intend to carry out this plan?", "preferredTerm": "C-SSRS Baseline - Ideation With Plan/Intent", "submissionValue": "CSS01-Ideation With Plan/Intent", "synonyms": ["CSS01-Ideation With Plan/Intent"]}, {"conceptId": "C100983", "definition": "Columbia-Suicide Severity Rating Scale Baseline - Description of active suicidal ideation with specific plan and intent.", "preferredTerm": "C-SSRS Baseline - Description of Ideation With Plan and Intent", "submissionValue": "CSS01-Ideation With Plan/Intent, Descr", "synonyms": ["CSS01-Ideation With Plan/Intent, Descr"]}, {"conceptId": "C100995", "definition": "Columbia-Suicide Severity Rating Scale Baseline - Has there been a time when you started to do something to try to end your life but someone or something stopped you before you actually did anything?", "preferredTerm": "C-SSRS Baseline - Interrupted Suicide Attempt", "submissionValue": "CSS01-Interrupted Attempt", "synonyms": ["CSS01-Interrupted Attempt"]}, {"conceptId": "C100997", "definition": "Columbia-Suicide Severity Rating Scale Baseline - Description of interrupted attempt.", "preferredTerm": "C-SSRS Baseline - Description of Interrupted Suicide Attempt", "submissionValue": "CSS01-Interrupted Attempt, Describe", "synonyms": ["CSS01-Interrupted Attempt, Describe"]}, {"conceptId": "C101008", "definition": "Columbia-Suicide Severity Rating Scale Baseline - Most lethal attempt actual lethality/medical damage.", "preferredTerm": "C-SSRS Baseline - Most Lethal Suicide Attempt Damage", "submissionValue": "CSS01-Most Lethal Attempt Damage", "synonyms": ["CSS01-Most Lethal Attempt Damage"]}, {"conceptId": "C101007", "definition": "Columbia-Suicide Severity Rating Scale Baseline - Most lethal attempt date.", "preferredTerm": "C-SSRS Baseline - Most Lethal Suicide Attempt Date", "submissionValue": "CSS01-Most Lethal Attempt Date", "synonyms": ["CSS01-Most Lethal Attempt Date"]}, {"conceptId": "C101009", "definition": "Columbia-Suicide Severity Rating Scale Baseline - Most lethal attempt potential lethality.", "preferredTerm": "C-SSRS Baseline - Most Lethal Suicide Attempt Potential", "submissionValue": "CSS01-Most Lethal Attempt Potential", "synonyms": ["CSS01-Most Lethal Attempt Potential"]}, {"conceptId": "C101005", "definition": "Columbia-Suicide Severity Rating Scale Baseline - Most recent attempt actual lethality/medical damage.", "preferredTerm": "C-SSRS Baseline - Most Recent Suicide Attempt Damage", "submissionValue": "CSS01-Most Recent Attempt Damage", "synonyms": ["CSS01-Most Recent Attempt Damage"]}, {"conceptId": "C101004", "definition": "Columbia-Suicide Severity Rating Scale Baseline - Most recent attempt date.", "preferredTerm": "C-SSRS Baseline - Most Recent Suicide Attempt Date", "submissionValue": "CSS01-Most Recent Attempt Date", "synonyms": ["CSS01-Most Recent Attempt Date"]}, {"conceptId": "C101006", "definition": "Columbia-Suicide Severity Rating Scale Baseline - Most recent attempt potential lethality.", "preferredTerm": "C-SSRS Baseline - Most Recent Suicide Attempt Potential", "submissionValue": "CSS01-Most Recent Attempt Potential", "synonyms": ["CSS01-Most Recent Attempt Potential"]}, {"conceptId": "C100984", "definition": "Columbia-Suicide Severity Rating Scale Baseline - Most severe ideation.", "preferredTerm": "C-SSRS Baseline - Most Severe Ideation", "submissionValue": "CSS01-Most Severe Ideation", "synonyms": ["CSS01-Most Severe Ideation"]}, {"conceptId": "C100988", "definition": "Columbia-Suicide Severity Rating Scale Baseline - Could/can you stop thinking about killing yourself or wanting to die if you want to?", "preferredTerm": "C-SSRS Baseline - Control over Most Severe Ideation", "submissionValue": "CSS01-Most Severe Ideation, Control", "synonyms": ["CSS01-Most Severe Ideation, Control"]}, {"conceptId": "C100985", "definition": "Columbia-Suicide Severity Rating Scale Baseline - Description of most severe ideation.", "preferredTerm": "C-SSRS Baseline - Describe Most Severe Ideation", "submissionValue": "CSS01-Most Severe Ideation, Description", "synonyms": ["CSS01-Most Severe Ideation, Description"]}, {"conceptId": "C100989", "definition": "Columbia-Suicide Severity Rating Scale Baseline - Are there things - anyone or anything (e.g., family, religion, pain of death) - that stopped you from wanting to die or acting on thoughts of committing suicide?", "preferredTerm": "C-SSRS Baseline - Deterrents to Most Severe Ideation", "submissionValue": "CSS01-Most Severe Ideation, Deterrents", "synonyms": ["CSS01-Most Severe Ideation, Deterrents"]}, {"conceptId": "C100987", "definition": "Columbia-Suicide Severity Rating Scale Baseline - When you have the thoughts, how long do they last?", "preferredTerm": "C-SSRS Baseline - Duration of Most Severe Ideation", "submissionValue": "CSS01-Most Severe Ideation, Duration", "synonyms": ["CSS01-Most Severe Ideation, Duration"]}, {"conceptId": "C100986", "definition": "Columbia-Suicide Severity Rating Scale Baseline - How many times have you had these thoughts?", "preferredTerm": "C-SSRS Baseline - Frequency of Most Severe Ideation", "submissionValue": "CSS01-Most Severe Ideation, Frequency", "synonyms": ["CSS01-Most Severe Ideation, Frequency"]}, {"conceptId": "C100990", "definition": "Columbia-Suicide Severity Rating Scale Baseline - What sort of reasons did you have for thinking about wanting to die or killing yourself? Was it to end the pain or stop the way you were feeling (in other words you couldn't go on living with this pain or how you were feeling) or was it to get attention, revenge or a reaction from others? Or both?", "preferredTerm": "C-SSRS Baseline - Reasons for Most Severe Ideation", "submissionValue": "CSS01-Most Severe Ideation, Reasons", "synonyms": ["CSS01-Most Severe Ideation, Reasons"]}, {"conceptId": "C100979", "definition": "Columbia-Suicide Severity Rating Scale Baseline - Description of non-specific active suicidal thoughts.", "preferredTerm": "C-SSRS Baseline - Description of Non-Specific Suicide Thought", "submissionValue": "CSS01-Non-Specific Suicid Thought, Descr", "synonyms": ["CSS01-Non-Specific Suicid Thought, Descr"]}, {"conceptId": "C100978", "definition": "Columbia-Suicide Severity Rating Scale Baseline - Have you actually had any thoughts of killing yourself?", "preferredTerm": "C-SSRS Baseline - Non-Specific Suicidal Thought", "submissionValue": "CSS01-Non-Specific Suicidal Thought", "synonyms": ["CSS01-Non-Specific Suicidal Thought"]}, {"conceptId": "C100994", "definition": "Columbia-Suicide Severity Rating Scale Baseline - Has the subject engaged in non-suicidal self-injurious behavior.", "preferredTerm": "C-SSRS Baseline - Non-suicidal Self-injurious Behavior", "submissionValue": "CSS01-Non-suicidal Self-injurious Behav", "synonyms": ["CSS01-Non-suicidal Self-injurious Behav"]}, {"conceptId": "C100999", "definition": "Columbia-Suicide Severity Rating Scale Baseline - Total number of aborted attempts.", "preferredTerm": "C-SSRS Baseline - Number of Aborted Suicide Attempts", "submissionValue": "CSS01-Number of Aborted Attempts", "synonyms": ["CSS01-Number of Aborted Attempts"]}, {"conceptId": "C100992", "definition": "Columbia-Suicide Severity Rating Scale Baseline - Total number of actual attempts.", "preferredTerm": "C-SSRS Baseline - Number of Actual Suicide Attempts", "submissionValue": "CSS01-Number of Actual Attempts", "synonyms": ["CSS01-Number of Actual Attempts"]}, {"conceptId": "C100996", "definition": "Columbia-Suicide Severity Rating Scale Baseline - Total number of interrupted attempts.", "preferredTerm": "C-SSRS Baseline - Number of Interrupted Suicide Attempts", "submissionValue": "CSS01-Number of Interrupted Attempts", "synonyms": ["CSS01-Number of Interrupted Attempts"]}, {"conceptId": "C101001", "definition": "Columbia-Suicide Severity Rating Scale Baseline - Have you taken any steps towards making a suicide attempt or preparing to kill yourself (such as collecting pills, getting a gun, giving valuables away or writing a suicide note)?", "preferredTerm": "C-SSRS Baseline - Preparatory Acts or Behaviors Toward Suicide Attempt", "submissionValue": "CSS01-Preparatory Acts/Behavior", "synonyms": ["CSS01-Preparatory Acts/Behavior"]}, {"conceptId": "C101002", "definition": "Columbia-Suicide Severity Rating Scale Baseline - Description of preparatory acts or behavior.", "preferredTerm": "C-SSRS Baseline - Description of Preparatory Acts or Behaviors Toward Suicide Attempt", "submissionValue": "CSS01-Preparatory Acts/Behavior, Descr", "synonyms": ["CSS01-Preparatory Acts/Behavior, Descr"]}, {"conceptId": "C101003", "definition": "Columbia-Suicide Severity Rating Scale Baseline - Suicidal behavior was present during the assessment period?", "preferredTerm": "C-SSRS Baseline - Suicidal Behavior", "submissionValue": "CSS01-Suicidal Behavior", "synonyms": ["CSS01-Suicidal Behavior"]}, {"conceptId": "C100980", "definition": "Columbia-Suicide Severity Rating Scale Baseline - Have you been thinking about how you might do this?", "preferredTerm": "C-SSRS Baseline - Suicidal Ideation-No Intent", "submissionValue": "CSS01-Suicidal Ideation-No Intent", "synonyms": ["CSS01-Suicidal Ideation-No Intent"]}, {"conceptId": "C100981", "definition": "Columbia-Suicide Severity Rating Scale Baseline - Description of active suicidal ideation with any methods (not plan) without intent to act.", "preferredTerm": "C-SSRS Baseline - Description of Suicidal Ideation-No Intent", "submissionValue": "CSS01-Suicidal Ideation-No Intent, Descr", "synonyms": ["CSS01-Suicidal Ideation-No Intent, Descr"]}, {"conceptId": "C100976", "definition": "Columbia-Suicide Severity Rating Scale Baseline - Have you wished you were dead or wished you could go to sleep and not wake up?", "preferredTerm": "C-SSRS Baseline - Wish to be Dead or go to Sleep and not Wake Up", "submissionValue": "CSS01-Wish to be Dead", "synonyms": ["CSS01-Wish to be Dead"]}, {"conceptId": "C100977", "definition": "Columbia-Suicide Severity Rating Scale Baseline - Description of wishing to be dead.", "preferredTerm": "C-SSRS Baseline - Description of Wish to be Dead", "submissionValue": "CSS01-Wish to be Dead, Describe", "synonyms": ["CSS01-Wish to be Dead, Describe"]}]}