{"_links": {"parentPackage": {"href": "/mdr/ct/packages/sdtmct-2019-03-29", "title": "SDTM Controlled Terminology Package 37 Effective 2019-03-29", "type": "Terminology"}, "priorVersion": {"href": "/mdr/ct/packages/sdtmct-2018-12-21/codelists/C100160", "title": "CDISC Questionnaire SOAPP-R Test Code Terminology", "type": "Code List"}, "rootItem": {"href": "/mdr/root/ct/sdtmct/codelists/C100160", "title": "Version-agnostic anchor resource for codelist C100160", "type": "Root Value Domain"}, "self": {"href": "/mdr/ct/packages/sdtmct-2019-03-29/codelists/C100160", "title": "CDISC Questionnaire SOAPP-R Test Code Terminology", "type": "Code List"}}, "conceptId": "C100160", "definition": "Screener and Opioid Assessment for Patients with Pain - Revised test code.", "extensible": "false", "name": "Screener and Opioid Assessment for Patients with Pain - Revised Questionnaire Test Code", "preferredTerm": "CDISC Questionnaire SOAPP-R Test Code Terminology", "submissionValue": "SOAPR1TC", "synonyms": ["Screener and Opioid Assessment for Patients with Pain - Revised Questionnaire Test Code"], "terms": [{"conceptId": "C100870", "definition": "Screener and Opioid Assessment for Patients with Pain - Revised - How often do you have mood swings?", "preferredTerm": "SOAPP-R - How Often Mood Swings", "submissionValue": "SOAPR101", "synonyms": ["SOAPR1-How Often Mood Swings"]}, {"conceptId": "C100871", "definition": "Screener and Opioid Assessment for Patients with Pain - Revised - How often have you felt a need for higher doses of medication to treat your pain?", "preferredTerm": "SOAPP-R - Need Higher Doses of Medication", "submissionValue": "SOAPR102", "synonyms": ["SOAPR1-Need Higher Doses of Medication"]}, {"conceptId": "C100872", "definition": "Screener and Opioid Assessment for Patients with Pain - Revised - How often have you felt impatient with your doctors?", "preferredTerm": "SOAPP-R - Felt Impatient With Doctors", "submissionValue": "SOAPR103", "synonyms": ["SOAPR1-Felt Impatient With Doctors"]}, {"conceptId": "C100873", "definition": "Screener and Opioid Assessment for Patients with Pain - Revised - How often have you felt that things are just too overwhelming that you can't handle them?", "preferredTerm": "SOAPP-R - Felt That Things Are Overwhelming", "submissionValue": "SOAPR104", "synonyms": ["SOAPR1-Felt That Things Are Overwhelming"]}, {"conceptId": "C100874", "definition": "Screener and Opioid Assessment for Patients with Pain - Revised - How often is there tension in the home?", "preferredTerm": "SOAPP-R - How Often Tension at Home", "submissionValue": "SOAPR105", "synonyms": ["SOAPR1-How Often Tension at Home"]}, {"conceptId": "C100875", "definition": "Screener and Opioid Assessment for Patients with Pain - Revised - How often have you counted pain pills to see how many are remaining?", "preferredTerm": "SOAPP-R - How Often Counted Pain Pills", "submissionValue": "SOAPR106", "synonyms": ["SOAPR1-How Often Counted Pain Pills"]}, {"conceptId": "C100876", "definition": "Screener and Opioid Assessment for Patients with Pain - Revised - How often have you been concerned that people will judge you for taking pain medication?", "preferredTerm": "SOAPP-R - Concerned People Will Judge You", "submissionValue": "SOAPR107", "synonyms": ["SOAPR1-Concerned People Will Judge You"]}, {"conceptId": "C100877", "definition": "Screener and Opioid Assessment for Patients with Pain - Revised - How often do you feel bored?", "preferredTerm": "SOAPP-R - How Often Feel Bored", "submissionValue": "SOAPR108", "synonyms": ["SOAPR1-How Often Feel Bored"]}, {"conceptId": "C100878", "definition": "Screener and Opioid Assessment for Patients with Pain - Revised - How often have you taken more pain medication than you were supposed to?", "preferredTerm": "SOAPP-R - How Often Taken More Pain Medication", "submissionValue": "SOAPR109", "synonyms": ["SOAPR1-How Often Taken More Pain Med"]}, {"conceptId": "C100879", "definition": "Screener and Opioid Assessment for Patients with Pain - Revised - How often have you worried about being left alone?", "preferredTerm": "SOAPP-R - Worried About Being Left Alone", "submissionValue": "SOAPR110", "synonyms": ["SOAPR1-Worried About Being Left Alone"]}, {"conceptId": "C100880", "definition": "Screener and Opioid Assessment for Patients with Pain - Revised - How often have you felt a craving for medication?", "preferredTerm": "SOAPP-R - Felt Craving for Medication", "submissionValue": "SOAPR111", "synonyms": ["SOAPR1-Felt Craving for Medication"]}, {"conceptId": "C100881", "definition": "Screener and Opioid Assessment for Patients with Pain - Revised - How often have others expressed concern over your use of medication?", "preferredTerm": "SOAPP-R - Others Expressed Concern Over Medication Use", "submissionValue": "SOAPR112", "synonyms": ["SOAPR1-Expressed Concern Over Med Use"]}, {"conceptId": "C100882", "definition": "Screener and Opioid Assessment for Patients with Pain - Revised - How often have any of your close friends had a problem with alcohol or drugs?", "preferredTerm": "SOAPP-R - How Often Friends Had Problem", "submissionValue": "SOAPR113", "synonyms": ["SOAPR1-How Often Friends Had Problem"]}, {"conceptId": "C100883", "definition": "Screener and Opioid Assessment for Patients with Pain - Revised - How often have others told you that you had a bad temper?", "preferredTerm": "SOAPP-R - Others Told You Bad Temper", "submissionValue": "SOAPR114", "synonyms": ["SOAPR1-Others Told You Bad Temper"]}, {"conceptId": "C100884", "definition": "Screener and Opioid Assessment for Patients with Pain - Revised - How often have you felt consumed by the need to get pain medication?", "preferredTerm": "SOAPP-R - Felt Consumed to Get Pain Medication", "submissionValue": "SOAPR115", "synonyms": ["SOAPR1-Felt Consumed to Get Pain Med"]}, {"conceptId": "C100885", "definition": "Screener and Opioid Assessment for Patients with Pain - Revised - How often have you run out of pain medication early?", "preferredTerm": "SOAPP-R - Run Out of Pain Medication Early", "submissionValue": "SOAPR116", "synonyms": ["SOAPR1-Run Out of Pain Med Early"]}, {"conceptId": "C100886", "definition": "Screener and Opioid Assessment for Patients with Pain - Revised - How often have others kept you from getting what you deserve?", "preferredTerm": "SOAPP-R - Others Kept You From what You Deserve", "submissionValue": "SOAPR117", "synonyms": ["SOAPR1-Kept From What You Deserve"]}, {"conceptId": "C100887", "definition": "Screener and Opioid Assessment for Patients with Pain - Revised - How often, in your lifetime, have you had legal problems or been arrested?", "preferredTerm": "SOAPP-R - Legal Problems or Arrested", "submissionValue": "SOAPR118", "synonyms": ["SOAPR1-Legal Problems or Arrested"]}, {"conceptId": "C100888", "definition": "Screener and Opioid Assessment for Patients with Pain - Revised - How often have you attended an AA or NA meeting?", "preferredTerm": "SOAPP-R - Attended AA or NA Meeting", "submissionValue": "SOAPR119", "synonyms": ["SOAPR1-Attended AA or NA Meeting"]}, {"conceptId": "C100889", "definition": "Screener and Opioid Assessment for Patients with Pain - Revised - How often have you been in an argument that was so out of control that someone got hurt?", "preferredTerm": "SOAPP-R - Argument Where Someone Got Hurt", "submissionValue": "SOAPR120", "synonyms": ["SOAPR1-Argument Someone Got Hurt"]}, {"conceptId": "C100890", "definition": "Screener and Opioid Assessment for Patients with Pain - Revised - How often have you been sexually abused?", "preferredTerm": "SOAPP-R - How Often Sexually Abused", "submissionValue": "SOAPR121", "synonyms": ["SOAPR1-How Often Sexually Abused"]}, {"conceptId": "C100891", "definition": "Screener and Opioid Assessment for Patients with Pain - Revised - How often have others suggested that you have a drug or alcohol problem?", "preferredTerm": "SOAPP-R - Others Suggested Drug or Alcohol Problem", "submissionValue": "SOAPR122", "synonyms": ["SOAPR1-Suggested Drug or Alcohol Problem"]}, {"conceptId": "C100892", "definition": "Screener and Opioid Assessment for Patients with Pain - Revised - How often have you had to borrow pain medications from your family or friends?", "preferredTerm": "SOAPP-R - How Often Borrowed Pain Medication", "submissionValue": "SOAPR123", "synonyms": ["SOAPR1-How Often Borrowed Pain Meds"]}, {"conceptId": "C100893", "definition": "Screener and Opioid Assessment for Patients with Pain - Revised - How often have you been treated for an alcohol or drug problem?", "preferredTerm": "SOAPP-R - Treated for Alcohol or Drug Problem", "submissionValue": "SOAPR124", "synonyms": ["SOAPR1-Treated for Alcohol or Drug Prob"]}, {"conceptId": "C100894", "definition": "Screener and Opioid Assessment for Patients with Pain - Revised - Please include any additional information you wish about the above answers.", "preferredTerm": "SOAPP-R - Any Additional Information", "submissionValue": "SOAPR125", "synonyms": ["SOAPR1-Any Additional Information"]}, {"conceptId": "C100895", "definition": "Screener and Opioid Assessment for Patients with Pain - Revised - Score.", "preferredTerm": "SOAPP-R - Score", "submissionValue": "SOAPR126", "synonyms": ["SOAPR1-Score"]}]}