{"_links": {"parentPackage": {"href": "/mdr/ct/packages/sdtmct-2019-03-29", "title": "SDTM Controlled Terminology Package 37 Effective 2019-03-29", "type": "Terminology"}, "priorVersion": {"href": "/mdr/ct/packages/sdtmct-2018-12-21/codelists/C101868", "title": "CDISC SDTM Left Ventricular Ejection Fraction Measurement Result Terminology", "type": "Code List"}, "rootItem": {"href": "/mdr/root/ct/sdtmct/codelists/C101868", "title": "Version-agnostic anchor resource for codelist C101868", "type": "Root Value Domain"}, "self": {"href": "/mdr/ct/packages/sdtmct-2019-03-29/codelists/C101868", "title": "CDISC SDTM Left Ventricular Ejection Fraction Measurement Result Terminology", "type": "Code List"}}, "conceptId": "C101868", "definition": "Terminology for results of left ventricular ejection fraction assessments.", "extensible": "true", "name": "Left Ventricular Ejection Fraction Measurement Result", "preferredTerm": "CDISC SDTM Left Ventricular Ejection Fraction Measurement Result Terminology", "submissionValue": "LVEFMRE", "synonyms": ["Left Ventricular Ejection Fraction Measurement Result"], "terms": [{"conceptId": "C99512", "definition": "A pathologically high percentage of blood that is forced from the heart ventricle to produce cardiac output. This is often the result of ventricular dilation due to hypertrophic cardiomyopathy. Quantitatively, the ejection fraction is considered higher than 70%.", "preferredTerm": "Hyperdynamic Ventricular Ejection Fraction", "submissionValue": "HYPERDYNAMIC"}, {"conceptId": "C99507", "definition": "Slightly less than normal amount of blood that is forced from the heart ventricle to produce cardiac output. Quantitatively, the ejection fraction is considered between 40% to 49%.", "preferredTerm": "Mildly Abnormal Ejection Fraction", "submissionValue": "MILD DYSFUNCTION"}, {"conceptId": "C99508", "definition": "Moderately less than normal amount of blood that is forced from the heart ventricle to produce cardiac output. Quantitatively, the ejection fraction is considered between 30% to 39%.", "preferredTerm": "Moderately Abnormal Ejection Fraction", "submissionValue": "MODERATE DYSFUNCTION"}, {"conceptId": "C99513", "definition": "The usual amount of blood that is forced from the heart ventricle to produce cardiac output. Quantitatively, the ejection fraction is considered between 50% to 70%.", "preferredTerm": "Normal Ventricular Ejection Fraction", "submissionValue": "NORMAL EJECTION FRACTION"}, {"conceptId": "C99509", "definition": "Severely less than normal amount of blood that is forced from the heart ventricle to produce cardiac output. Quantitatively, the ejection fraction is considered less than 30%.", "preferredTerm": "Severely Abnormal Ventricular Ejection Fraction", "submissionValue": "SEVERE DYSFUNCTION"}]}