{"_links": {"parentPackage": {"href": "/mdr/ct/packages/sdtmct-2019-03-29", "title": "SDTM Controlled Terminology Package 37 Effective 2019-03-29", "type": "Terminology"}, "priorVersion": {"href": "/mdr/ct/packages/sdtmct-2018-12-21/codelists/C112439", "title": "CDISC Questionnaire EDSS Test Code Terminology", "type": "Code List"}, "rootItem": {"href": "/mdr/root/ct/sdtmct/codelists/C112439", "title": "Version-agnostic anchor resource for codelist C112439", "type": "Root Value Domain"}, "self": {"href": "/mdr/ct/packages/sdtmct-2019-03-29/codelists/C112439", "title": "CDISC Questionnaire EDSS Test Code Terminology", "type": "Code List"}}, "conceptId": "C112439", "definition": "Kurtzke Expanded Disability Status Scale test code.", "extensible": "false", "name": "Kurtzke Expanded Disability Status Scale Questionnaire Test Code", "preferredTerm": "CDISC Questionnaire EDSS Test Code Terminology", "submissionValue": "EDSS01TC", "synonyms": ["Kurtzke Expanded Disability Status Scale Questionnaire Test Code"], "terms": [{"conceptId": "C112550", "definition": "Kurtzke Expanded Disability Status Scale - Expanded disability score.", "preferredTerm": "EDSS - Expanded Disability Score", "submissionValue": "EDSS0101", "synonyms": ["EDSS01-Expanded Disability Score"]}]}