{"_links": {"parentPackage": {"href": "/mdr/ct/packages/sdtmct-2019-03-29", "title": "SDTM Controlled Terminology Package 37 Effective 2019-03-29", "type": "Terminology"}, "priorVersion": {"href": "/mdr/ct/packages/sdtmct-2018-12-21/codelists/C112436", "title": "CDISC Questionnaire DS Test Name Terminology", "type": "Code List"}, "rootItem": {"href": "/mdr/root/ct/sdtmct/codelists/C112436", "title": "Version-agnostic anchor resource for codelist C112436", "type": "Root Value Domain"}, "self": {"href": "/mdr/ct/packages/sdtmct-2019-03-29/codelists/C112436", "title": "CDISC Questionnaire DS Test Name Terminology", "type": "Code List"}}, "conceptId": "C112436", "definition": "Disease Steps test name.", "extensible": "false", "name": "Disease Steps Questionnaire Test Name", "preferredTerm": "CDISC Questionnaire DS Test Name Terminology", "submissionValue": "DS01TN", "synonyms": ["Disease Steps Questionnaire Test Name"], "terms": [{"conceptId": "C112549", "definition": "Disease Steps - Methods: For Disease Steps, classification of a patient is determined by history and neurologic examination as well as course of MS.", "preferredTerm": "DS - Disease Steps Classification", "submissionValue": "DS01-Disease Steps Classification", "synonyms": ["DS01-Disease Steps Classification"]}]}