{"_links": {"parentPackage": {"href": "/mdr/ct/packages/sdtmct-2019-03-29", "title": "SDTM Controlled Terminology Package 37 Effective 2019-03-29", "type": "Terminology"}, "priorVersion": {"href": "/mdr/ct/packages/sdtmct-2018-12-21/codelists/C114118", "title": "CDISC SDTM Protocol Milestone Terminology", "type": "Code List"}, "rootItem": {"href": "/mdr/root/ct/sdtmct/codelists/C114118", "title": "Version-agnostic anchor resource for codelist C114118", "type": "Root Value Domain"}, "self": {"href": "/mdr/ct/packages/sdtmct-2019-03-29/codelists/C114118", "title": "CDISC SDTM Protocol Milestone Terminology", "type": "Code List"}}, "conceptId": "C114118", "definition": "A terminology codelist relevant to protocol-specified, point-in-time events during a study.", "extensible": "true", "name": "Protocol Milestone", "preferredTerm": "CDISC SDTM Protocol Milestone Terminology", "submissionValue": "PROTMLST", "synonyms": ["Protocol Milestone"], "terms": [{"conceptId": "C132447", "definition": "The subject has fulfilled the criteria needed to enter or continue in the study.", "preferredTerm": "Eligibility Criteria Met By Subject", "submissionValue": "ELIGIBILITY CRITERIA MET"}, {"conceptId": "C16735", "definition": "Consent given by a subject, or in the case of an individual that can only give assent, by a parent or legal guardian, for the participation in a clinical study only after having achieved an understanding of both the relevant medical facts and the relevant risks involved.", "preferredTerm": "Informed Consent", "submissionValue": "INFORMED CONSENT OBTAINED"}, {"conceptId": "C114209", "definition": "Participants are assigned to arms of a clinical trial by chance.", "preferredTerm": "Subject is Randomized", "submissionValue": "RANDOMIZED"}]}