{"_links": {"parentPackage": {"href": "/mdr/ct/packages/sdtmct-2019-03-29", "title": "SDTM Controlled Terminology Package 37 Effective 2019-03-29", "type": "Terminology"}, "priorVersion": {"href": "/mdr/ct/packages/sdtmct-2018-12-21/codelists/C117740", "title": "CDISC SDTM Multiple Sclerosis Findings About Test Name Terminology", "type": "Code List"}, "rootItem": {"href": "/mdr/root/ct/sdtmct/codelists/C117740", "title": "Version-agnostic anchor resource for codelist C117740", "type": "Root Value Domain"}, "self": {"href": "/mdr/ct/packages/sdtmct-2019-03-29/codelists/C117740", "title": "CDISC SDTM Multiple Sclerosis Findings About Test Name Terminology", "type": "Code List"}}, "conceptId": "C117740", "definition": "Terminology relevant to the test names that describe multiple sclerosis findings.", "extensible": "true", "name": "Multiple Sclerosis Findings About Test Name", "preferredTerm": "CDISC SDTM Multiple Sclerosis Findings About Test Name Terminology", "submissionValue": "MSFATS", "synonyms": ["Multiple Sclerosis Findings About Test Name"], "terms": [{"conceptId": "C117883", "definition": "A description of the diagnostic criteria that the subject fulfilled in order to establish a medical diagnosis.", "preferredTerm": "Which Diagnostic Criteria Met", "submissionValue": "Diagnostic Criteria Met", "synonyms": ["Diagnostic Criteria Met"]}, {"conceptId": "C117884", "definition": "The anatomical location of the beginning or early stages of a disease.", "preferredTerm": "Location of Disease Onset", "submissionValue": "Localization of Onset", "synonyms": ["Localization of Onset"]}, {"conceptId": "C117885", "definition": "A categorization of the number of lesions present in the Central Nervous System at the time of diagnosis of a specific disease.", "preferredTerm": "Focality of Disease Onset", "submissionValue": "Onset Unifocal or Multifocal", "synonyms": ["Onset Unifocal or Multifocal"]}]}