{"_links": {"parentPackage": {"href": "/mdr/ct/packages/sdtmct-2019-03-29", "title": "SDTM Controlled Terminology Package 37 Effective 2019-03-29", "type": "Terminology"}, "priorVersion": {"href": "/mdr/ct/packages/sdtmct-2018-12-21/codelists/C119075", "title": "CDISC Clinical Classification NHLBI CAD Grade Test Name Terminology", "type": "Code List"}, "rootItem": {"href": "/mdr/root/ct/sdtmct/codelists/C119075", "title": "Version-agnostic anchor resource for codelist C119075", "type": "Root Value Domain"}, "self": {"href": "/mdr/ct/packages/sdtmct-2019-03-29/codelists/C119075", "title": "CDISC Clinical Classification NHLBI CAD Grade Test Name Terminology", "type": "Code List"}}, "conceptId": "C119075", "definition": "Coronary Artery Dissection NHLBI Grade test name.", "extensible": "false", "name": "Coronary Artery Dissection NHLBI Grade Clinical Classification Test Name", "preferredTerm": "CDISC Clinical Classification NHLBI CAD Grade Test Name Terminology", "submissionValue": "CADG01TN", "synonyms": ["Coronary Artery Dissection NHLBI Grade Clinical Classification Test Name"], "terms": [{"conceptId": "C119196", "definition": "Coronary Artery Dissection NHLBI Grade - A grading system to describe coronary artery dissection per the NHLBI, American College of Cardiology, American Heart Association.", "preferredTerm": "NHLBI CAD Grade - Coronary Artery Dissection NHLBI Grade", "submissionValue": "CADG01-Coronary Dissection NHLBI Grade", "synonyms": ["CADG01-Coronary Dissection NHLBI Grade"]}]}