{"_links": {"parentPackage": {"href": "/mdr/ct/packages/sdtmct-2019-03-29", "title": "SDTM Controlled Terminology Package 37 Effective 2019-03-29", "type": "Terminology"}, "priorVersion": {"href": "/mdr/ct/packages/sdtmct-2018-12-21/codelists/C119080", "title": "CDISC Clinical Classification ARC STC Grade Test Code Terminology", "type": "Code List"}, "rootItem": {"href": "/mdr/root/ct/sdtmct/codelists/C119080", "title": "Version-agnostic anchor resource for codelist C119080", "type": "Root Value Domain"}, "self": {"href": "/mdr/ct/packages/sdtmct-2019-03-29/codelists/C119080", "title": "CDISC Clinical Classification ARC STC Grade Test Code Terminology", "type": "Code List"}}, "conceptId": "C119080", "definition": "Stent Thrombosis Coronary ARC Grade test code.", "extensible": "false", "name": "Stent Thrombosis Coronary ARC Grade Clinical Classification Test Code", "preferredTerm": "CDISC Clinical Classification ARC STC Grade Test Code Terminology", "submissionValue": "STCG01TC", "synonyms": ["Stent Thrombosis Coronary ARC Grade Clinical Classification Test Code"], "terms": [{"conceptId": "C119198", "definition": "Stent Thrombosis Coronary ARC Grade - A grading system to describe the coronary stent thrombosis per the classification schema described by the Academic Research Consortium.", "preferredTerm": "ARC STC Grade - Stent Thrombosis Coronary ARC Grade", "submissionValue": "STCG0101", "synonyms": ["STCG01-STC ARC Grade"]}]}