{"_links": {"parentPackage": {"href": "/mdr/ct/packages/sdtmct-2019-03-29", "title": "SDTM Controlled Terminology Package 37 Effective 2019-03-29", "type": "Terminology"}, "priorVersion": {"href": "/mdr/ct/packages/sdtmct-2018-12-21/codelists/C124665", "title": "CDISC Clinical Classification Atherosclerotic Cardiovascular Disease 10-Year Risk Estimator Test Name Terminology", "type": "Code List"}, "rootItem": {"href": "/mdr/root/ct/sdtmct/codelists/C124665", "title": "Version-agnostic anchor resource for codelist C124665", "type": "Root Value Domain"}, "self": {"href": "/mdr/ct/packages/sdtmct-2019-03-29/codelists/C124665", "title": "CDISC Clinical Classification Atherosclerotic Cardiovascular Disease 10-Year Risk Estimator Test Name Terminology", "type": "Code List"}}, "conceptId": "C124665", "definition": "Atherosclerotic Cardiovascular Disease 10-Year Risk Estimator test name.", "extensible": "false", "name": "Atherosclerotic Cardiovascular Disease 10-Year Risk Estimator Clinical Classification Test Name", "preferredTerm": "CDISC Clinical Classification Atherosclerotic Cardiovascular Disease 10-Year Risk Estimator Test Name Terminology", "submissionValue": "ASCVD1TN", "synonyms": ["Atherosclerotic Cardiovascular Disease 10-Year Risk Estimator Clinical Classification Test Name"], "terms": [{"conceptId": "C124720", "definition": "Atherosclerotic Cardiovascular Disease 10-Year Risk Estimator - Risk score.", "preferredTerm": "ASCVD 10-Year Risk Estimator - Risk Score", "submissionValue": "ASCVD1-ASCVD 10-Year Risk Score", "synonyms": ["ASCVD1-ASCVD 10-Year Risk Score"]}]}