{"_links": {"parentPackage": {"href": "/mdr/ct/packages/sdtmct-2019-03-29", "title": "SDTM Controlled Terminology Package 37 Effective 2019-03-29", "type": "Terminology"}, "priorVersion": {"href": "/mdr/ct/packages/sdtmct-2018-12-21/codelists/C124304", "title": "CDISC SDTM Subject Status Response Terminology", "type": "Code List"}, "rootItem": {"href": "/mdr/root/ct/sdtmct/codelists/C124304", "title": "Version-agnostic anchor resource for codelist C124304", "type": "Root Value Domain"}, "self": {"href": "/mdr/ct/packages/sdtmct-2019-03-29/codelists/C124304", "title": "CDISC SDTM Subject Status Response Terminology", "type": "Code List"}}, "conceptId": "C124304", "definition": "Terminology relevant to subject status responses.", "extensible": "true", "name": "Subject Status Response", "preferredTerm": "CDISC SDTM Subject Status Response Terminology", "submissionValue": "SSTATRS", "synonyms": ["Subject Status Response"], "terms": [{"conceptId": "C37987", "definition": "Living; showing characteristics of life.", "preferredTerm": "Alive", "submissionValue": "ALIVE"}, {"conceptId": "C28554", "definition": "The absence of life or state of being dead. (NCI)", "preferredTerm": "Dead", "submissionValue": "DEAD", "synonyms": ["Died"]}, {"conceptId": "C17998", "definition": "Not known, not observed, not recorded, or refused. (NCI)", "preferredTerm": "Unknown", "submissionValue": "UNKNOWN", "synonyms": ["U", "UNK", "Unknown"]}]}