{"_links": {"parentPackage": {"href": "/mdr/ct/packages/sdtmct-2019-03-29", "title": "SDTM Controlled Terminology Package 37 Effective 2019-03-29", "type": "Terminology"}, "priorVersion": {"href": "/mdr/ct/packages/sdtmct-2018-12-21/codelists/C129096", "title": "CDISC Questionnaire FOSI Test Code Terminology", "type": "Code List"}, "rootItem": {"href": "/mdr/root/ct/sdtmct/codelists/C129096", "title": "Version-agnostic anchor resource for codelist C129096", "type": "Root Value Domain"}, "self": {"href": "/mdr/ct/packages/sdtmct-2019-03-29/codelists/C129096", "title": "CDISC Questionnaire FOSI Test Code Terminology", "type": "Code List"}}, "conceptId": "C129096", "definition": "Functional Assessment of Cancer Therapy-Ovarian Symptom Index test code.", "extensible": "false", "name": "Functional Assessment of Cancer Therapy-Ovarian Symptom Index Questionnaire Test Code", "preferredTerm": "CDISC Questionnaire FOSI Test Code Terminology", "submissionValue": "FAC049TC", "synonyms": ["Functional Assessment of Cancer Therapy-Ovarian Symptom Index Questionnaire Test Code"], "terms": [{"conceptId": "C129225", "definition": "Functional Assessment of Cancer Therapy-Ovarian Symptom Index - I have a lack of energy.", "preferredTerm": "FOSI - I Have a Lack of Energy", "submissionValue": "FAC04901", "synonyms": ["FAC049-I Have a Lack of Energy"]}, {"conceptId": "C129226", "definition": "Functional Assessment of Cancer Therapy-Ovarian Symptom Index - I have been vomiting.", "preferredTerm": "FOSI - I Have Been Vomiting", "submissionValue": "FAC04902", "synonyms": ["FAC049-I Have Been Vomiting"]}, {"conceptId": "C129227", "definition": "Functional Assessment of Cancer Therapy-Ovarian Symptom Index - I have pain.", "preferredTerm": "FOSI - I Have Pain", "submissionValue": "FAC04903", "synonyms": ["FAC049-I Have Pain"]}, {"conceptId": "C129228", "definition": "Functional Assessment of Cancer Therapy-Ovarian Symptom Index - I have nausea.", "preferredTerm": "FOSI - I Have Nausea", "submissionValue": "FAC04904", "synonyms": ["FAC049-I Have Nausea"]}, {"conceptId": "C129229", "definition": "Functional Assessment of Cancer Therapy-Ovarian Symptom Index - I have swelling in my stomach area.", "preferredTerm": "FOSI - I Have Swelling in Stomach Area", "submissionValue": "FAC04905", "synonyms": ["FAC049-I Have Swelling in Stomach Area"]}, {"conceptId": "C129230", "definition": "Functional Assessment of Cancer Therapy-Ovarian Symptom Index - I worry that my condition will get worse.", "preferredTerm": "FOSI - Worry My Condition Will Get Worse", "submissionValue": "FAC04906", "synonyms": ["FAC049-Worry My Condition Will Get Worse"]}, {"conceptId": "C129231", "definition": "Functional Assessment of Cancer Therapy-Ovarian Symptom Index - I am content with the quality of my life right now.", "preferredTerm": "FOSI - Content With Quality of My Life", "submissionValue": "FAC04907", "synonyms": ["FAC049-Content With Quality of My Life"]}, {"conceptId": "C129232", "definition": "Functional Assessment of Cancer Therapy-Ovarian Symptom Index - I have cramps in my stomach area.", "preferredTerm": "FOSI - I Have Cramps in My Stomach Area", "submissionValue": "FAC04908", "synonyms": ["FAC049-I Have Cramps in My Stomach Area"]}]}