{"_links": {"parentPackage": {"href": "/mdr/ct/packages/sdtmct-2019-03-29", "title": "SDTM Controlled Terminology Package 37 Effective 2019-03-29", "type": "Terminology"}, "priorVersion": {"href": "/mdr/ct/packages/sdtmct-2018-12-21/codelists/C130243", "title": "CDISC Clinical Classification HAM-D6 Clinician Version Test Code Terminology", "type": "Code List"}, "rootItem": {"href": "/mdr/root/ct/sdtmct/codelists/C130243", "title": "Version-agnostic anchor resource for codelist C130243", "type": "Root Value Domain"}, "self": {"href": "/mdr/ct/packages/sdtmct-2019-03-29/codelists/C130243", "title": "CDISC Clinical Classification HAM-D6 Clinician Version Test Code Terminology", "type": "Code List"}}, "conceptId": "C130243", "definition": "Hamilton Depression Rating Scale - 6 Clinician Version test code.", "extensible": "false", "name": "Hamilton Depression Rating Scale - 6 Clinician Version Clinical Classification Test Code", "preferredTerm": "CDISC Clinical Classification HAM-D6 Clinician Version Test Code Terminology", "submissionValue": "HAMD4TC", "synonyms": ["Hamilton Depression Rating Scale - 6 Clinician Version Clinical Classification Test Code"], "terms": [{"conceptId": "C130328", "definition": "The Hamilton Depression Rating Scale 6 - Clinician Version - Depressed mood.", "preferredTerm": "HAM-D6 - Clinician Version - Depressed Mood", "submissionValue": "HAMD401", "synonyms": ["HAMD4-Depressed Mood"]}, {"conceptId": "C130329", "definition": "The Hamilton Depression Rating Scale 6 - Clinician Version - Low self-esteem and guilt.", "preferredTerm": "HAM-D6 - Clinician Version - Low Self-esteem and Guilt", "submissionValue": "HAMD402", "synonyms": ["HAMD4-Low Self-esteem and Guilt"]}, {"conceptId": "C130330", "definition": "The Hamilton Depression Rating Scale 6 - Clinician Version - Social life activities and interests.", "preferredTerm": "HAM-D6 - Clinician Version - Social Life Activities or Interests", "submissionValue": "HAMD403", "synonyms": ["HAMD4-Social Life Activities/Interests"]}, {"conceptId": "C130331", "definition": "The Hamilton Depression Rating Scale 6 - Clinician Version - Psychomotor retardation, general.", "preferredTerm": "HAM-D6 - Clinician Version - Psychomotor Retardation, General", "submissionValue": "HAMD404", "synonyms": ["HAMD4-Psychomotor Retardation, General"]}, {"conceptId": "C130332", "definition": "The Hamilton Depression Rating Scale 6 - Clinician Version - Psychic anxiety.", "preferredTerm": "HAM-D6 - Clinician Version - Psychic Anxiety", "submissionValue": "HAMD405", "synonyms": ["HAMD4-Psychic Anxiety"]}, {"conceptId": "C130333", "definition": "The Hamilton Depression Rating Scale 6 - Clinician Version - Tiredness and pains.", "preferredTerm": "HAM-D6 - Clinician Version - Tiredness and Pains", "submissionValue": "HAMD406", "synonyms": ["HAMD4-Tiredness and Pains"]}, {"conceptId": "C130334", "definition": "The Hamilton Depression Rating Scale 6 - Clinician Version - Total score.", "preferredTerm": "HAM-D6 - Clinician Version - Total Score", "submissionValue": "HAMD407", "synonyms": ["HAMD4-Total Score"]}]}