{"_links": {"parentPackage": {"href": "/mdr/ct/packages/sdtmct-2019-03-29", "title": "SDTM Controlled Terminology Package 37 Effective 2019-03-29", "type": "Terminology"}, "priorVersion": {"href": "/mdr/ct/packages/sdtmct-2018-12-21/codelists/C132518", "title": "CDISC Questionnaire CES Test Name Terminology", "type": "Code List"}, "rootItem": {"href": "/mdr/root/ct/sdtmct/codelists/C132518", "title": "Version-agnostic anchor resource for codelist C132518", "type": "Root Value Domain"}, "self": {"href": "/mdr/ct/packages/sdtmct-2019-03-29/codelists/C132518", "title": "CDISC Questionnaire CES Test Name Terminology", "type": "Code List"}}, "conceptId": "C132518", "definition": "Combat Exposure Scale test name.", "extensible": "false", "name": "Combat Exposure Scale Questionnaire Test Name", "preferredTerm": "CDISC Questionnaire CES Test Name Terminology", "submissionValue": "CES01TN", "synonyms": ["Combat Exposure Scale Questionnaire Test Name"], "terms": [{"conceptId": "C132556", "definition": "Combat Exposure Scale - Did you ever go on combat patrols or have other dangerous duty?", "preferredTerm": "CES - Ever Combat Patrols or Dangerous Duty", "submissionValue": "CES01-Ever Combat Patrols/Dangerous Duty", "synonyms": ["CES01-Ever Combat Patrols/Dangerous Duty"]}, {"conceptId": "C132558", "definition": "Combat Exposure Scale - Were you ever surrounded by the enemy?", "preferredTerm": "CES - Ever Surrounded by the Enemy", "submissionValue": "CES01-Ever Surrounded by the Enemy", "synonyms": ["CES01-Ever Surrounded by the Enemy"]}, {"conceptId": "C132560", "definition": "Combat Exposure Scale - How often did you fire rounds at the enemy?", "preferredTerm": "CES - How Often Fire Rounds at Enemy", "submissionValue": "CES01-How Often Fire Rounds at Enemy", "synonyms": ["CES01-How Often Fire Rounds at Enemy"]}, {"conceptId": "C132562", "definition": "Combat Exposure Scale - How often were you in danger of being injured or killed (i.e., being pinned down, overrun, ambushed, near miss, etc.)?", "preferredTerm": "CES - In Danger of Being Injured or Killed", "submissionValue": "CES01-In Danger of Being Injured/Killed", "synonyms": ["CES01-In Danger of Being Injured/Killed"]}, {"conceptId": "C132561", "definition": "Combat Exposure Scale - How often did you see someone hit by incoming or outgoing rounds?", "preferredTerm": "CES - See Someone Hit by Rounds", "submissionValue": "CES01-See Someone Hit by Rounds", "synonyms": ["CES01-See Someone Hit by Rounds"]}, {"conceptId": "C132559", "definition": "Combat Exposure Scale - What percentage of the soldiers in your unit were killed (KIA), wounded or missing in action (MIA)?", "preferredTerm": "CES - Soldiers in Unit Killed (KIA), Wounded, Missing (MIA)", "submissionValue": "CES01-Soldiers in Unit KIA, Wounded, MIA", "synonyms": ["CES01-Soldiers in Unit KIA, Wounded, MIA"]}, {"conceptId": "C132557", "definition": "Combat Exposure Scale - Were you ever under enemy fire?", "preferredTerm": "CES - Were You Ever Under Enemy Fire", "submissionValue": "CES01-Were You Ever Under Enemy Fire", "synonyms": ["CES01-Were You Ever Under Enemy Fire"]}]}