{"_links": {"parentPackage": {"href": "/mdr/ct/packages/sdtmct-2019-03-29", "title": "SDTM Controlled Terminology Package 37 Effective 2019-03-29", "type": "Terminology"}, "priorVersion": {"href": "/mdr/ct/packages/sdtmct-2018-12-21/codelists/C138250", "title": "CDISC Questionnaire PedsQL Neuromuscular Module Version 3.0 Parent Report for Teen Test Name Terminology", "type": "Code List"}, "rootItem": {"href": "/mdr/root/ct/sdtmct/codelists/C138250", "title": "Version-agnostic anchor resource for codelist C138250", "type": "Root Value Domain"}, "self": {"href": "/mdr/ct/packages/sdtmct-2019-03-29/codelists/C138250", "title": "CDISC Questionnaire PedsQL Neuromuscular Module Version 3.0 Parent Report for Teen Test Name Terminology", "type": "Code List"}}, "conceptId": "C138250", "definition": "Pediatric Quality of Life Neuromuscular Module Version 3 Teen Parent Report test name.", "extensible": "false", "name": "Pediatric Quality of Life Neuromuscular Module Version 3 Teen Parent Report Questionnaire Test Name", "preferredTerm": "CDISC Questionnaire PedsQL Neuromuscular Module Version 3.0 Parent Report for Teen Test Name Terminology", "submissionValue": "PQL04TN", "synonyms": ["Pediatric Quality of Life Neuromuscular Module Version 3 Teen Parent Report Questionnaire Test Name"], "terms": [{"conceptId": "C138762", "definition": "Pediatric Quality of Life Neuromuscular Module Version 3 Teen Parent Report - In the past one month, how much of a problem has this been for your teen: My child's back feels stiff.", "preferredTerm": "PedsQL Neuromuscular Module Version 3.0 Parent Report for Teen - Back Feels Stiff", "submissionValue": "PQL04-Back Feels Stiff", "synonyms": ["PQL04-Back Feels Stiff"]}, {"conceptId": "C138781", "definition": "Pediatric Quality of Life Neuromuscular Module Version 3 Teen Parent Report - In the past one month, how much of a problem has this been for your teen: My child does not have the equipment he or she needs.", "preferredTerm": "PedsQL Neuromuscular Module Version 3.0 Parent Report for Teen - Do Not Have Equipment Need", "submissionValue": "PQL04-Do Not Have Equipment Need", "synonyms": ["PQL04-Do Not Have Equipment Need"]}, {"conceptId": "C138780", "definition": "Pediatric Quality of Life Neuromuscular Module Version 3 Teen Parent Report - In the past one month, how much of a problem has this been for your teen: I think our family has a lot of problems.", "preferredTerm": "PedsQL Neuromuscular Module Version 3.0 Parent Report for Teen - Family Has Lot of Problems", "submissionValue": "PQL04-Family Has Lot of Problems", "synonyms": ["PQL04-Family Has Lot of Problems"]}, {"conceptId": "C138761", "definition": "Pediatric Quality of Life Neuromuscular Module Version 3 Teen Parent Report - In the past one month, how much of a problem has this been for your teen: My child feels tired.", "preferredTerm": "PedsQL Neuromuscular Module Version 3.0 Parent Report for Teen - Feel Tired", "submissionValue": "PQL04-Feel Tired", "synonyms": ["PQL04-Feel Tired"]}, {"conceptId": "C138770", "definition": "Pediatric Quality of Life Neuromuscular Module Version 3 Teen Parent Report - In the past one month, how much of a problem has this been for your teen: My child gets hurt accidentally.", "preferredTerm": "PedsQL Neuromuscular Module Version 3.0 Parent Report for Teen - Get Hurt Accidentally", "submissionValue": "PQL04-Get Hurt Accidentally", "synonyms": ["PQL04-Get Hurt Accidentally"]}, {"conceptId": "C138758", "definition": "Pediatric Quality of Life Neuromuscular Module Version 3 Teen Parent Report - In the past one month, how much of a problem has this been for your teen: My child gets sick easily.", "preferredTerm": "PedsQL Neuromuscular Module Version 3.0 Parent Report for Teen - Get Sick Easily", "submissionValue": "PQL04-Get Sick Easily", "synonyms": ["PQL04-Get Sick Easily"]}, {"conceptId": "C138759", "definition": "Pediatric Quality of Life Neuromuscular Module Version 3 Teen Parent Report - In the past one month, how much of a problem has this been for your teen: My child gets sores and/or rashes.", "preferredTerm": "PedsQL Neuromuscular Module Version 3.0 Parent Report for Teen - Get Sores and/or Rashes", "submissionValue": "PQL04-Get Sores and/or Rashes", "synonyms": ["PQL04-Get Sores and/or Rashes"]}, {"conceptId": "C138764", "definition": "Pediatric Quality of Life Neuromuscular Module Version 3 Teen Parent Report - In the past one month, how much of a problem has this been for your teen: My child's hands are weak.", "preferredTerm": "PedsQL Neuromuscular Module Version 3.0 Parent Report for Teen - Hands Are Weak", "submissionValue": "PQL04-Hands Are Weak", "synonyms": ["PQL04-Hands Are Weak"]}, {"conceptId": "C138775", "definition": "Pediatric Quality of Life Neuromuscular Module Version 3 Teen Parent Report - In the past one month, how much of a problem has this been for your teen: It is hard for my child to ask the doctors and nurses questions.", "preferredTerm": "PedsQL Neuromuscular Module Version 3.0 Parent Report for Teen - Hard Ask Doctors and Nurses Questions", "submissionValue": "PQL04-Hard Ask Doctors/Nurses Questions", "synonyms": ["PQL04-Hard Ask Doctors/Nurses Questions"]}, {"conceptId": "C138776", "definition": "Pediatric Quality of Life Neuromuscular Module Version 3 Teen Parent Report - In the past one month, how much of a problem has this been for your teen: It is hard for my child to explain his or her illness to other people.", "preferredTerm": "PedsQL Neuromuscular Module Version 3.0 Parent Report for Teen - Hard Explain Illness to People", "submissionValue": "PQL04-Hard Explain Illness to People", "synonyms": ["PQL04-Hard Explain Illness to People"]}, {"conceptId": "C138774", "definition": "Pediatric Quality of Life Neuromuscular Module Version 3 Teen Parent Report - In the past one month, how much of a problem has this been for your teen: It is hard for my child to tell the doctors and nurses how he or she feels.", "preferredTerm": "PedsQL Neuromuscular Module Version 3.0 Parent Report for Teen - Hard Tell Doctors and Nurses How Feel", "submissionValue": "PQL04-Hard Tell Doctors/Nurses How Feel", "synonyms": ["PQL04-Hard Tell Doctors/Nurses How Feel"]}, {"conceptId": "C138777", "definition": "Pediatric Quality of Life Neuromuscular Module Version 3 Teen Parent Report - In the past one month, how much of a problem has this been for your teen: It is hard for our family to plan activities like vacations.", "preferredTerm": "PedsQL Neuromuscular Module Version 3.0 Parent Report for Teen - Hard for Family to Plan Activities", "submissionValue": "PQL04-Hard for Family to Plan Activities", "synonyms": ["PQL04-Hard for Family to Plan Activities"]}, {"conceptId": "C138778", "definition": "Pediatric Quality of Life Neuromuscular Module Version 3 Teen Parent Report - In the past one month, how much of a problem has this been for your teen: It is hard for our family to get enough rest.", "preferredTerm": "PedsQL Neuromuscular Module Version 3.0 Parent Report for Teen - Hard for Family to Rest", "submissionValue": "PQL04-Hard for Family to Rest", "synonyms": ["PQL04-Hard for Family to Rest"]}, {"conceptId": "C138757", "definition": "Pediatric Quality of Life Neuromuscular Module Version 3 Teen Parent Report - In the past one month, how much of a problem has this been for your teen: It is hard for my child to breathe.", "preferredTerm": "PedsQL Neuromuscular Module Version 3.0 Parent Report for Teen - Hard to Breathe", "submissionValue": "PQL04-Hard to Breathe", "synonyms": ["PQL04-Hard to Breathe"]}, {"conceptId": "C138766", "definition": "Pediatric Quality of Life Neuromuscular Module Version 3 Teen Parent Report - In the past one month, how much of a problem has this been for your teen: It is hard for my child to gain or lose weight when he or she wants to.", "preferredTerm": "PedsQL Neuromuscular Module Version 3.0 Parent Report for Teen - Hard to Gain or Lose Weight", "submissionValue": "PQL04-Hard to Gain/Lose Weight", "synonyms": ["PQL04-Hard to Gain/Lose Weight"]}, {"conceptId": "C138773", "definition": "Pediatric Quality of Life Neuromuscular Module Version 3 Teen Parent Report - In the past one month, how much of a problem has this been for your teen: It is hard for my child to go places with his or her equipment.", "preferredTerm": "PedsQL Neuromuscular Module Version 3.0 Parent Report for Teen - Hard to Go Places With Equipment", "submissionValue": "PQL04-Hard to Go Places With Equipment", "synonyms": ["PQL04-Hard to Go Places With Equipment"]}, {"conceptId": "C138768", "definition": "Pediatric Quality of Life Neuromuscular Module Version 3 Teen Parent Report - In the past one month, how much of a problem has this been for your teen: It is hard for my child to swallow food.", "preferredTerm": "PedsQL Neuromuscular Module Version 3.0 Parent Report for Teen - Hard to Swallow Food", "submissionValue": "PQL04-Hard to Swallow Food", "synonyms": ["PQL04-Hard to Swallow Food"]}, {"conceptId": "C138772", "definition": "Pediatric Quality of Life Neuromuscular Module Version 3 Teen Parent Report - In the past one month, how much of a problem has this been for your teen: It is hard for my child to turn him or herself during the night.", "preferredTerm": "PedsQL Neuromuscular Module Version 3.0 Parent Report for Teen - Hard to Turn During Night", "submissionValue": "PQL04-Hard to Turn During Night", "synonyms": ["PQL04-Hard to Turn During Night"]}, {"conceptId": "C138765", "definition": "Pediatric Quality of Life Neuromuscular Module Version 3 Teen Parent Report - In the past one month, how much of a problem has this been for your teen: It is hard for my child to use the bathroom.", "preferredTerm": "PedsQL Neuromuscular Module Version 3.0 Parent Report for Teen - Hard to Use Bathroom", "submissionValue": "PQL04-Hard to Use Bathroom", "synonyms": ["PQL04-Hard to Use Bathroom"]}, {"conceptId": "C138767", "definition": "Pediatric Quality of Life Neuromuscular Module Version 3 Teen Parent Report - In the past one month, how much of a problem has this been for your teen: It is hard for my child to use his or her hands.", "preferredTerm": "PedsQL Neuromuscular Module Version 3.0 Parent Report for Teen - Hard to Use Hands", "submissionValue": "PQL04-Hard to Use Hands", "synonyms": ["PQL04-Hard to Use Hands"]}, {"conceptId": "C138760", "definition": "Pediatric Quality of Life Neuromuscular Module Version 3 Teen Parent Report - In the past one month, how much of a problem has this been for your teen: My child's legs hurt.", "preferredTerm": "PedsQL Neuromuscular Module Version 3.0 Parent Report for Teen - Legs Hurt", "submissionValue": "PQL04-Legs Hurt", "synonyms": ["PQL04-Legs Hurt"]}, {"conceptId": "C138769", "definition": "Pediatric Quality of Life Neuromuscular Module Version 3 Teen Parent Report - In the past one month, how much of a problem has this been for your teen: It takes my child a long time to bathe or shower.", "preferredTerm": "PedsQL Neuromuscular Module Version 3.0 Parent Report for Teen - Long Time to Bathe or Shower", "submissionValue": "PQL04-Long Time to Bathe/Shower", "synonyms": ["PQL04-Long Time to Bathe/Shower"]}, {"conceptId": "C138779", "definition": "Pediatric Quality of Life Neuromuscular Module Version 3 Teen Parent Report - In the past one month, how much of a problem has this been for your teen: I think money is a problem in our family.", "preferredTerm": "PedsQL Neuromuscular Module Version 3.0 Parent Report for Teen - Money Problem in Our Family", "submissionValue": "PQL04-Money Problem in Our Family", "synonyms": ["PQL04-Money Problem in Our Family"]}, {"conceptId": "C138771", "definition": "Pediatric Quality of Life Neuromuscular Module Version 3 Teen Parent Report - In the past one month, how much of a problem has this been for your teen: My child takes a long time to eat.", "preferredTerm": "PedsQL Neuromuscular Module Version 3.0 Parent Report for Teen - Take Long Time to Eat", "submissionValue": "PQL04-Take Long Time to Eat", "synonyms": ["PQL04-Take Long Time to Eat"]}, {"conceptId": "C138763", "definition": "Pediatric Quality of Life Neuromuscular Module Version 3 Teen Parent Report - In the past one month, how much of a problem has this been for your teen: My child wakes up tired.", "preferredTerm": "PedsQL Neuromuscular Module Version 3.0 Parent Report for Teen - Wake Up Tired", "submissionValue": "PQL04-Wake Up Tired", "synonyms": ["PQL04-Wake Up Tired"]}]}