{"_links": {"parentPackage": {"href": "/mdr/ct/packages/sdtmct-2019-03-29", "title": "SDTM Controlled Terminology Package 37 Effective 2019-03-29", "type": "Terminology"}, "priorVersion": {"href": "/mdr/ct/packages/sdtmct-2018-12-21/codelists/C141659", "title": "CDISC Functional Test Rising From Floor Test Code Terminology", "type": "Code List"}, "rootItem": {"href": "/mdr/root/ct/sdtmct/codelists/C141659", "title": "Version-agnostic anchor resource for codelist C141659", "type": "Root Value Domain"}, "self": {"href": "/mdr/ct/packages/sdtmct-2019-03-29/codelists/C141659", "title": "CDISC Functional Test Rising From Floor Test Code Terminology", "type": "Code List"}}, "conceptId": "C141659", "definition": "Rising From Floor test code.", "extensible": "false", "name": "Rising From Floor Functional Test Test Code", "preferredTerm": "CDISC Functional Test Rising From Floor Test Code Terminology", "submissionValue": "RISEF1TC", "synonyms": ["Rising From Floor Functional Test Test Code"], "terms": [{"conceptId": "C141702", "definition": "Rising From Floor - Time to rise from supine position.", "preferredTerm": "Rising From Floor - Time to Rise From Floor", "submissionValue": "RISEF101", "synonyms": ["RISEF1-Time to Rise From Floor"]}, {"conceptId": "C141703", "definition": "Rising From Floor - Test grade.", "preferredTerm": "Rising From Floor - Test Grade", "submissionValue": "RISEF102", "synonyms": ["RISEF1-Test Grade"]}, {"conceptId": "C151073", "definition": "Rising From Floor - Did subject wear orthoses?", "preferredTerm": "Rising From Floor - Wear Orthoses", "submissionValue": "RISEF103", "synonyms": ["RISEF1-Wear Orthoses"]}]}