{"_links": {"parentPackage": {"href": "/mdr/ct/packages/sdtmct-2019-03-29", "title": "SDTM Controlled Terminology Package 37 Effective 2019-03-29", "type": "Terminology"}, "priorVersion": {"href": "/mdr/ct/packages/sdtmct-2018-12-21/codelists/C141661", "title": "CDISC Functional Test 4 Stair Descend Test Code Terminology", "type": "Code List"}, "rootItem": {"href": "/mdr/root/ct/sdtmct/codelists/C141661", "title": "Version-agnostic anchor resource for codelist C141661", "type": "Root Value Domain"}, "self": {"href": "/mdr/ct/packages/sdtmct-2019-03-29/codelists/C141661", "title": "CDISC Functional Test 4 Stair Descend Test Code Terminology", "type": "Code List"}}, "conceptId": "C141661", "definition": "Descend 4 Stairs test code.", "extensible": "false", "name": "Descend 4 Stairs Functional Test Test Code", "preferredTerm": "CDISC Functional Test 4 Stair Descend Test Code Terminology", "submissionValue": "D4STR1TC", "synonyms": ["Descend 4 Stairs Functional Test Test Code"], "terms": [{"conceptId": "C141704", "definition": "4 Stair Descend - Time taken to descend 4 stairs.", "preferredTerm": "4 Stair Descend - Time to Descend 4 Stairs", "submissionValue": "D4STR101", "synonyms": ["D4STR1-Time to Descend 4 Stairs"]}, {"conceptId": "C141705", "definition": "4 Stair Descend - Test grade.", "preferredTerm": "4 Stair Descend - Test Grade", "submissionValue": "D4STR102", "synonyms": ["D4STR1-Test Grade"]}, {"conceptId": "C147591", "definition": "4 Stair Descend - Did subject wear orthoses?", "preferredTerm": "4 Stair Descend - Wear Orthoses", "submissionValue": "D4STR103", "synonyms": ["D4STR1-Wear Orthoses"]}]}