{"_links": {"parentPackage": {"href": "/mdr/ct/packages/sdtmct-2019-03-29", "title": "SDTM Controlled Terminology Package 37 Effective 2019-03-29", "type": "Terminology"}, "priorVersion": {"href": "/mdr/ct/packages/sdtmct-2018-12-21/codelists/C141669", "title": "CDISC Questionnaire IPAQ Long Last 7 Days Telephone Format Version Test Code Terminology", "type": "Code List"}, "rootItem": {"href": "/mdr/root/ct/sdtmct/codelists/C141669", "title": "Version-agnostic anchor resource for codelist C141669", "type": "Root Value Domain"}, "self": {"href": "/mdr/ct/packages/sdtmct-2019-03-29/codelists/C141669", "title": "CDISC Questionnaire IPAQ Long Last 7 Days Telephone Format Version Test Code Terminology", "type": "Code List"}}, "conceptId": "C141669", "definition": "International Physical Activity Questionnaire (November 2002) Long Last 7 Days Telephone Format test code.", "extensible": "false", "name": "International Physical Activity Questionnaire (November 2002) Long Last 7 Days Telephone Format Questionnaire Test Code", "preferredTerm": "CDISC Questionnaire IPAQ Long Last 7 Days Telephone Format Version Test Code Terminology", "submissionValue": "IPAQ02TC", "synonyms": ["International Physical Activity Questionnaire (November 2002) Long Last 7 Days Telephone Format Questionnaire Test Code"], "terms": [{"conceptId": "C141815", "definition": "International Physical Activity Questionnaire (November 2002) - Long Last 7 Days Telephone Format - During the last 7 days, on how many days did you do moderate activities in the garden or yard?", "preferredTerm": "IPAQ Long Last 7 Days Telephone Format Version - Days Moderate in the Garden/Yard", "submissionValue": "IPA0116", "synonyms": ["IPA02-Days Moderate in the Garden/Yard"]}, {"conceptId": "C141779", "definition": "International Physical Activity Questionnaire (November 2002) - Long Last 7 Days Telephone Format - Do you currently have a job or do any unpaid work outside your home?", "preferredTerm": "IPAQ Long Last 7 Days Telephone Format Version - Currently Have Job or Unpaid Work", "submissionValue": "IPA0201", "synonyms": ["IPA02-Currently Have Job or Unpaid Work"]}, {"conceptId": "C141780", "definition": "International Physical Activity Questionnaire (November 2002) - Long Last 7 Days Telephone Format - During the last 7 days, on how many days did you do vigorous physical activities as part of your work?", "preferredTerm": "IPAQ Long Last 7 Days Telephone Format Version - Days Vigorous as Part of Work", "submissionValue": "IPA0202", "synonyms": ["IPA02-Days Vigorous as Part of Work"]}, {"conceptId": "C141781", "definition": "International Physical Activity Questionnaire (November 2002) - Long Last 7 Days Telephone Format - How much time did you usually spend on one of those days doing vigorous physical activities as part of your work?: Hours per day.", "preferredTerm": "IPAQ Long Last 7 Days Telephone Format Version - Vigorous Work Hours per Day", "submissionValue": "IPA0203A", "synonyms": ["IPA02-Vigorous Work Hours per Day"]}, {"conceptId": "C141782", "definition": "International Physical Activity Questionnaire (November 2002) - Long Last 7 Days Telephone Format - How much time did you usually spend on one of those days doing vigorous physical activities as part of your work?: Minutes per day.", "preferredTerm": "IPAQ Long Last 7 Days Telephone Format Version - Vigorous Work Minutes per Day", "submissionValue": "IPA0203B", "synonyms": ["IPA02-Vigorous Work Minutes per Day"]}, {"conceptId": "C141783", "definition": "International Physical Activity Questionnaire (November 2002) - Long Last 7 Days Telephone Format - What is the total amount of time you spent over the last 7 days doing vigorous physical activities as part of your work?: Hours per week.", "preferredTerm": "IPAQ Long Last 7 Days Telephone Format Version - Vigorous Work Hours per Week", "submissionValue": "IPA0203C", "synonyms": ["IPA02-Vigorous Work Hours per Week"]}, {"conceptId": "C141784", "definition": "International Physical Activity Questionnaire (November 2002) - Long Last 7 Days Telephone Format - What is the total amount of time you spent over the last 7 days doing vigorous physical activities as part of your work?: Minutes per week.", "preferredTerm": "IPAQ Long Last 7 Days Telephone Format Version - Vigorous Work Minutes per Week", "submissionValue": "IPA0203D", "synonyms": ["IPA02-Vigorous Work Minutes per Week"]}, {"conceptId": "C141785", "definition": "International Physical Activity Questionnaire (November 2002) - Long Last 7 Days Telephone Format - During the last 7 days, on how many days did you do moderate physical activities as part of your work?", "preferredTerm": "IPAQ Long Last 7 Days Telephone Format Version - Days Moderate as Part of Work", "submissionValue": "IPA0204", "synonyms": ["IPA02-Days Moderate as Part of Work"]}, {"conceptId": "C141786", "definition": "International Physical Activity Questionnaire (November 2002) - Long Last 7 Days Telephone Format - How much time did you usually spend on one of those days doing moderate physical activities as part of your work?: Hours per day.", "preferredTerm": "IPAQ Long Last 7 Days Telephone Format Version - Moderate Work Hours per Day", "submissionValue": "IPA0205A", "synonyms": ["IPA02-Moderate Work Hours per Day"]}, {"conceptId": "C141787", "definition": "International Physical Activity Questionnaire (November 2002) - Long Last 7 Days Telephone Format - How much time did you usually spend on one of those days doing moderate physical activities as part of your work?: Minutes per day.", "preferredTerm": "IPAQ Long Last 7 Days Telephone Format Version - Moderate Work Minutes per Day", "submissionValue": "IPA0205B", "synonyms": ["IPA02-Moderate Work Minutes per Day"]}, {"conceptId": "C141788", "definition": "International Physical Activity Questionnaire (November 2002) - Long Last 7 Days Telephone Format - What is the total amount of time you spent over the last 7 days doing moderate physical activities as part of your work?: Hours per week.", "preferredTerm": "IPAQ Long Last 7 Days Telephone Format Version - Moderate Work Hours per Week", "submissionValue": "IPA0205C", "synonyms": ["IPA02-Moderate Work Hours per Week"]}, {"conceptId": "C141789", "definition": "International Physical Activity Questionnaire (November 2002) - Long Last 7 Days Telephone Format - What is the total amount of time you spent over the last 7 days doing moderate physical activities as part of your work?: Minutes per week.", "preferredTerm": "IPAQ Long Last 7 Days Telephone Format Version - Moderate Work Minutes per Week", "submissionValue": "IPA0205D", "synonyms": ["IPA02-Moderate Work Minutes per Week"]}, {"conceptId": "C141790", "definition": "International Physical Activity Questionnaire (November 2002) - Long Last 7 Days Telephone Format - During the last 7 days, on how many days did you walk as part of your work?", "preferredTerm": "IPAQ Long Last 7 Days Telephone Format Version - Days Walk as Part of Your Work", "submissionValue": "IPA0206", "synonyms": ["IPA02-Days Walk as Part of Your Work"]}, {"conceptId": "C141791", "definition": "International Physical Activity Questionnaire (November 2002) - Long Last 7 Days Telephone Format - How much time did you usually spend on one of those days walking as part of your work?: Hours per day.", "preferredTerm": "IPAQ Long Last 7 Days Telephone Format Version - Walking Work Hours per Day", "submissionValue": "IPA0207A", "synonyms": ["IPA02-Walking Work Hours per Day"]}, {"conceptId": "C141792", "definition": "International Physical Activity Questionnaire (November 2002) - Long Last 7 Days Telephone Format - How much time did you usually spend on one of those days walking as part of your work?: Minutes per day.", "preferredTerm": "IPAQ Long Last 7 Days Telephone Format Version - Walking Work Minutes per Day", "submissionValue": "IPA0207B", "synonyms": ["IPA02-Walking Work Minutes per Day"]}, {"conceptId": "C141793", "definition": "International Physical Activity Questionnaire (November 2002) - Long Last 7 Days Telephone Format - What is the total amount of time you spent walking over the last 7 days as part of your work?: Hours per week.", "preferredTerm": "IPAQ Long Last 7 Days Telephone Format Version - Walking Work Hours per Week", "submissionValue": "IPA0207C", "synonyms": ["IPA02-Walking Work Hours per Week"]}, {"conceptId": "C141794", "definition": "International Physical Activity Questionnaire (November 2002) - Long Last 7 Days Telephone Format - What is the total amount of time you spent walking over the last 7 days as part of your work?: Minutes per week.", "preferredTerm": "IPAQ Long Last 7 Days Telephone Format Version - Walking Work Minutes per Week", "submissionValue": "IPA0207D", "synonyms": ["IPA02-Walking Work Minutes per Week"]}, {"conceptId": "C141795", "definition": "International Physical Activity Questionnaire (November 2002) - Long Last 7 Days Telephone Format - During the last 7 days, on how many days did you travel in a motor vehicle like a train, bus, car or tram?", "preferredTerm": "IPAQ Long Last 7 Days Telephone Format Version - Days Travel in a Motor Vehicle", "submissionValue": "IPA0208", "synonyms": ["IPA02-Days Travel in a Motor Vehicle"]}, {"conceptId": "C141796", "definition": "International Physical Activity Questionnaire (November 2002) - Long Last 7 Days Telephone Format - How much time did you usually spend on one of those days traveling in a car, bus, train or other kind of motor vehicle?: Hours per day.", "preferredTerm": "IPAQ Long Last 7 Days Telephone Format Version - Traveling Hours per Day", "submissionValue": "IPA0209A", "synonyms": ["IPA02-Traveling Hours per Day"]}, {"conceptId": "C141797", "definition": "International Physical Activity Questionnaire (November 2002) - Long Last 7 Days Telephone Format - How much time did you usually spend on one of those days traveling in a car, bus, train or other kind of motor vehicle?: Minutes per day.", "preferredTerm": "IPAQ Long Last 7 Days Telephone Format Version - Traveling Minutes per Day", "submissionValue": "IPA0209B", "synonyms": ["IPA02-Traveling Minutes per Day"]}, {"conceptId": "C141798", "definition": "International Physical Activity Questionnaire (November 2002) - Long Last 7 Days Telephone Format - What is the total amount of time you spent over the last 7 days traveling in a motor vehicle?: Hours per week.", "preferredTerm": "IPAQ Long Last 7 Days Telephone Format Version - Traveling Hours per Week", "submissionValue": "IPA0209C", "synonyms": ["IPA02-Traveling Hours per Week"]}, {"conceptId": "C141799", "definition": "International Physical Activity Questionnaire (November 2002) - Long Last 7 Days Telephone Format - What is the total amount of time you spent over the last 7 days traveling in a motor vehicle?: Minutes per week.", "preferredTerm": "IPAQ Long Last 7 Days Telephone Format Version - Traveling Minutes per Week", "submissionValue": "IPA0209D", "synonyms": ["IPa02-Traveling Minutes per Week"]}, {"conceptId": "C141800", "definition": "International Physical Activity Questionnaire (November 2002) - Long Last 7 Days Telephone Format - During the last 7 days, on how many days did you bicycle to go from place to place?", "preferredTerm": "IPAQ Long Last 7 Days Telephone Format Version - Days Bicycle Place to Place", "submissionValue": "IPA0210", "synonyms": ["IPA02-Days Bicycle Place to Place"]}, {"conceptId": "C141801", "definition": "International Physical Activity Questionnaire (November 2002) - Long Last 7 Days Telephone Format - How much time did you usually spend on one of those days to bicycle from place to place?: Hours per day.", "preferredTerm": "IPAQ Long Last 7 Days Telephone Format Version - Bicycle Hours per Day", "submissionValue": "IPA0211A", "synonyms": ["IPA02-Bicycle Hours per Day"]}, {"conceptId": "C141802", "definition": "International Physical Activity Questionnaire (November 2002) - Long Last 7 Days Telephone Format - How much time did you usually spend on one of those days to bicycle from place to place?: Minutes per day.", "preferredTerm": "IPAQ Long Last 7 Days Telephone Format Version - Bicycle Minutes per Day", "submissionValue": "IPA0211B", "synonyms": ["IPA02-Bicycle Minutes per Day"]}, {"conceptId": "C141803", "definition": "International Physical Activity Questionnaire (November 2002) - Long Last 7 Days Telephone Format - What is the total amount of time you spent bicycling over the last 7 days to travel from place to place?: Hours per week.", "preferredTerm": "IPAQ Long Last 7 Days Telephone Format Version - Bicycling Hours per Week", "submissionValue": "IPA0211C", "synonyms": ["IPA02-Bicycling Hours per Week"]}, {"conceptId": "C141804", "definition": "International Physical Activity Questionnaire (November 2002) - Long Last 7 Days Telephone Format - What is the total amount of time you spent bicycling over the last 7 days to travel from place to place?: Minutes per week.", "preferredTerm": "IPAQ Long Last 7 Days Telephone Format Version - Bicycling Minutes per Week", "submissionValue": "IPA0211D", "synonyms": ["IPA02-Bicycling Minutes per Week"]}, {"conceptId": "C141805", "definition": "International Physical Activity Questionnaire (November 2002) - Long Last 7 Days Telephone Format - During the last 7 days, on how many days did you walk to go from place to place?", "preferredTerm": "IPAQ Long Last 7 Days Telephone Format Version - Days Walk Place to Place", "submissionValue": "IPA0212", "synonyms": ["IPA02-Days Walk Place to Place"]}, {"conceptId": "C141806", "definition": "International Physical Activity Questionnaire (November 2002) - Long Last 7 Days Telephone Format - How much time did you usually spend on one of those days walking from place to place?: Hours per day.", "preferredTerm": "IPAQ Long Last 7 Days Telephone Format Version - Walking Place Hours per Day", "submissionValue": "IPA0213A", "synonyms": ["IPA02-Walking Place Hours per Day"]}, {"conceptId": "C141807", "definition": "International Physical Activity Questionnaire (November 2002) - Long Last 7 Days Telephone Format - How much time did you usually spend on one of those days walking from place to place?: Minutes per day.", "preferredTerm": "IPAQ Long Last 7 Days Telephone Format Version - Walking Place Minutes per Day", "submissionValue": "IPA0213B", "synonyms": ["IPA02-Walking Place Minutes per Day"]}, {"conceptId": "C141808", "definition": "International Physical Activity Questionnaire (November 2002) - Long Last 7 Days Telephone Format - What is the total amount of time you spent over the last 7 days walking from place to place?: Hours per week.", "preferredTerm": "IPAQ Long Last 7 Days Telephone Format Version - Walking Place Hours per Week", "submissionValue": "IPA0213C", "synonyms": ["IPA02-Walking Place Hours per Week"]}, {"conceptId": "C141809", "definition": "International Physical Activity Questionnaire (November 2002) - Long Last 7 Days Telephone Format - What is the total amount of time you spent over the last 7 days walking from place to place?: Minutes per week.", "preferredTerm": "IPAQ Long Last 7 Days Telephone Format Version - Walking Place Minutes per Week", "submissionValue": "IPA0213D", "synonyms": ["IPA02-Walking Place Minutes per Week"]}, {"conceptId": "C141810", "definition": "International Physical Activity Questionnaire (November 2002) - Long Last 7 Days Telephone Format - During the last 7 days, on how many days did you do vigorous physical activities in the garden or yard?", "preferredTerm": "IPAQ Long Last 7 Days Telephone Format Version - Days Vigorous in the Garden/Yard", "submissionValue": "IPA0214", "synonyms": ["IPA02-Days Vigorous in the Garden/Yard"]}, {"conceptId": "C141811", "definition": "International Physical Activity Questionnaire (November 2002) - Long Last 7 Days Telephone Format - How much time did you usually spend on one of those days doing vigorous physical activities in the garden or yard?: Hours per day.", "preferredTerm": "IPAQ Long Last 7 Days Telephone Format Version - Vigorous Garden Hours per Day", "submissionValue": "IPA0215A", "synonyms": ["IPA02-Vigorous Garden Hours per Day"]}, {"conceptId": "C141812", "definition": "International Physical Activity Questionnaire (November 2002) - Long Last 7 Days Telephone Format - How much time did you usually spend on one of those days doing vigorous physical activities in the garden or yard?: Minutes per day.", "preferredTerm": "IPAQ Long Last 7 Days Telephone Format Version - Vigorous Garden Minutes per Day", "submissionValue": "IPA0215B", "synonyms": ["IPA02-Vigorous Garden Minutes per Day"]}, {"conceptId": "C141813", "definition": "International Physical Activity Questionnaire (November 2002) - Long Last 7 Days Telephone Format - What is the total amount of time you spent over the last 7 days doing vigorous physical activities in the garden or yard?: Hours per week.", "preferredTerm": "IPAQ Long Last 7 Days Telephone Format Version - Vigorous Garden Hours per Week", "submissionValue": "IPA0215C", "synonyms": ["IPA02-Vigorous Garden Hours per Week"]}, {"conceptId": "C141814", "definition": "International Physical Activity Questionnaire (November 2002) - Long Last 7 Days Telephone Format - What is the total amount of time you spent over the last 7 days doing vigorous physical activities in the garden or yard?: Minutes per week.", "preferredTerm": "IPAQ Long Last 7 Days Telephone Format Version - Vigorous Garden Minutes per Week", "submissionValue": "IPA0215D", "synonyms": ["IPA02-Vigorous Garden Minutes per Week"]}, {"conceptId": "C141816", "definition": "International Physical Activity Questionnaire (November 2002) - Long Last 7 Days Telephone Format - How much time did you usually spend on one of those days doing moderate physical activities in the garden or yard?: Hours per day.", "preferredTerm": "IPAQ Long Last 7 Days Telephone Format Version - Moderate Garden Hours per Day", "submissionValue": "IPA0217A", "synonyms": ["IPA02-Moderate Garden Hours per Day"]}, {"conceptId": "C141817", "definition": "International Physical Activity Questionnaire (November 2002) - Long Last 7 Days Telephone Format - How much time did you usually spend on one of those days doing moderate physical activities in the garden or yard?: Minutes per day.", "preferredTerm": "IPAQ Long Last 7 Days Telephone Format Version - Moderate Garden Minutes per Day", "submissionValue": "IPA0217B", "synonyms": ["IPA02-Moderate Garden Minutes per Day"]}, {"conceptId": "C141818", "definition": "International Physical Activity Questionnaire (November 2002) - Long Last 7 Days Telephone Format - What is the total amount of time you spent over the last 7 days doing moderate physical activities in the garden or yard?: Hours per week.", "preferredTerm": "IPAQ Long Last 7 Days Telephone Format Version - Moderate Garden Hours per Week", "submissionValue": "IPA0217C", "synonyms": ["IPA02-Moderate Garden Hours per Week"]}, {"conceptId": "C141819", "definition": "International Physical Activity Questionnaire (November 2002) - Long Last 7 Days Telephone Format - What is the total amount of time you spent over the last 7 days doing moderate physical activities in the garden or yard?: Minutes per week.", "preferredTerm": "IPAQ Long Last 7 Days Telephone Format Version - Moderate Garden Minutes per Week", "submissionValue": "IPA0217D", "synonyms": ["IPA02-Moderate Garden Minutes per Week"]}, {"conceptId": "C141820", "definition": "International Physical Activity Questionnaire (November 2002) - Long Last 7 Days Telephone Format - During the last 7 days, on how many days did you do moderate activities inside your home?", "preferredTerm": "IPAQ Long Last 7 Days Telephone Format Version - Days Moderate Inside Your Home", "submissionValue": "IPA0218", "synonyms": ["IPA02-Days Moderate Inside Your Home"]}, {"conceptId": "C141821", "definition": "International Physical Activity Questionnaire (November 2002) - Long Last 7 Days Telephone Format - How much time did you usually spend on one of those days doing moderate physical activities inside your home?: Hours per day.", "preferredTerm": "IPAQ Long Last 7 Days Telephone Format Version - Moderate Home Hours per Day", "submissionValue": "IPA0219A", "synonyms": ["IPA02-Moderate Home Hours per Day"]}, {"conceptId": "C141822", "definition": "International Physical Activity Questionnaire (November 2002) - Long Last 7 Days Telephone Format - How much time did you usually spend on one of those days doing moderate physical activities inside your home?: Minutes per day.", "preferredTerm": "IPAQ Long Last 7 Days Telephone Format Version - Moderate Home Minutes per Day", "submissionValue": "IPA0219B", "synonyms": ["IPA02-Moderate Home Minutes per Day"]}, {"conceptId": "C141823", "definition": "International Physical Activity Questionnaire (November 2002) - Long Last 7 Days Telephone Format - What is the total amount of time you spent over the last 7 days doing moderate physical activities inside your home?: Hours per week.", "preferredTerm": "IPAQ Long Last 7 Days Telephone Format Version - Moderate Home Hours per Week", "submissionValue": "IPA0219C", "synonyms": ["IPA02-Moderate Home Hours per Week"]}, {"conceptId": "C141824", "definition": "International Physical Activity Questionnaire (November 2002) - Long Last 7 Days Telephone Format - What is the total amount of time you spent over the last 7 days doing moderate physical activities inside your home?: Minutes per week.", "preferredTerm": "IPAQ Long Last 7 Days Telephone Format Version - Moderate Home Minutes per Week", "submissionValue": "IPA0219D", "synonyms": ["IPA02-Moderate Home Minutes per Week"]}, {"conceptId": "C141825", "definition": "International Physical Activity Questionnaire (November 2002) - Long Last 7 Days Telephone Format - Not counting any walking you have already mentioned, during the last 7 days, on how many days did you walk for at least 10 minutes at a time in your leisure time?", "preferredTerm": "IPAQ Long Last 7 Days Telephone Format Version - Days Walk in Your Leisure Time", "submissionValue": "IPA0220", "synonyms": ["IPA02-Days Walk in Your Leisure Time"]}, {"conceptId": "C141826", "definition": "International Physical Activity Questionnaire (November 2002) - Long Last 7 Days Telephone Format - How much time did you usually spend on one of those days walking in your leisure time?: Hours per day.", "preferredTerm": "IPAQ Long Last 7 Days Telephone Format Version - Walking Leisure Hours per Day", "submissionValue": "IPA0221A", "synonyms": ["IPA02-Walking Leisure Hours per Day"]}, {"conceptId": "C141827", "definition": "International Physical Activity Questionnaire (November 2002) - Long Last 7 Days Telephone Format - How much time did you usually spend on one of those days walking in your leisure time?: Minutes per day.", "preferredTerm": "IPAQ Long Last 7 Days Telephone Format Version - Walking Leisure Minutes Per Day", "submissionValue": "IPA0221B", "synonyms": ["IPA02-Walking Leisure Minutes Per Day"]}, {"conceptId": "C141828", "definition": "International Physical Activity Questionnaire (November 2002) - Long Last 7 Days Telephone Format - What is the total amount of time you spent over the last 7 days walking in your leisure time?: Hours per week.", "preferredTerm": "IPAQ Long Last 7 Days Telephone Format Version - Walking Leisure Hours per Week", "submissionValue": "IPA0221C", "synonyms": ["IPA02-Walking Leisure Hours per Week"]}, {"conceptId": "C141829", "definition": "International Physical Activity Questionnaire (November 2002) - Long Last 7 Days Telephone Format - What is the total amount of time you spent over the last 7 days walking in your leisure time?: Minutes per week.", "preferredTerm": "IPAQ Long Last 7 Days Telephone Format Version - Walking Leisure Minutes per Week", "submissionValue": "IPA0221D", "synonyms": ["IPA02-Walking Leisure Minutes per Week"]}, {"conceptId": "C141830", "definition": "International Physical Activity Questionnaire (November 2002) - Long Last 7 Days Telephone Format - During the last 7 days, on how many days did you do vigorous physical activities in your leisure time?", "preferredTerm": "IPAQ Long Last 7 Days Telephone Format Version - Days Vigorous in Your Leisure Time", "submissionValue": "IPA0222", "synonyms": ["IPA02-Days Vigorous in Your Leisure Time"]}, {"conceptId": "C141831", "definition": "International Physical Activity Questionnaire (November 2002) - Long Last 7 Days Telephone Format - How much time did you usually spend on one of those days doing vigorous physical activities in your leisure time?: Hours per day.", "preferredTerm": "IPAQ Long Last 7 Days Telephone Format Version - Vigorous Leisure Hours per Day", "submissionValue": "IPA0223A", "synonyms": ["IPA02-Vigorous Leisure Hours per Day"]}, {"conceptId": "C141832", "definition": "International Physical Activity Questionnaire (November 2002) - Long Last 7 Days Telephone Format - How much time did you usually spend on one of those days doing vigorous physical activities in your leisure time?: Minutes per day.", "preferredTerm": "IPAQ Long Last 7 Days Telephone Format Version - Vigorous Leisure Minutes per Day", "submissionValue": "IPA0223B", "synonyms": ["IPA02-Vigorous Leisure Minutes per Day"]}, {"conceptId": "C141833", "definition": "International Physical Activity Questionnaire (November 2002) - Long Last 7 Days Telephone Format - What is the total amount of time you spent over the last 7 days doing vigorous physical activities in your leisure time?: Hours per week.", "preferredTerm": "IPAQ Long Last 7 Days Telephone Format Version - Vigorous Leisure Hours per Week", "submissionValue": "IPA0223C", "synonyms": ["IPA02-Vigorous Leisure Hours per Week"]}, {"conceptId": "C141834", "definition": "International Physical Activity Questionnaire (November 2002) - Long Last 7 Days Telephone Format - What is the total amount of time you spent over the last 7 days doing vigorous physical activities in your leisure time?: Minutes per week.", "preferredTerm": "IPAQ Long Last 7 Days Telephone Format Version - Vigorous Leisure Minutes per Week", "submissionValue": "IPA0223D", "synonyms": ["IPA02-Vigorous Leisure Minutes per Week"]}, {"conceptId": "C141835", "definition": "International Physical Activity Questionnaire (November 2002) - Long Last 7 Days Telephone Format - During the last 7 days, on how many days did you do moderate physical activities in your leisure time?", "preferredTerm": "IPAQ Long Last 7 Days Telephone Format Version - Days Moderate in Your Leisure Time", "submissionValue": "IPA0224", "synonyms": ["IPA02-Days Moderate in Your Leisure Time"]}, {"conceptId": "C141836", "definition": "International Physical Activity Questionnaire (November 2002) - Long Last 7 Days Telephone Format - How much time did you usually spend on one of those days doing moderate physical activities in your leisure time?: Hours per day.", "preferredTerm": "IPAQ Long Last 7 Days Telephone Format Version - Moderate Leisure Hours per Day", "submissionValue": "IPA0225A", "synonyms": ["IPA02-Moderate Leisure Hours per Day"]}, {"conceptId": "C141837", "definition": "International Physical Activity Questionnaire (November 2002) - Long Last 7 Days Telephone Format - How much time did you usually spend on one of those days doing moderate physical activities in your leisure time?: Minutes per day.", "preferredTerm": "IPAQ Long Last 7 Days Telephone Format Version - Moderate Leisure Minutes per Day", "submissionValue": "IPA0225B", "synonyms": ["IPA02-Moderate Leisure Minutes per Day"]}, {"conceptId": "C141838", "definition": "International Physical Activity Questionnaire (November 2002) - Long Last 7 Days Telephone Format - What is the total amount of time you spent over the last 7 days doing moderate physical activities in your leisure time?: Hours per week.", "preferredTerm": "IPAQ Long Last 7 Days Telephone Format Version - Moderate Leisure Hours per Week", "submissionValue": "IPA0225C", "synonyms": ["IPA02-Moderate Leisure Hours per Week"]}, {"conceptId": "C141839", "definition": "International Physical Activity Questionnaire (November 2002) - Long Last 7 Days Telephone Format - What is the total amount of time you spent over the last 7 days doing moderate physical activities in your leisure time? Minutes per week.", "preferredTerm": "IPAQ Long Last 7 Days Telephone Format Version - Moderate Leisure Minutes per Week", "submissionValue": "IPA0225D", "synonyms": ["IPA02-Moderate Leisure Minutes per Week"]}, {"conceptId": "C141840", "definition": "International Physical Activity Questionnaire (November 2002) - Long Last 7 Days Telephone Format - During the last 7 days, how much time did you usually spend sitting on a weekday?: Hours per day.", "preferredTerm": "IPAQ Long Last 7 Days Telephone Format Version - Sitting Weekday Hours per Day", "submissionValue": "IPA0226A", "synonyms": ["IPA02-Sitting Weekday Hours per Day"]}, {"conceptId": "C141841", "definition": "International Physical Activity Questionnaire (November 2002) - Long Last 7 Days Telephone Format - During the last 7 days, how much time did you usually spend sitting on a weekday?: Minutes per day.", "preferredTerm": "IPAQ Long Last 7 Days Telephone Format Version - Sitting Weekday Minutes per Day", "submissionValue": "IPA0226B", "synonyms": ["IPA02-Sitting Weekday Minutes per Day"]}, {"conceptId": "C141842", "definition": "International Physical Activity Questionnaire (November 2002) - Long Last 7 Days Telephone Format - How much time in total did you spend sitting on Wednesday?: Hours on Wednesday.", "preferredTerm": "IPAQ Long Last 7 Days Telephone Format Version - Sitting Hours on Wednesday", "submissionValue": "IPA0226C", "synonyms": ["IPA02-Sitting Hours on Wednesday"]}, {"conceptId": "C141843", "definition": "International Physical Activity Questionnaire (November 2002) - Long Last 7 Days Telephone Format - How much time in total did you spend sitting on Wednesday?: Minutes per Wednesday.", "preferredTerm": "IPAQ Long Last 7 Days Telephone Format Version - Sitting Minutes per Wednesday", "submissionValue": "IPA0226D", "synonyms": ["IPA02-Sitting Minutes per Wednesday"]}, {"conceptId": "C141844", "definition": "International Physical Activity Questionnaire (November 2002) - Long Last 7 Days Telephone Format - During the last 7 days, how much time did you usually spend sitting on a weekend day?: Hours per day.", "preferredTerm": "IPAQ Long Last 7 Days Telephone Format Version - Sitting Weekend Hours per Day", "submissionValue": "IPA0227A", "synonyms": ["IPA02-Sitting Weekend Hours per Day"]}, {"conceptId": "C141845", "definition": "International Physical Activity Questionnaire (November 2002) - Long Last 7 Days Telephone Format - During the last 7 days, how much time did you usually spend sitting on a weekend day?: Minutes per day.", "preferredTerm": "IPAQ Long Last 7 Days Telephone Format Version - Sitting Weekend Minutes per Day", "submissionValue": "IPA0227B", "synonyms": ["IPA02-Sitting Weekend Minutes per Day"]}, {"conceptId": "C141846", "definition": "International Physical Activity Questionnaire (November 2002) - Long Last 7 Days Telephone Format - How much time in total did you spend sitting on Saturday?: Hours on Saturday.", "preferredTerm": "IPAQ Long Last 7 Days Telephone Format Version - Sitting Hours on Saturday", "submissionValue": "IPA0227C", "synonyms": ["IPA02-Sitting Hours on Saturday"]}, {"conceptId": "C141847", "definition": "International Physical Activity Questionnaire (November 2002) - Long Last 7 Days Telephone Format - How much time in total did you spend sitting on Saturday?: Minutes per Saturday.", "preferredTerm": "IPAQ Long Last 7 Days Telephone Format Version - Sitting Minutes per Saturday", "submissionValue": "IPA0227D", "synonyms": ["IPA02-Sitting Minutes per Saturday"]}]}