{"_links": {"parentPackage": {"href": "/mdr/ct/packages/sdtmct-2019-03-29", "title": "SDTM Controlled Terminology Package 37 Effective 2019-03-29", "type": "Terminology"}, "priorVersion": {"href": "/mdr/ct/packages/sdtmct-2018-12-21/codelists/C141662", "title": "CDISC Functional Test 4 Stair Ascend Test Name Terminology", "type": "Code List"}, "rootItem": {"href": "/mdr/root/ct/sdtmct/codelists/C141662", "title": "Version-agnostic anchor resource for codelist C141662", "type": "Root Value Domain"}, "self": {"href": "/mdr/ct/packages/sdtmct-2019-03-29/codelists/C141662", "title": "CDISC Functional Test 4 Stair Ascend Test Name Terminology", "type": "Code List"}}, "conceptId": "C141662", "definition": "4 Stair Ascend test name.", "extensible": "false", "name": "4 Stair Ascend Functional Test Test Name", "preferredTerm": "CDISC Functional Test 4 Stair Ascend Test Name Terminology", "submissionValue": "A4STR1TN", "synonyms": ["4 Stair Ascend Functional Test Test Name"], "terms": [{"conceptId": "C141707", "definition": "4 Stair Ascend - Test grade.", "preferredTerm": "4 Stair Ascend - Test Grade", "submissionValue": "A4STR1-Test Grade", "synonyms": ["A4STR1-Test Grade"]}, {"conceptId": "C141706", "definition": "4 Stair Ascend - Time taken to ascend 4 stairs.", "preferredTerm": "4 Stair Ascend - Time to Ascend 4 Stairs", "submissionValue": "A4STR1-Time to Ascend 4 Stairs", "synonyms": ["A4STR1-Time to Ascend 4 Stairs"]}, {"conceptId": "C147590", "definition": "4 Stair Ascend - Did subject wear orthoses?", "preferredTerm": "4 Stair Ascend - Wear Orthoses", "submissionValue": "A4STR1-Wear Orthoses", "synonyms": ["A4STR1-Wear Orthoses"]}]}