{"_links": {"parentPackage": {"href": "/mdr/ct/packages/sdtmct-2019-03-29", "title": "SDTM Controlled Terminology Package 37 Effective 2019-03-29", "type": "Terminology"}, "priorVersion": {"href": "/mdr/ct/packages/sdtmct-2018-12-21/codelists/C150766", "title": "CDISC Functional Test COWAT Test Code Terminology", "type": "Code List"}, "rootItem": {"href": "/mdr/root/ct/sdtmct/codelists/C150766", "title": "Version-agnostic anchor resource for codelist C150766", "type": "Root Value Domain"}, "self": {"href": "/mdr/ct/packages/sdtmct-2019-03-29/codelists/C150766", "title": "CDISC Functional Test COWAT Test Code Terminology", "type": "Code List"}}, "conceptId": "C150766", "definition": "Controlled Oral Word Association Test test code.", "extensible": "false", "name": "Controlled Oral Word Association Test Functional Test Test Code", "preferredTerm": "CDISC Functional Test COWAT Test Code Terminology", "submissionValue": "COWAT1TC", "synonyms": ["Controlled Oral Word Association Test Functional Test Test Code"], "terms": [{"conceptId": "C150922", "definition": "Controlled Oral Word Association Test - Can you tell me another word that begins with R?", "preferredTerm": "COWAT - Another Word That Begins With R", "submissionValue": "COWAT101", "synonyms": ["COWAT1-Another Word That Begins With R"]}, {"conceptId": "C150923", "definition": "Controlled Oral Word Association Test - Number correct words: Now I'm going to give you another letter, and again, say all words beginning with that letter that you can think of. You will have a minute for each one. The first letter is C.", "preferredTerm": "COWAT - Number Correct Words: C", "submissionValue": "COWAT102", "synonyms": ["COWAT1-Number Correct Words: C"]}, {"conceptId": "C150924", "definition": "Controlled Oral Word Association Test - Number correct words: Now I am going to give another letter. Tell me as many words as you can that begin with F. Tell me as many words as quickly as you can that begin with F.", "preferredTerm": "COWAT - Number Correct Words: F", "submissionValue": "COWAT103", "synonyms": ["COWAT1-Number Correct Words: F"]}, {"conceptId": "C150925", "definition": "Controlled Oral Word Association Test - Number correct words: Now I am going to give another letter. Tell me as many words as you can that begin with L. Tell me as many words as quickly as you can that begin with L.", "preferredTerm": "COWAT - Number Correct Words: L", "submissionValue": "COWAT104", "synonyms": ["COWAT1-Number Correct Words: L"]}]}