{"_links": {"parentPackage": {"href": "/mdr/ct/packages/sdtmct-2019-03-29", "title": "SDTM Controlled Terminology Package 37 Effective 2019-03-29", "type": "Terminology"}, "rootItem": {"href": "/mdr/root/ct/sdtmct/codelists/C158113", "title": "Version-agnostic anchor resource for codelist C158113", "type": "Root Value Domain"}, "self": {"href": "/mdr/ct/packages/sdtmct-2019-03-29/codelists/C158113", "title": "CDISC SDTM QRS Method Terminology", "type": "Code List"}}, "conceptId": "C158113", "definition": "Terminology relevant to the technique or procedure used to determine how the response or result for an item in a questionnaire, rating, or scale was determined.", "extensible": "true", "name": "QRS Method", "preferredTerm": "CDISC SDTM QRS Method Terminology", "submissionValue": "QRSMTHOD", "synonyms": ["QRS Method"], "terms": [{"conceptId": "C158270", "definition": "A questionnaire, rating and scale (QRS) data type using a 11-point numeric rating scale (NRS).", "preferredTerm": "Numerical Rating Scale 11-Point", "submissionValue": "NUMERICAL RATING SCALE 11-POINT", "synonyms": ["Numerical Rating Scale 11-Point"]}, {"conceptId": "C158271", "definition": "A questionnaire, rating and scale (QRS) data type using a 4-point verbal rating scale (VRS).", "preferredTerm": "Verbal Rating Scale 4-Point", "submissionValue": "VERBAL RATING SCALE 4-POINT", "synonyms": ["Verbal Rating Scale 4-Point"]}, {"conceptId": "C158272", "definition": "A questionnaire, rating and scale (QRS) data type using a 5-point verbal rating scale (VRS).", "preferredTerm": "Verbal Rating Scale 5-Point", "submissionValue": "VERBAL RATING SCALE 5-POINT", "synonyms": ["Verbal Rating Scale 5-Point"]}, {"conceptId": "C158273", "definition": "A questionnaire, rating and scale (QRS) data type using a 6-point verbal rating scale (VRS).", "preferredTerm": "Verbal Rating Scale 6-Point", "submissionValue": "VERBAL RATING SCALE 6-POINT", "synonyms": ["Verbal Rating Scale 6-Point"]}, {"conceptId": "C158268", "definition": "A questionnaire, rating and scale (QRS) data type using a visual analog scale (VAS) 100 mm scale.", "preferredTerm": "Visual Analog Scale (100 mm)", "submissionValue": "VISUAL ANALOG SCALE (100 MM)", "synonyms": ["Visual Analog Scale (100 mm)"]}, {"conceptId": "C158269", "definition": "A questionnaire, rating and scale (QRS) data type using a visual analog scale (VAS) 50 mm scale.", "preferredTerm": "Visual Analog Scale (50 mm)", "submissionValue": "VISUAL ANALOG SCALE (50 MM)", "synonyms": ["Visual Analog Scale (50 mm)"]}]}