{"_links": {"parentPackage": {"href": "/mdr/ct/packages/sdtmct-2019-03-29", "title": "SDTM Controlled Terminology Package 37 Effective 2019-03-29", "type": "Terminology"}, "priorVersion": {"href": "/mdr/ct/packages/sdtmct-2018-12-21/codelists/C95121", "title": "CDISC SDTM Physical Properties Test Code Terminology", "type": "Code List"}, "rootItem": {"href": "/mdr/root/ct/sdtmct/codelists/C95121", "title": "Version-agnostic anchor resource for codelist C95121", "type": "Root Value Domain"}, "self": {"href": "/mdr/ct/packages/sdtmct-2019-03-29/codelists/C95121", "title": "CDISC SDTM Physical Properties Test Code Terminology", "type": "Code List"}}, "conceptId": "C95121", "definition": "Terminology relevant to the test codes that describe the physical characteristics of an entity.", "extensible": "true", "name": "Physical Properties Test Code", "preferredTerm": "CDISC SDTM Physical Properties Test Code Terminology", "submissionValue": "PHSPRPCD", "synonyms": ["Physical Properties Test Code"], "terms": [{"conceptId": "C37927", "definition": "The appearance of objects (or light sources) described in terms of a person's perception of their hue and lightness (or brightness) and saturation. (NCI)", "preferredTerm": "Color", "submissionValue": "COLOR", "synonyms": ["Color"]}, {"conceptId": "C95110", "definition": "A description about the firmness or make-up of an entity.", "preferredTerm": "Consistency", "submissionValue": "CONSIST", "synonyms": ["Consistency"]}, {"conceptId": "C25333", "definition": "The extent downward or inward; the perpendicular measurement from the surface downward to determine deepness. (NCI)", "preferredTerm": "Depth", "submissionValue": "DEPTH", "synonyms": ["Depth"]}, {"conceptId": "C25365", "definition": "A written or verbal account, representation, statement, or explanation of something. (NCI)", "preferredTerm": "Description", "submissionValue": "DESCR", "synonyms": ["Description"]}, {"conceptId": "C25285", "definition": "The length of a straight line passing through the center of a circle or sphere and connecting two points on the circumference. (NCI)", "preferredTerm": "Diameter", "submissionValue": "DIAMETER", "synonyms": ["Diameter"]}, {"conceptId": "C95109", "definition": "A description of the quantity or quality of the hair or fur covering a biological entity. (NCI)", "preferredTerm": "Hair or Fur Cover", "submissionValue": "HAIRCOV", "synonyms": ["Hair Cover"]}, {"conceptId": "C25334", "definition": "The linear extent in space from one end of something to the other end, or the extent of something from beginning to end. (NCI)", "preferredTerm": "Length", "submissionValue": "LENGTH", "synonyms": ["Length"]}, {"conceptId": "C25677", "definition": "The spatial arrangement of something as distinct from its substance. (NCI)", "preferredTerm": "Shape", "submissionValue": "SHAPE", "synonyms": ["Shape"]}, {"conceptId": "C25757", "definition": "The formation or development of an ulcer. (NCI)", "preferredTerm": "Ulceration", "submissionValue": "ULCER", "synonyms": ["Ulceration"]}, {"conceptId": "C25345", "definition": "The extent or measurement of something from side to side. (NCI)", "preferredTerm": "Width", "submissionValue": "WIDTH", "synonyms": ["Width"]}]}