{"_links": {"parentPackage": {"href": "/mdr/ct/packages/cdashct-2019-03-29", "title": "CDASH Controlled Terminology Package 37 Effective 2019-03-29", "type": "Terminology"}, "priorVersion": {"href": "/mdr/ct/packages/cdashct-2018-12-21/codelists/C78428", "title": "CDISC CDASH Total Volume Administration Unit Terminology", "type": "Code List"}, "rootItem": {"href": "/mdr/root/ct/cdashct/codelists/C78428", "title": "Version-agnostic anchor resource for codelist C78428", "type": "Root Value Domain"}, "self": {"href": "/mdr/ct/packages/cdashct-2019-03-29/codelists/C78428", "title": "CDISC CDASH Total Volume Administration Unit Terminology", "type": "Code List"}}, "conceptId": "C78428", "definition": "A terminology subset of the CDISC SDTM Unit codelist created for CDASH Total Volume Administration Unit codelist. (NCI)", "extensible": "true", "name": "Total Volume Administration Unit", "preferredTerm": "CDISC CDASH Total Volume Administration Unit Terminology", "submissionValue": "EXVOLTU", "synonyms": ["Total Volume Administration Unit"], "terms": [{"conceptId": "C28254", "definition": "A unit of volume equal to one thousandth (1E-3) of a liter.", "preferredTerm": "Milliliter", "submissionValue": "mL", "synonyms": ["Milliliter", "cm3"]}, {"conceptId": "C28253", "definition": "A unit of mass equal to one thousandth (1E-3) of a gram.", "preferredTerm": "Milligram", "submissionValue": "mg", "synonyms": ["Milligram"]}, {"conceptId": "C48152", "definition": "A unit of mass equal to one millionth (1E-6) of a gram.", "preferredTerm": "Microgram", "submissionValue": "ug", "synonyms": ["Microgram", "mcg"]}]}