{"_links": {"parentPackage": {"href": "/mdr/ct/packages/define-xmlct-2020-12-18", "title": "DEFINE-XML Controlled Terminology Package 44 Effective 2020-12-18", "type": "Terminology"}, "priorVersion": {"href": "/mdr/ct/packages/define-xmlct-2020-11-06/codelists/C165636", "title": "CDISC Define-XML ADaM Integrated Basic Data Structure Subclass Terminology", "type": "Code List"}, "rootItem": {"href": "/mdr/root/ct/define-xmlct/codelists/C165636", "title": "Version-agnostic anchor resource for codelist C165636", "type": "Root Value Domain"}, "self": {"href": "/mdr/ct/packages/define-xmlct-2020-12-18/codelists/C165636", "title": "CDISC Define-XML ADaM Integrated Basic Data Structure Subclass Terminology", "type": "Code List"}}, "conceptId": "C165636", "definition": "Terminology relevant to the subclasses of the ADaM integrated basic data structure.", "extensible": "false", "name": "ADaM Integrated Basic Data Structure Subclass", "preferredTerm": "CDISC Define-XML ADaM Integrated Basic Data Structure Subclass Terminology", "submissionValue": "BDSISC", "synonyms": ["ADaM Integrated Basic Data Structure Subclass"], "terms": [{"conceptId": "C165637", "definition": "A dataset containing data that is used for Time-to-Event analyses.", "preferredTerm": "Time-to-Event Dataset", "submissionValue": "TIME-TO-EVENT", "synonyms": ["TTE"]}]}