{"_links": {"parentPackage": {"href": "/mdr/ct/packages/define-xmlct-2020-12-18", "title": "DEFINE-XML Controlled Terminology Package 44 Effective 2020-12-18", "type": "Terminology"}, "priorVersion": {"href": "/mdr/ct/packages/define-xmlct-2020-11-06/codelists/C170450", "title": "CDISC Define-XML Origin Source Terminology", "type": "Code List"}, "rootItem": {"href": "/mdr/root/ct/define-xmlct/codelists/C170450", "title": "Version-agnostic anchor resource for codelist C170450", "type": "Root Value Domain"}, "self": {"href": "/mdr/ct/packages/define-xmlct-2020-12-18/codelists/C170450", "title": "CDISC Define-XML Origin Source Terminology", "type": "Code List"}}, "conceptId": "C170450", "definition": "Terminology relevant to the origin source for datasets in the Define-XML document.", "extensible": "false", "name": "Origin Source", "preferredTerm": "CDISC Define-XML Origin Source Terminology", "submissionValue": "ORIGINS", "synonyms": ["Origin Source"], "terms": [{"conceptId": "C25936", "definition": "A person responsible for the conduct of the clinical trial at a trial site. If a trial is conducted by a team of individuals at the trial site, the investigator is the responsible leader of the team and may be called the principle investigator.", "preferredTerm": "Investigator", "submissionValue": "Investigator"}, {"conceptId": "C70793", "definition": "An entity that is responsible for the initiation, management, and/or financing of a clinical study.", "preferredTerm": "Clinical Study Sponsor", "submissionValue": "Sponsor", "synonyms": ["Clinical Study Sponsor", "Sponsor", "Study Sponsor"]}, {"conceptId": "C41189", "definition": "An individual who is observed, analyzed, examined, investigated, experimented upon, or/and treated in the course of a particular study.", "preferredTerm": "Study Subject", "submissionValue": "Subject"}, {"conceptId": "C68608", "definition": "A person or agency that promotes or exchanges goods or services for money. (NCI)", "preferredTerm": "Vendor", "submissionValue": "Vendor"}]}