{"_links": {"parentPackage": {"href": "/mdr/ct/packages/define-xmlct-2020-12-18", "title": "DEFINE-XML Controlled Terminology Package 44 Effective 2020-12-18", "type": "Terminology"}, "priorVersion": {"href": "/mdr/ct/packages/define-xmlct-2020-11-06/codelists/C172331", "title": "CDISC Define-XML CDISC Controlled Terminology Standard Type Terminology", "type": "Code List"}, "rootItem": {"href": "/mdr/root/ct/define-xmlct/codelists/C172331", "title": "Version-agnostic anchor resource for codelist C172331", "type": "Root Value Domain"}, "self": {"href": "/mdr/ct/packages/define-xmlct-2020-12-18/codelists/C172331", "title": "CDISC Define-XML CDISC Controlled Terminology Standard Type Terminology", "type": "Code List"}}, "conceptId": "C172331", "definition": "Terminology relevant to the classification of the CDISC controlled terminology standard described in the Define-XML document.", "extensible": "true", "name": "CDISC Controlled Terminology Standard Type", "preferredTerm": "CDISC Define-XML CDISC Controlled Terminology Standard Type Terminology", "submissionValue": "CTSTDTYP", "synonyms": ["CDISC Controlled Terminology Standard Type"], "terms": [{"conceptId": "C81222", "definition": "The terminology subset that includes terms pertaining to the Clinical Data Interchange Standards Consortium (CDISC) Analysis Data Model (ADaM).", "preferredTerm": "CDISC ADaM Terminology", "submissionValue": "ADaM"}, {"conceptId": "C77527", "definition": "The terminology subset that includes terms relevant to the Clinical Data Interchange Standards Consortium (CDISC) Clinical Data Acquisition Standards Harmonization (CDASH) group.", "preferredTerm": "CDISC CDASH Terminology", "submissionValue": "CDASH"}, {"conceptId": "C165634", "definition": "The terminology subset that includes terms relevant to the Clinical Data Interchange Standards Consortium (CDISC) Define-XML standard.", "preferredTerm": "CDISC Define-XML Terminology", "submissionValue": "DEFINE-XML"}, {"conceptId": "C66830", "definition": "The terminology subset that includes terms pertaining to the Clinical Data Interchange Standards Consortium (CDISC) Study Data Tabulation Model (SDTM).", "preferredTerm": "CDISC SDTM Terminology", "submissionValue": "SDTM"}, {"conceptId": "C77526", "definition": "The terminology subset that includes terms relevant to the Clinical Data Interchange Standards Consortium (CDISC) Standard for Exchange of Non-clinical Data (SEND) group.", "preferredTerm": "CDISC SEND Terminology", "submissionValue": "SEND"}]}