{"_links": {"parentPackage": {"href": "/mdr/ct/packages/sendct-2018-09-28", "title": "SEND Controlled Terminology Package 35 Effective 2018-09-28", "type": "Terminology"}, "priorVersion": {"href": "/mdr/ct/packages/sendct-2018-06-29/codelists/C128685", "title": "CDISC SDTM PK Unit of Measure Milligram Dose Terminology", "type": "Code List"}, "rootItem": {"href": "/mdr/root/ct/sendct/codelists/C128685", "title": "Version-agnostic anchor resource for codelist C128685", "type": "Root Value Domain"}, "self": {"href": "/mdr/ct/packages/sendct-2018-09-28/codelists/C128685", "title": "CDISC SDTM PK Unit of Measure Milligram Dose Terminology", "type": "Code List"}}, "conceptId": "C128685", "definition": "Units of measure for pharmacokinetic parameters normalized by dose amount in milligrams.", "extensible": "true", "name": "PK Units of Measure - Dose mg", "preferredTerm": "CDISC SDTM PK Unit of Measure Milligram Dose Terminology", "submissionValue": "PKUDMG", "synonyms": ["PK Units of Measure - Dose mg"], "terms": [{"conceptId": "C120728", "definition": "Liters per day (flow rate), divided by milligrams per day (daily dose) or milliliters per day (flow rate), divided by micrograms per day (daily dose).", "preferredTerm": "Liter per Day per Milligram per Day", "submissionValue": "(L/day)/(mg/day)", "synonyms": ["(L/day)/(mg/day)", "(mL/day)/(ug/day)"]}, {"conceptId": "C120729", "definition": "Liters per day (flow rate), divided by milligrams per kilogram (dose normalized by body weight) or milliliters per day (flow rate), divided by micrograms per kilogram (dose normalized by body weight).", "preferredTerm": "Liter per Day per Milligram per Kilogram", "submissionValue": "(L/day)/(mg/kg)", "synonyms": ["(L/day)/(mg/kg)", "(mL/day)/(ug/kg)"]}, {"conceptId": "C120730", "definition": "Liters per day (flow rate), divided by milligrams per kilogram per day (daily dose normalized by body weight) or milliliters per day (flow rate), divided by micrograms per kilogram per day (daily dose normalized by body weight).", "preferredTerm": "Liter per Day per Milligram per Kilogram per Day", "submissionValue": "(L/day)/(mg/kg/day)", "synonyms": ["(L/day)/(mg/kg/day)", "(mL/day)/(ug/kg/day)"]}, {"conceptId": "C120731", "definition": "Liters per day (flow rate), divided by milligrams per meter squared (dose normalized by surface area) or milliliters per day (flow rate), divided by micrograms per meter squared (dose normalized by surface area).", "preferredTerm": "Liter per Day per Milligram per Meter Squared", "submissionValue": "(L/day)/(mg/m2)", "synonyms": ["(L/day)/(mg/m2)", "(mL/day)/(ug/m2)"]}, {"conceptId": "C120732", "definition": "Liters per day (flow rate), divided by milligrams per meter squared per day (daily dose normalized by surface area) or milliliters per day (flow rate), divided by micrograms per meter squared per day (daily dose normalized by surface area).", "preferredTerm": "Liter per Day per Milligram per Meter Squared per Day", "submissionValue": "(L/day)/(mg/m2/day)", "synonyms": ["(L/day)/(mg/m2/day)", "(mL/day)/(ug/m2/day)"]}, {"conceptId": "C85672", "definition": "Liters per day (flow rate), divided by milligrams (dose) or milliliters per day (flow rate), divided by micrograms (dose).", "preferredTerm": "Liter per Milligram per Day", "submissionValue": "(L/day)/mg", "synonyms": ["(L/day)/mg", "(mL/day)/ug"]}, {"conceptId": "C120740", "definition": "Liters per hour (flow rate), divided by milligrams per day (daily dose) or milliliters per hour (flow rate), divided by micrograms per day (daily dose).", "preferredTerm": "Liter per Hour per Milligram per Day", "submissionValue": "(L/h)/(mg/day)", "synonyms": ["(L/h)/(mg/day)", "(mL/h)/(ug/day)"]}, {"conceptId": "C120741", "definition": "Liters per hour (flow rate), divided by milligrams per kilogram (dose normalized by body weight) or milliliters per hour (flow rate), divided by micrograms per kilogram (dose normalized by body weight).", "preferredTerm": "Liter per Hour per Milligram per Kilogram", "submissionValue": "(L/h)/(mg/kg)", "synonyms": ["(L/h)/(mg/kg)", "(mL/h)/(ug/kg)"]}, {"conceptId": "C120742", "definition": "Liters per hour (flow rate), divided by milligrams per kilogram per day (daily dose normalized by body weight) or milliliters per hour (flow rate), divided by micrograms per kilogram per day (daily dose normalized by body weight).", "preferredTerm": "Liter per Hour per Milligram per Kilogram per Day", "submissionValue": "(L/h)/(mg/kg/day)", "synonyms": ["(L/h)/(mg/kg/day)", "(mL/h)/(ug/kg/day)"]}, {"conceptId": "C120743", "definition": "Liters per hour (flow rate), divided by milligrams per meter squared (dose normalized by surface area) or milliliters per hour (flow rate), divided by micrograms per meter squared (dose normalized by surface area).", "preferredTerm": "Liter per Hour per Milligram per Meter Squared", "submissionValue": "(L/h)/(mg/m2)", "synonyms": ["(L/h)/(mg/m2)", "(mL/h)/(ug/m2)"]}, {"conceptId": "C120744", "definition": "Liters per hour (flow rate), divided by milligrams per meter squared per day (daily dose normalized by surface area) or milliliters per hour (flow rate), divided by micrograms per meter squared per day (daily dose normalized by surface area).", "preferredTerm": "Liter per Hour per Milligram per Meter Squared per Day", "submissionValue": "(L/h)/(mg/m2/day)", "synonyms": ["(L/h)/(mg/m2/day)", "(mL/h)/(ug/m2/day)"]}, {"conceptId": "C85673", "definition": "Liters per hour (flow rate), divided by milligrams (dose) or milliliters per hour (flow rate), divided by micrograms (dose).", "preferredTerm": "Liter per Milligram per Hour", "submissionValue": "(L/h)/mg", "synonyms": ["(L/h)/mg", "(mL/h)/ug"]}, {"conceptId": "C120751", "definition": "Liters per minute (flow rate), divided by milligrams per day (daily dose) or milliliters per minute (flow rate), divided by micrograms per day (daily dose).", "preferredTerm": "Liter per Minute per Milligram per Day", "submissionValue": "(L/min)/(mg/day)", "synonyms": ["(L/min)/(mg/day)", "(mL/min)/(ug/day)"]}, {"conceptId": "C120752", "definition": "Liters per minute (flow rate), divided by milligrams per kilogram (dose normalized by body weight) or milliliters per minute (flow rate), divided by micrograms per kilogram (dose normalized by body weight).", "preferredTerm": "Liter per Minute per Milligram per Kilogram", "submissionValue": "(L/min)/(mg/kg)", "synonyms": ["(L/min)/(mg/kg)", "(mL/min)/(ug/kg)"]}, {"conceptId": "C120753", "definition": "Liters per minute (flow rate), divided by milligrams per kilogram per day (daily dose normalized by body weight) or milliliters per minute (flow rate), divided by micrograms per kilogram per day (daily dose normalized by body weight).", "preferredTerm": "Liter per Minute per Milligram per Kilogram per Day", "submissionValue": "(L/min)/(mg/kg/day)", "synonyms": ["(L/min)/(mg/kg/day)", "(mL/min)/(ug/kg/day)"]}, {"conceptId": "C120754", "definition": "Liters per minute (flow rate), divided by milligrams per meter squared (dose normalized by surface area) or milliliters per minute (flow rate), divided by micrograms per meter squared (dose normalized by surface area).", "preferredTerm": "Liter per Minute per Milligram per Meter Squared", "submissionValue": "(L/min)/(mg/m2)", "synonyms": ["(L/min)/(mg/m2)", "(mL/min)/(ug/m2)"]}, {"conceptId": "C120755", "definition": "Liters per minute (flow rate), divided by milligrams per meter squared per day (daily dose normalized by surface area) or milliliters per minute (flow rate), divided by micrograms per meter squared per day (daily dose normalized by surface area).", "preferredTerm": "Liter per Minute per Milligram per Meter Squared per Day", "submissionValue": "(L/min)/(mg/m2/day)", "synonyms": ["(L/min)/(mg/m2/day)", "(mL/min)/(ug/m2/day)"]}, {"conceptId": "C85674", "definition": "Liters per minute (flow rate), divided by milligrams (dose) or milliliters per minute (flow rate), divided by micrograms (dose).", "preferredTerm": "Liter per Milligram per Minute", "submissionValue": "(L/min)/mg", "synonyms": ["(L/min)/mg", "(mL/min)/ug"]}, {"conceptId": "C120762", "definition": "Milliliters per day (flow rate), divided by milligrams per day (daily dose).", "preferredTerm": "Milliliter per Day per Milligram per Day", "submissionValue": "(mL/day)/(mg/day)"}, {"conceptId": "C120763", "definition": "Milliliters per day (flow rate), divided by milligrams per kilogram (dose normalized by body weight).", "preferredTerm": "Milliliter per Day per Milligram per Kilogram", "submissionValue": "(mL/day)/(mg/kg)"}, {"conceptId": "C120764", "definition": "Milliliters per day (flow rate), divided by milligrams per kilogram per day (daily dose normalized by body weight).", "preferredTerm": "Milliliter per Day per Milligram per Kilogram per Day", "submissionValue": "(mL/day)/(mg/kg/day)"}, {"conceptId": "C120765", "definition": "Milliliters per day (flow rate), divided by milligrams per meter squared (dose normalized by surface area).", "preferredTerm": "Milliliter per Day per Milligram per Meter Squared", "submissionValue": "(mL/day)/(mg/m2)"}, {"conceptId": "C120766", "definition": "Milliliters per day (flow rate), divided by milligrams per meter squared per day (daily dose normalized by surface area).", "preferredTerm": "Milliliter per Day per Milligram per Meter Squared per Day", "submissionValue": "(mL/day)/(mg/m2/day)"}, {"conceptId": "C85657", "definition": "Liters per day (flow rate), divided by grams (weight) or milliliters per day (flow rate), divided by milligrams (dose).", "preferredTerm": "Liter per Gram per Day", "submissionValue": "(mL/day)/mg", "synonyms": ["(L/day)/g", "(mL/day)/mg"]}, {"conceptId": "C120777", "definition": "Milliliters per hour (flow rate), divided by milligrams per day (daily dose).", "preferredTerm": "Milliliter per Hour per Milligram per Day", "submissionValue": "(mL/h)/(mg/day)"}, {"conceptId": "C120778", "definition": "Milliliters per hour (flow rate), divided by milligrams per kilogram (dose normalized by body weight).", "preferredTerm": "Milliliter per Hour per Milligram per Kilogram", "submissionValue": "(mL/h)/(mg/kg)"}, {"conceptId": "C120779", "definition": "Milliliters per hour (flow rate), divided by milligrams per kilogram per day (daily dose normalized by body weight).", "preferredTerm": "Milliliter per Hour per Milligram per Kilogram per Day", "submissionValue": "(mL/h)/(mg/kg/day)"}, {"conceptId": "C120780", "definition": "Milliliters per hour (flow rate), divided by milligrams per meter squared (dose normalized by surface area).", "preferredTerm": "Milliliter per Hour per Milligram per Meter Squared", "submissionValue": "(mL/h)/(mg/m2)"}, {"conceptId": "C120781", "definition": "Milliliters per hour (flow rate), divided by milligrams per meter squared per day (daily dose normalized by surface area).", "preferredTerm": "Milliliter per Hour per Milligram per Meter Squared per Day", "submissionValue": "(mL/h)/(mg/m2/day)"}, {"conceptId": "C85658", "definition": "Liters per hour (flow rate), divided by grams (weight) or milliliters per hour (flow rate), divided by milligrams (dose).", "preferredTerm": "Liter per Gram per Hour", "submissionValue": "(mL/h)/mg", "synonyms": ["(L/h)/g", "(mL/h)/mg"]}, {"conceptId": "C120792", "definition": "Milliliters per minute (flow rate), divided by milligrams per day (daily dose).", "preferredTerm": "Milliliter per Minute per Milligram per Day", "submissionValue": "(mL/min)/(mg/day)"}, {"conceptId": "C120793", "definition": "Milliliters per minute (flow rate), divided by milligrams per kilogram (dose normalized by body weight).", "preferredTerm": "Milliliter per Minute per Milligram per Kilogram", "submissionValue": "(mL/min)/(mg/kg)"}, {"conceptId": "C120794", "definition": "Milliliters per minute (flow rate), divided by milligrams per kilogram per day (daily dose normalized by body weight).", "preferredTerm": "Milliliter per Minute per Milligram per Kilogram per Day", "submissionValue": "(mL/min)/(mg/kg/day)"}, {"conceptId": "C120795", "definition": "Milliliters per minute (flow rate), divided by milligrams per meter squared (dose normalized by surface area).", "preferredTerm": "Milliliter per Minute per Milligram per Meter Squared", "submissionValue": "(mL/min)/(mg/m2)"}, {"conceptId": "C120796", "definition": "Milliliters per minute (flow rate), divided by milligrams per meter squared per day (daily dose normalized by surface area).", "preferredTerm": "Milliliter per Minute per Milligram per Meter Squared per Day", "submissionValue": "(mL/min)/(mg/m2/day)"}, {"conceptId": "C85659", "definition": "Liters per minute (flow rate), divided by grams (weight) or milliliters per minute (flow rate), divided by milligrams (dose).", "preferredTerm": "Liter per Gram per Minute", "submissionValue": "(mL/min)/mg", "synonyms": ["(L/min)/g", "(mL/min)/mg"]}, {"conceptId": "C119367", "definition": "International units per milliliter (concentration), divided by milligrams per day (daily dose) or milli-international units per milliliter (concentration), divided by micrograms per day (daily dose).", "preferredTerm": "International Unit per Milliliter per Milligram per Day", "submissionValue": "IU/mL/(mg/day)", "synonyms": ["IU/mL/(mg/day)", "mIU/mL/(ug/day)"]}, {"conceptId": "C119368", "definition": "International units per milliliter (concentration), divided by milligrams per kilogram (dose normalized by body weight) or milli-international units per milliliter (concentration), divided by micrograms per kilogram (dose normalized by body weight).", "preferredTerm": "International Unit per Milliliter per Milligram per Kilogram", "submissionValue": "IU/mL/(mg/kg)", "synonyms": ["IU/mL/(mg/kg)", "mIU/mL/(ug/kg)"]}, {"conceptId": "C119369", "definition": "International units per milliliter (concentration), divided by milligrams per kilogram per day (daily dose normalized by body weight) or milli-international units per milliliter (concentration), divided by micrograms per kilogram per day (daily dose normalized by body weight).", "preferredTerm": "International Unit per Milliliter per Milligram per Kilogram per Day", "submissionValue": "IU/mL/(mg/kg/day)", "synonyms": ["IU/mL/(mg/kg/day)", "mIU/mL/(ug/kg/day)"]}, {"conceptId": "C119370", "definition": "International units per milliliter (concentration), divided by milligrams per meter squared (dose normalized by surface area) or milli-international units per milliliter (concentration), divided by micrograms per meter squared (dose normalized by surface area).", "preferredTerm": "International Unit per Milliliter per Milligram per Meter Squared", "submissionValue": "IU/mL/(mg/m2)", "synonyms": ["IU/mL/(mg/m2)", "mIU/mL/(ug/m2)"]}, {"conceptId": "C119371", "definition": "International units per milliliter (concentration), divided by milligrams per meter squared per day (daily dose normalized by surface area) or milli-international units per milliliter (concentration), divided by micrograms per meter squared per day (daily dose normalized by surface area).", "preferredTerm": "International Unit per Milliliter per Milligram per Meter Squared per Day", "submissionValue": "IU/mL/(mg/m2/day)", "synonyms": ["IU/mL/(mg/m2/day)", "mIU/mL/(ug/m2/day)"]}, {"conceptId": "C119380", "definition": "International units per milliliter (concentration), divided by milligrams (dose) or milli-international units per milliliter (concentration), divided by micrograms (dose).", "preferredTerm": "International Unit per Milliliter per Milligram", "submissionValue": "IU/mL/mg", "synonyms": ["IU/mL/mg", "mIU/mL/ug"]}, {"conceptId": "C120807", "definition": "Liters (volume), divided by milligrams per kilogram (dose normalized by body weight).", "preferredTerm": "Liter per Milligram per Kilogram", "submissionValue": "L/(mg/kg)"}, {"conceptId": "C120808", "definition": "Liters (volume), divided by milligrams per kilogram per day (daily dose normalized by body weight) or milliliters (volume), divided by micrograms per kilogram per day (daily dose normalized by body weight).", "preferredTerm": "Liter per Milligram per Kilogram per Day", "submissionValue": "L/(mg/kg/day)", "synonyms": ["L/(mg/kg/day)", "mL/(ug/kg/day)"]}, {"conceptId": "C120809", "definition": "Liters (volume), divided by milligrams per meter squared per day (daily dose normalized by surface area) or milliliters (volume), divided by micrograms per meter squared per day (daily dose normalized by surface area).", "preferredTerm": "Liter per Milligram per Meter Squared per Day", "submissionValue": "L/(mg/m2/day)", "synonyms": ["L/(mg/m2/day)", "mL/(ug/m2/day)"]}, {"conceptId": "C124417", "definition": "Liters (volume), divided by milligrams (dose) or milliliters (volume), divided by micrograms (dose).", "preferredTerm": "Liter per Milligram", "submissionValue": "L/mg", "synonyms": ["L/mg", "mL/ug"]}, {"conceptId": "C132444", "definition": "Days times micrograms per milliliter (area under the curve), divided by milligrams per kilogram (dose normalized by body weight).", "preferredTerm": "Day Times Microgram per Milliliter Times Kilogram per Milligram", "submissionValue": "day*ug/mL/(mg/kg)"}, {"conceptId": "C112247", "definition": "Days times grams per milliliter (area under the curve), divided by kilograms (weight); or days times milligrams per milliliter (area under the curve), divided by grams (weight); or days times micrograms per milliliter (area under the curve), divided by milligrams (dose); or days times nanograms per milliliter (area under the curve), divided by micrograms (dose).", "preferredTerm": "Day Times Gram Per Milliliter Per Kilogram", "submissionValue": "day*ug/mL/mg", "synonyms": ["day*g/mL/kg", "day*mg/mL/g", "day*ng/mL/ug", "day*ug/mL/mg"]}, {"conceptId": "C119337", "definition": "Femtograms per milliliter (concentration), divided by milligrams per day (daily dose).", "preferredTerm": "Femtogram per Milliliter per Milligram per Day", "submissionValue": "fg/mL/(mg/day)"}, {"conceptId": "C119338", "definition": "Femtograms per milliliter (concentration), divided by milligrams per kilogram (dose normalized by body weight).", "preferredTerm": "Femtogram per Milliliter per Milligram per Kilogram", "submissionValue": "fg/mL/(mg/kg)"}, {"conceptId": "C119339", "definition": "Femtograms per milliliter (concentration), divided by milligrams per kilogram per day (daily dose normalized by body weight).", "preferredTerm": "Femtogram per Milliliter per Milligram per Kilogram per Day", "submissionValue": "fg/mL/(mg/kg/day)"}, {"conceptId": "C119340", "definition": "Femtograms per milliliter (concentration), divided by milligrams per meter squared (dose normalized by surface area).", "preferredTerm": "Femtogram per Milliliter per Milligram per Meter Squared", "submissionValue": "fg/mL/(mg/m2)"}, {"conceptId": "C119341", "definition": "Femtograms per milliliter (concentration), divided by milligrams per meter squared per day (daily dose normalized by surface area).", "preferredTerm": "Femtogram per Milliliter per Milligram per Meter Squared per Day", "submissionValue": "fg/mL/(mg/m2/day)"}, {"conceptId": "C85746", "definition": "Nanograms per milliliter (concentration), divided by kilograms (weight) or picograms per milliliter (concentration), divided by grams (weight) or femtograms per milliliter (concentration), divided by milligrams (dose).", "preferredTerm": "Nanogram per Milliliter per Kilogram", "submissionValue": "fg/mL/mg", "synonyms": ["fg/mL/mg", "ng/mL/kg", "pg/mL/g"]}, {"conceptId": "C119353", "definition": "Grams per milliliter (concentration), divided by milligrams per day (daily dose) or milligrams per milliliter (concentration), divided by micrograms per day (daily dose).", "preferredTerm": "Gram per Milliliter per Milligram per Day", "submissionValue": "g/mL/(mg/day)", "synonyms": ["g/mL/(mg/day)", "mg/mL/(ug/day)"]}, {"conceptId": "C105462", "definition": "Grams per milliliter (concentration), divided by milligrams per kilogram (dose normalized by body weight) or milligrams per milliliter (concentration), divided by micrograms per kilogram (dose normalized by body weight).", "preferredTerm": "Gram Per Milliliter Per Milligram Per Kilogram", "submissionValue": "g/mL/(mg/kg)", "synonyms": ["g/mL/(mg/kg)", "mg/mL/(ug/kg)"]}, {"conceptId": "C105463", "definition": "Grams per milliliter (concentration), divided by milligrams per kilogram per day (daily dose normalized by body weight) or milligrams per milliliter (concentration), divided by micrograms per kilogram per day (daily dose normalized by body weight).", "preferredTerm": "Gram Per Milliliter Per Milligram Per Kilogram Per Day", "submissionValue": "g/mL/(mg/kg/day)", "synonyms": ["g/mL/(mg/kg/day)", "mg/mL/(ug/kg/day)"]}, {"conceptId": "C119354", "definition": "Grams per milliliter (concentration), divided by milligrams per meter squared (dose normalized by surface area) or milligrams per milliliter (concentration), divided by micrograms per meter squared (dose normalized by surface area).", "preferredTerm": "Gram per Milliliter per Milligram per Meter Squared", "submissionValue": "g/mL/(mg/m2)", "synonyms": ["g/mL/(mg/m2)", "mg/mL/(ug/m2)"]}, {"conceptId": "C119355", "definition": "Grams per milliliter (concentration), divided by milligrams per meter squared per day (daily dose normalized by surface area) or milligrams per milliliter (concentration), divided by micrograms per meter squared per day (daily dose normalized by surface area).", "preferredTerm": "Gram per Milliliter per Milligram per Meter Squared per Day", "submissionValue": "g/mL/(mg/m2/day)", "synonyms": ["g/mL/(mg/m2/day)", "mg/mL/(ug/m2/day)"]}, {"conceptId": "C119364", "definition": "Grams per milliliter (concentration), divided by milligrams (dose) or milligrams per milliliter (concentration), divided by micrograms (dose).", "preferredTerm": "Gram per Milliliter per Milligram", "submissionValue": "g/mL/mg", "synonyms": ["g/mL/mg", "mg/mL/ug"]}, {"conceptId": "C105464", "definition": "Hours times grams per milliliter (area under the curve), divided by milligrams per kilogram (dose normalized by body weight).", "preferredTerm": "Hour Times Gram Per Milliliter Per Milligram Per Kilogram", "submissionValue": "h*g/mL/(mg/kg)"}, {"conceptId": "C105465", "definition": "Hours times grams per milliliter (area under the curve), divided by milligrams per kilogram per day (daily dose normalized by body weight).", "preferredTerm": "Hour Times Gram Per Milliliter Per Milligram Per Kilogram Per Day", "submissionValue": "h*g/mL/(mg/kg/day)"}, {"conceptId": "C105468", "definition": "Hours times milligrams per milliliter (area under the curve), divided by milligrams per kilogram (dose normalized by body weight).", "preferredTerm": "Hour Times Milligram Per Milliliter Per Milligram Per Kilogram", "submissionValue": "h*mg/mL/(mg/kg)"}, {"conceptId": "C105469", "definition": "Hours times milligrams per milliliter (area under the curve), divided by milligrams per kilogram per day (daily dose normalized by body weight).", "preferredTerm": "Hour Times Milligram Per Milliliter Per Milligram Per Kilogram Per Day", "submissionValue": "h*mg/mL/(mg/kg/day)"}, {"conceptId": "C106531", "definition": "Hours times millimoles per liter (area under the curve), divided by kilograms (weight); or hours times micromoles per liter (area under the curve), divided by grams (weight); or hours times nanomoles per liter (area under the curve), divided by milligrams (dose); or hours times picomoles per liter (area under the curve), divided by micrograms (dose).", "preferredTerm": "Hour times Mole Per Liter Per Gram", "submissionValue": "h*mmol/L/mg", "synonyms": ["h*mmol/L/mg", "h*mol/L/g", "h*umol/L/ug"]}, {"conceptId": "C85628", "definition": "Hours times nanograms per milliliter (area under the curve), divided by milligrams per kilogram (dose normalized by body weight).", "preferredTerm": "Hour Times Nanogram per Milliliter per Milligram per Kilogram", "submissionValue": "h*ng/mL/(mg/kg)"}, {"conceptId": "C105470", "definition": "Hours times nanograms per milliliter (area under the curve), divided by milligrams per kilogram per day (daily dose normalized by body weight).", "preferredTerm": "Hour Times Nanogram Per Milliliter Per Milligram Per Kilogram Per Day", "submissionValue": "h*ng/mL/(mg/kg/day)"}, {"conceptId": "C85629", "definition": "Hours times nanograms per milliliter (area under the curve), divided by milligrams per meter squared (dose normalized by surface area).", "preferredTerm": "Hour Times Nanogram per Milliliter per Milligram per Meter Squared", "submissionValue": "h*ng/mL/(mg/m2)"}, {"conceptId": "C85627", "definition": "Hours times milligrams per milliliter (area under the curve), divided by kilograms (weight) or hours times micrograms per milliliter (area under the curve), divided by grams (weight) or hours times nanograms per milliliter (area under the curve), divided by milligrams (dose).", "preferredTerm": "Hour Times Nanogram per Milliliter per Milligram", "submissionValue": "h*ng/mL/mg", "synonyms": ["h*mg/mL/kg", "h*ng/mL/mg", "h*ug/mL/g"]}, {"conceptId": "C132445", "definition": "Hours times nanomoles per liter (area under the curve), divided by milligrams per kilogram (dose normalized by body weight).", "preferredTerm": "Hour Times Nanomole per Liter per Milligram per Kilogram", "submissionValue": "h*nmol/L/(mg/kg)"}, {"conceptId": "C112307", "definition": "Hours times millimoles per liter (area under the curve), divided by kilograms (weight); or hours times micromoles per liter (area under the curve), divided by grams (weight); or hours times nanomoles per liter (area under the curve), divided by milligrams (dose); or hours times picomoles per liter (area under the curve), divided by micrograms (dose).", "preferredTerm": "Hour Times Millimole Per Liter Per Kilogram", "submissionValue": "h*nmol/L/mg", "synonyms": ["h*mmol/L/kg", "h*nmol/L/mg", "h*pmol/L/ug", "h*umol/L/g"]}, {"conceptId": "C105471", "definition": "Hours times picograms per milliliter (area under the curve), divided by milligrams per kilogram (dose normalized by body weight).", "preferredTerm": "Hour Times Picogram Per Milliliter Per Milligram Per Kilogram", "submissionValue": "h*pg/mL/(mg/kg)"}, {"conceptId": "C105472", "definition": "Hours times picograms per milliliter (area under the curve), divided by milligrams per kilogram per day (daily dose normalized by body weight).", "preferredTerm": "Hour Times Picogram Per Milliliter Per Milligram Per Kilogram Per Day", "submissionValue": "h*pg/mL/(mg/kg/day)"}, {"conceptId": "C85625", "definition": "Hours times micrograms per milliliter (area under the curve), divided by kilograms (weight) or hours times nanograms per milliliter (area under the curve), divided by grams (weight) or hours times picograms per milliliter (area under the curve), divided by milligrams (dose).", "preferredTerm": "Hour Times Nanogram per Milliliter per Gram", "submissionValue": "h*pg/mL/mg", "synonyms": ["h*ng/mL/g", "h*pg/mL/mg", "h*ug/mL/kg"]}, {"conceptId": "C105466", "definition": "Hours times micrograms per milliliter (area under the curve), divided by milligrams per kilogram (dose normalized by body weight).", "preferredTerm": "Hour Times Microgram Per Milliliter Per Milligram Per Kilogram", "submissionValue": "h*ug/mL/(mg/kg)"}, {"conceptId": "C105467", "definition": "Hours times micrograms per milliliter (area under the curve), divided by milligrams per kilogram per day (daily dose normalized by body weight).", "preferredTerm": "Hour Times Microgram Per Milliliter Per Milligram Per Kilogram Per Day", "submissionValue": "h*ug/mL/(mg/kg/day)"}, {"conceptId": "C85617", "definition": "Hours times grams per milliliter (area under the curve), divided by kilograms (weight) or hours times milligrams per milliliter (area under the curve), divided by grams (weight) or hours times micrograms per milliliter (area under the curve), divided by milligrams (dose).", "preferredTerm": "Hour Times Microgram per Milliliter per Milligram", "submissionValue": "h*ug/mL/mg", "synonyms": ["h*g/mL/kg", "h*mg/mL/g", "h*ug/mL/mg"]}, {"conceptId": "C132446", "definition": "Hours times micromoles per liter (area under the curve), divided by milligrams per kilogram (dose normalized by body weight).", "preferredTerm": "Hour Times Micromole per Liter per Milligram per Kilogram", "submissionValue": "h*umol/L/(mg/kg)"}, {"conceptId": "C119397", "definition": "Milli-international units per milliliter (concentration), divided by milligrams per day (daily dose) or micro-international units per milliliter (concentration), divided by micrograms per day (daily dose).", "preferredTerm": "Milli-International Unit per Milliliter per Milligram per Day", "submissionValue": "mIU/mL/(mg/day)", "synonyms": ["mIU/mL/(mg/day)", "uIU/mL/(ug/day)"]}, {"conceptId": "C119398", "definition": "Milli-international units per milliliter (concentration), divided by milligrams per kilogram (dose normalized by body weight) or micro-international units per milliliter (concentration), divided by micrograms per kilogram (dose normalized by body weight).", "preferredTerm": "Milli-International Unit per Milliliter per Milligram per Kilogram", "submissionValue": "mIU/mL/(mg/kg)", "synonyms": ["mIU/mL/(mg/kg)", "uIU/mL/(ug/kg)"]}, {"conceptId": "C119399", "definition": "Milli-international units per milliliter (concentration), divided by milligrams per kilogram per day (daily dose normalized by body weight) or micro-international units per milliliter (concentration), divided by micrograms per kilogram per day (daily dose normalized by body weight).", "preferredTerm": "Milli-International Unit per Milliliter per Milligram per Kilogram per Day", "submissionValue": "mIU/mL/(mg/kg/day)", "synonyms": ["mIU/mL/(mg/kg/day)", "uIU/mL/(ug/kg/day)"]}, {"conceptId": "C119400", "definition": "Milli-international units per milliliter (concentration), divided by milligrams per meter squared (dose normalized by surface area) or micro-international units per milliliter (concentration), divided by micrograms per meter squared (dose normalized by surface area).", "preferredTerm": "Milli-International Unit per Milliliter per Milligram per Meter Squared", "submissionValue": "mIU/mL/(mg/m2)", "synonyms": ["mIU/mL/(mg/m2)", "uIU/mL/(ug/m2)"]}, {"conceptId": "C119401", "definition": "Milli-international units per milliliter (concentration), divided by milligrams per meter squared per day (daily dose normalized by surface area) or micro-international units per milliliter (concentration), divided by micrograms per meter squared per day (daily dose normalized by surface area).", "preferredTerm": "Milli-International Unit per Milliliter per Milligram per Meter Squared per Day", "submissionValue": "mIU/mL/(mg/m2/day)", "synonyms": ["mIU/mL/(mg/m2/day)", "uIU/mL/(ug/m2/day)"]}, {"conceptId": "C119377", "definition": "International units per milliliter (concentration), divided by grams (weight) or milli-international units per milliliter (concentration), divided by milligrams (dose) or micro-international units per milliliter (concentration), divided by micrograms (dose).", "preferredTerm": "International Unit per Milliliter per Gram", "submissionValue": "mIU/mL/mg", "synonyms": ["IU/mL/g", "mIU/mL/mg", "uIU/mL/ug"]}, {"conceptId": "C120817", "definition": "Milliliters (volume), divided by milligrams per day (daily dose).", "preferredTerm": "Milliliter per Milligram per Day", "submissionValue": "mL/(mg/day)"}, {"conceptId": "C120818", "definition": "Milliliters (volume), divided by milligrams per kilogram (dose normalized by body weight).", "preferredTerm": "Milliliter per Milligram per Kilogram", "submissionValue": "mL/(mg/kg)"}, {"conceptId": "C120819", "definition": "Milliliters (volume), divided by milligrams per kilogram per day (daily dose normalized by body weight).", "preferredTerm": "Milliliter per Milligram per Kilogram per Day", "submissionValue": "mL/(mg/kg/day)"}, {"conceptId": "C120820", "definition": "Milliliters (volume), divided by milligrams per meter squared (dose normalized by surface area).", "preferredTerm": "Milliliter per Milligram per Meter Squared", "submissionValue": "mL/(mg/m2)"}, {"conceptId": "C120821", "definition": "Milliliters (volume), divided by milligrams per meter squared per day (daily dose normalized by surface area).", "preferredTerm": "Milliliter per Milligram per Meter Squared per Day", "submissionValue": "mL/(mg/m2/day)"}, {"conceptId": "C119383", "definition": "Milligrams per milliliter (concentration), divided by milligrams per day (daily dose) or micrograms per milliliter (concentration), divided by micrograms per day (daily dose).", "preferredTerm": "Milligram per Milliliter per Milligram per Day", "submissionValue": "mg/mL/(mg/day)", "synonyms": ["mg/mL/(mg/day)", "ug/mL/(ug/day)"]}, {"conceptId": "C105475", "definition": "Milligrams per milliliter (concentration), divided by milligrams per kilogram (dose normalized by body weight) or micrograms per milliliter (concentration), divided by micrograms per kilogram (dose normalized by body weight).", "preferredTerm": "Milligram Per Milliliter Per Milligram Per Kilogram", "submissionValue": "mg/mL/(mg/kg)", "synonyms": ["mg/mL/(mg/kg)", "ug/mL/(ug/kg)"]}, {"conceptId": "C105476", "definition": "Milligrams per milliliter (concentration), divided by milligrams per kilogram per day (daily dose normalized by body weight) or micrograms per milliliter (concentration), divided by micrograms per kilogram per day (daily dose normalized by body weight).", "preferredTerm": "Milligram Per Milliliter Per Milligram Per Kilogram Per Day", "submissionValue": "mg/mL/(mg/kg/day)", "synonyms": ["mg/mL/(mg/kg/day)", "ug/mL/(ug/kg/day)"]}, {"conceptId": "C119384", "definition": "Milligrams per milliliter (concentration), divided by milligrams per meter squared (dose normalized by surface area) or micrograms per milliliter (concentration), divided by micrograms per meter squared (dose normalized by surface area).", "preferredTerm": "Milligram per Milliliter per Milligram per Meter Squared", "submissionValue": "mg/mL/(mg/m2)", "synonyms": ["mg/mL/(mg/m2)", "ug/mL/(ug/m2)"]}, {"conceptId": "C119385", "definition": "Milligrams per milliliter (concentration), divided by milligrams per meter squared per day (daily dose normalized by surface area) or micrograms per milliliter (concentration), divided by micrograms per meter squared per day (daily dose normalized by surface area).", "preferredTerm": "Milligram per Milliliter per Milligram per Meter Squared per Day", "submissionValue": "mg/mL/(mg/m2/day)", "synonyms": ["mg/mL/(mg/m2/day)", "ug/mL/(ug/m2/day)"]}, {"conceptId": "C119361", "definition": "Grams per milliliter (concentration), divided by grams (weight) or milligrams per milliliter (concentration), divided by milligrams (dose) or micrograms per milliliter (concentration), divided by micrograms (dose).", "preferredTerm": "Gram per Milliliter per Gram", "submissionValue": "mg/mL/mg", "synonyms": ["g/mL/g", "mg/mL/mg", "ug/mL/ug"]}, {"conceptId": "C119413", "definition": "Millimoles per liter (concentration), divided by milligrams per day (daily dose) or micromoles per liter (concentration), divided by micrograms per day (daily dose).", "preferredTerm": "Millimole per Liter per Milligram per Day", "submissionValue": "mmol/L/(mg/day)", "synonyms": ["mmol/L/(mg/day)", "umol/L/(ug/day)"]}, {"conceptId": "C119414", "definition": "Millimoles per liter (concentration), divided by milligrams per kilogram (dose normalized by body weight) or micromoles per liter (concentration), divided by micrograms per kilogram (dose normalized by body weight).", "preferredTerm": "Millimole per Liter per Milligram per Kilogram", "submissionValue": "mmol/L/(mg/kg)", "synonyms": ["mmol/L/(mg/kg)", "umol/L/(ug/kg)"]}, {"conceptId": "C119415", "definition": "Millimoles per liter (concentration), divided by milligrams per kilogram per day (daily dose normalized by body weight) or micromoles per liter (concentration), divided by micrograms per kilogram per day (daily dose normalized by body weight).", "preferredTerm": "Millimole per Liter per Milligram per Kilogram per Day", "submissionValue": "mmol/L/(mg/kg/day)", "synonyms": ["mmol/L/(mg/kg/day)", "umol/L/(ug/kg/day)"]}, {"conceptId": "C119416", "definition": "Millimoles per liter (concentration), divided by milligrams per meter squared (dose normalized by surface area) or micromoles per liter (concentration), divided by micrograms per meter squared (dose normalized by surface area).", "preferredTerm": "Millimole per Liter per Milligram per Meter Squared", "submissionValue": "mmol/L/(mg/m2)", "synonyms": ["mmol/L/(mg/m2)", "umol/L/(ug/m2)"]}, {"conceptId": "C119417", "definition": "Millimoles per liter (concentration), divided by milligrams per meter squared per day (daily dose normalized by surface area) or micromoles per liter (concentration), divided by micrograms per meter squared per day (daily dose normalized by surface area).", "preferredTerm": "Millimole per Liter per Milligram per Meter Squared per Day", "submissionValue": "mmol/L/(mg/m2/day)", "synonyms": ["mmol/L/(mg/m2/day)", "umol/L/(ug/m2/day)"]}, {"conceptId": "C119426", "definition": "Moles per liter (concentration), divided by grams (weight) or millimoles per liter (concentration), divided by milligrams (dose) or micromoles per liter (concentration), divided by micrograms (dose).", "preferredTerm": "Millimole per Liter per Milligram", "submissionValue": "mmol/L/mg", "synonyms": ["mmol/L/mg", "mol/L/g", "umol/L/ug"]}, {"conceptId": "C119418", "definition": "Moles per liter (concentration), divided by milligrams per day (daily dose) or millimoles per liter (concentration), divided by micrograms per day (daily dose).", "preferredTerm": "Millimole per Liter per Microgram per Day", "submissionValue": "mol/L/(mg/day)", "synonyms": ["mmol/L/(ug/day)", "mol/L/(mg/day)"]}, {"conceptId": "C119419", "definition": "Moles per liter (concentration), divided by milligrams per kilogram (dose normalized by body weight) or millimoles per liter (concentration), divided by micrograms per kilogram (dose normalized by body weight).", "preferredTerm": "Millimole per Liter per Microgram per Kilogram", "submissionValue": "mol/L/(mg/kg)", "synonyms": ["mmol/L/(ug/kg)", "mol/L/(mg/kg)"]}, {"conceptId": "C119420", "definition": "Moles per liter (concentration), divided by milligrams per kilogram per day (daily dose normalized by body weight) or millimoles per liter (concentration), divided by micrograms per kilogram per day (daily dose normalized by body weight).", "preferredTerm": "Millimole per Liter per Microgram per Kilogram per Day", "submissionValue": "mol/L/(mg/kg/day)", "synonyms": ["mmol/L/(ug/kg/day)", "mol/L/(mg/kg/day)"]}, {"conceptId": "C119421", "definition": "Moles per liter (concentration), divided by milligrams per meter squared (dose normalized by surface area) or millimoles per liter (concentration), divided by micrograms per meter squared (dose normalized by surface area).", "preferredTerm": "Millimole per Liter per Microgram per Meter Squared", "submissionValue": "mol/L/(mg/m2)", "synonyms": ["mmol/L/(ug/m2)", "mol/L/(mg/m2)"]}, {"conceptId": "C119422", "definition": "Moles per liter (concentration), divided by milligrams per meter squared per day (daily dose normalized by surface area) or millimoles per liter (concentration), divided by micrograms per meter squared per day (daily dose normalized by surface area).", "preferredTerm": "Millimole per Liter per Microgram per Meter Squared per Day", "submissionValue": "mol/L/(mg/m2/day)", "synonyms": ["mmol/L/(ug/m2/day)", "mol/L/(mg/m2/day)"]}, {"conceptId": "C119427", "definition": "Moles per liter (concentration), divided by milligrams (dose) or millimoles per liter (concentration), divided by micrograms (dose).", "preferredTerm": "Millimole per Liter per Microgram", "submissionValue": "mol/L/mg", "synonyms": ["mmol/L/ug", "mol/L/mg"]}, {"conceptId": "C119445", "definition": "Nanograms per milliliter (concentration), divided by milligrams per day (daily dose) or picograms per milliliter (concentration), divided by micrograms per day (daily dose).", "preferredTerm": "Nanogram per Milliliter per Milligram per Day", "submissionValue": "ng/mL/(mg/day)", "synonyms": ["ng/mL/(mg/day)", "pg/mL/(ug/day)"]}, {"conceptId": "C105477", "definition": "Nanograms per milliliter (concentration), divided by milligrams per kilogram (dose normalized by body weight) or picograms per milliliter (concentration), divided by micrograms per kilogram (dose normalized by body weight).", "preferredTerm": "Nanogram Per Milliliter Per Milligram Per Kilogram", "submissionValue": "ng/mL/(mg/kg)", "synonyms": ["ng/mL/(mg/kg)", "pg/mL/(ug/kg)"]}, {"conceptId": "C105478", "definition": "Nanograms per milliliter (concentration), divided by milligrams per kilogram per day (daily dose normalized by body weight) or picograms per milliliter (concentration), divided by micrograms per kilogram per day (daily dose normalized by body weight).", "preferredTerm": "Nanogram Per Milliliter Per Milligram Per Kilogram Per Day", "submissionValue": "ng/mL/(mg/kg/day)", "synonyms": ["ng/mL/(mg/kg/day)", "pg/mL/(ug/kg/day)"]}, {"conceptId": "C119446", "definition": "Nanograms per milliliter (concentration), divided by milligrams per meter squared (dose normalized by surface area) or picograms per milliliter (concentration), divided by micrograms per meter squared (dose normalized by surface area).", "preferredTerm": "Nanogram per Milliliter per Milligram per Meter Squared", "submissionValue": "ng/mL/(mg/m2)", "synonyms": ["ng/mL/(mg/m2)", "pg/mL/(ug/m2)"]}, {"conceptId": "C119447", "definition": "Nanograms per milliliter (concentration), divided by milligrams per meter squared per day (daily dose normalized by surface area) or picograms per milliliter (concentration), divided by micrograms per meter squared per day (daily dose normalized by surface area).", "preferredTerm": "Nanogram per Milliliter per Milligram per Meter Squared per Day", "submissionValue": "ng/mL/(mg/m2/day)", "synonyms": ["ng/mL/(mg/m2/day)", "pg/mL/(ug/m2/day)"]}, {"conceptId": "C85747", "definition": "Milligrams per milliliter (concentration), divided by kilograms (weight) or micrograms per milliliter (concentration), divided by grams (weight) or nanograms per milliliter (concentration), divided by milligrams (dose) or picograms per milliliter (concentration), divided by micrograms (dose).", "preferredTerm": "Nanogram per Milliliter per Milligram", "submissionValue": "ng/mL/mg", "synonyms": ["mg/mL/kg", "ng/mL/mg", "pg/mL/ug", "ug/mL/g"]}, {"conceptId": "C119457", "definition": "Nanomoles per liter (concentration), divided by milligrams per day (daily dose) or picomoles per liter (concentration), divided by micrograms per day (daily dose).", "preferredTerm": "Nanomole per Liter per Milligram per Day", "submissionValue": "nmol/L/(mg/day)", "synonyms": ["nmol/L/(mg/day)", "pmol/L/(ug/day)"]}, {"conceptId": "C119458", "definition": "Nanomoles per liter (concentration), divided by milligrams per kilogram (dose normalized by body weight) or picomoles per liter (concentration), divided by micrograms per kilogram (dose normalized by body weight).", "preferredTerm": "Nanomole per Liter per Milligram per Kilogram", "submissionValue": "nmol/L/(mg/kg)", "synonyms": ["nmol/L/(mg/kg)", "pmol/L/(ug/kg)"]}, {"conceptId": "C119459", "definition": "Nanomoles per liter (concentration), divided by milligrams per kilogram per day (daily dose normalized by body weight) or picomoles per liter (concentration), divided by micrograms per kilogram per day (daily dose normalized by body weight).", "preferredTerm": "Nanomole per Liter per Milligram per Kilogram per Day", "submissionValue": "nmol/L/(mg/kg/day)", "synonyms": ["nmol/L/(mg/kg/day)", "pmol/L/(ug/kg/day)"]}, {"conceptId": "C119460", "definition": "Nanomoles per liter (concentration), divided by milligrams per meter squared (dose normalized by surface area) or picomoles per liter (concentration), divided by micrograms per meter squared (dose normalized by surface area).", "preferredTerm": "Nanomole per Liter per Milligram per Meter Squared", "submissionValue": "nmol/L/(mg/m2)", "synonyms": ["nmol/L/(mg/m2)", "pmol/L/(ug/m2)"]}, {"conceptId": "C119461", "definition": "Nanomoles per liter (concentration), divided by milligrams per meter squared per day (daily dose normalized by surface area) or picomoles per liter (concentration), divided by micrograms per meter squared per day (daily dose normalized by surface area).", "preferredTerm": "Nanomole per Liter per Milligram per Meter Squared per Day", "submissionValue": "nmol/L/(mg/m2/day)", "synonyms": ["nmol/L/(mg/m2/day)", "pmol/L/(ug/m2/day)"]}, {"conceptId": "C85784", "definition": "Millimoles per liter (concentration), divided by kilograms (weight) or micromoles per liter (concentration), divided by grams (weight) or nanomoles per liter (concentration), divided by milligrams (dose) or picomoles per liter (concentration), divided by micrograms (dose).", "preferredTerm": "Picomole per Liter per Microgram", "submissionValue": "nmol/L/mg", "synonyms": ["mmol/L/kg", "nmol/L/mg", "pmol/L/ug", "umol/L/g"]}, {"conceptId": "C119342", "definition": "Picograms per milliliter (concentration), divided by milligrams per day (daily dose) or femtograms per milliliter (concentration), divided by micrograms per day (daily dose).", "preferredTerm": "Femtogram per Milliliter per Microgram per Day", "submissionValue": "pg/mL/(mg/day)", "synonyms": ["fg/mL/(ug/day)", "pg/mL/(mg/day)"]}, {"conceptId": "C105479", "definition": "Picograms per milliliter (concentration), divided by milligrams per kilogram (dose normalized by body weight) or femtograms per milliliter (concentration), divided by micrograms per kilogram (dose normalized by body weight).", "preferredTerm": "Picogram Per Milliliter Per Milligram Per Kilogram", "submissionValue": "pg/mL/(mg/kg)", "synonyms": ["fg/mL/(ug/kg)", "pg/mL/(mg/kg)"]}, {"conceptId": "C105480", "definition": "Picograms per milliliter (concentration), divided by milligrams per kilogram per day (daily dose normalized by body weight) or femtograms per milliliter (concentration), divided by micrograms per kilogram per day (daily dose normalized by body weight).", "preferredTerm": "Picogram Per Milliliter Per Milligram Per Kilogram Per Day", "submissionValue": "pg/mL/(mg/kg/day)", "synonyms": ["fg/mL/(ug/kg/day)", "pg/mL/(mg/kg/day)"]}, {"conceptId": "C119345", "definition": "Picograms per milliliter (concentration), divided by milligrams per meter squared (dose normalized by surface area) or femtograms per milliliter (concentration), divided by micrograms per meter squared (dose normalized by surface area).", "preferredTerm": "Femtogram per Milliliter per Microgram per Meter Squared", "submissionValue": "pg/mL/(mg/m2)", "synonyms": ["fg/mL/(ug/m2)", "pg/mL/(mg/m2)"]}, {"conceptId": "C119346", "definition": "Picograms per milliliter (concentration), divided by milligrams per meter squared per day (daily dose normalized by surface area) or femtograms per milliliter (concentration), divided by micrograms per meter squared per day (daily dose normalized by surface area).", "preferredTerm": "Femtogram per Milliliter per Microgram per Meter Squared per Day", "submissionValue": "pg/mL/(mg/m2/day)", "synonyms": ["fg/mL/(ug/m2/day)", "pg/mL/(mg/m2/day)"]}, {"conceptId": "C119351", "definition": "Micrograms per milliliter (concentration), divided by kilograms (weight) or nanograms per milliliter (concentration), divided by grams (weight) or picograms per milliliter (concentration), divided by milligrams (dose) or femtograms per milliliter (concentration), divided by micrograms (dose).", "preferredTerm": "Femtogram per Milliliter per Microgram", "submissionValue": "pg/mL/mg", "synonyms": ["fg/mL/ug", "ng/mL/g", "pg/mL/mg", "ug/mL/kg"]}, {"conceptId": "C67396", "definition": "A unit of a mass fraction expressed as a number of micrograms of substance per kilogram of mixture. The unit is also used as a dose calculation unit.(NCI)", "preferredTerm": "Microgram per Kilogram", "submissionValue": "pg/mg", "synonyms": ["Microgram per Kilogram", "mcg/kg", "ng/g", "pg/mg", "ug/kg"]}, {"conceptId": "C119486", "definition": "Picomoles per liter (concentration), divided by milligrams per day (daily dose).", "preferredTerm": "Picomole per Liter per Milligram per Day", "submissionValue": "pmol/L/(mg/day)"}, {"conceptId": "C119487", "definition": "Picomoles per liter (concentration), divided by milligrams per kilogram (dose normalized by body weight).", "preferredTerm": "Picomole per Liter per Milligram per Kilogram", "submissionValue": "pmol/L/(mg/kg)"}, {"conceptId": "C119488", "definition": "Picomoles per liter (concentration), divided by milligrams per kilogram per day (daily dose normalized by body weight).", "preferredTerm": "Picomole per Liter per Milligram per Kilogram per Day", "submissionValue": "pmol/L/(mg/kg/day)"}, {"conceptId": "C119489", "definition": "Picomoles per liter (concentration), divided by milligrams per meter squared (dose normalized by surface area).", "preferredTerm": "Picomole per Liter per Milligram per Meter Squared", "submissionValue": "pmol/L/(mg/m2)"}, {"conceptId": "C119490", "definition": "Picomoles per liter (concentration), divided by milligrams per meter squared per day (daily dose normalized by surface area).", "preferredTerm": "Picomole per Liter per Milligram per Meter Squared per Day", "submissionValue": "pmol/L/(mg/m2/day)"}, {"conceptId": "C119467", "definition": "Micromoles per liter (concentration), divided by kilograms (weight) or nanomoles per liter (concentration), divided by grams (weight) or picomoles per liter (concentration), divided by milligrams (dose).", "preferredTerm": "Nanomole per Liter per Gram", "submissionValue": "pmol/L/mg", "synonyms": ["nmol/L/g", "pmol/L/mg", "umol/L/kg"]}, {"conceptId": "C119514", "definition": "Micro-international units per milliliter (concentration), divided by milligrams per day (daily dose).", "preferredTerm": "Micro-International Units per Milliliter per Milligram per Day", "submissionValue": "uIU/mL/(mg/day)"}, {"conceptId": "C119515", "definition": "Micro-international units per milliliter (concentration), divided by milligrams per kilogram (dose normalized by body weight).", "preferredTerm": "Micro-International Units per Milliliter per Milligram per Kilogram", "submissionValue": "uIU/mL/(mg/kg)"}, {"conceptId": "C119516", "definition": "Micro-international units per milliliter (concentration), divided by milligrams per kilogram per day (daily dose normalized by body weight).", "preferredTerm": "Micro-International Units per Milliliter per Milligram per Kilogram per Day", "submissionValue": "uIU/mL/(mg/kg/day)"}, {"conceptId": "C119517", "definition": "Micro-international units per milliliter (concentration), divided by milligrams per meter squared (dose normalized by surface area).", "preferredTerm": "Micro-International Units per Milliliter per Milligram per Meter Squared", "submissionValue": "uIU/mL/(mg/m2)"}, {"conceptId": "C119518", "definition": "Micro-international units per milliliter (concentration), divided by milligrams per meter squared per day (daily dose normalized by surface area).", "preferredTerm": "Micro-International Units per Milliliter per Milligram per Meter Squared per Day", "submissionValue": "uIU/mL/(mg/m2/day)"}, {"conceptId": "C119378", "definition": "International units per milliliter (concentration), divided by kilograms (weight) or milli-international units per milliliter (concentration), divided by grams (weight) or micro-international units per milliliter (concentration), divided by milligrams (dose).", "preferredTerm": "International Unit per Milliliter per Kilogram", "submissionValue": "uIU/mL/mg", "synonyms": ["IU/mL/kg", "mIU/mL/g", "uIU/mL/mg"]}, {"conceptId": "C119448", "definition": "Micrograms per milliliter (concentration), divided by milligrams per day (daily dose) or nanograms per milliliter (concentration), divided by micrograms per day (daily dose).", "preferredTerm": "Nanogram per Milliliter per Microgram per Day", "submissionValue": "ug/mL/(mg/day)", "synonyms": ["ng/mL/(ug/day)", "ug/mL/(mg/day)"]}, {"conceptId": "C105473", "definition": "Micrograms per milliliter (concentration), divided by milligrams per kilogram (dose normalized by body weight) or nanograms per milliliter (concentration), divided by micrograms per kilogram (dose normalized by body weight).", "preferredTerm": "Microgram Per Milliliter Per Milligram Per Kilogram", "submissionValue": "ug/mL/(mg/kg)", "synonyms": ["ng/mL/(ug/kg)", "ug/mL/(mg/kg)"]}, {"conceptId": "C105474", "definition": "Micrograms per milliliter (concentration), divided by milligrams per kilogram per day (daily dose normalized by body weight) or nanograms per milliliter (concentration), divided by micrograms per kilogram per day (daily dose normalized by body weight).", "preferredTerm": "Microgram Per Milliliter Per Milligram Per Kilogram Per Day", "submissionValue": "ug/mL/(mg/kg/day)", "synonyms": ["ng/mL/(ug/kg/day)", "ug/mL/(mg/kg/day)"]}, {"conceptId": "C119451", "definition": "Micrograms per milliliter (concentration), divided by milligrams per meter squared (dose normalized by surface area) or nanograms per milliliter (concentration), divided by micrograms per meter squared (dose normalized by surface area).", "preferredTerm": "Nanogram per Milliliter per Microgram per Meter Squared", "submissionValue": "ug/mL/(mg/m2)", "synonyms": ["ng/mL/(ug/m2)", "ug/mL/(mg/m2)"]}, {"conceptId": "C119452", "definition": "Micrograms per milliliter (concentration), divided by milligrams per meter squared per day (daily dose normalized by surface area) or nanograms per milliliter (concentration), divided by micrograms per meter squared per day (daily dose normalized by surface area).", "preferredTerm": "Nanogram per Milliliter per Microgram per Meter Squared per Day", "submissionValue": "ug/mL/(mg/m2/day)", "synonyms": ["ng/mL/(ug/m2/day)", "ug/mL/(mg/m2/day)"]}, {"conceptId": "C85710", "definition": "Grams per milliliter (concentration), divided by kilograms (weight) or milligrams per milliliter (concentration), divided by grams (weight) or micrograms per milliliter (concentration), divided by milligrams (dose) or nanograms per milliliter (concentration), divided by micrograms (dose).", "preferredTerm": "Milligram per Liter per Milligram", "submissionValue": "ug/mL/mg", "synonyms": ["g/mL/kg", "mg/mL/g", "ng/mL/ug", "ug/mL/mg"]}, {"conceptId": "C119462", "definition": "Micromoles per liter (concentration), divided by milligrams per day (daily dose) or nanomoles per liter (concentration), divided by micrograms per day (daily dose).", "preferredTerm": "Nanomole per Liter per Microgram per Day", "submissionValue": "umol/L/(mg/day)", "synonyms": ["nmol/L/(ug/day)", "umol/L/(mg/day)"]}, {"conceptId": "C119463", "definition": "Micromoles per liter (concentration), divided by milligrams per kilogram (dose normalized by body weight) or nanomoles per liter (concentration), divided by micrograms per kilogram (dose normalized by body weight).", "preferredTerm": "Nanomole per Liter per Microgram per Kilogram", "submissionValue": "umol/L/(mg/kg)", "synonyms": ["nmol/L/(ug/kg)", "umol/L/(mg/kg)"]}, {"conceptId": "C119464", "definition": "Micromoles per liter (concentration), divided by milligrams per kilogram per day (daily dose normalized by body weight) or nanomoles per liter (concentration), divided by micrograms per kilogram per day (daily dose normalized by body weight).", "preferredTerm": "Nanomole per Liter per Microgram per Kilogram per Day", "submissionValue": "umol/L/(mg/kg/day)", "synonyms": ["nmol/L/(ug/kg/day)", "umol/L/(mg/kg/day)"]}, {"conceptId": "C119465", "definition": "Micromoles per liter (concentration), divided by milligrams per meter squared (dose normalized by surface area) or nanomoles per liter (concentration), divided by micrograms per meter squared (dose normalized by surface area).", "preferredTerm": "Nanomole per Liter per Microgram per Meter Squared", "submissionValue": "umol/L/(mg/m2)", "synonyms": ["nmol/L/(ug/m2)", "umol/L/(mg/m2)"]}, {"conceptId": "C119466", "definition": "Micromoles per liter (concentration), divided by milligrams per meter squared per day (daily dose normalized by surface area) or nanomoles per liter (concentration), divided by micrograms per meter squared per day (daily dose normalized by surface area).", "preferredTerm": "Nanomole per Liter per Microgram per Meter Squared per Day", "submissionValue": "umol/L/(mg/m2/day)", "synonyms": ["nmol/L/(ug/m2/day)", "umol/L/(mg/m2/day)"]}, {"conceptId": "C119423", "definition": "Moles per liter (concentration), divided by kilograms (weight) or millimoles per liter (concentration), divided by grams (weight) or micromoles per liter (concentration), divided by milligrams (dose) or nanomoles per liter (concentration), divided by micrograms (dose).", "preferredTerm": "Millimole per Liter per Gram", "submissionValue": "umol/L/mg", "synonyms": ["mmol/L/g", "mol/L/kg", "nmol/L/ug", "umol/L/mg"]}]}