{"_links": {"parentPackage": {"href": "/mdr/ct/packages/sendct-2018-09-28", "title": "SEND Controlled Terminology Package 35 Effective 2018-09-28", "type": "Terminology"}, "priorVersion": {"href": "/mdr/ct/packages/sendct-2018-06-29/codelists/C89972", "title": "CDISC SEND Macroscopic Findings Test Code Terminology", "type": "Code List"}, "rootItem": {"href": "/mdr/root/ct/sendct/codelists/C89972", "title": "Version-agnostic anchor resource for codelist C89972", "type": "Root Value Domain"}, "self": {"href": "/mdr/ct/packages/sendct-2018-09-28/codelists/C89972", "title": "CDISC SEND Macroscopic Findings Test Code Terminology", "type": "Code List"}}, "conceptId": "C89972", "definition": "Terminology for the test codes concerned with the findings from a specimen that are visible to the naked eye.", "extensible": "true", "name": "Macroscopic Findings Test Code", "preferredTerm": "CDISC SEND Macroscopic Findings Test Code Terminology", "submissionValue": "MATESTCD", "synonyms": ["Macroscopic Findings Test Code"], "terms": [{"conceptId": "C16033", "definition": "The process by which information about the health status of a subject is obtained after the subject is no longer receiving study medication.", "preferredTerm": "Follow-up", "submissionValue": "CLSFUP", "synonyms": ["Clinical Signs Follow-up"]}, {"conceptId": "C90390", "definition": "An assessment of macroscopic pathological findings.", "preferredTerm": "Gross Pathologic Examination", "submissionValue": "GROSPATH", "synonyms": ["Gross Pathological Examination"]}]}