{"_links": {"parentPackage": {"href": "/mdr/ct/packages/sendct-2018-09-28", "title": "SEND Controlled Terminology Package 35 Effective 2018-09-28", "type": "Terminology"}, "priorVersion": {"href": "/mdr/ct/packages/sendct-2018-06-29/codelists/C90000", "title": "CDISC SEND Severity Terminology", "type": "Code List"}, "rootItem": {"href": "/mdr/root/ct/sendct/codelists/C90000", "title": "Version-agnostic anchor resource for codelist C90000", "type": "Root Value Domain"}, "self": {"href": "/mdr/ct/packages/sendct-2018-09-28/codelists/C90000", "title": "CDISC SEND Severity Terminology", "type": "Code List"}}, "conceptId": "C90000", "definition": "Non-clinical terminology relevant to the degree of an occurrence of a reported finding.", "extensible": "false", "name": "SEND Severity", "preferredTerm": "CDISC SEND Severity Terminology", "submissionValue": "SEV", "synonyms": ["SEND Severity"], "terms": [{"conceptId": "C147499", "definition": "The first level of severity in an ordered list based on a three-level scale of 1, 2, and 3, with 1 being the lowest.", "preferredTerm": "Severity One Out of Three", "submissionValue": "1 OF 3", "synonyms": ["Severity 1 of 3"]}, {"conceptId": "C147500", "definition": "The first level of severity in an ordered list based on a four-level scale of 1, 2, 3, and 4, with 1 being the lowest.", "preferredTerm": "Severity One Out of Four", "submissionValue": "1 OF 4", "synonyms": ["Severity 1 of 4"]}, {"conceptId": "C147501", "definition": "The first level of severity in an ordered list based on a five-level scale of 1, 2, 3, 4, and 5, with 1 being the lowest.", "preferredTerm": "Severity One Out of Five", "submissionValue": "1 OF 5", "synonyms": ["Severity 1 of 5"]}, {"conceptId": "C147502", "definition": "The second level of severity in an ordered list based on a three-level scale of 1, 2, and 3, with 1 being the lowest.", "preferredTerm": "Severity Two Out of Three", "submissionValue": "2 OF 3", "synonyms": ["Severity 2 of 3"]}, {"conceptId": "C147503", "definition": "The second level of severity in an ordered list based on a four-level scale of 1, 2, 3, and 4, with 1 being the lowest.", "preferredTerm": "Severity Two Out of Four", "submissionValue": "2 OF 4", "synonyms": ["Severity 2 of 4"]}, {"conceptId": "C147504", "definition": "The second level of severity in an ordered list based on a five-level scale of 1, 2, 3, 4, and 5, with 1 being the lowest.", "preferredTerm": "Severity Two Out of Five", "submissionValue": "2 OF 5", "synonyms": ["Severity 2 of 5"]}, {"conceptId": "C147505", "definition": "The third level of severity in an ordered list based on a three-level scale of 1, 2, and 3, with 1 being the lowest.", "preferredTerm": "Severity Three Out of Three", "submissionValue": "3 OF 3", "synonyms": ["Severity 3 of 3"]}, {"conceptId": "C147506", "definition": "The third level of severity in an ordered list based on a four-level scale of 1, 2, 3, and 4, with 1 being the lowest.", "preferredTerm": "Severity Three Out of Four", "submissionValue": "3 OF 4", "synonyms": ["Severity 3 of 4"]}, {"conceptId": "C147507", "definition": "The third level of severity in an ordered list based on a five-level scale of 1, 2, 3, 4, and 5, with 1 being the lowest.", "preferredTerm": "Severity Three Out of Five", "submissionValue": "3 OF 5", "synonyms": ["Severity 3 of 5"]}, {"conceptId": "C147508", "definition": "The fourth level of severity in an ordered list based on a four-level scale of 1, 2, 3, and 4, with 1 being the lowest.", "preferredTerm": "Severity Four Out of Four", "submissionValue": "4 OF 4", "synonyms": ["Severity 4 of 4"]}, {"conceptId": "C147509", "definition": "The fourth level of severity in an ordered list based on a five-level scale of 1, 2, 3, 4, and 5, with 1 being the lowest.", "preferredTerm": "Severity Four Out of Five", "submissionValue": "4 OF 5", "synonyms": ["Severity 4 of 5"]}, {"conceptId": "C147510", "definition": "The fifth level of severity in an ordered list based on a five-level scale of 1, 2, 3, 4, and 5, with 1 being the lowest.", "preferredTerm": "Severity Five Out of Five", "submissionValue": "5 OF 5", "synonyms": ["Severity 5 of 5"]}]}