{"_links": {"parentPackage": {"href": "/mdr/ct/packages/sendct-2021-06-25", "title": "SEND Controlled Terminology Package 46 Effective 2021-06-25", "type": "Terminology"}, "rootItem": {"href": "/mdr/root/ct/sendct/codelists/C124313", "title": "Version-agnostic anchor resource for codelist C124313", "type": "Root Value Domain"}, "self": {"href": "/mdr/ct/packages/sendct-2021-06-25/codelists/C124313", "title": "CDISC SEND Fetal Pathology Findings Result Category Terminology", "type": "Code List"}}, "conceptId": "C124313", "definition": "Terminology relevant to the classifications of the results for fetal pathology findings.", "extensible": "true", "name": "Fetal Pathology Findings Result Category", "preferredTerm": "CDISC SEND Fetal Pathology Findings Result Category Terminology", "submissionValue": "FXRESCAT", "synonyms": ["Fetal Pathology Findings Result Category"], "terms": [{"conceptId": "C36287", "definition": "A permanent structural change that is likely to adversely affect the form, survival or health of the species under study. (Gupta, R. C. ed. (2011) Reproductive and Developmental Toxicology. London, UK: Elsevier, Inc.)", "preferredTerm": "Congenital or Acquired Anatomic Abnormality", "submissionValue": "MALFORMATION"}, {"conceptId": "C124594", "definition": "A finding related to the change from the expected ossification state in an otherwise normal structure or bone.", "preferredTerm": "Ossification Abnormality", "submissionValue": "OSSIFICATION"}, {"conceptId": "C124595", "definition": "A non-specified anomaly; an anomaly that is not included in a specified grouping of anomalies.", "preferredTerm": "Unclassified Abnormality", "submissionValue": "UNCLASSIFIED"}, {"conceptId": "C25713", "definition": "A structural or developmental change that is commonly observed within the population under study and is unlikely to adversely affect survival or health. (Gupta, R. C. ed. (2011 )Reproductive and Developmental Toxicology. London, UK: Elsevier, Inc.)", "preferredTerm": "Variation", "submissionValue": "VARIATION"}]}