{"_links": {"parentPackage": {"href": "/mdr/ct/packages/sendct-2021-06-25", "title": "SEND Controlled Terminology Package 46 Effective 2021-06-25", "type": "Terminology"}, "rootItem": {"href": "/mdr/root/ct/sendct/codelists/C150810", "title": "Version-agnostic anchor resource for codelist C150810", "type": "Root Value Domain"}, "self": {"href": "/mdr/ct/packages/sendct-2021-06-25/codelists/C150810", "title": "CDISC SEND Null Flavor Reason Terminology", "type": "Code List"}}, "conceptId": "C150810", "definition": "Terminology relevant to the reason for why a data value is not present.", "extensible": "true", "name": "Null Flavor Reason", "preferredTerm": "CDISC SEND Null Flavor Reason Terminology", "submissionValue": "NULLFLAV", "synonyms": ["Null Flavor Reason"], "terms": [{"conceptId": "C79729", "definition": "Information was sought but not found. (ISO)", "preferredTerm": "Asked but Unknown", "submissionValue": "ASKED BUT UNKNOWN", "synonyms": ["ASKU"]}, {"conceptId": "C42885", "definition": "An actual value may exist, but it must be derived from the provided information (usually an expression is provided directly). (ISO)", "preferredTerm": "Derivation", "submissionValue": "DERIVED", "synonyms": ["DER"]}, {"conceptId": "C50913", "definition": "Not valid data.", "preferredTerm": "Invalid Data", "submissionValue": "INVALID", "synonyms": ["INV"]}, {"conceptId": "C150904", "definition": "There is information on this item available but it has not been provided by the sender due to security, privacy or other reasons. There may be an alternate mechanism for gaining access to this information. Warning: Using this null flavor does provide information that may be a breach of confidentiality, even though no detail data is provided. Its primary purpose is for those circumstances where it is necessary to inform the receiver that the information does exist without providing any detail. (ISO)", "preferredTerm": "Masked Data", "submissionValue": "MASKED", "synonyms": ["MSK"]}, {"conceptId": "C53269", "definition": "The value is exceptional (missing, omitted, incomplete, improper). No information as to the reason for being an exceptional value is provided. This is the most general exceptional value. It is also the default exceptional value. (ISO)", "preferredTerm": "No Information Available", "submissionValue": "NO INFORMATION", "synonyms": ["NI"]}, {"conceptId": "C48660", "definition": "Determination of a value is not relevant in the current context. (NCI)", "preferredTerm": "Not Applicable", "submissionValue": "NOT APPLICABLE", "synonyms": ["NA", "Not Applicable"]}, {"conceptId": "C80217", "definition": "This information has not been sought. (ISO)", "preferredTerm": "Not Asked", "submissionValue": "NOT ASKED", "synonyms": ["NASK"]}, {"conceptId": "C17649", "definition": "Different than the one(s) previously specified or mentioned. (NCI)", "preferredTerm": "Other", "submissionValue": "OTHER", "synonyms": ["Other"]}, {"conceptId": "C150903", "definition": "Information is not available at this time but it is expected that it will be available later. (ISO)", "preferredTerm": "Temporarily Unavailable", "submissionValue": "TEMPORARILY UNAVAILABLE", "synonyms": ["NAV"]}, {"conceptId": "C150902", "definition": "No attempt has been made to encode the information correctly but the raw source information is represented (usually in originalText). (ISO)", "preferredTerm": "Unencoded Data", "submissionValue": "UNENCODED", "synonyms": ["UNC"]}, {"conceptId": "C17998", "definition": "Not known, not observed, not recorded, or refused. (NCI)", "preferredTerm": "Unknown", "submissionValue": "UNKNOWN", "synonyms": ["U", "UNK", "Unknown"]}]}