{"_links": {"parentPackage": {"href": "/mdr/ct/packages/sendct-2021-06-25", "title": "SEND Controlled Terminology Package 46 Effective 2021-06-25", "type": "Terminology"}, "rootItem": {"href": "/mdr/root/ct/sendct/codelists/C154684", "title": "Version-agnostic anchor resource for codelist C154684", "type": "Root Value Domain"}, "self": {"href": "/mdr/ct/packages/sendct-2021-06-25/codelists/C154684", "title": "CDISC SEND Planned Pharmacologic Target Mode of Action Response Terminology", "type": "Code List"}}, "conceptId": "C154684", "definition": "Terminology related to the functional change at the level of the intended target of the pharmacologic intervention.", "extensible": "true", "name": "Planned Pharmacologic Target Mode of Action Response", "preferredTerm": "CDISC SEND Planned Pharmacologic Target Mode of Action Response Terminology", "submissionValue": "PPTMDARS", "synonyms": ["Planned Pharmacologic Target Mode of Action Response"], "terms": [{"conceptId": "C154897", "definition": "A class of substances that binds to, activates and increases the activity of a molecular target.", "preferredTerm": "Activator", "submissionValue": "ACTIVATOR"}, {"conceptId": "C154902", "definition": "A class of substances that binds to and acts as a full or partial agonist at one receptor and an antagonist at another.", "preferredTerm": "Mixed Agonist/Antagonist", "submissionValue": "AGONIST-ANTAGONIST", "synonyms": ["Mixed Agonist-Antagonist"]}, {"conceptId": "C154904", "definition": "A class of substances that binds to a molecular target allosterically and induces a conformational change in the target. This leads to an altered binding affinity of the target to its substrate.", "preferredTerm": "Allosteric Modulator", "submissionValue": "ALLOSTERIC MODULATOR"}, {"conceptId": "C154903", "definition": "A class of substances that binds to a molecular target allosterically and induces a conformational change in that target. This leads to an enhanced binding affinity of the target to its substrate, and thereby amplifies the effect of the substrate on that target.", "preferredTerm": "Allosteric Potentiator", "submissionValue": "ALLOSTERIC POTENTIATOR"}, {"conceptId": "C154899", "definition": "A class of substances that binds to and activates a receptor and is intended to induce the maximum biological response.", "preferredTerm": "Full Receptor Agonist", "submissionValue": "FULL RECEPTOR AGONIST"}, {"conceptId": "C154898", "definition": "A class of substances that binds to and inhibits the function or activity of a molecular target.", "preferredTerm": "Inhibitor", "submissionValue": "INHIBITOR"}, {"conceptId": "C154901", "definition": "A class of substances that binds to a receptor at the same binding site as an agonist, but induces a biological response opposite to that agonist.", "preferredTerm": "Inverse Receptor Agonist", "submissionValue": "INVERSE RECEPTOR AGONIST"}, {"conceptId": "C156614", "definition": "A class of substances that irreversibly and permanently binds to and decreases the activity of and/or deactivates a target.", "preferredTerm": "Irreversible Inhibitor", "submissionValue": "IRREVERSIBLE INHIBITOR"}, {"conceptId": "C154900", "definition": "A class of substances that binds to and activates a receptor with less efficacy, and produces submaximal receptor activation relative to a full agonist.", "preferredTerm": "Partial Receptor Agonist", "submissionValue": "PARTIAL RECEPTOR AGONIST"}, {"conceptId": "C156615", "definition": "A class of substances that binds to and activates a receptor and produces a biological effect which inhibits or negates the biological response produced by an agonist at a different receptor.", "preferredTerm": "Physiologic Antagonist", "submissionValue": "PHYSIOLOGIC ANTAGONIST"}, {"conceptId": "C1514", "definition": "A class of substances that binds to and activates a receptor and induces a biological response.", "preferredTerm": "Agonist", "submissionValue": "RECEPTOR AGONIST"}, {"conceptId": "C94373", "definition": "A class of substances that competitively, noncompetitively or allosterically binds to and inhibits receptor activity.", "preferredTerm": "Antagonist", "submissionValue": "RECEPTOR ANTAGONIST"}]}