{"_links": {"parentPackage": {"href": "/mdr/ct/packages/sendct-2021-06-25", "title": "SEND Controlled Terminology Package 46 Effective 2021-06-25", "type": "Terminology"}, "rootItem": {"href": "/mdr/root/ct/sendct/codelists/C158122", "title": "Version-agnostic anchor resource for codelist C158122", "type": "Root Value Domain"}, "self": {"href": "/mdr/ct/packages/sendct-2021-06-25/codelists/C158122", "title": "CDISC SEND Rad/Nuc Agent Source Response Terminology", "type": "Code List"}}, "conceptId": "C158122", "definition": "Terminology related to the mode by which the radiological or nuclear challenge agent is delivered to the subject.", "extensible": "true", "name": "Rad/Nuc Agent Source Response", "preferredTerm": "CDISC SEND Rad/Nuc Agent Source Response Terminology", "submissionValue": "RNASRC", "synonyms": ["Rad/Nuc Agent Source Response"], "terms": [{"conceptId": "C158340", "definition": "A type of particle accelerator that generates ionizing radiation by colliding subatomic particles traveling at high speeds along a curved or circular chamber.", "preferredTerm": "Booster Synchrotron", "submissionValue": "BOOSTER SYNCHROTRON"}, {"conceptId": "C28169", "definition": "A type of particle accelerator that generates ionizing radiation by colliding subatomic particles traveling at high speeds along a straight chamber.", "preferredTerm": "Linear Accelerator", "submissionValue": "LINEAR ACCELERATOR", "synonyms": ["LINAC"]}, {"conceptId": "C158342", "definition": "A device that enables a controlled, self-sustaining nuclear fission reaction with release of energy.", "preferredTerm": "Nuclear Reactor", "submissionValue": "NUCLEAR REACTOR"}, {"conceptId": "C799", "definition": "An unstable isotope of an element that decays or disintegrates spontaneously, emitting energy (radiation). (NTI)", "preferredTerm": "Radioisotope", "submissionValue": "RADIOISOTOPE"}, {"conceptId": "C158341", "definition": "A device that exposes samples to X-ray radiation.", "preferredTerm": "X-Ray Irradiator", "submissionValue": "X-RAY IRRADIATOR"}]}