{"_links": {"parentPackage": {"href": "/mdr/ct/packages/sendct-2021-06-25", "title": "SEND Controlled Terminology Package 46 Effective 2021-06-25", "type": "Terminology"}, "rootItem": {"href": "/mdr/root/ct/sendct/codelists/C160929", "title": "Version-agnostic anchor resource for codelist C160929", "type": "Root Value Domain"}, "self": {"href": "/mdr/ct/packages/sendct-2021-06-25/codelists/C160929", "title": "CDISC SEND Expected Onset of Rad/Nuc Targeted Injury Response Terminology", "type": "Code List"}}, "conceptId": "C160929", "definition": "Terminology related to the relative timing of the expected onset of the targeted injury, with respect to rad/nuc challenge agent exposure.", "extensible": "true", "name": "Expected Onset of Rad/Nuc Targeted Injury Response", "preferredTerm": "CDISC SEND Expected Onset of Rad/Nuc Targeted Injury Response Terminology", "submissionValue": "EORNTI", "synonyms": ["Expected Onset of Rad/Nuc Targeted Injury Response"], "terms": [{"conceptId": "C161522", "definition": "The manifestation of the injury, disease, or condition is characterized as having both acute and delayed onsets.", "preferredTerm": "Acute and Delayed Onset", "submissionValue": "ACUTE AND DELAYED ONSET"}, {"conceptId": "C161520", "definition": "The manifestation of the injury, disease, or condition is characterized as having an immediate or early onset.", "preferredTerm": "Acute Onset", "submissionValue": "ACUTE ONSET"}, {"conceptId": "C161521", "definition": "The manifestation of the injury, disease, or condition is characterized as having a delayed onset.", "preferredTerm": "Delayed Onset", "submissionValue": "DELAYED ONSET"}]}