{"_links": {"parentPackage": {"href": "/mdr/ct/packages/sendct-2021-06-25", "title": "SEND Controlled Terminology Package 46 Effective 2021-06-25", "type": "Terminology"}, "rootItem": {"href": "/mdr/root/ct/sendct/codelists/C90012", "title": "Version-agnostic anchor resource for codelist C90012", "type": "Root Value Domain"}, "self": {"href": "/mdr/ct/packages/sendct-2021-06-25/codelists/C90012", "title": "CDISC SEND Electrocardiogram Category Terminology", "type": "Code List"}}, "conceptId": "C90012", "definition": "Terminology related to classifications that describe non-clinical ECG tests.", "extensible": "true", "name": "SEND ECG Category", "preferredTerm": "CDISC SEND Electrocardiogram Category Terminology", "submissionValue": "EGCATSND", "synonyms": ["SEND ECG Category"], "terms": [{"conceptId": "C15220", "definition": "The investigation, analysis and recognition of the presence and nature of disease, condition, or injury from expressed signs and symptoms; also, the scientific determination of any kind; the concise results or summary of such an investigation. (NCI)", "preferredTerm": "Diagnosis", "submissionValue": "DIAGNOSIS", "synonyms": ["Diagnostic"]}, {"conceptId": "C41255", "definition": "An act or process of elucidation; explication, or explanation of the meaning of the event or thing via the assignment of objects from the domain to the constants of a formal language, truth-values to the proposition symbols, truth-functions to the connectives, other functions to the function symbols, and extensions to the predicates, if any. The assignments are result of human logic application and are not native to the symbols of the formal language.", "preferredTerm": "Interpretation", "submissionValue": "INTERPRETATION", "synonyms": ["Interpretation"]}, {"conceptId": "C25209", "definition": "Annotation used to indicate the size or magnitude of something that was determined by comparison to a standard. (NCI)", "preferredTerm": "Measurement", "submissionValue": "MEASUREMENT"}]}