{"_links": {"parentPackage": {"href": "/mdr/ct/packages/protocolct-2020-06-26", "title": "PROTOCOL Controlled Terminology Package 42 Effective 2020-06-26", "type": "Terminology"}, "priorVersion": {"href": "/mdr/ct/packages/protocolct-2020-03-27/codelists/C147068", "title": "CDISC Protocol Subject Allocation Response Terminology", "type": "Code List"}, "rootItem": {"href": "/mdr/root/ct/protocolct/codelists/C147068", "title": "Version-agnostic anchor resource for codelist C147068", "type": "Root Value Domain"}, "self": {"href": "/mdr/ct/packages/protocolct-2020-06-26/codelists/C147068", "title": "CDISC Protocol Subject Allocation Response Terminology", "type": "Code List"}}, "conceptId": "C147068", "definition": "A terminology codelist for the method of assigning participants, or subjects, to groups or categories within a clinical study.", "name": "Participant Allocation Value Set", "preferredTerm": "CDISC Protocol Subject Allocation Response Terminology", "submissionValue": "Participant Allocation Value Set", "synonyms": ["Participant Allocation Value Set"], "terms": [{"conceptId": "C93043", "definition": "Participants are expressly assigned to intervention groups through a non-random method. (clinicaltrials.gov)", "preferredTerm": "Nonrandomized Clinical Trial", "submissionValue": "Nonrandomized"}, {"conceptId": "C48660", "definition": "Determination of a value is not relevant in the current context. (NCI)", "preferredTerm": "Not Applicable", "submissionValue": "Not Applicable", "synonyms": ["NA", "Not Applicable"]}, {"conceptId": "C25196", "definition": "The process of assigning trial subjects to treatment or control groups using an element of chance to determine the assignments in order to reduce bias. NOTE: Unequal randomization is used to allocate subjects into groups at a differential rate; for example, three subjects may be assigned to a treatment group for every one assigned to the control group. [ICH E6 1.48] See also balanced study. (CDISC glossary)", "preferredTerm": "Randomization", "submissionValue": "Randomized", "synonyms": ["Trial is Randomized"]}]}