{"_links": {"parentPackage": {"href": "/mdr/ct/packages/protocolct-2020-06-26", "title": "PROTOCOL Controlled Terminology Package 42 Effective 2020-06-26", "type": "Terminology"}, "priorVersion": {"href": "/mdr/ct/packages/protocolct-2020-03-27/codelists/C165640", "title": "CDISC Protocol Study Oversight Entity Attribute Terminology", "type": "Code List"}, "rootItem": {"href": "/mdr/root/ct/protocolct/codelists/C165640", "title": "Version-agnostic anchor resource for codelist C165640", "type": "Root Value Domain"}, "self": {"href": "/mdr/ct/packages/protocolct-2020-06-26/codelists/C165640", "title": "CDISC Protocol Study Oversight Entity Attribute Terminology", "type": "Code List"}}, "conceptId": "C165640", "definition": "A terminology value set relevant to the attributes of the study oversight entity.", "name": "Study Oversight Entity Attribute Terminology", "preferredTerm": "CDISC Protocol Study Oversight Entity Attribute Terminology", "submissionValue": "Study Oversight Entity Attribute Terminology", "synonyms": ["Study Oversight Entity Attribute Terminology"], "terms": [{"conceptId": "C165862", "definition": "The date on which the study oversight entity grants approval.", "preferredTerm": "Study Oversight Entity Approval Date", "submissionValue": "Study Oversight Entity Approval Date"}, {"conceptId": "C165863", "definition": "The state of the study oversight entity approval process.", "preferredTerm": "Study Oversight Entity Approval Status", "submissionValue": "Study Oversight Entity Approval Status"}, {"conceptId": "C165864", "definition": "The type of oversight entity for the study.", "preferredTerm": "Study Oversight Entity Type", "submissionValue": "Study Oversight Entity Type"}]}