{"_links": {"parentPackage": {"href": "/mdr/ct/packages/protocolct-2022-12-16", "title": "Protocol Controlled Terminology Package 52 Effective 2022-12-16", "type": "Terminology"}, "priorVersion": {"href": "/mdr/ct/packages/protocolct-2022-09-30/codelists/C177906", "title": "CDISC Protocol Ingredient Attribute Terminology", "type": "Code List"}, "rootItem": {"href": "/mdr/root/ct/protocolct/codelists/C177906", "title": "Version-agnostic anchor resource for codelist C177906", "type": "Root Value Domain"}, "self": {"href": "/mdr/ct/packages/protocolct-2022-12-16/codelists/C177906", "title": "CDISC Protocol Ingredient Attribute Terminology", "type": "Code List"}}, "conceptId": "C177906", "definition": "A terminology value set relevant to the attributes of the ingredient.", "name": "Ingredient Attribute Terminology", "preferredTerm": "CDISC Protocol Ingredient Attribute Terminology", "submissionValue": "Ingredient Attribute Terminology", "synonyms": ["Ingredient Attribute Terminology"], "terms": [{"conceptId": "C177929", "definition": "Any ingredient intended for use in the manufacture of a drug product, including those that may not appear in such drug product. (FDA 21 CFR 314.3(a))", "preferredTerm": "Drug Product Component", "submissionValue": "Drug Product Component", "synonyms": ["Component"]}, {"conceptId": "C177928", "definition": "A characterization or classification of the component that constitutes a part of a compound or mixture.", "preferredTerm": "Ingredient Type", "submissionValue": "Ingredient Type"}]}