{"_links": {"parentPackage": {"href": "/mdr/ct/packages/protocolct-2022-12-16", "title": "Protocol Controlled Terminology Package 52 Effective 2022-12-16", "type": "Terminology"}, "priorVersion": {"href": "/mdr/ct/packages/protocolct-2022-09-30/codelists/C185851", "title": "CDISC Protocol Study Subject Discontinuation Attribute Terminology", "type": "Code List"}, "rootItem": {"href": "/mdr/root/ct/protocolct/codelists/C185851", "title": "Version-agnostic anchor resource for codelist C185851", "type": "Root Value Domain"}, "self": {"href": "/mdr/ct/packages/protocolct-2022-12-16/codelists/C185851", "title": "CDISC Protocol Study Subject Discontinuation Attribute Terminology", "type": "Code List"}}, "conceptId": "C185851", "definition": "A terminology value set relevant to the attributes of the subject discontinuation.", "name": "Study Subject Discontinuation Attribute Terminology", "preferredTerm": "CDISC Protocol Study Subject Discontinuation Attribute Terminology", "submissionValue": "Study Subject Discontinuation Attribute Terminology", "synonyms": ["Study Subject Discontinuation Attribute Terminology"], "terms": [{"conceptId": "C185956", "definition": "A description of the provisions or stipulations under which the subject may withdraw themselves from the study, following local and national regulations.", "preferredTerm": "Conditions of Subject Withdrawal", "submissionValue": "Conditions of Subject Withdrawal"}, {"conceptId": "C185957", "definition": "A description of the process by which information about the health status of a subject is obtained after that subject has withdrawn from the study.", "preferredTerm": "Withdrawn Subject Follow-Up Process Description", "submissionValue": "Follow-up for Withdrawn Subject"}, {"conceptId": "C185958", "definition": "The set of protocol-defined criteria that qualifies a study subject as being lost to follow-up.", "preferredTerm": "Lost to Follow-up Criteria", "submissionValue": "Lost to Follow-up Criteria"}, {"conceptId": "C48227", "definition": "The loss or lack of continuation of a subject to follow-up.", "preferredTerm": "Lost To Follow-Up", "submissionValue": "Lost to Follow-up"}, {"conceptId": "C49627", "definition": "The explanation for why the enrolled subject concluded participation, prior to completion of all protocol-required elements, in a study.", "preferredTerm": "Reason for Study Discontinuation", "submissionValue": "Reason for Study Discontinuation"}, {"conceptId": "C185959", "definition": "The explanation or rationale as to why the subject withdrew from the study.", "preferredTerm": "Reason for Subject Withdrawal from Study", "submissionValue": "Reason for Subject Withdrawal from Study"}, {"conceptId": "C185960", "definition": "The set of protocol-defined criteria that serves to determine whether and how an enrolled subject may conclude participation in a study, prior to completion of all protocol-required elements.", "preferredTerm": "Study Subject Discontinuation Criteria", "submissionValue": "Study Subject Discontinuation Criteria"}, {"conceptId": "C185961", "definition": "A description of the stepwise set of actions taken when a subject discontinues participation in a study.", "preferredTerm": "Subject Discontinuation Process Description", "submissionValue": "Subject Discontinuation Process", "synonyms": ["Subject Discontinuation Procedure"]}, {"conceptId": "C176342", "definition": "An indication that the consent to participate in the study, or one or more components of the study, has been revoked.", "preferredTerm": "Study Consent Withdrawn", "submissionValue": "Subject Withdrawal of Consent", "synonyms": ["Informed Consent Withdrawn"]}, {"conceptId": "C49634", "definition": "The subject-initiated act of discontinuing participation in the study as a whole or one or more aspects of the study (e.g., a study period or use of biospecimens).", "preferredTerm": "Withdrawal by Subject", "submissionValue": "Subject Withdrawal", "synonyms": ["Dropout"]}]}