{"_links": {"parentPackage": {"href": "/mdr/ct/packages/protocolct-2022-12-16", "title": "Protocol Controlled Terminology Package 52 Effective 2022-12-16", "type": "Terminology"}, "priorVersion": {"href": "/mdr/ct/packages/protocolct-2022-09-30/codelists/C189268", "title": "CDISC Protocol Study Blinding and Unblinding Attribute Terminology", "type": "Code List"}, "rootItem": {"href": "/mdr/root/ct/protocolct/codelists/C189268", "title": "Version-agnostic anchor resource for codelist C189268", "type": "Root Value Domain"}, "self": {"href": "/mdr/ct/packages/protocolct-2022-12-16/codelists/C189268", "title": "CDISC Protocol Study Blinding and Unblinding Attribute Terminology", "type": "Code List"}}, "conceptId": "C189268", "definition": "A terminology value set relevant to the attributes of the study blinding and unblinding entity.", "name": "Study Blinding and Unblinding Attribute Terminology", "preferredTerm": "CDISC Protocol Study Blinding and Unblinding Attribute Terminology", "submissionValue": "Study Blinding and Unblinding Attribute Terminology", "synonyms": ["Study Blinding and Unblinding Attribute Terminology"], "terms": [{"conceptId": "C142408", "definition": "A study product whose appearance and characteristics are the same between each investigational agent and control.", "preferredTerm": "Blinded Medication", "submissionValue": "Masked Medication", "synonyms": ["Blinded Medication"]}, {"conceptId": "C189349", "definition": "The methodology used for enacting study blinding.", "preferredTerm": "Study Blinding Procedure", "submissionValue": "Study Blinding Procedure"}, {"conceptId": "C49658", "definition": "The type of experimental design used to describe the level of awareness of the study subjects and/ or study personnel as it relates to the respective intervention(s) or assessments being observed, received or administered.", "preferredTerm": "Trial Blinding Schema", "submissionValue": "Study Blinding Schema", "synonyms": ["Study Blinding Design", "Study Blinding Schema", "Study Masking Design", "Trial Blinding Design", "Trial Blinding Schema", "Trial Masking Design"]}, {"conceptId": "C49068", "definition": "A procedure to limit bias by preventing subjects and/ or study personnel from identifying which treatments or procedures are administered, or from learning the results of tests and measures undertaken as part of a clinical investigation. (CDISC Glossary)", "preferredTerm": "Blinded", "submissionValue": "Study Blinding", "synonyms": ["Trial Blinding"]}, {"conceptId": "C189350", "definition": "A description of the methodology used for planned or unplanned unblinding of the study.", "preferredTerm": "Study Unblinding Procedure", "submissionValue": "Study Unblinding Procedure"}, {"conceptId": "C142742", "definition": "A study event during which the treatment assignment is made known to the subject, investigator, and/or other trial personnel.", "preferredTerm": "Unblinding", "submissionValue": "Study Unblinding"}]}