{"_links": {"parentPackage": {"href": "/mdr/ct/packages/protocolct-2022-12-16", "title": "Protocol Controlled Terminology Package 52 Effective 2022-12-16", "type": "Terminology"}, "priorVersion": {"href": "/mdr/ct/packages/protocolct-2022-09-30/codelists/C99078", "title": "CDISC SDTM Intervention Type Terminology", "type": "Code List"}, "rootItem": {"href": "/mdr/root/ct/protocolct/codelists/C99078", "title": "Version-agnostic anchor resource for codelist C99078", "type": "Root Value Domain"}, "self": {"href": "/mdr/ct/packages/protocolct-2022-12-16/codelists/C99078", "title": "CDISC SDTM Intervention Type Terminology", "type": "Code List"}}, "conceptId": "C99078", "definition": "A terminology codelist relevant to the kind of product or procedure studied in a trial.", "extensible": "false", "name": "Intervention Type Response", "preferredTerm": "CDISC SDTM Intervention Type Terminology", "submissionValue": "INTTYPE", "synonyms": ["Intervention Type Response"], "terms": [{"conceptId": "C15184", "definition": "A technique used to change the behavior of a subject (e.g., psychotherapy, lifestyle counseling, or hypnosis).", "preferredTerm": "Behavioral Intervention", "submissionValue": "BEHAVIORAL THERAPY"}, {"conceptId": "C307", "definition": "A product of biological origin applicable to the prevention, treatment, or cure of a disease or condition, for example: virus, therapeutic serum, toxin, antitoxin, vaccine, blood, blood component or derivative, allergenic product, or analogous product. (FDA 21 CFR 600.3)", "preferredTerm": "Biological Agent", "submissionValue": "BIOLOGIC"}, {"conceptId": "C16830", "definition": "Any instrument, apparatus, implement, machine, appliance, implant, reagent for in vitro use, software, material or other similar or related article, intended by the manufacturer to be used, alone or in combination for, one or more specific medical purpose(s). [After REGULATION (EU) 2017/745 OF THE EUROPEAN PARLIAMENT AND OF THE COUNCIL of 5 April 2017 on medical devices]", "preferredTerm": "Medical Device", "submissionValue": "DEVICE", "synonyms": ["Medical Device"]}, {"conceptId": "C1505", "definition": "Preparations containing ingredient(s) intended to supplement the diet.", "preferredTerm": "Dietary Supplement", "submissionValue": "DIETARY SUPPLEMENT"}, {"conceptId": "C1909", "definition": "An active natural, synthetic or semi-synthetic ingredient including endogenous body substance that is intended to furnish pharmacological activity or other direct effect in the diagnosis, cure, mitigation, treatment, or prevention of disease or to affect the structure or any function of the human body, but does not include intermediates used in the synthesis of such ingredient (21 CFR 314.3(b)).", "preferredTerm": "Pharmacologic Substance", "submissionValue": "DRUG"}, {"conceptId": "C15238", "definition": "Introduction of genetic material into cells in order to correct or treat an inherited or acquired disease.", "preferredTerm": "Gene Therapy", "submissionValue": "GENETIC", "synonyms": ["Gene Therapy"]}, {"conceptId": "C17649", "definition": "Different than the one(s) previously specified or mentioned. (NCI)", "preferredTerm": "Other", "submissionValue": "OTHER", "synonyms": ["Other"]}, {"conceptId": "C98769", "definition": "Any activity performed by manual and/or instrumental means for the purpose of diagnosis, assessment, therapy, prevention, or palliative care.", "preferredTerm": "Physical Medical Procedure", "submissionValue": "PROCEDURE", "synonyms": ["Medical Procedure"]}, {"conceptId": "C15313", "definition": "Use of targeted or whole body radiation to treat a disease.", "preferredTerm": "Radiation Therapy", "submissionValue": "RADIATION", "synonyms": ["Radiation Therapy", "Radiotherapy"]}]}