{"_links": {"parentPackage": {"href": "/mdr/ct/packages/cdashct-2021-03-26", "title": "CDASH Controlled Terminology Package 45 Effective 2021-03-26", "type": "Terminology"}, "rootItem": {"href": "/mdr/root/ct/cdashct/codelists/C177909", "title": "Version-agnostic anchor resource for codelist C177909", "type": "Root Value Domain"}, "self": {"href": "/mdr/ct/packages/cdashct-2021-03-26/codelists/C177909", "title": "CDISC CDASH Serious Adverse Event Report Category Response Terminology", "type": "Code List"}}, "conceptId": "C177909", "definition": "Terminology relevant to the classification of a serious adverse event report.", "extensible": "false", "name": "Serious Adverse Event Report Category", "preferredTerm": "CDISC CDASH Serious Adverse Event Report Category Response Terminology", "submissionValue": "SAERCAT", "synonyms": ["Serious Adverse Event Report Category"], "terms": [{"conceptId": "C41200", "definition": "Action(s) undertaken to modify by means of correction, addition, subtraction, or replacement.", "preferredTerm": "Amendment", "submissionValue": "AMENDMENT", "synonyms": ["Amended"]}, {"conceptId": "C178052", "definition": "Action(s) undertaken to void, negate, or invalidate.", "preferredTerm": "Nullification", "submissionValue": "NULLIFICATION", "synonyms": ["Nullified"]}, {"conceptId": "C25604", "definition": "Preceding all others in time or being as first made or performed.", "preferredTerm": "Original", "submissionValue": "ORIGINAL"}]}