{"_links": {"parentPackage": {"href": "/mdr/ct/packages/sendct-2023-06-30", "title": "SEND Controlled Terminology Package 54 Effective 2023-06-30", "type": "Terminology"}, "priorVersion": {"href": "/mdr/ct/packages/sendct-2023-03-31/codelists/C128686", "title": "CDISC SDTM PK Unit of Measure Microgram Dose Terminology", "type": "Code List"}, "rootItem": {"href": "/mdr/root/ct/sendct/codelists/C128686", "title": "Version-agnostic anchor resource for codelist C128686", "type": "Root Value Domain"}, "self": {"href": "/mdr/ct/packages/sendct-2023-06-30/codelists/C128686", "title": "CDISC SDTM PK Unit of Measure Microgram Dose Terminology", "type": "Code List"}}, "conceptId": "C128686", "definition": "Units of measure for pharmacokinetic parameters normalized by dose amount in micrograms.", "extensible": "true", "name": "PK Units of Measure - Dose ug", "preferredTerm": "CDISC SDTM PK Unit of Measure Microgram Dose Terminology", "submissionValue": "PKUDUG", "synonyms": ["PK Units of Measure - Dose ug"], "terms": [{"conceptId": "C120733", "definition": "Liters per day (flow rate), divided by micrograms per day (daily dose).", "preferredTerm": "Liter per Day per Microgram per Day", "submissionValue": "(L/day)/(ug/day)"}, {"conceptId": "C120734", "definition": "Liters per day (flow rate), divided by micrograms per kilogram (dose normalized by body weight).", "preferredTerm": "Liter per Day per Microgram per Kilogram", "submissionValue": "(L/day)/(ug/kg)"}, {"conceptId": "C120735", "definition": "Liters per day (flow rate), divided by micrograms per kilogram per day (daily dose normalized by body weight).", "preferredTerm": "Liter per Day per Microgram per Kilogram per Day", "submissionValue": "(L/day)/(ug/kg/day)"}, {"conceptId": "C120736", "definition": "Liters per day (flow rate), divided by micrograms per meter squared (dose normalized by surface area).", "preferredTerm": "Liter per Day per Microgram per Meter Squared", "submissionValue": "(L/day)/(ug/m2)"}, {"conceptId": "C120737", "definition": "Liters per day (flow rate), divided by micrograms per meter squared per day (daily dose normalized by surface area).", "preferredTerm": "Liter per Day per Microgram per Meter Squared per Day", "submissionValue": "(L/day)/(ug/m2/day)"}, {"conceptId": "C85665", "definition": "Liters per day (flow rate), divided by micrograms (dose).", "preferredTerm": "Liter per Microgram per Day", "submissionValue": "(L/day)/ug"}, {"conceptId": "C120745", "definition": "Liters per hour (flow rate), divided by micrograms per day (daily dose).", "preferredTerm": "Liter per Hour per Microgram per Day", "submissionValue": "(L/h)/(ug/day)"}, {"conceptId": "C120746", "definition": "Liters per hour (flow rate), divided by micrograms per kilogram (dose normalized by body weight).", "preferredTerm": "Liter per Hour per Microgram per Kilogram", "submissionValue": "(L/h)/(ug/kg)"}, {"conceptId": "C120747", "definition": "Liters per hour (flow rate), divided by micrograms per kilogram per day (daily dose normalized by body weight).", "preferredTerm": "Liter per Hour per Microgram per Kilogram per Day", "submissionValue": "(L/h)/(ug/kg/day)"}, {"conceptId": "C120748", "definition": "Liters per hour (flow rate), divided by micrograms per meter squared (dose normalized by surface area).", "preferredTerm": "Liter per Hour per Microgram per Meter Squared", "submissionValue": "(L/h)/(ug/m2)"}, {"conceptId": "C120749", "definition": "Liters per hour (flow rate), divided by micrograms per meter squared per day (daily dose normalized by surface area).", "preferredTerm": "Liter per Hour per Microgram per Meter Squared per Day", "submissionValue": "(L/h)/(ug/m2/day)"}, {"conceptId": "C85662", "definition": "Liters per hour (flow rate), divided by micrograms (dose).", "preferredTerm": "Liter per Microgram per Hour", "submissionValue": "(L/h)/ug"}, {"conceptId": "C120756", "definition": "Liters per minute (flow rate), divided by micrograms per day (daily dose).", "preferredTerm": "Liter per Minute per Microgram per Day", "submissionValue": "(L/min)/(ug/day)"}, {"conceptId": "C120757", "definition": "Liters per minute (flow rate), divided by micrograms per kilogram (dose normalized by body weight).", "preferredTerm": "Liter per Minute per Microgram per Kilogram", "submissionValue": "(L/min)/(ug/kg)"}, {"conceptId": "C120758", "definition": "Liters per minute (flow rate), divided by micrograms per kilogram per day (daily dose normalized by body weight).", "preferredTerm": "Liter per Minute per Microgram per Kilogram per Day", "submissionValue": "(L/min)/(ug/kg/day)"}, {"conceptId": "C120759", "definition": "Liters per minute (flow rate), divided by micrograms per meter squared (dose normalized by surface area).", "preferredTerm": "Liter per Minute per Microgram per Meter Squared", "submissionValue": "(L/min)/(ug/m2)"}, {"conceptId": "C120760", "definition": "Liters per minute (flow rate), divided by micrograms per meter squared per day (daily dose normalized by surface area).", "preferredTerm": "Liter per Minute per Microgram per Meter Squared per Day", "submissionValue": "(L/min)/(ug/m2/day)"}, {"conceptId": "C85666", "definition": "Liters per minute (flow rate), divided by micrograms (dose).", "preferredTerm": "Liter per Microgram per Minute", "submissionValue": "(L/min)/ug"}, {"conceptId": "C120728", "definition": "Liters per day (flow rate), divided by milligrams per day (daily dose) or milliliters per day (flow rate), divided by micrograms per day (daily dose).", "preferredTerm": "Liter per Day per Milligram per Day", "submissionValue": "(mL/day)/(ug/day)", "synonyms": ["(L/day)/(mg/day)", "(mL/day)/(ug/day)"]}, {"conceptId": "C120729", "definition": "Liters per day (flow rate), divided by milligrams per kilogram (dose normalized by body weight) or milliliters per day (flow rate), divided by micrograms per kilogram (dose normalized by body weight).", "preferredTerm": "Liter per Day per Milligram per Kilogram", "submissionValue": "(mL/day)/(ug/kg)", "synonyms": ["(L/day)/(mg/kg)", "(mL/day)/(ug/kg)"]}, {"conceptId": "C120730", "definition": "Liters per day (flow rate), divided by milligrams per kilogram per day (daily dose normalized by body weight) or milliliters per day (flow rate), divided by micrograms per kilogram per day (daily dose normalized by body weight).", "preferredTerm": "Liter per Day per Milligram per Kilogram per Day", "submissionValue": "(mL/day)/(ug/kg/day)", "synonyms": ["(L/day)/(mg/kg/day)", "(mL/day)/(ug/kg/day)"]}, {"conceptId": "C120731", "definition": "Liters per day (flow rate), divided by milligrams per meter squared (dose normalized by surface area) or milliliters per day (flow rate), divided by micrograms per meter squared (dose normalized by surface area).", "preferredTerm": "Liter per Day per Milligram per Meter Squared", "submissionValue": "(mL/day)/(ug/m2)", "synonyms": ["(L/day)/(mg/m2)", "(mL/day)/(ug/m2)"]}, {"conceptId": "C120732", "definition": "Liters per day (flow rate), divided by milligrams per meter squared per day (daily dose normalized by surface area) or milliliters per day (flow rate), divided by micrograms per meter squared per day (daily dose normalized by surface area).", "preferredTerm": "Liter per Day per Milligram per Meter Squared per Day", "submissionValue": "(mL/day)/(ug/m2/day)", "synonyms": ["(L/day)/(mg/m2/day)", "(mL/day)/(ug/m2/day)"]}, {"conceptId": "C85672", "definition": "Liters per day (flow rate), divided by milligrams (dose) or milliliters per day (flow rate), divided by micrograms (dose).", "preferredTerm": "Liter per Milligram per Day", "submissionValue": "(mL/day)/ug", "synonyms": ["(L/day)/mg", "(mL/day)/ug"]}, {"conceptId": "C120740", "definition": "Liters per hour (flow rate), divided by milligrams per day (daily dose) or milliliters per hour (flow rate), divided by micrograms per day (daily dose).", "preferredTerm": "Liter per Hour per Milligram per Day", "submissionValue": "(mL/h)/(ug/day)", "synonyms": ["(L/h)/(mg/day)", "(mL/h)/(ug/day)"]}, {"conceptId": "C120741", "definition": "Liters per hour (flow rate), divided by milligrams per kilogram (dose normalized by body weight) or milliliters per hour (flow rate), divided by micrograms per kilogram (dose normalized by body weight).", "preferredTerm": "Liter per Hour per Milligram per Kilogram", "submissionValue": "(mL/h)/(ug/kg)", "synonyms": ["(L/h)/(mg/kg)", "(mL/h)/(ug/kg)"]}, {"conceptId": "C120742", "definition": "Liters per hour (flow rate), divided by milligrams per kilogram per day (daily dose normalized by body weight) or milliliters per hour (flow rate), divided by micrograms per kilogram per day (daily dose normalized by body weight).", "preferredTerm": "Liter per Hour per Milligram per Kilogram per Day", "submissionValue": "(mL/h)/(ug/kg/day)", "synonyms": ["(L/h)/(mg/kg/day)", "(mL/h)/(ug/kg/day)"]}, {"conceptId": "C120743", "definition": "Liters per hour (flow rate), divided by milligrams per meter squared (dose normalized by surface area) or milliliters per hour (flow rate), divided by micrograms per meter squared (dose normalized by surface area).", "preferredTerm": "Liter per Hour per Milligram per Meter Squared", "submissionValue": "(mL/h)/(ug/m2)", "synonyms": ["(L/h)/(mg/m2)", "(mL/h)/(ug/m2)"]}, {"conceptId": "C120744", "definition": "Liters per hour (flow rate), divided by milligrams per meter squared per day (daily dose normalized by surface area) or milliliters per hour (flow rate), divided by micrograms per meter squared per day (daily dose normalized by surface area).", "preferredTerm": "Liter per Hour per Milligram per Meter Squared per Day", "submissionValue": "(mL/h)/(ug/m2/day)", "synonyms": ["(L/h)/(mg/m2/day)", "(mL/h)/(ug/m2/day)"]}, {"conceptId": "C85673", "definition": "Liters per hour (flow rate), divided by milligrams (dose) or milliliters per hour (flow rate), divided by micrograms (dose).", "preferredTerm": "Liter per Milligram per Hour", "submissionValue": "(mL/h)/ug", "synonyms": ["(L/h)/mg", "(mL/h)/ug"]}, {"conceptId": "C120751", "definition": "Liters per minute (flow rate), divided by milligrams per day (daily dose) or milliliters per minute (flow rate), divided by micrograms per day (daily dose).", "preferredTerm": "Liter per Minute per Milligram per Day", "submissionValue": "(mL/min)/(ug/day)", "synonyms": ["(L/min)/(mg/day)", "(mL/min)/(ug/day)"]}, {"conceptId": "C120752", "definition": "Liters per minute (flow rate), divided by milligrams per kilogram (dose normalized by body weight) or milliliters per minute (flow rate), divided by micrograms per kilogram (dose normalized by body weight).", "preferredTerm": "Liter per Minute per Milligram per Kilogram", "submissionValue": "(mL/min)/(ug/kg)", "synonyms": ["(L/min)/(mg/kg)", "(mL/min)/(ug/kg)"]}, {"conceptId": "C120753", "definition": "Liters per minute (flow rate), divided by milligrams per kilogram per day (daily dose normalized by body weight) or milliliters per minute (flow rate), divided by micrograms per kilogram per day (daily dose normalized by body weight).", "preferredTerm": "Liter per Minute per Milligram per Kilogram per Day", "submissionValue": "(mL/min)/(ug/kg/day)", "synonyms": ["(L/min)/(mg/kg/day)", "(mL/min)/(ug/kg/day)"]}, {"conceptId": "C120754", "definition": "Liters per minute (flow rate), divided by milligrams per meter squared (dose normalized by surface area) or milliliters per minute (flow rate), divided by micrograms per meter squared (dose normalized by surface area).", "preferredTerm": "Liter per Minute per Milligram per Meter Squared", "submissionValue": "(mL/min)/(ug/m2)", "synonyms": ["(L/min)/(mg/m2)", "(mL/min)/(ug/m2)"]}, {"conceptId": "C120755", "definition": "Liters per minute (flow rate), divided by milligrams per meter squared per day (daily dose normalized by surface area) or milliliters per minute (flow rate), divided by micrograms per meter squared per day (daily dose normalized by surface area).", "preferredTerm": "Liter per Minute per Milligram per Meter Squared per Day", "submissionValue": "(mL/min)/(ug/m2/day)", "synonyms": ["(L/min)/(mg/m2/day)", "(mL/min)/(ug/m2/day)"]}, {"conceptId": "C85674", "definition": "Liters per minute (flow rate), divided by milligrams (dose) or milliliters per minute (flow rate), divided by micrograms (dose).", "preferredTerm": "Liter per Milligram per Minute", "submissionValue": "(mL/min)/ug", "synonyms": ["(L/min)/mg", "(mL/min)/ug"]}, {"conceptId": "C198211", "definition": "Days times nanograms per milliliter (area under the curve), divided by milligrams per kilogram (dose normalized by body weight).", "preferredTerm": "Day Times Nanogram Per Milliliter Per Milligram Per Kilogram", "submissionValue": "day*ng/mL/(mg/kg)"}, {"conceptId": "C112247", "definition": "Days times grams per milliliter (area under the curve), divided by kilograms (weight); or days times milligrams per milliliter (area under the curve), divided by grams (weight); or days times micrograms per milliliter (area under the curve), divided by milligrams (dose); or days times nanograms per milliliter (area under the curve), divided by micrograms (dose).", "preferredTerm": "Day Times Gram Per Milliliter Per Kilogram", "submissionValue": "day*ng/mL/ug", "synonyms": ["day*g/mL/kg", "day*mg/mL/g", "day*ng/mL/ug", "day*ug/mL/mg"]}, {"conceptId": "C119342", "definition": "Picograms per milliliter (concentration), divided by milligrams per day (daily dose) or femtograms per milliliter (concentration), divided by micrograms per day (daily dose).", "preferredTerm": "Femtogram per Milliliter per Microgram per Day", "submissionValue": "fg/mL/(ug/day)", "synonyms": ["fg/mL/(ug/day)", "pg/mL/(mg/day)"]}, {"conceptId": "C105479", "definition": "Picograms per milliliter (concentration), divided by milligrams per kilogram (dose normalized by body weight) or femtograms per milliliter (concentration), divided by micrograms per kilogram (dose normalized by body weight).", "preferredTerm": "Picogram Per Milliliter Per Milligram Per Kilogram", "submissionValue": "fg/mL/(ug/kg)", "synonyms": ["fg/mL/(ug/kg)", "pg/mL/(mg/kg)"]}, {"conceptId": "C105480", "definition": "Picograms per milliliter (concentration), divided by milligrams per kilogram per day (daily dose normalized by body weight) or femtograms per milliliter (concentration), divided by micrograms per kilogram per day (daily dose normalized by body weight).", "preferredTerm": "Picogram Per Milliliter Per Milligram Per Kilogram Per Day", "submissionValue": "fg/mL/(ug/kg/day)", "synonyms": ["fg/mL/(ug/kg/day)", "pg/mL/(mg/kg/day)"]}, {"conceptId": "C119345", "definition": "Picograms per milliliter (concentration), divided by milligrams per meter squared (dose normalized by surface area) or femtograms per milliliter (concentration), divided by micrograms per meter squared (dose normalized by surface area).", "preferredTerm": "Femtogram per Milliliter per Microgram per Meter Squared", "submissionValue": "fg/mL/(ug/m2)", "synonyms": ["fg/mL/(ug/m2)", "pg/mL/(mg/m2)"]}, {"conceptId": "C119346", "definition": "Picograms per milliliter (concentration), divided by milligrams per meter squared per day (daily dose normalized by surface area) or femtograms per milliliter (concentration), divided by micrograms per meter squared per day (daily dose normalized by surface area).", "preferredTerm": "Femtogram per Milliliter per Microgram per Meter Squared per Day", "submissionValue": "fg/mL/(ug/m2/day)", "synonyms": ["fg/mL/(ug/m2/day)", "pg/mL/(mg/m2/day)"]}, {"conceptId": "C119351", "definition": "Micrograms per milliliter (concentration), divided by kilograms (weight) or nanograms per milliliter (concentration), divided by grams (weight) or picograms per milliliter (concentration), divided by milligrams (dose) or femtograms per milliliter (concentration), divided by micrograms (dose).", "preferredTerm": "Femtogram per Milliliter per Microgram", "submissionValue": "fg/mL/ug", "synonyms": ["fg/mL/ug", "ng/mL/g", "pg/mL/mg", "ug/mL/kg"]}, {"conceptId": "C119356", "definition": "Grams per milliliter (concentration), divided by micrograms per day (daily dose).", "preferredTerm": "Gram per Milliliter per Microgram per Day", "submissionValue": "g/mL/(ug/day)"}, {"conceptId": "C119357", "definition": "Grams per milliliter (concentration), divided by micrograms per kilogram (dose normalized by body weight).", "preferredTerm": "Gram per Milliliter per Microgram per Kilogram", "submissionValue": "g/mL/(ug/kg)"}, {"conceptId": "C119358", "definition": "Grams per milliliter (concentration), divided by micrograms per kilogram per day (daily dose normalized by body weight).", "preferredTerm": "Gram per Milliliter per Microgram per Kilogram per Day", "submissionValue": "g/mL/(ug/kg/day)"}, {"conceptId": "C119359", "definition": "Grams per milliliter (concentration), divided by micrograms per meter squared (dose normalized by body weight).", "preferredTerm": "Gram per Milliliter per Microgram per Meter Squared", "submissionValue": "g/mL/(ug/m2)"}, {"conceptId": "C119360", "definition": "Grams per milliliter (concentration), divided by micrograms per meter squared per day (daily dose normalized by surface area).", "preferredTerm": "Gram per Milliliter per Microgram per Meter Squared per Day", "submissionValue": "g/mL/(ug/m2/day)"}, {"conceptId": "C119365", "definition": "Grams per milliliter (concentration), divided by micrograms (dose).", "preferredTerm": "Gram per Milliliter per Microgram", "submissionValue": "g/mL/ug"}, {"conceptId": "C105467", "definition": "Hour times nanograms per milliliter (area under the curve), divided by micrograms per kilogram per day (daily dose normalized by body weight), or hour times micrograms per milliliter (area under the curve), divided by milligrams per kilogram per day (daily dose normalized by body weight).", "preferredTerm": "Hour Times Microgram Per Milliliter Per Milligram Per Kilogram Per Day", "submissionValue": "h*ng/mL/(ug/kg/day)", "synonyms": ["h*ng/mL/(ug/kg/day)", "h*ug/mL/(mg/kg/day)"]}, {"conceptId": "C112307", "definition": "Hours times millimoles per liter (area under the curve), divided by kilograms (weight); or hours times micromoles per liter (area under the curve), divided by grams (weight); or hours times nanomoles per liter (area under the curve), divided by milligrams (dose); or hours times picomoles per liter (area under the curve), divided by micrograms (dose).", "preferredTerm": "Hour Times Millimole Per Liter Per Kilogram", "submissionValue": "h*pmol/L/ug", "synonyms": ["h*mmol/L/kg", "h*nmol/L/mg", "h*pmol/L/ug", "h*umol/L/g"]}, {"conceptId": "C106531", "definition": "Hours times millimoles per liter (area under the curve), divided by kilograms (weight); or hours times micromoles per liter (area under the curve), divided by grams (weight); or hours times nanomoles per liter (area under the curve), divided by milligrams (dose); or hours times picomoles per liter (area under the curve), divided by micrograms (dose).", "preferredTerm": "Hour times Mole Per Liter Per Gram", "submissionValue": "h*umol/L/ug", "synonyms": ["h*mmol/L/mg", "h*mol/L/g", "h*umol/L/ug"]}, {"conceptId": "C119372", "definition": "International units per milliliter (concentration), divided by micrograms per day (daily dose).", "preferredTerm": "International Unit per Milliliter per Microgram per Day", "submissionValue": "IU/mL/(ug/day)"}, {"conceptId": "C119373", "definition": "International units per milliliter (concentration), divided by micrograms per kilogram (dose normalized by body weight).", "preferredTerm": "International Unit per Milliliter per Microgram per Kilogram", "submissionValue": "IU/mL/(ug/kg)"}, {"conceptId": "C119374", "definition": "International units per milliliter (concentration), divided by micrograms per kilogram per day (daily dose normalized by body weight).", "preferredTerm": "International Unit per Milliliter per Microgram per Kilogram per Day", "submissionValue": "IU/mL/(ug/kg/day)"}, {"conceptId": "C119375", "definition": "International units per milliliter (concentration), divided by micrograms per meter squared (dose normalized by surface area).", "preferredTerm": "International Unit per Milliliter per Microgram per Meter Squared", "submissionValue": "IU/mL/(ug/m2)"}, {"conceptId": "C119376", "definition": "International units per milliliter (concentration), divided by micrograms per meter squared per day (daily dose normalized by surface area).", "preferredTerm": "International Unit per Milliliter per Microgram per Meter Squared per Day", "submissionValue": "IU/mL/(ug/m2/day)"}, {"conceptId": "C119381", "definition": "International units per milliliter (concentration), divided by micrograms (dose).", "preferredTerm": "International Unit per Milliliter per Microgram", "submissionValue": "IU/mL/ug"}, {"conceptId": "C120810", "definition": "Liters (volume), divided by micrograms per kilogram (dose normalized by body weight).", "preferredTerm": "Liter per Microgram per Kilogram", "submissionValue": "L/(ug/kg)"}, {"conceptId": "C120811", "definition": "Liters (volume), divided by micrograms per kilogram per day (daily dose normalized by body weight).", "preferredTerm": "Liter per Microgram per Kilogram per Day", "submissionValue": "L/(ug/kg/day)"}, {"conceptId": "C120812", "definition": "Liters (volume), divided by micrograms per meter squared (dose normalized by surface area).", "preferredTerm": "Liter per Microgram per Meter Squared", "submissionValue": "L/(ug/m2)"}, {"conceptId": "C120813", "definition": "Liters (volume), divided by micrograms per meter squared per day (daily dose normalized by surface area).", "preferredTerm": "Liter per Microgram per Meter Squared per Day", "submissionValue": "L/(ug/m2/day)"}, {"conceptId": "C120815", "definition": "Liters (volume), divided by micrograms (dose).", "preferredTerm": "Liter per Microgram", "submissionValue": "L/ug"}, {"conceptId": "C119353", "definition": "Grams per milliliter (concentration), divided by milligrams per day (daily dose) or milligrams per milliliter (concentration), divided by micrograms per day (daily dose).", "preferredTerm": "Gram per Milliliter per Milligram per Day", "submissionValue": "mg/mL/(ug/day)", "synonyms": ["g/mL/(mg/day)", "mg/mL/(ug/day)"]}, {"conceptId": "C105462", "definition": "Grams per milliliter (concentration), divided by milligrams per kilogram (dose normalized by body weight) or milligrams per milliliter (concentration), divided by micrograms per kilogram (dose normalized by body weight).", "preferredTerm": "Gram Per Milliliter Per Milligram Per Kilogram", "submissionValue": "mg/mL/(ug/kg)", "synonyms": ["g/mL/(mg/kg)", "mg/mL/(ug/kg)"]}, {"conceptId": "C105463", "definition": "Grams per milliliter (concentration), divided by milligrams per kilogram per day (daily dose normalized by body weight) or milligrams per milliliter (concentration), divided by micrograms per kilogram per day (daily dose normalized by body weight).", "preferredTerm": "Gram Per Milliliter Per Milligram Per Kilogram Per Day", "submissionValue": "mg/mL/(ug/kg/day)", "synonyms": ["g/mL/(mg/kg/day)", "mg/mL/(ug/kg/day)"]}, {"conceptId": "C119354", "definition": "Grams per milliliter (concentration), divided by milligrams per meter squared (dose normalized by surface area) or milligrams per milliliter (concentration), divided by micrograms per meter squared (dose normalized by surface area).", "preferredTerm": "Gram per Milliliter per Milligram per Meter Squared", "submissionValue": "mg/mL/(ug/m2)", "synonyms": ["g/mL/(mg/m2)", "mg/mL/(ug/m2)"]}, {"conceptId": "C119355", "definition": "Grams per milliliter (concentration), divided by milligrams per meter squared per day (daily dose normalized by surface area) or milligrams per milliliter (concentration), divided by micrograms per meter squared per day (daily dose normalized by surface area).", "preferredTerm": "Gram per Milliliter per Milligram per Meter Squared per Day", "submissionValue": "mg/mL/(ug/m2/day)", "synonyms": ["g/mL/(mg/m2/day)", "mg/mL/(ug/m2/day)"]}, {"conceptId": "C119364", "definition": "Grams per milliliter (concentration), divided by milligrams (dose) or milligrams per milliliter (concentration), divided by micrograms (dose).", "preferredTerm": "Gram per Milliliter per Milligram", "submissionValue": "mg/mL/ug", "synonyms": ["g/mL/mg", "mg/mL/ug"]}, {"conceptId": "C119367", "definition": "International units per milliliter (concentration), divided by milligrams per day (daily dose) or milli-international units per milliliter (concentration), divided by micrograms per day (daily dose).", "preferredTerm": "International Unit per Milliliter per Milligram per Day", "submissionValue": "mIU/mL/(ug/day)", "synonyms": ["IU/mL/(mg/day)", "mIU/mL/(ug/day)"]}, {"conceptId": "C119368", "definition": "International units per milliliter (concentration), divided by milligrams per kilogram (dose normalized by body weight) or milli-international units per milliliter (concentration), divided by micrograms per kilogram (dose normalized by body weight).", "preferredTerm": "International Unit per Milliliter per Milligram per Kilogram", "submissionValue": "mIU/mL/(ug/kg)", "synonyms": ["IU/mL/(mg/kg)", "mIU/mL/(ug/kg)"]}, {"conceptId": "C119369", "definition": "International units per milliliter (concentration), divided by milligrams per kilogram per day (daily dose normalized by body weight) or milli-international units per milliliter (concentration), divided by micrograms per kilogram per day (daily dose normalized by body weight).", "preferredTerm": "International Unit per Milliliter per Milligram per Kilogram per Day", "submissionValue": "mIU/mL/(ug/kg/day)", "synonyms": ["IU/mL/(mg/kg/day)", "mIU/mL/(ug/kg/day)"]}, {"conceptId": "C119370", "definition": "International units per milliliter (concentration), divided by milligrams per meter squared (dose normalized by surface area) or milli-international units per milliliter (concentration), divided by micrograms per meter squared (dose normalized by surface area).", "preferredTerm": "International Unit per Milliliter per Milligram per Meter Squared", "submissionValue": "mIU/mL/(ug/m2)", "synonyms": ["IU/mL/(mg/m2)", "mIU/mL/(ug/m2)"]}, {"conceptId": "C119371", "definition": "International units per milliliter (concentration), divided by milligrams per meter squared per day (daily dose normalized by surface area) or milli-international units per milliliter (concentration), divided by micrograms per meter squared per day (daily dose normalized by surface area).", "preferredTerm": "International Unit per Milliliter per Milligram per Meter Squared per Day", "submissionValue": "mIU/mL/(ug/m2/day)", "synonyms": ["IU/mL/(mg/m2/day)", "mIU/mL/(ug/m2/day)"]}, {"conceptId": "C119380", "definition": "International units per milliliter (concentration), divided by milligrams (dose) or milli-international units per milliliter (concentration), divided by micrograms (dose).", "preferredTerm": "International Unit per Milliliter per Milligram", "submissionValue": "mIU/mL/ug", "synonyms": ["IU/mL/mg", "mIU/mL/ug"]}, {"conceptId": "C120808", "definition": "Liters (volume), divided by milligrams per kilogram per day (daily dose normalized by body weight) or milliliters (volume), divided by micrograms per kilogram per day (daily dose normalized by body weight).", "preferredTerm": "Liter per Milligram per Kilogram per Day", "submissionValue": "mL/(ug/kg/day)", "synonyms": ["L/(mg/kg/day)", "mL/(ug/kg/day)"]}, {"conceptId": "C120809", "definition": "Liters (volume), divided by milligrams per meter squared per day (daily dose normalized by surface area) or milliliters (volume), divided by micrograms per meter squared per day (daily dose normalized by surface area).", "preferredTerm": "Liter per Milligram per Meter Squared per Day", "submissionValue": "mL/(ug/m2/day)", "synonyms": ["L/(mg/m2/day)", "mL/(ug/m2/day)"]}, {"conceptId": "C119418", "definition": "Moles per liter (concentration), divided by milligrams per day (daily dose) or millimoles per liter (concentration), divided by micrograms per day (daily dose).", "preferredTerm": "Millimole per Liter per Microgram per Day", "submissionValue": "mmol/L/(ug/day)", "synonyms": ["mmol/L/(ug/day)", "mol/L/(mg/day)"]}, {"conceptId": "C119419", "definition": "Moles per liter (concentration), divided by milligrams per kilogram (dose normalized by body weight) or millimoles per liter (concentration), divided by micrograms per kilogram (dose normalized by body weight).", "preferredTerm": "Millimole per Liter per Microgram per Kilogram", "submissionValue": "mmol/L/(ug/kg)", "synonyms": ["mmol/L/(ug/kg)", "mol/L/(mg/kg)"]}, {"conceptId": "C119420", "definition": "Moles per liter (concentration), divided by milligrams per kilogram per day (daily dose normalized by body weight) or millimoles per liter (concentration), divided by micrograms per kilogram per day (daily dose normalized by body weight).", "preferredTerm": "Millimole per Liter per Microgram per Kilogram per Day", "submissionValue": "mmol/L/(ug/kg/day)", "synonyms": ["mmol/L/(ug/kg/day)", "mol/L/(mg/kg/day)"]}, {"conceptId": "C119421", "definition": "Moles per liter (concentration), divided by milligrams per meter squared (dose normalized by surface area) or millimoles per liter (concentration), divided by micrograms per meter squared (dose normalized by surface area).", "preferredTerm": "Millimole per Liter per Microgram per Meter Squared", "submissionValue": "mmol/L/(ug/m2)", "synonyms": ["mmol/L/(ug/m2)", "mol/L/(mg/m2)"]}, {"conceptId": "C119422", "definition": "Moles per liter (concentration), divided by milligrams per meter squared per day (daily dose normalized by surface area) or millimoles per liter (concentration), divided by micrograms per meter squared per day (daily dose normalized by surface area).", "preferredTerm": "Millimole per Liter per Microgram per Meter Squared per Day", "submissionValue": "mmol/L/(ug/m2/day)", "synonyms": ["mmol/L/(ug/m2/day)", "mol/L/(mg/m2/day)"]}, {"conceptId": "C119427", "definition": "Moles per liter (concentration), divided by milligrams (dose) or millimoles per liter (concentration), divided by micrograms (dose).", "preferredTerm": "Millimole per Liter per Microgram", "submissionValue": "mmol/L/ug", "synonyms": ["mmol/L/ug", "mol/L/mg"]}, {"conceptId": "C119434", "definition": "Moles per liter (concentration), divided by micrograms per day (daily dose).", "preferredTerm": "Mole per Liter per Microgram per Day", "submissionValue": "mol/L/(ug/day)"}, {"conceptId": "C119435", "definition": "Moles per liter (concentration), divided by micrograms per kilogram (dose normalized by body weight).", "preferredTerm": "Mole per Liter per Microgram per Kilogram", "submissionValue": "mol/L/(ug/kg)"}, {"conceptId": "C119436", "definition": "Moles per liter (concentration), divided by micrograms per kilogram per day (daily dose normalized by body weight).", "preferredTerm": "Mole per Liter per Microgram per Kilogram per Day", "submissionValue": "mol/L/(ug/kg/day)"}, {"conceptId": "C119437", "definition": "Moles per liter (concentration), divided by micrograms per meter squared (dose normalized by surface area).", "preferredTerm": "Mole per Liter per Microgram per Meter Squared", "submissionValue": "mol/L/(ug/m2)"}, {"conceptId": "C119438", "definition": "Moles per liter (concentration), divided by micrograms per meter squared per day (daily dose normalized by surface area).", "preferredTerm": "Mole per Liter per Microgram per Meter Squared per Day", "submissionValue": "mol/L/(ug/m2/day)"}, {"conceptId": "C119443", "definition": "Moles per liter (concentration), divided by micrograms (dose).", "preferredTerm": "Mole per Liter per Microgram", "submissionValue": "mol/L/ug"}, {"conceptId": "C119448", "definition": "Micrograms per milliliter (concentration), divided by milligrams per day (daily dose) or nanograms per milliliter (concentration), divided by micrograms per day (daily dose).", "preferredTerm": "Nanogram per Milliliter per Microgram per Day", "submissionValue": "ng/mL/(ug/day)", "synonyms": ["ng/mL/(ug/day)", "ug/mL/(mg/day)"]}, {"conceptId": "C105473", "definition": "Micrograms per milliliter (concentration), divided by milligrams per kilogram (dose normalized by body weight) or nanograms per milliliter (concentration), divided by micrograms per kilogram (dose normalized by body weight).", "preferredTerm": "Microgram Per Milliliter Per Milligram Per Kilogram", "submissionValue": "ng/mL/(ug/kg)", "synonyms": ["ng/mL/(ug/kg)", "ug/mL/(mg/kg)"]}, {"conceptId": "C105474", "definition": "Micrograms per milliliter (concentration), divided by milligrams per kilogram per day (daily dose normalized by body weight) or nanograms per milliliter (concentration), divided by micrograms per kilogram per day (daily dose normalized by body weight).", "preferredTerm": "Microgram Per Milliliter Per Milligram Per Kilogram Per Day", "submissionValue": "ng/mL/(ug/kg/day)", "synonyms": ["ng/mL/(ug/kg/day)", "ug/mL/(mg/kg/day)"]}, {"conceptId": "C119451", "definition": "Micrograms per milliliter (concentration), divided by milligrams per meter squared (dose normalized by surface area) or nanograms per milliliter (concentration), divided by micrograms per meter squared (dose normalized by surface area).", "preferredTerm": "Nanogram per Milliliter per Microgram per Meter Squared", "submissionValue": "ng/mL/(ug/m2)", "synonyms": ["ng/mL/(ug/m2)", "ug/mL/(mg/m2)"]}, {"conceptId": "C119452", "definition": "Micrograms per milliliter (concentration), divided by milligrams per meter squared per day (daily dose normalized by surface area) or nanograms per milliliter (concentration), divided by micrograms per meter squared per day (daily dose normalized by surface area).", "preferredTerm": "Nanogram per Milliliter per Microgram per Meter Squared per Day", "submissionValue": "ng/mL/(ug/m2/day)", "synonyms": ["ng/mL/(ug/m2/day)", "ug/mL/(mg/m2/day)"]}, {"conceptId": "C85710", "definition": "Grams per milliliter (concentration), divided by kilograms (weight) or milligrams per milliliter (concentration), divided by grams (weight) or micrograms per milliliter (concentration), divided by milligrams (dose) or nanograms per milliliter (concentration), divided by micrograms (dose).", "preferredTerm": "Milligram per Liter per Milligram", "submissionValue": "ng/mL/ug", "synonyms": ["g/mL/kg", "mg/mL/g", "ng/mL/ug", "ug/mL/mg"]}, {"conceptId": "C119462", "definition": "Micromoles per liter (concentration), divided by milligrams per day (daily dose) or nanomoles per liter (concentration), divided by micrograms per day (daily dose).", "preferredTerm": "Nanomole per Liter per Microgram per Day", "submissionValue": "nmol/L/(ug/day)", "synonyms": ["nmol/L/(ug/day)", "umol/L/(mg/day)"]}, {"conceptId": "C119463", "definition": "Micromoles per liter (concentration), divided by milligrams per kilogram (dose normalized by body weight) or nanomoles per liter (concentration), divided by micrograms per kilogram (dose normalized by body weight).", "preferredTerm": "Nanomole per Liter per Microgram per Kilogram", "submissionValue": "nmol/L/(ug/kg)", "synonyms": ["nmol/L/(ug/kg)", "umol/L/(mg/kg)"]}, {"conceptId": "C119464", "definition": "Micromoles per liter (concentration), divided by milligrams per kilogram per day (daily dose normalized by body weight) or nanomoles per liter (concentration), divided by micrograms per kilogram per day (daily dose normalized by body weight).", "preferredTerm": "Nanomole per Liter per Microgram per Kilogram per Day", "submissionValue": "nmol/L/(ug/kg/day)", "synonyms": ["nmol/L/(ug/kg/day)", "umol/L/(mg/kg/day)"]}, {"conceptId": "C119465", "definition": "Micromoles per liter (concentration), divided by milligrams per meter squared (dose normalized by surface area) or nanomoles per liter (concentration), divided by micrograms per meter squared (dose normalized by surface area).", "preferredTerm": "Nanomole per Liter per Microgram per Meter Squared", "submissionValue": "nmol/L/(ug/m2)", "synonyms": ["nmol/L/(ug/m2)", "umol/L/(mg/m2)"]}, {"conceptId": "C119466", "definition": "Micromoles per liter (concentration), divided by milligrams per meter squared per day (daily dose normalized by surface area) or nanomoles per liter (concentration), divided by micrograms per meter squared per day (daily dose normalized by surface area).", "preferredTerm": "Nanomole per Liter per Microgram per Meter Squared per Day", "submissionValue": "nmol/L/(ug/m2/day)", "synonyms": ["nmol/L/(ug/m2/day)", "umol/L/(mg/m2/day)"]}, {"conceptId": "C119423", "definition": "Moles per liter (concentration), divided by kilograms (weight) or millimoles per liter (concentration), divided by grams (weight) or micromoles per liter (concentration), divided by milligrams (dose) or nanomoles per liter (concentration), divided by micrograms (dose).", "preferredTerm": "Millimole per Liter per Gram", "submissionValue": "nmol/L/ug", "synonyms": ["mmol/L/g", "mol/L/kg", "nmol/L/ug", "umol/L/mg"]}, {"conceptId": "C119445", "definition": "Nanograms per milliliter (concentration), divided by milligrams per day (daily dose) or picograms per milliliter (concentration), divided by micrograms per day (daily dose).", "preferredTerm": "Nanogram per Milliliter per Milligram per Day", "submissionValue": "pg/mL/(ug/day)", "synonyms": ["ng/mL/(mg/day)", "pg/mL/(ug/day)"]}, {"conceptId": "C105477", "definition": "Nanograms per milliliter (concentration), divided by milligrams per kilogram (dose normalized by body weight) or picograms per milliliter (concentration), divided by micrograms per kilogram (dose normalized by body weight).", "preferredTerm": "Nanogram Per Milliliter Per Milligram Per Kilogram", "submissionValue": "pg/mL/(ug/kg)", "synonyms": ["ng/mL/(mg/kg)", "pg/mL/(ug/kg)"]}, {"conceptId": "C105478", "definition": "Nanograms per milliliter (concentration), divided by milligrams per kilogram per day (daily dose normalized by body weight) or picograms per milliliter (concentration), divided by micrograms per kilogram per day (daily dose normalized by body weight).", "preferredTerm": "Nanogram Per Milliliter Per Milligram Per Kilogram Per Day", "submissionValue": "pg/mL/(ug/kg/day)", "synonyms": ["ng/mL/(mg/kg/day)", "pg/mL/(ug/kg/day)"]}, {"conceptId": "C119446", "definition": "Nanograms per milliliter (concentration), divided by milligrams per meter squared (dose normalized by surface area) or picograms per milliliter (concentration), divided by micrograms per meter squared (dose normalized by surface area).", "preferredTerm": "Nanogram per Milliliter per Milligram per Meter Squared", "submissionValue": "pg/mL/(ug/m2)", "synonyms": ["ng/mL/(mg/m2)", "pg/mL/(ug/m2)"]}, {"conceptId": "C119447", "definition": "Nanograms per milliliter (concentration), divided by milligrams per meter squared per day (daily dose normalized by surface area) or picograms per milliliter (concentration), divided by micrograms per meter squared per day (daily dose normalized by surface area).", "preferredTerm": "Nanogram per Milliliter per Milligram per Meter Squared per Day", "submissionValue": "pg/mL/(ug/m2/day)", "synonyms": ["ng/mL/(mg/m2/day)", "pg/mL/(ug/m2/day)"]}, {"conceptId": "C85747", "definition": "Milligrams per milliliter (concentration), divided by kilograms (weight) or micrograms per milliliter (concentration), divided by grams (weight) or nanograms per milliliter (concentration), divided by milligrams (dose) or picograms per milliliter (concentration), divided by micrograms (dose).", "preferredTerm": "Nanogram per Milliliter per Milligram", "submissionValue": "pg/mL/ug", "synonyms": ["mg/mL/kg", "ng/mL/mg", "pg/mL/ug", "ug/mL/g"]}, {"conceptId": "C119457", "definition": "Nanomoles per liter (concentration), divided by milligrams per day (daily dose) or picomoles per liter (concentration), divided by micrograms per day (daily dose).", "preferredTerm": "Nanomole per Liter per Milligram per Day", "submissionValue": "pmol/L/(ug/day)", "synonyms": ["nmol/L/(mg/day)", "pmol/L/(ug/day)"]}, {"conceptId": "C119458", "definition": "Nanomoles per liter (concentration), divided by milligrams per kilogram (dose normalized by body weight) or picomoles per liter (concentration), divided by micrograms per kilogram (dose normalized by body weight).", "preferredTerm": "Nanomole per Liter per Milligram per Kilogram", "submissionValue": "pmol/L/(ug/kg)", "synonyms": ["nmol/L/(mg/kg)", "pmol/L/(ug/kg)"]}, {"conceptId": "C119459", "definition": "Nanomoles per liter (concentration), divided by milligrams per kilogram per day (daily dose normalized by body weight) or picomoles per liter (concentration), divided by micrograms per kilogram per day (daily dose normalized by body weight).", "preferredTerm": "Nanomole per Liter per Milligram per Kilogram per Day", "submissionValue": "pmol/L/(ug/kg/day)", "synonyms": ["nmol/L/(mg/kg/day)", "pmol/L/(ug/kg/day)"]}, {"conceptId": "C119460", "definition": "Nanomoles per liter (concentration), divided by milligrams per meter squared (dose normalized by surface area) or picomoles per liter (concentration), divided by micrograms per meter squared (dose normalized by surface area).", "preferredTerm": "Nanomole per Liter per Milligram per Meter Squared", "submissionValue": "pmol/L/(ug/m2)", "synonyms": ["nmol/L/(mg/m2)", "pmol/L/(ug/m2)"]}, {"conceptId": "C119461", "definition": "Nanomoles per liter (concentration), divided by milligrams per meter squared per day (daily dose normalized by surface area) or picomoles per liter (concentration), divided by micrograms per meter squared per day (daily dose normalized by surface area).", "preferredTerm": "Nanomole per Liter per Milligram per Meter Squared per Day", "submissionValue": "pmol/L/(ug/m2/day)", "synonyms": ["nmol/L/(mg/m2/day)", "pmol/L/(ug/m2/day)"]}, {"conceptId": "C85784", "definition": "Millimoles per liter (concentration), divided by kilograms (weight) or micromoles per liter (concentration), divided by grams (weight) or nanomoles per liter (concentration), divided by milligrams (dose) or picomoles per liter (concentration), divided by micrograms (dose).", "preferredTerm": "Picomole per Liter per Microgram", "submissionValue": "pmol/L/ug", "synonyms": ["mmol/L/kg", "nmol/L/mg", "pmol/L/ug", "umol/L/g"]}, {"conceptId": "C119383", "definition": "Milligrams per milliliter (concentration), divided by milligrams per day (daily dose) or micrograms per milliliter (concentration), divided by micrograms per day (daily dose).", "preferredTerm": "Milligram per Milliliter per Milligram per Day", "submissionValue": "ug/mL/(ug/day)", "synonyms": ["mg/mL/(mg/day)", "ug/mL/(ug/day)"]}, {"conceptId": "C105475", "definition": "Milligrams per milliliter (concentration), divided by milligrams per kilogram (dose normalized by body weight) or micrograms per milliliter (concentration), divided by micrograms per kilogram (dose normalized by body weight).", "preferredTerm": "Milligram Per Milliliter Per Milligram Per Kilogram", "submissionValue": "ug/mL/(ug/kg)", "synonyms": ["mg/mL/(mg/kg)", "ug/mL/(ug/kg)"]}, {"conceptId": "C105476", "definition": "Milligrams per milliliter (concentration), divided by milligrams per kilogram per day (daily dose normalized by body weight) or micrograms per milliliter (concentration), divided by micrograms per kilogram per day (daily dose normalized by body weight).", "preferredTerm": "Milligram Per Milliliter Per Milligram Per Kilogram Per Day", "submissionValue": "ug/mL/(ug/kg/day)", "synonyms": ["mg/mL/(mg/kg/day)", "ug/mL/(ug/kg/day)"]}, {"conceptId": "C119384", "definition": "Milligrams per milliliter (concentration), divided by milligrams per meter squared (dose normalized by surface area) or micrograms per milliliter (concentration), divided by micrograms per meter squared (dose normalized by surface area).", "preferredTerm": "Milligram per Milliliter per Milligram per Meter Squared", "submissionValue": "ug/mL/(ug/m2)", "synonyms": ["mg/mL/(mg/m2)", "ug/mL/(ug/m2)"]}, {"conceptId": "C119385", "definition": "Milligrams per milliliter (concentration), divided by milligrams per meter squared per day (daily dose normalized by surface area) or micrograms per milliliter (concentration), divided by micrograms per meter squared per day (daily dose normalized by surface area).", "preferredTerm": "Milligram per Milliliter per Milligram per Meter Squared per Day", "submissionValue": "ug/mL/(ug/m2/day)", "synonyms": ["mg/mL/(mg/m2/day)", "ug/mL/(ug/m2/day)"]}, {"conceptId": "C119361", "definition": "Grams per milliliter (concentration), divided by grams (weight) or milligrams per milliliter (concentration), divided by milligrams (dose) or micrograms per milliliter (concentration), divided by micrograms (dose).", "preferredTerm": "Gram per Milliliter per Gram", "submissionValue": "ug/mL/ug", "synonyms": ["g/mL/g", "mg/mL/mg", "ug/mL/ug"]}, {"conceptId": "C119397", "definition": "Milli-international units per milliliter (concentration), divided by milligrams per day (daily dose) or micro-international units per milliliter (concentration), divided by micrograms per day (daily dose).", "preferredTerm": "Milli-International Unit per Milliliter per Milligram per Day", "submissionValue": "uIU/mL/(ug/day)", "synonyms": ["mIU/mL/(mg/day)", "uIU/mL/(ug/day)"]}, {"conceptId": "C119398", "definition": "Milli-international units per milliliter (concentration), divided by milligrams per kilogram (dose normalized by body weight) or micro-international units per milliliter (concentration), divided by micrograms per kilogram (dose normalized by body weight).", "preferredTerm": "Milli-International Unit per Milliliter per Milligram per Kilogram", "submissionValue": "uIU/mL/(ug/kg)", "synonyms": ["mIU/mL/(mg/kg)", "uIU/mL/(ug/kg)"]}, {"conceptId": "C119399", "definition": "Milli-international units per milliliter (concentration), divided by milligrams per kilogram per day (daily dose normalized by body weight) or micro-international units per milliliter (concentration), divided by micrograms per kilogram per day (daily dose normalized by body weight).", "preferredTerm": "Milli-International Unit per Milliliter per Milligram per Kilogram per Day", "submissionValue": "uIU/mL/(ug/kg/day)", "synonyms": ["mIU/mL/(mg/kg/day)", "uIU/mL/(ug/kg/day)"]}, {"conceptId": "C119400", "definition": "Milli-international units per milliliter (concentration), divided by milligrams per meter squared (dose normalized by surface area) or micro-international units per milliliter (concentration), divided by micrograms per meter squared (dose normalized by surface area).", "preferredTerm": "Milli-International Unit per Milliliter per Milligram per Meter Squared", "submissionValue": "uIU/mL/(ug/m2)", "synonyms": ["mIU/mL/(mg/m2)", "uIU/mL/(ug/m2)"]}, {"conceptId": "C119401", "definition": "Milli-international units per milliliter (concentration), divided by milligrams per meter squared per day (daily dose normalized by surface area) or micro-international units per milliliter (concentration), divided by micrograms per meter squared per day (daily dose normalized by surface area).", "preferredTerm": "Milli-International Unit per Milliliter per Milligram per Meter Squared per Day", "submissionValue": "uIU/mL/(ug/m2/day)", "synonyms": ["mIU/mL/(mg/m2/day)", "uIU/mL/(ug/m2/day)"]}, {"conceptId": "C119377", "definition": "International units per milliliter (concentration), divided by grams (weight) or milli-international units per milliliter (concentration), divided by milligrams (dose) or micro-international units per milliliter (concentration), divided by micrograms (dose).", "preferredTerm": "International Unit per Milliliter per Gram", "submissionValue": "uIU/mL/ug", "synonyms": ["IU/mL/g", "mIU/mL/mg", "uIU/mL/ug"]}, {"conceptId": "C119413", "definition": "Millimoles per liter (concentration), divided by milligrams per day (daily dose) or micromoles per liter (concentration), divided by micrograms per day (daily dose).", "preferredTerm": "Millimole per Liter per Milligram per Day", "submissionValue": "umol/L/(ug/day)", "synonyms": ["mmol/L/(mg/day)", "umol/L/(ug/day)"]}, {"conceptId": "C119414", "definition": "Millimoles per liter (concentration), divided by milligrams per kilogram (dose normalized by body weight) or micromoles per liter (concentration), divided by micrograms per kilogram (dose normalized by body weight).", "preferredTerm": "Millimole per Liter per Milligram per Kilogram", "submissionValue": "umol/L/(ug/kg)", "synonyms": ["mmol/L/(mg/kg)", "umol/L/(ug/kg)"]}, {"conceptId": "C119415", "definition": "Millimoles per liter (concentration), divided by milligrams per kilogram per day (daily dose normalized by body weight) or micromoles per liter (concentration), divided by micrograms per kilogram per day (daily dose normalized by body weight).", "preferredTerm": "Millimole per Liter per Milligram per Kilogram per Day", "submissionValue": "umol/L/(ug/kg/day)", "synonyms": ["mmol/L/(mg/kg/day)", "umol/L/(ug/kg/day)"]}, {"conceptId": "C119416", "definition": "Millimoles per liter (concentration), divided by milligrams per meter squared (dose normalized by surface area) or micromoles per liter (concentration), divided by micrograms per meter squared (dose normalized by surface area).", "preferredTerm": "Millimole per Liter per Milligram per Meter Squared", "submissionValue": "umol/L/(ug/m2)", "synonyms": ["mmol/L/(mg/m2)", "umol/L/(ug/m2)"]}, {"conceptId": "C119417", "definition": "Millimoles per liter (concentration), divided by milligrams per meter squared per day (daily dose normalized by surface area) or micromoles per liter (concentration), divided by micrograms per meter squared per day (daily dose normalized by surface area).", "preferredTerm": "Millimole per Liter per Milligram per Meter Squared per Day", "submissionValue": "umol/L/(ug/m2/day)", "synonyms": ["mmol/L/(mg/m2/day)", "umol/L/(ug/m2/day)"]}, {"conceptId": "C119426", "definition": "Moles per liter (concentration), divided by grams (weight) or millimoles per liter (concentration), divided by milligrams (dose) or micromoles per liter (concentration), divided by micrograms (dose).", "preferredTerm": "Millimole per Liter per Milligram", "submissionValue": "umol/L/ug", "synonyms": ["mmol/L/mg", "mol/L/g", "umol/L/ug"]}]}