{"_links": {"parentPackage": {"href": "/mdr/ct/packages/sendct-2023-06-30", "title": "SEND Controlled Terminology Package 54 Effective 2023-06-30", "type": "Terminology"}, "priorVersion": {"href": "/mdr/ct/packages/sendct-2023-03-31/codelists/C160927", "title": "CDISC SEND Body Irradiation Model Response Terminology", "type": "Code List"}, "rootItem": {"href": "/mdr/root/ct/sendct/codelists/C160927", "title": "Version-agnostic anchor resource for codelist C160927", "type": "Root Value Domain"}, "self": {"href": "/mdr/ct/packages/sendct-2023-06-30/codelists/C160927", "title": "CDISC SEND Body Irradiation Model Response Terminology", "type": "Code List"}}, "conceptId": "C160927", "definition": "Terminology related to the body irradiation model used in the study.", "extensible": "true", "name": "Body Irradiation Model Response", "preferredTerm": "CDISC SEND Body Irradiation Model Response Terminology", "submissionValue": "BIRRMRS", "synonyms": ["Body Irradiation Model Response"], "terms": [{"conceptId": "C161507", "definition": "A procedure involving irradiation of a specific, limited area of the skin.", "preferredTerm": "Focal Cutaneous Irradiation", "submissionValue": "CUTANEOUS IRRADIATION"}, {"conceptId": "C161510", "definition": "A procedure involving irradiation of the whole lung while the heart is covered and protected from radiation exposure.", "preferredTerm": "Lung with Heart Shielded Irradiation", "submissionValue": "LUNG WITH HEART-SHIELDED IRRADIATION"}, {"conceptId": "C161509", "definition": "A procedure involving irradiation of a single lung.", "preferredTerm": "Single Lung Irradiation", "submissionValue": "SINGLE LUNG IRRADIATION"}, {"conceptId": "C161506", "definition": "A procedure involving irradiation of the whole body either before or after irradiation at a focal site.", "preferredTerm": "Top-Up Model Irradiation", "submissionValue": "TOP-UP MODEL IRRADIATON", "synonyms": ["Top-Off Model Irradiation"]}, {"conceptId": "C51991", "definition": "A procedure involving irradiation of the entire abdominal region.", "preferredTerm": "Whole-Abdominal Irradiation", "submissionValue": "TOTAL ABDOMINAL IRRADIATION", "synonyms": ["WAI", "Whole Abdominal Irradiation"]}, {"conceptId": "C161505", "definition": "A procedure involving irradiation of the whole body followed by bone marrow transplant.", "preferredTerm": "Total Body Irradiation Plus Bone Marrow Transplant", "submissionValue": "TOTAL BODY IRRADIATION PLUS BONE MARROW TRANSPLANT"}, {"conceptId": "C161511", "definition": "A procedure involving irradiation of the whole body while a proportion of bone marrow is not irradiated, i.e., shielded or removed from field.", "preferredTerm": "Total Body Irradiation with Bone Marrow Not Irradiated", "submissionValue": "TOTAL BODY IRRADIATION WITH BONE MARROW NOT IRRADIATED"}, {"conceptId": "C15350", "definition": "A procedure involving irradiation of the whole body.", "preferredTerm": "Total-Body Irradiation", "submissionValue": "TOTAL BODY IRRADIATION", "synonyms": ["TBI", "Whole Body Irradiation"]}, {"conceptId": "C161508", "definition": "A procedure involving irradiation of the whole lung.", "preferredTerm": "Right and Left Lung Irradiation", "submissionValue": "WHOLE LUNG IRRADIATION", "synonyms": ["Bilateral Lungs Irradiation", "Right and Left Lung Irradiation", "TLI", "Total Lung Irradiation", "Whole Thorax Lung Irradiation", "WLI", "WTLI"]}]}