{"_links": {"parentPackage": {"href": "/mdr/ct/packages/sendct-2023-06-30", "title": "SEND Controlled Terminology Package 54 Effective 2023-06-30", "type": "Terminology"}, "rootItem": {"href": "/mdr/root/ct/sendct/codelists/C199645", "title": "Version-agnostic anchor resource for codelist C199645", "type": "Root Value Domain"}, "self": {"href": "/mdr/ct/packages/sendct-2023-06-30/codelists/C199645", "title": "CDISC SEND Genetic Toxicology In vivo Category Terminology", "type": "Code List"}}, "conceptId": "C199645", "definition": "Terminology relevant to the category for genetic toxicology In vivo tests.", "extensible": "true", "name": "Genetic Toxicology In vivo Category", "preferredTerm": "CDISC SEND Genetic Toxicology In vivo Category Terminology", "submissionValue": "GVCAT", "synonyms": ["Genetic Toxicology In vivo Category"], "terms": [{"conceptId": "C200001", "definition": "The detection of test substance-induced DNA strand breaks following in vivo exposure, using a high throughput chip format.", "preferredTerm": "In Vivo Comet Assay, Chip Format", "submissionValue": "IN VIVO COMET, CHIP"}, {"conceptId": "C200000", "definition": "The detection of test substance-induced DNA strand breaks following in vivo exposure, using a conventional slide-based format.", "preferredTerm": "In vivo Comet Assay, Slide Based Format", "submissionValue": "IN VIVO COMET, SLIDE", "synonyms": ["Single Cell Gel Electrophoresis Assay, Slide-Based"]}, {"conceptId": "C199999", "definition": "The detection of test substance-induced micronuclei formation following in vivo exposure.", "preferredTerm": "In vivo Micronucleus Assay", "submissionValue": "IN VIVO MICRONUCLEUS"}]}