{"_links": {"parentPackage": {"href": "/mdr/ct/packages/sendct-2023-06-30", "title": "SEND Controlled Terminology Package 54 Effective 2023-06-30", "type": "Terminology"}, "rootItem": {"href": "/mdr/root/ct/sendct/codelists/C199644", "title": "Version-agnostic anchor resource for codelist C199644", "type": "Root Value Domain"}, "self": {"href": "/mdr/ct/packages/sendct-2023-06-30/codelists/C199644", "title": "CDISC SEND Genetic Toxicology In vivo Method Terminology", "type": "Code List"}}, "conceptId": "C199644", "definition": "Terminology relevant to the technique or procedure used to determine the result of a genetic toxicology In vivo test.", "extensible": "false", "name": "Genetic Toxicology In vivo Method", "preferredTerm": "CDISC SEND Genetic Toxicology In vivo Method Terminology", "submissionValue": "GVMETHOD", "synonyms": ["Genetic Toxicology In vivo Method"], "terms": [{"conceptId": "C16585", "definition": "A technique for counting, examining or sorting microscopic particles in which the particles are placed in a fluid (with or without light-sensitive dye) and passed through a beam of light.", "preferredTerm": "Flow Cytometry", "submissionValue": "FLOW CYTOMETRY"}, {"conceptId": "C16856", "definition": "Microscopy of specimens stained with fluorescent dye or naturally fluorescent materials.", "preferredTerm": "Fluorescence Microscopy", "submissionValue": "FLUORESCENT MICROSCOPY"}, {"conceptId": "C200002", "definition": "A fluorescent microscopy technique that is performed by a device and imaging software.", "preferredTerm": "Automated Fluorescent Microscopy", "submissionValue": "FLUORESCENT MICROSCOPY, AUTOMATED"}, {"conceptId": "C200003", "definition": "A fluorescent microscopy technique that is performed by visual inspection.", "preferredTerm": "Manual Fluorescent Microscopy", "submissionValue": "FLUORESCENT MICROSCOPY, MANUAL"}, {"conceptId": "C17995", "definition": "A form of microscopy that involves passing light transmitted through or reflected from the subject through a series of lenses to be detected directly by the eye, imaged on a photographic plate, or captured digitally.", "preferredTerm": "Light Microscopy", "submissionValue": "LIGHT MICROSCOPY"}, {"conceptId": "C16853", "definition": "The application of microscope magnification to the study of materials that cannot be properly seen by the unaided eye. (NCI)", "preferredTerm": "Microscopy", "submissionValue": "MICROSCOPY"}]}