{"_links": {"parentPackage": {"href": "/mdr/ct/packages/sendct-2023-06-30", "title": "SEND Controlled Terminology Package 54 Effective 2023-06-30", "type": "Terminology"}, "rootItem": {"href": "/mdr/root/ct/sendct/codelists/C199646", "title": "Version-agnostic anchor resource for codelist C199646", "type": "Root Value Domain"}, "self": {"href": "/mdr/ct/packages/sendct-2023-06-30/codelists/C199646", "title": "CDISC SEND Genetic Toxicology In vivo Subcategory Terminology", "type": "Code List"}}, "conceptId": "C199646", "definition": "Terminology relevant to the subcategory for genetic toxicology In vivo tests.", "extensible": "true", "name": "Genetic Toxicology In vivo Subcategory", "preferredTerm": "CDISC SEND Genetic Toxicology In vivo Subcategory Terminology", "submissionValue": "GVSCAT", "synonyms": ["Genetic Toxicology In vivo Subcategory"], "terms": [{"conceptId": "C200004", "definition": "A laboratory assessment to determine cytotoxicity (induction of cell death) as the result of in vivo or in vitro exposure to test article.", "preferredTerm": "Cytotoxicity Assay", "submissionValue": "CYTOTOXICITY"}, {"conceptId": "C200006", "definition": "A laboratory assessment to determine cytotoxicity (induction of cell death) and genotoxicity (induction of damage to DNA) as the result of in vivo or in vitro exposure to test article.", "preferredTerm": "Cytotoxicity and Genotoxicity Assay", "submissionValue": "CYTOTOXICITY/GENOTOXCITY"}, {"conceptId": "C200005", "definition": "A laboratory assessment to determine genotoxicity (induction of damage to DNA) as the result of in vivo or in vitro exposure to test article.", "preferredTerm": "Genotoxicity Assay", "submissionValue": "GENOTOXICITY"}]}