{"_links": {"parentPackage": {"href": "/mdr/ct/packages/sendct-2023-06-30", "title": "SEND Controlled Terminology Package 54 Effective 2023-06-30", "type": "Terminology"}, "priorVersion": {"href": "/mdr/ct/packages/sendct-2023-03-31/codelists/C71153", "title": "CDISC SDTM ECG Test Code Terminology", "type": "Code List"}, "rootItem": {"href": "/mdr/root/ct/sendct/codelists/C71153", "title": "Version-agnostic anchor resource for codelist C71153", "type": "Root Value Domain"}, "self": {"href": "/mdr/ct/packages/sendct-2023-06-30/codelists/C71153", "title": "CDISC SDTM ECG Test Code Terminology", "type": "Code List"}}, "conceptId": "C71153", "definition": "Terminology codelist used with ECG Tests within CDISC.", "extensible": "true", "name": "ECG Test Code", "preferredTerm": "CDISC SDTM ECG Test Code Terminology", "submissionValue": "EGTESTCD", "synonyms": ["ECG Test Code"], "terms": [{"conceptId": "C116140", "definition": "An electrocardiographic finding assessment of new or presumed new significant ST-segment-T wave (ST-T) changes or new left bundle branch block consistent with acute myocardial ischemia. (Thygesen K, Alpert JS, Jaffe AS, Simoons ML, et al.; Joint ESC/ACCF/AHA/WHF Task Force for Universal Definition of Myocardial Infarction. Third universal definition of myocardial infarction. J Am Coll Cardiol. 2012 Oct 16;60(16):1581-98).", "preferredTerm": "Acute Myocardial Ischemia by ECG Assessment", "submissionValue": "AMIEGCHG", "synonyms": ["Acute Myocardial Ischemia ECG Change"]}, {"conceptId": "C111131", "definition": "An electrocardiographic assessment of cardiac atrioventricular conduction.", "preferredTerm": "Atrioventricular Conduction ECG Assessment", "submissionValue": "AVCOND", "synonyms": ["Atrioventricular Conduction"]}, {"conceptId": "C111132", "definition": "An electrocardiographic assessment of mean cardiac electrical vector and the ECG voltage.", "preferredTerm": "Axis and Voltage ECG Assessment", "submissionValue": "AXISVOLT", "synonyms": ["Axis and Voltage"]}, {"conceptId": "C111155", "definition": "An electrocardiographic assessment of chamber hypertrophy or enlargement.", "preferredTerm": "Chamber Hypertrophy or Enlargement ECG Assessment", "submissionValue": "CHYPTENL", "synonyms": ["Chamber Hypertrophy or Enlargement"]}, {"conceptId": "C119253", "definition": "An electrocardiographic measurement of the maximum rate of atrial depolarizations (P waves) recorded during an interval of time, usually expressed in beats per minute.", "preferredTerm": "Maximum Atrial Rate by Electrocardiogram", "submissionValue": "EGARMAX", "synonyms": ["ECG Maximum Atrial Rate"]}, {"conceptId": "C119254", "definition": "An electrocardiographic measurement of the median rate of atrial depolarizations (P waves) recorded during an interval of time, usually expressed in beats per minute.", "preferredTerm": "Median Atrial Rate by Electrocardiogram", "submissionValue": "EGARMED", "synonyms": ["ECG Median Atrial Rate"]}, {"conceptId": "C119255", "definition": "An electrocardiographic measurement of the minimum rate of atrial depolarizations (P waves) recorded during an interval of time, usually expressed in beats per minute.", "preferredTerm": "Minimum Atrial Rate by Electrocardiogram", "submissionValue": "EGARMIN", "synonyms": ["ECG Minimum Atrial Rate"]}, {"conceptId": "C119256", "definition": "An electrocardiographic measurement of the average rate of atrial depolarizations (P waves) recorded during an interval of time, usually expressed in beats per minute.", "preferredTerm": "Mean Atrial Rate by Electrocardiogram", "submissionValue": "EGARMN", "synonyms": ["ECG Mean Atrial Rate"]}, {"conceptId": "C117761", "definition": "A comparative interpretation of an ECG relative to a previous (comparator) ECG. The definition of the comparator ECG may be specified elsewhere. Common comparator result values include improved, no change, deteriorated.", "preferredTerm": "Comparison to a Prior ECG", "submissionValue": "EGCOMP", "synonyms": ["Comparison to a Prior ECG"]}, {"conceptId": "C119257", "definition": "An electrocardiographic measurement of the maximum rate of depolarization of a specific region of the heart during an interval of time, usually expressed in beats per minute. Unless otherwise specified, this is usually the maximum ventricular rate.", "preferredTerm": "Maximum Heart Rate by Electrocardiogram", "submissionValue": "EGHRMAX", "synonyms": ["ECG Maximum Heart Rate"]}, {"conceptId": "C123447", "definition": "An electrocardiographic measurement of the median rate of depolarization of a specific region of the heart during an interval of time, usually expressed in beats per minute. Unless otherwise specified, this is usually the median ventricular rate.", "preferredTerm": "ECG Median Heart Rate", "submissionValue": "EGHRMED", "synonyms": ["ECG Median Heart Rate"]}, {"conceptId": "C119258", "definition": "An electrocardiographic measurement of the minimum rate of depolarization of a specific region of the heart during an interval of time, usually expressed in beats per minute. Unless otherwise specified, this is usually the minimum ventricular rate.", "preferredTerm": "Minimum Heart Rate by Electrocardiogram", "submissionValue": "EGHRMIN", "synonyms": ["ECG Minimum Heart Rate"]}, {"conceptId": "C119259", "definition": "An electrocardiographic measurement of the average rate of depolarization of a specific region of the heart during an interval of time, usually expressed in beats per minute. Unless otherwise specified, this is usually the mean ventricular rate.", "preferredTerm": "Mean Heart Rate by Electrocardiogram", "submissionValue": "EGHRMN", "synonyms": ["ECG Mean Heart Rate"]}, {"conceptId": "C120608", "definition": "An electrocardiographic measurement of a heart rate derived from a single RR interval (interval between two consecutive QRS complexes).", "preferredTerm": "Single Beat RR Extrapolated Heart Rate by ECG Assessment", "submissionValue": "EGHRSI", "synonyms": ["Single RR Heart Rate"]}, {"conceptId": "C119260", "definition": "An electrocardiographic measurement of the maximum rate of ventricular depolarizations (QRS complexes) recorded during an interval of time, usually expressed in beats per minute.", "preferredTerm": "Maximum Ventricular Rate by Electrocardiogram", "submissionValue": "EGVRMAX", "synonyms": ["ECG Maximum Ventricular Rate"]}, {"conceptId": "C119261", "definition": "An electrocardiographic measurement of the median rate of ventricular depolarizations (QRS complexes) recorded during an interval of time, usually expressed in beats per minute.", "preferredTerm": "Median Ventricular Rate by Electrocardiogram", "submissionValue": "EGVRMED", "synonyms": ["ECG Median Ventricular Rate"]}, {"conceptId": "C119262", "definition": "An electrocardiographic measurement of the minimum rate of ventricular depolarizations (QRS complexes) recorded during an interval of time, usually expressed in beats per minute.", "preferredTerm": "Minimum Ventricular Rate by Electrocardiogram", "submissionValue": "EGVRMIN", "synonyms": ["ECG Minimum Ventricular Rate"]}, {"conceptId": "C119263", "definition": "An electrocardiographic measurement of the average rate of ventricular depolarizations (QRS complexes) recorded during an interval of time, usually expressed in beats per minute.", "preferredTerm": "Mean Ventricular Rate by Electrocardiogram", "submissionValue": "EGVRMN", "synonyms": ["ECG Mean Ventricular Rate"]}, {"conceptId": "C41255", "definition": "An act or process of elucidation; explication, or explanation of the meaning of the event or thing via the assignment of objects from the domain to the constants of a formal language, truth-values to the proposition symbols, truth-functions to the connectives, other functions to the function symbols, and extensions to the predicates, if any. The assignments are result of human logic application and are not native to the symbols of the formal language.", "preferredTerm": "Interpretation", "submissionValue": "INTP", "synonyms": ["Interpretation"]}, {"conceptId": "C111238", "definition": "An electrocardiographic assessment of intraventricular and intra-atrial conduction.", "preferredTerm": "Intraventricular and Intraatrial Conduction ECG Assessment", "submissionValue": "IVTIACD", "synonyms": ["Intraventricular-Intraatrial Conduction"]}, {"conceptId": "C117762", "definition": "An aggregate JT value based on the measurement of JT intervals from multiple beats within a single ECG. The method of aggregation, which can vary, is typically a measure of central tendency such as the mean.", "preferredTerm": "Aggregate JT Interval", "submissionValue": "JTAG", "synonyms": ["JT Interval, Aggregate"]}, {"conceptId": "C117763", "definition": "A JT aggregate interval that is corrected for heart rate using Bazett's formula, based on the measurement of QT intervals from multiple beats within a single ECG. The method of aggregation, which can vary, is typically a measure of central tendency such as the mean.", "preferredTerm": "Aggregate JTCB Interval", "submissionValue": "JTCBAG", "synonyms": ["JTcB Interval, Aggregate"]}, {"conceptId": "C117764", "definition": "A JT single beat interval that is corrected for heart rate using Bazett's formula, based on a QT interval measured on a single beat utilizing one or more ECG leads.", "preferredTerm": "Single Beat JTCB Interval", "submissionValue": "JTCBSB", "synonyms": ["JTcB Interval, Single Beat"]}, {"conceptId": "C117765", "definition": "A JT aggregate interval that is corrected for heart rate using Fridericia's formula, based on the measurement of QT intervals from multiple beats within a single ECG. The method of aggregation, which can vary, is typically a measure of central tendency such as the mean.", "preferredTerm": "Aggregate JTCF Interval", "submissionValue": "JTCFAG", "synonyms": ["JTcF Interval, Aggregate"]}, {"conceptId": "C117766", "definition": "A JT single beat interval that is corrected for heart rate using Fridericia's formula, based on a QT interval measured on a single beat utilizing one or more ECG leads.", "preferredTerm": "Single Beat JTCF Interval", "submissionValue": "JTCFSB", "synonyms": ["JTcF Interval, Single Beat"]}, {"conceptId": "C62117", "definition": "The maximum duration (time) of the JT interval, obtained from a set of measurements of the JT interval. The JT interval is defined as the time from the J point (end of ventricular depolarization, the point at which the QRS meets the ST segment) to the end of the T wave (representing the end of ventricular repolarization). (NCI)", "preferredTerm": "Maximum JT Duration", "submissionValue": "JTMAX", "synonyms": ["Summary (Max) JT Interval"]}, {"conceptId": "C62116", "definition": "The minimum duration (time) of the JT interval, obtained from a set of measurements of the JT interval. The JT interval is defined as the time from the J point (end of ventricular depolarization, the point at which the QRS meets the ST segment) to the end of the T wave (representing the end of ventricular repolarization). (NCI)", "preferredTerm": "Minimum JT Duration", "submissionValue": "JTMIN", "synonyms": ["Summary (Min) JT Interval"]}, {"conceptId": "C117767", "definition": "An aggregate J-Tpeak value based on the measurement of J-Tpeak intervals from multiple beats within a single ECG. The method of aggregation, which can vary, is typically a measure of central tendency such as the mean.", "preferredTerm": "Aggregate J-T Peak Interval", "submissionValue": "JTPAG", "synonyms": ["J-Tpeak Interval, Aggregate"]}, {"conceptId": "C117768", "definition": "An electrocardiographic interval measured from the J point to the peak of the T wave of a single beat utilizing one or more leads.", "preferredTerm": "Single Beat J-T Peak Interval", "submissionValue": "JTPSB", "synonyms": ["J-Tpeak Interval, Single Beat"]}, {"conceptId": "C117769", "definition": "An electrocardiographic interval measured from the J point to the offset of the T wave of a single beat utilizing one or more leads.", "preferredTerm": "Single Beat JT Interval", "submissionValue": "JTSB", "synonyms": ["JT Interval, Single Beat"]}, {"conceptId": "C111280", "definition": "An electrocardiographic assessment of findings suggestive of myocardial infarction.", "preferredTerm": "Myocardial Infarction ECG Assessment", "submissionValue": "MI", "synonyms": ["Myocardial Infarction"]}, {"conceptId": "C117770", "definition": "An electrocardiographic finding assessment of new or presumed new pathologic Q waves suggestive of myocardial infarction. (Thygesen K, Alpert JS, Jaffe AS, Simoons ML, et al.; Joint ESC/ACCF/AHA/WHF Task Force for Universal Definition of Myocardial Infarction. Third universal definition of myocardial infarction. J Am Coll Cardiol. 2012 Oct 16;60(16):1581-98).", "preferredTerm": "New Q Wave", "submissionValue": "NEWQWAVE", "synonyms": ["New Q Wave"]}, {"conceptId": "C118164", "definition": "A numerical representation of the electrocardiographic vector assessed at maximum deviation of the P wave from the isoelectric baseline, usually reported for the frontal plane.", "preferredTerm": "P Wave Axis", "submissionValue": "P_AXIS", "synonyms": ["P Wave Axis"]}, {"conceptId": "C111285", "definition": "An electrocardiographic assessment of presence of artificial electronic pacing.", "preferredTerm": "Pacemaker ECG Assessment", "submissionValue": "PACEMAKR", "synonyms": ["Pacemaker"]}, {"conceptId": "C117771", "definition": "An aggregate PP value based on the measurement of PP intervals from multiple beats within a single ECG. The method of aggregation, which can vary, is typically a measure of central tendency such as the mean.", "preferredTerm": "Aggregate PP Interval", "submissionValue": "PPAG", "synonyms": ["PP Interval, Aggregate"]}, {"conceptId": "C117772", "definition": "An electrocardiographic measurement of the interval between the onsets of two consecutive P waves.", "preferredTerm": "Single Measurement PP Interval", "submissionValue": "PPSM", "synonyms": ["PP Interval, Single Measurement"]}, {"conceptId": "C117773", "definition": "An aggregate PR value based on the measurement of PR intervals from multiple beats within a single ECG. The method of aggregation, which can vary, is typically a measure of central tendency such as the mean.", "preferredTerm": "Aggregate PR Interval", "submissionValue": "PRAG", "synonyms": ["PQ Interval, Aggregate", "PQAG", "PR Interval, Aggregate"]}, {"conceptId": "C62131", "definition": "The maximum duration (time) of the PR interval, obtained from a set of measurements of the PR interval. The PR interval is defined as the time from the beginning of the P wave (representing the onset of atrial depolarization) to the beginning of the R wave (representing the onset of ventricular depolarization). In some cases, a Q wave will precede the R wave, in which case the PR interval is measured from the beginning of the P wave to the beginning of the Q wave. (NCI)", "preferredTerm": "Maximum PR Duration", "submissionValue": "PRMAX", "synonyms": ["Summary (Max) PR Duration"]}, {"conceptId": "C62125", "definition": "The minimum duration (time) of the PR interval, obtained from a set of measurements of the PR interval. The PR interval is defined as the time from the beginning of the P wave (representing the onset of atrial depolarization) to the beginning of the R wave (representing the onset of ventricular depolarization). In some cases, a Q wave will precede the R wave, in which case the PR interval is measured from the beginning of the P wave to the beginning of the Q wave. (NCI)", "preferredTerm": "Minimum PR Duration", "submissionValue": "PRMIN", "synonyms": ["Summary (Min) PR Duration"]}, {"conceptId": "C117774", "definition": "An electrocardiographic interval measured from the onset of the P wave to the onset of the QRS complex of a single beat utilizing one or more leads.", "preferredTerm": "Single Beat PR Interval", "submissionValue": "PRSB", "synonyms": ["PQ Interval, Single Beat", "PQSB", "PR Interval, Single Beat"]}, {"conceptId": "C117775", "definition": "An aggregate P wave duration value based on the measurement of P wave duration intervals from multiple beats within a single ECG. The method of aggregation, which can vary, is typically a measure of central tendency such as the mean.", "preferredTerm": "Aggregate P Wave Duration", "submissionValue": "PWDURAG", "synonyms": ["P Wave Duration, Aggregate"]}, {"conceptId": "C117776", "definition": "An electrocardiographic interval measured from the onset of the P wave to the offset of the P wave of a single beat utilizing one or more leads.", "preferredTerm": "Single Beat P Wave Duration", "submissionValue": "PWDURSB", "synonyms": ["P Wave Duration, Single Beat"]}, {"conceptId": "C117777", "definition": "An aggregate P wave amplitude value based on the measurement of P wave amplitudes from multiple beats within a single ECG. The method of aggregation, which can vary, is typically a measure of central tendency such as the mean.", "preferredTerm": "Aggregate P Wave Amplitude", "submissionValue": "PWHTAG", "synonyms": ["P Wave Amplitude, Aggregate"]}, {"conceptId": "C117778", "definition": "An electrocardiographic measurement of the mean amplitude (usually measured in mm) of the P wave measured from the isoelectric baseline to the peak of the P wave of a single beat utilizing one or more leads. Based on the recording gain, this measurement is reported in millivolt.", "preferredTerm": "Single Beat P Wave Amplitude", "submissionValue": "PWHTSB", "synonyms": ["P Wave Amplitude, Single Beat"]}, {"conceptId": "C118165", "definition": "A numerical representation of the electrocardiographic vector assessed at maximum deviation of the QRS complex from the isoelectric baseline, usually reported for the frontal plane.", "preferredTerm": "QRS Axis", "submissionValue": "QRS_AXIS", "synonyms": ["QRS Axis"]}, {"conceptId": "C117779", "definition": "An aggregate QRS value based on the measurement of QRS intervals from multiple beats within a single ECG. The method of aggregation, which can vary, is typically a measure of central tendency such as the mean.", "preferredTerm": "Aggregate QRS Duration", "submissionValue": "QRSAG", "synonyms": ["QRS Duration, Aggregate"]}, {"conceptId": "C117780", "definition": "An electrocardiographic interval measured from the onset of the QRS complex to the offset of the QRS complex of a single beat utilizing one or more leads.", "preferredTerm": "Single Beat QRS Duration", "submissionValue": "QRSSB", "synonyms": ["QRS Duration, Single Beat"]}, {"conceptId": "C117781", "definition": "An aggregate paced QRS duration value based on the measurement of paced QRS duration intervals from multiple beats within a single ECG. The method of aggregation, which can vary, is typically a measure of central tendency such as the mean.", "preferredTerm": "Paced Ventricular Aggregate QRS Duration", "submissionValue": "QRVDVPAG", "synonyms": ["QRS Duration, Ventr. Paced, Aggregate"]}, {"conceptId": "C117782", "definition": "An electrocardiographic interval measured from the onset of the paced QRS complex to the offset of the QRS complex of a single beat utilizing one or more leads.", "preferredTerm": "Paced Ventricular Single Beat QRS Duration", "submissionValue": "QRVDVPSB", "synonyms": ["QRS Duration, Ventr. Paced, Single Beat"]}, {"conceptId": "C117783", "definition": "An aggregate QT value based on the measurement of QT intervals from multiple beats within a single ECG. The method of aggregation, which can vary, is typically a measure of central tendency such as the mean.", "preferredTerm": "Aggregate QT Interval", "submissionValue": "QTAG", "synonyms": ["QT Interval, Aggregate"]}, {"conceptId": "C124332", "definition": "A QT Aggregate interval that is corrected for heart rate using individual probabilistic QT/RR slopes for each subject, based on the measurement of QT intervals from multiple beats within a single ECG or period of a continuous ECG. The method of aggregation, which can vary, is typically a measure of central tendency such as the mean.", "preferredTerm": "Aggregate QTca Interval", "submissionValue": "QTCAAG", "synonyms": ["QTca Interval, Aggregate"]}, {"conceptId": "C124333", "definition": "A QT interval that is corrected for heart rate using individual probabilistic QT/RR slopes for each subject, based on a QT interval measured on a single beat utilizing one or more ECG leads.", "preferredTerm": "Single Beat QTca Interval", "submissionValue": "QTCASB", "synonyms": ["QTca Interval, Single Beat"]}, {"conceptId": "C117784", "definition": "A QT aggregate interval that is corrected for heart rate using Bazett's formula, based on the measurement of QT intervals from multiple beats within a single ECG. The method of aggregation, which can vary, is typically a measure of central tendency such as the mean.", "preferredTerm": "Aggregate QTCB Interval", "submissionValue": "QTCBAG", "synonyms": ["QTcB Interval, Aggregate"]}, {"conceptId": "C117785", "definition": "A QT single beat interval that is corrected for heart rate using Bazett's formula, based on a QT interval measured on a single beat utilizing one or more ECG leads.", "preferredTerm": "Single Beat QTCB Interval", "submissionValue": "QTCBSB", "synonyms": ["QTcB Interval, Single Beat"]}, {"conceptId": "C117786", "definition": "A QT aggregate interval that is corrected for heart rate using Fridericia's formula, based on the measurement of QT intervals from multiple beats within a single ECG. The method of aggregation, which can vary, is typically a measure of central tendency such as the mean.", "preferredTerm": "Aggregate QTCF Interval", "submissionValue": "QTCFAG", "synonyms": ["QTcF Interval, Aggregate"]}, {"conceptId": "C117787", "definition": "A QT single beat interval that is corrected for heart rate using Fridericia's formula, based on a QT interval measured on a single beat utilizing one or more ECG leads.", "preferredTerm": "Single Beat QTCF Interval", "submissionValue": "QTCFSB", "synonyms": ["QTcF Interval, Single Beat"]}, {"conceptId": "C123448", "definition": "A QT aggregate interval corrected for heart rate using a linear correction formula.", "preferredTerm": "Aggregate QTcL Interval", "submissionValue": "QTCLAG", "synonyms": ["QTcL Interval, Aggregate"]}, {"conceptId": "C123449", "definition": "A QT single beat interval corrected for heart rate using a linear correction formula.", "preferredTerm": "Single Beat QTcL Interval", "submissionValue": "QTCLSB", "synonyms": ["QTcL Interval, Single Beat"]}, {"conceptId": "C100391", "definition": "A QT interval that is corrected for heart rate by unspecified correction method, or by non-standard correction methods.", "preferredTerm": "Corrected QT Interval", "submissionValue": "QTCUNS", "synonyms": ["QTc Correction Method Unspecified"]}, {"conceptId": "C174285", "definition": "A QT aggregate interval that is corrected for heart rate by unspecified correction method, or by non-standard correction methods.", "preferredTerm": "QTc Correction Method Unspecified, Aggregate", "submissionValue": "QTCUNSAG", "synonyms": ["QTc Corr Method Unspecified, Aggregate", "QTc Correction Method Unspecified, Aggregate"]}, {"conceptId": "C174286", "definition": "A QT interval that is corrected for heart rate by unspecified correction method, or by non-standard correction methods, based on a QT interval measured on a single beat utilizing one or more ECG leads.", "preferredTerm": "QTc Correction Method Unspecified, Single Beat", "submissionValue": "QTCUNSSB", "synonyms": ["QTc Corr Method Unspecified, Single Beat", "QTc Correction Method Unspecified, Single Beat"]}, {"conceptId": "C123450", "definition": "A QT aggregate interval corrected for heart rate using the Van der Water's correction formula.", "preferredTerm": "Aggregate QTcV Interval", "submissionValue": "QTCVAG", "synonyms": ["QTcV Interval, Aggregate"]}, {"conceptId": "C123451", "definition": "A QT single beat interval corrected for heart rate using the Van der Water's correction formula.", "preferredTerm": "Single Beat QTcV Interval", "submissionValue": "QTCVSB", "synonyms": ["QTcV Interval, Single Beat"]}, {"conceptId": "C62135", "definition": "The maximum duration (time) of the QT interval, obtained from a set of measurements of the QT interval. The QT interval is defined as the time from the beginning of the QRS complex to the end of the T wave, representing the time it takes for the ventricles to depolarize and subsequently repolarize. In some cases, the Q wave will be absent, in which case the QT interval is measured from the beginning of the R wave to the end of the T wave. (NCI)", "preferredTerm": "Maximum QT Duration", "submissionValue": "QTMAX", "synonyms": ["Summary (Max) QT Duration"]}, {"conceptId": "C62133", "definition": "The minimum duration (time) of the QT interval, obtained from a set of measurements of the QT interval. The QT interval is defined as the time from the beginning of the QRS complex to the end of the T wave, representing the time it takes for the ventricles to depolarize and subsequently repolarize. In some cases, the Q wave will be absent, in which case the QT interval is measured from the beginning of the R wave to the end of the T wave. (NCI)", "preferredTerm": "Minimum QT Duration", "submissionValue": "QTMIN", "synonyms": ["Summary (Min) QT Duration"]}, {"conceptId": "C117788", "definition": "An electrocardiographic interval measured from the onset of the QRS complex to the offset of the T wave of a single beat utilizing one or more leads.", "preferredTerm": "Single Beat QT Interval", "submissionValue": "QTSB", "synonyms": ["QT Interval, Single Beat"]}, {"conceptId": "C117789", "definition": "An aggregate Q wave amplitude value based on the measurement of Q wave amplitudes from multiple beats within a single ECG. The method of aggregation, which can vary, is typically a measure of central tendency such as the mean.", "preferredTerm": "Aggregate Q Wave Amplitude", "submissionValue": "QWAAG", "synonyms": ["Q Wave Amplitude, Aggregate"]}, {"conceptId": "C117790", "definition": "An electrocardiographic measurement of the mean amplitude (usually measured in mm) of the Q wave measured from the isoelectric baseline to the peak of the Q wave of a single beat utilizing one or more leads. Based on the recording gain, this measurement may also be reported in millivolt.", "preferredTerm": "Single Beat Q Wave Amplitude", "submissionValue": "QWASB", "synonyms": ["Q Wave Amplitude, Single Beat"]}, {"conceptId": "C111307", "definition": "An electrocardiographic assessment of cardiac rhythm not otherwise specified.", "preferredTerm": "Rhythm Not Otherwise Specified ECG Assessment", "submissionValue": "RHYNOS", "synonyms": ["Rhythm Not Otherwise Specified"]}, {"conceptId": "C117791", "definition": "An aggregate RR value based on the measurement of RR intervals from multiple beats within a single ECG. The method of aggregation, which can vary, is typically a measure of central tendency such as the mean.", "preferredTerm": "Aggregate RR Interval", "submissionValue": "RRAG", "synonyms": ["RR Interval, Aggregate"]}, {"conceptId": "C62094", "definition": "The maximum duration (time) between successive peaks of R waves in a particular set of RR intervals. (NCI)", "preferredTerm": "Maximum RR Duration", "submissionValue": "RRMAX", "synonyms": ["Summary (Max) RR Duration"]}, {"conceptId": "C62093", "definition": "The minimum duration (time) between successive peaks of R waves in a particular set of RR intervals. (NCI)", "preferredTerm": "Minimum RR Duration", "submissionValue": "RRMIN", "synonyms": ["Summary (Min) RR Duration"]}, {"conceptId": "C117792", "definition": "An electrocardiographic measurement of the interval between two consecutive R waves. If R waves are not present, this measurement may utilize the interval between the most easily identified components of the QRS complex within two consecutive beats.", "preferredTerm": "RR Interval Single Measurement", "submissionValue": "RRSM", "synonyms": ["RR Interval, Single Measurement"]}, {"conceptId": "C117793", "definition": "An aggregate RS wave amplitude value based on measurements from multiple beats from a single ECG. The method of aggregation, which can vary, is typically a measure of central tendency such as the mean.", "preferredTerm": "RS Wave Amplitude Aggregate", "submissionValue": "RSAAG", "synonyms": ["RS Wave Amplitude, Aggregate"]}, {"conceptId": "C117794", "definition": "An electrocardiographic measurement of the sum of the amplitudes of the R and S waves, obtained from a single beat in one particular lead or set of leads.", "preferredTerm": "RS Wave Amplitude Single Beat", "submissionValue": "RSASB", "synonyms": ["RS Wave Amplitude, Single Beat"]}, {"conceptId": "C117795", "definition": "An aggregate R wave amplitude value based on the measurement of R wave amplitudes from multiple beats within a single ECG. The method of aggregation, which can vary, is typically a measure of central tendency such as the mean.", "preferredTerm": "R Wave Amplitude Aggregate", "submissionValue": "RWAAG", "synonyms": ["R Wave Amplitude, Aggregate"]}, {"conceptId": "C117796", "definition": "An electrocardiographic measurement of the mean amplitude (usually measured in mm) of the R wave measured from the isoelectric baseline to the peak of the R wave of a single beat utilizing one or more leads. Based on the recording gain, this measurement is reported in millivolt.", "preferredTerm": "R Wave Amplitude Single Beat", "submissionValue": "RWASB", "synonyms": ["R Wave Amplitude, Single Beat"]}, {"conceptId": "C111312", "definition": "An electrocardiographic assessment of sinus node rhythms and arrhythmias.", "preferredTerm": "Sinus Node Rhythm and Arrhythmia ECG Assessment", "submissionValue": "SNRARRY", "synonyms": ["Sinus Node Rhythms and Arrhythmias"]}, {"conceptId": "C111320", "definition": "An electrocardiographic assessment of supraventricular arrhythmias excluding tachycardias.", "preferredTerm": "Supraventricular Arrhythmia ECG Assessment", "submissionValue": "SPRARRY", "synonyms": ["Supraventricular Arrhythmias"]}, {"conceptId": "C111321", "definition": "An electrocardiographic assessment of supraventricular tachyarrhythmias.", "preferredTerm": "Supraventricular Tachyarrhythmia ECG Assessment", "submissionValue": "SPRTARRY", "synonyms": ["Supraventricular Tachyarrhythmias"]}, {"conceptId": "C117797", "definition": "An aggregate ST segment depression value based on the measurement of ST segment depression from multiple beats within a single ECG. The method of aggregation, which can vary, is typically a measure of central tendency such as the mean.", "preferredTerm": "ST Segment Depression Aggregate", "submissionValue": "STDAG", "synonyms": ["ST Segment Depression, Aggregate"]}, {"conceptId": "C62163", "definition": "The maximum depression (negative deflection from baseline, usually measured in mm) of the ST segment, obtained from a set of measurements of the depression of the ST segment. This is usually expressed in millivolt.", "preferredTerm": "Maximum ST Segment Depression by ECG Finding", "submissionValue": "STDPMAX", "synonyms": ["Summary (Max) ST Depression"]}, {"conceptId": "C62162", "definition": "The minimum depression (negative deflection from baseline, usually measured in mm) of the ST segment, obtained from a set of measurements of the depression of the ST segment. This is usually expressed in millivolt.", "preferredTerm": "Minimum ST Segment Depression by ECG Finding", "submissionValue": "STDPMIN", "synonyms": ["Summary (Min) ST Depression"]}, {"conceptId": "C117798", "definition": "An electrocardiographic measurement of the mean amplitude (usually measured in mm) of the ST segment depression below the isoelectric baseline measured from the baseline to the ST segment of a single beat utilizing one or more leads. Based on the recording gain, this measurement may also be reported in millivolt.", "preferredTerm": "ST Segment Depression Single Beat", "submissionValue": "STDSB", "synonyms": ["ST Segment Depression, Single Beat"]}, {"conceptId": "C117799", "definition": "An aggregate ST segment deviation value based on the measurement of ST segment deviation from multiple beats within a single ECG. The method of aggregation, which can vary, is typically a measure of central tendency such as the mean.", "preferredTerm": "ST Segment Deviation Aggregate", "submissionValue": "STDVAG", "synonyms": ["ST Segment Deviation, Aggregate"]}, {"conceptId": "C62157", "definition": "The maximum deviation (distance from baseline, positive or negative, usually measured in mm) of the ST segment, obtained from a set of measurements of the deviation of the ST segment. This is usually expressed in millivolt.", "preferredTerm": "Maximum ST Deviation", "submissionValue": "STDVMAX", "synonyms": ["Summary (Max) ST Deviation"]}, {"conceptId": "C62156", "definition": "The minimum deviation (distance from baseline, positive or negative, usually measured in mm) of the ST segment, obtained from a set of measurements of the deviation of the ST segment. This is usually expressed in millivolt.", "preferredTerm": "Minimum ST Deviation", "submissionValue": "STDVMIN", "synonyms": ["Summary (Min) ST Deviation"]}, {"conceptId": "C117800", "definition": "An electrocardiographic measurement of the mean amplitude (usually measured in mm) of the ST segment deviation above or below the isoelectric baseline measured from the baseline to the ST segment of a single beat utilizing one or more leads. Based on the recording gain, this measurement is reported in millivolt.", "preferredTerm": "ST Segment Deviation Single Beat", "submissionValue": "STDVSB", "synonyms": ["ST Segment Deviation, Single Beat"]}, {"conceptId": "C117801", "definition": "An aggregate ST segment elevation value based on the measurement of ST segment elevation from multiple beats within a single ECG. The method of aggregation, which can vary, is typically a measure of central tendency such as the mean.", "preferredTerm": "ST Segment Elevation Aggregate", "submissionValue": "STEAG", "synonyms": ["ST Segment Elevation, Aggregate"]}, {"conceptId": "C62160", "definition": "The maximum elevation (positive deflection from baseline, usually measured in mm) of the ST segment, obtained from a set of measurements of the elevation of the ST segment. This is usually reported in millivolt.", "preferredTerm": "Maximum ST Segment Elevation", "submissionValue": "STELMAX", "synonyms": ["Summary (Max) ST Elevation"]}, {"conceptId": "C62159", "definition": "The minimum elevation (positive deflection from baseline, usually measured in mm) of the ST segment, obtained from a set of measurements of the elevation of the ST segment. This is usually reported in millivolt.", "preferredTerm": "Minimum ST Segment Elevation", "submissionValue": "STELMIN", "synonyms": ["Summary (Min) ST Elevation"]}, {"conceptId": "C117802", "definition": "An electrocardiographic measurement of the mean amplitude (usually measured in mV) of the ST segment elevation above the isoelectric baseline measured from the baseline to the ST segment of a single beat utilizing one or more leads. Based on the recording gain, this measurement may also be reported in mm.", "preferredTerm": "ST Segment Elevation Single Beat", "submissionValue": "STESB", "synonyms": ["ST Segment Elevation, Single Beat"]}, {"conceptId": "C117803", "definition": "An aggregate ST segment duration value based on the measurement of ST segment duration intervals from multiple beats within a single ECG. The method of aggregation, which can vary, is typically a measure of central tendency such as the mean.", "preferredTerm": "ST Segment Duration Aggregate", "submissionValue": "STSDURAG", "synonyms": ["ST Segment Duration, Aggregate"]}, {"conceptId": "C117804", "definition": "An electrocardiographic interval measured from the J point to the onset of the T wave of a single beat utilizing one or more leads.", "preferredTerm": "ST Segment Duration Single Beat", "submissionValue": "STSDURSB", "synonyms": ["ST Segment Duration, Single Beat"]}, {"conceptId": "C111363", "definition": "An electrocardiographic assessment of the characteristics of the ST segment, T wave, and U wave.", "preferredTerm": "ST Segment, T wave, and U wave ECG Assessment", "submissionValue": "STSTWUW", "synonyms": ["ST Segment, T wave, and U wave"]}, {"conceptId": "C117805", "definition": "An aggregate S wave amplitude value based on the measurement of S wave amplitudes from multiple beats within a single ECG. The method of aggregation, which can vary, is typically a measure of central tendency such as the mean.", "preferredTerm": "S Wave Amplitude Aggregate", "submissionValue": "SWAAG", "synonyms": ["S Wave Amplitude, Aggregate"]}, {"conceptId": "C117806", "definition": "An electrocardiographic measurement of the mean amplitude (usually measured in mm) of the S wave measured from the isoelectric baseline to the peak of the S wave of a single beat utilizing one or more leads. Based on the recording gain, this measurement is reported in millivolt.", "preferredTerm": "S Wave Amplitude Single Beat", "submissionValue": "SWASB", "synonyms": ["S Wave Amplitude, Single Beat"]}, {"conceptId": "C118166", "definition": "A numerical representation of the electrocardiographic vector assessed at maximum deviation of the T wave from the isoelectric baseline, usually reported for the frontal plane.", "preferredTerm": "T Wave Axis", "submissionValue": "T_AXIS", "synonyms": ["T Wave Axis"]}, {"conceptId": "C117807", "definition": "A statement about an electrocardiographic recording describing technical issues or interference during the recording, processing, or transmission of the data. This does not represent an electrocardiographic diagnosis.", "preferredTerm": "ECG Technical Quality", "submissionValue": "TECHQUAL", "synonyms": ["Technical Quality"]}, {"conceptId": "C117808", "definition": "An aggregate Tpeak-Tend value based on the measurement of Tpeak-Tend from multiple beats within a single ECG. The method of aggregation, which can vary, is typically a measure of central tendency such as the mean.", "preferredTerm": "T Peak-T End Interval Aggregate", "submissionValue": "TPTEAG", "synonyms": ["Tpeak-Tend Interval, Aggregate"]}, {"conceptId": "C117809", "definition": "An electrocardiographic interval measured from the peak of the T wave to the offset of the T wave of a single beat utilizing one or more leads.", "preferredTerm": "T Peak-T End Interval Single Beat", "submissionValue": "TPTESB", "synonyms": ["Tpeak-Tend Interval, Single Beat"]}, {"conceptId": "C117810", "definition": "An aggregate T wave area value based on the measurement of T wave areas from multiple beats within a single ECG. The method of aggregation, which can vary, is typically a measure of central tendency such as the mean.", "preferredTerm": "T Wave Area Aggregate", "submissionValue": "TWARAG", "synonyms": ["T Wave Area, Aggregate"]}, {"conceptId": "C117811", "definition": "An electrocardiographic measurement of the area of the T wave of a single beat utilizing one or more leads.", "preferredTerm": "T Wave Area Single Beat", "submissionValue": "TWARSB", "synonyms": ["T Wave Area, Single Beat"]}, {"conceptId": "C117812", "definition": "An aggregate T wave duration value based on the measurement of T wave duration intervals from multiple beats within a single ECG. The method of aggregation, which can vary, is typically a measure of central tendency such as the mean.", "preferredTerm": "T Wave Duration Aggregate", "submissionValue": "TWDURAG", "synonyms": ["T Wave Duration, Aggregate"]}, {"conceptId": "C117813", "definition": "An electrocardiographic interval measured from the onset of the T wave to the offset of the T wave of a single beat utilizing one or more leads.", "preferredTerm": "T Wave Duration Single Beat", "submissionValue": "TWDURSB", "synonyms": ["T Wave Duration, Single Beat"]}, {"conceptId": "C117814", "definition": "An aggregate T wave amplitude value based on the measurement of T wave amplitudes from multiple beats within a single ECG. The method of aggregation, which can vary, is typically a measure of central tendency such as the mean.", "preferredTerm": "T Wave Amplitude Aggregate", "submissionValue": "TWHAG", "synonyms": ["T Wave Amplitude, Aggregate"]}, {"conceptId": "C117815", "definition": "An electrocardiographic measurement of the mean amplitude (usually measured in mV) of the T wave measured from the isoelectric baseline to the peak of the T wave of a single beat utilizing one or more leads. Based on the recording gain, this measurement may also be reported in mm.", "preferredTerm": "T Wave Amplitude Single Beat", "submissionValue": "TWHSB", "synonyms": ["T Wave Amplitude, Single Beat"]}, {"conceptId": "C111330", "definition": "An electrocardiographic assessment of ventricular arrhythmias excluding tachycardias.", "preferredTerm": "Ventricular Arrhythmia ECG Assessment", "submissionValue": "VTARRY", "synonyms": ["Ventricular Arrhythmias"]}, {"conceptId": "C111331", "definition": "An electrocardiographic assessment of ventricular tachyarrhythmias.", "preferredTerm": "Ventricular Tachyarrhythmia ECG Assessment", "submissionValue": "VTTARRY", "synonyms": ["Ventricular Tachyarrhythmias"]}]}