{"_links": {"parentPackage": {"href": "/mdr/ct/packages/sendct-2023-06-30", "title": "SEND Controlled Terminology Package 54 Effective 2023-06-30", "type": "Terminology"}, "priorVersion": {"href": "/mdr/ct/packages/sendct-2023-03-31/codelists/C89982", "title": "CDISC SEND Version Terminology", "type": "Code List"}, "rootItem": {"href": "/mdr/root/ct/sendct/codelists/C89982", "title": "Version-agnostic anchor resource for codelist C89982", "type": "Root Value Domain"}, "self": {"href": "/mdr/ct/packages/sendct-2023-06-30/codelists/C89982", "title": "CDISC SEND Version Terminology", "type": "Code List"}}, "conceptId": "C89982", "definition": "Terminology related to the name and version of the SEND implementation guide that is in use for the study.", "extensible": "true", "name": "SEND Implementation Guide Version", "preferredTerm": "CDISC SEND Version Terminology", "submissionValue": "SNDIGVER", "synonyms": ["SEND Implementation Guide Version"], "terms": [{"conceptId": "C174386", "definition": "The 1.0 version of the standard for exchange of nonclinical data (SEND) animal rule implementation guide.", "preferredTerm": "SEND Animal Rule Implementation Guide Version 1.0", "submissionValue": "SEND ANIMAL RULE IMPLEMENTATION GUIDE VERSION 1.0", "synonyms": ["SEND IG AR Version 1.0", "SENDIG AR Version 1.0", "SENDIG-AR 1.0"]}, {"conceptId": "C124638", "definition": "The 1.0 version of the standard for exchange of nonclinical data (SEND) developmental and reproductive toxicology implementation guide.", "preferredTerm": "SEND Developmental and Reproductive Toxicology Implementation Guide Version 1.0", "submissionValue": "SEND DEVELOPMENTAL AND REPRODUCTIVE TOXICOLOGY IMPLEMENTATION GUIDE VERSION 1.0", "synonyms": ["SEND IG DART Version 1.0"]}, {"conceptId": "C156616", "definition": "The 1.1 version of the standard for exchange of nonclinical data (SEND) developmental and reproductive toxicology implementation guide.", "preferredTerm": "SEND Developmental and Reproductive Toxicology Implementation Guide Version 1.1", "submissionValue": "SEND DEVELOPMENTAL AND REPRODUCTIVE TOXICOLOGY IMPLEMENTATION GUIDE VERSION 1.1", "synonyms": ["SEND IG DART Version 1.1"]}, {"conceptId": "C198406", "definition": "The 1.2 version of the standard for exchange of nonclinical data (SEND) developmental and reproductive toxicology implementation guide.", "preferredTerm": "SEND Developmental and Reproductive Toxicology Implementation Guide Version 1.2", "submissionValue": "SEND DEVELOPMENTAL AND REPRODUCTIVE TOXICOLOGY IMPLEMENTATION GUIDE VERSION 1.2", "synonyms": ["SEND IG DART Version 1.2"]}, {"conceptId": "C200022", "definition": "The 1.0 version of the standard for exchange of nonclinical data (SEND) genetic toxicology implementation guide.", "preferredTerm": "SEND Genetic Toxicology Implementation Guide Version 1.0", "submissionValue": "SEND GENETIC TOXICOLOGY IMPLEMENTATION GUIDE VERSION 1.0", "synonyms": ["SEND IG Genetic Toxicology Version 1.0", "SENDIG Genetic Toxicology Version 1.0", "SENDIG-Genetic Toxicology 1.0"]}, {"conceptId": "C96371", "definition": "The 3.0 version of the standard for exchange of nonclinical data (SEND) implementation guide. (NCI)", "preferredTerm": "Standard for the Exchange of Nonclinical Data Implementation Guide Version 3.0", "submissionValue": "SEND IMPLEMENTATION GUIDE VERSION 3.0", "synonyms": ["SEND IG Version 3.0"]}, {"conceptId": "C120925", "definition": "The 3.1 version of the standard for exchange of nonclinical data (SEND) implementation guide. (NCI)", "preferredTerm": "Standard for the Exchange of Nonclinical Data Implementation Guide Version 3.1", "submissionValue": "SEND IMPLEMENTATION GUIDE VERSION 3.1", "synonyms": ["SEND IG Version 3.1"]}, {"conceptId": "C187978", "definition": "The 3.1.1 version of the standard for exchange of nonclinical data (SEND) implementation guide. (NCI)", "preferredTerm": "Standard for the Exchange of Nonclinical Data Implementation Guide Version 3.1.1", "submissionValue": "SEND IMPLEMENTATION GUIDE VERSION 3.1.1", "synonyms": ["SEND IG Version 3.1.1"]}]}