{"_links": {"parentPackage": {"href": "/mdr/ct/packages/sendct-2023-06-30", "title": "SEND Controlled Terminology Package 54 Effective 2023-06-30", "type": "Terminology"}, "priorVersion": {"href": "/mdr/ct/packages/sendct-2023-03-31/codelists/C89973", "title": "CDISC SEND Microscopic Findings Test Name Terminology", "type": "Code List"}, "rootItem": {"href": "/mdr/root/ct/sendct/codelists/C89973", "title": "Version-agnostic anchor resource for codelist C89973", "type": "Root Value Domain"}, "self": {"href": "/mdr/ct/packages/sendct-2023-06-30/codelists/C89973", "title": "CDISC SEND Microscopic Findings Test Name Terminology", "type": "Code List"}}, "conceptId": "C89973", "definition": "Terminology for the test codes concerned with the non-clinical findings from a specimen that are visible by microscopic analysis.", "extensible": "true", "name": "SEND Microscopic Findings Test Name", "preferredTerm": "CDISC SEND Microscopic Findings Test Name Terminology", "submissionValue": "MITEST", "synonyms": ["SEND Microscopic Findings Test Name"], "terms": [{"conceptId": "C147493", "definition": "A qualitative microscopic examination of tissue sections to determine the presence of pathologic finding(s). This term is intended to be used for non-targeted examinations.", "preferredTerm": "Qualitative Histopathologic Examination", "submissionValue": "General Histopathologic Exam, Qual", "synonyms": ["General Histopathologic Examination, Qualitative", "General Histopathological Exam, Qual"]}, {"conceptId": "C186257", "definition": "A qualitative microscopic examination of reproductive tissue sections to determine the phase of the reproductive cycle.", "preferredTerm": "Reproductive Cycle Phase Microscopic Exam", "submissionValue": "ReproCycle Phase Microscopic Exam, Qual", "synonyms": ["ReproCycle Phase Microscopic Exam, Qual"]}, {"conceptId": "C176391", "definition": "A qualitative microscopic examination of reproductive tissue sections to determine sexual maturity.", "preferredTerm": "Qualitative Sexual Maturity Microscopic Examination", "submissionValue": "Sexual Maturity Microscopic Exam, Qual", "synonyms": ["Sexual Maturity Microscopic Exam, Qual"]}]}