{"_links": {"parentPackage": {"href": "/mdr/ct/packages/sdtmct-2017-03-31", "title": "SDTM Controlled Terminology Package 29 Effective 2017-03-31", "type": "Terminology"}, "priorVersion": {"href": "/mdr/ct/packages/sdtmct-2016-12-16/codelists/C100131", "title": "CDISC Questionnaire ADAS-Cog CDISC Version Test Name Terminology", "type": "Code List"}, "rootItem": {"href": "/mdr/root/ct/sdtmct/codelists/C100131", "title": "Version-agnostic anchor resource for codelist C100131", "type": "Root Value Domain"}, "self": {"href": "/mdr/ct/packages/sdtmct-2017-03-31/codelists/C100131", "title": "CDISC Questionnaire ADAS-Cog CDISC Version Test Name Terminology", "type": "Code List"}}, "conceptId": "C100131", "definition": "ADAS-Cog CDISC Version test name.", "extensible": "false", "name": "Alzheimer's Disease Assessment Scale - Cognitive CDISC Version Questionnaire Test Name", "preferredTerm": "CDISC Questionnaire ADAS-Cog CDISC Version Test Name Terminology", "submissionValue": "ADCTN", "synonyms": ["Alzheimer's Disease Assessment Scale - Cognitive CDISC Version Questionnaire Test Name"], "terms": [{"conceptId": "C100231", "definition": "Alzheimer's Disease Assessment Scale-Cognitive CDISC Version - Constructional praxis attempted to draw, but drew no forms correctly.", "preferredTerm": "CDISC ADAS-Cog - Attempt to Draw", "submissionValue": "Attempt to Draw", "synonyms": ["Attempt to Draw"]}, {"conceptId": "C100209", "definition": "Alzheimer's Disease Assessment Scale-Cognitive CDISC Version - Summary score for commands.", "preferredTerm": "CDISC ADAS-Cog - Commands Summary Score", "submissionValue": "Commands", "synonyms": ["Commands"]}, {"conceptId": "C100211", "definition": "Alzheimer's Disease Assessment Scale-Cognitive CDISC Version - Commands task for pointing to the ceiling then to the floor.", "preferredTerm": "CDISC ADAS-Cog - Commands: Ceiling", "submissionValue": "Commands: Ceiling", "synonyms": ["Commands: Ceiling"]}, {"conceptId": "C100210", "definition": "Alzheimer's Disease Assessment Scale-Cognitive CDISC Version - Commands task for making a fist.", "preferredTerm": "CDISC ADAS-Cog - Commands: Fist", "submissionValue": "Commands: Fist", "synonyms": ["Commands: Fist"]}, {"conceptId": "C100212", "definition": "Alzheimer's Disease Assessment Scale-Cognitive CDISC Version - Commands task for put the pencil on top of the card and then put it back.", "preferredTerm": "CDISC ADAS-Cog - Commands: Pencil", "submissionValue": "Commands: Pencil", "synonyms": ["Commands: Pencil"]}, {"conceptId": "C100214", "definition": "Alzheimer's Disease Assessment Scale-Cognitive CDISC Version - Commands task for tap each shoulder twice with two fingers keeping your eyes shut.", "preferredTerm": "CDISC ADAS-Cog - Commands: Shoulder", "submissionValue": "Commands: Shoulder", "synonyms": ["Commands: Shoulder"]}, {"conceptId": "C100213", "definition": "Alzheimer's Disease Assessment Scale-Cognitive CDISC Version - Commands task for put the watch on the other side of the pencil and then turn over the card.", "preferredTerm": "CDISC ADAS-Cog - Commands: Watch", "submissionValue": "Commands: Watch", "synonyms": ["Commands: Watch"]}, {"conceptId": "C100278", "definition": "Alzheimer's Disease Assessment Scale-Cognitive CDISC Version - Ability to comprehend speech.", "preferredTerm": "CDISC ADAS-Cog - Comprehension", "submissionValue": "Comprehension", "synonyms": ["Comprehension"]}, {"conceptId": "C100279", "definition": "Alzheimer's Disease Assessment Scale-Cognitive CDISC Version - Ability to concentrate or easily be distracted.", "preferredTerm": "CDISC ADAS-Cog - Concentration/Distractibility", "submissionValue": "Concentration/Distractibility", "synonyms": ["Concentration/Distractibility"]}, {"conceptId": "C100226", "definition": "Alzheimer's Disease Assessment Scale-Cognitive CDISC Version - Summary score for constructional praxis.", "preferredTerm": "CDISC ADAS-Cog - Constructional Praxis Summary Score", "submissionValue": "Constructional Praxis", "synonyms": ["Constructional Praxis"]}, {"conceptId": "C100228", "definition": "Alzheimer's Disease Assessment Scale-Cognitive CDISC Version - Constructional praxis task for copying two overlapping rectangles.", "preferredTerm": "CDISC ADAS-Cog - Constructional Praxis: 2 Rectangles", "submissionValue": "Constructional Praxis: 2 Rectangles", "synonyms": ["Constructional Praxis: 2 Rectangles"]}, {"conceptId": "C100227", "definition": "Alzheimer's Disease Assessment Scale-Cognitive CDISC Version - Constructional praxis task for copying a circle.", "preferredTerm": "CDISC ADAS-Cog - Constructional Praxis: Circle", "submissionValue": "Constructional Praxis: Circle", "synonyms": ["Constructional Praxis: Circle"]}, {"conceptId": "C100230", "definition": "Alzheimer's Disease Assessment Scale-Cognitive CDISC Version - Constructional praxis task for copying a cube.", "preferredTerm": "CDISC ADAS-Cog - Constructional Praxis: Cube", "submissionValue": "Constructional Praxis: Cube", "synonyms": ["Constructional Praxis: Cube"]}, {"conceptId": "C100229", "definition": "Alzheimer's Disease Assessment Scale-Cognitive CDISC Version - Constructional praxis task for copying a diamond.", "preferredTerm": "CDISC ADAS-Cog - Constructional Praxis: Diamond", "submissionValue": "Constructional Praxis: Diamond", "synonyms": ["Constructional Praxis: Diamond"]}, {"conceptId": "C100215", "definition": "Alzheimer's Disease Assessment Scale-Cognitive CDISC Version - Summary score for delayed word recall.", "preferredTerm": "CDISC ADAS-Cog - Delayed Word Recall Summary Score", "submissionValue": "Delayed Word Recall", "synonyms": ["Delayed Word Recall"]}, {"conceptId": "C100225", "definition": "Alzheimer's Disease Assessment Scale-Cognitive CDISC Version - Delayed word recall task for word 10.", "preferredTerm": "CDISC ADAS-Cog - Delayed Word Recall: Word 10", "submissionValue": "Delayed Word Recall: Word [10]", "synonyms": ["Delayed Word Recall: Word [10]"]}, {"conceptId": "C100216", "definition": "Alzheimer's Disease Assessment Scale-Cognitive CDISC Version - Delayed word recall task for word 1.", "preferredTerm": "CDISC ADAS-Cog - Delayed Word Recall: Word 1", "submissionValue": "Delayed Word Recall: Word [1]", "synonyms": ["Delayed Word Recall: Word [1]"]}, {"conceptId": "C100217", "definition": "Alzheimer's Disease Assessment Scale-Cognitive CDISC Version - Delayed word recall task for word 2.", "preferredTerm": "CDISC ADAS-Cog - Delayed Word Recall: Word 2", "submissionValue": "Delayed Word Recall: Word [2]", "synonyms": ["Delayed Word Recall: Word [2]"]}, {"conceptId": "C100218", "definition": "Alzheimer's Disease Assessment Scale-Cognitive CDISC Version - Delayed word recall task for word 3.", "preferredTerm": "CDISC ADAS-Cog - Delayed Word Recall: Word 3", "submissionValue": "Delayed Word Recall: Word [3]", "synonyms": ["Delayed Word Recall: Word [3]"]}, {"conceptId": "C100219", "definition": "Alzheimer's Disease Assessment Scale-Cognitive CDISC Version - Delayed word recall task for word 4.", "preferredTerm": "CDISC ADAS-Cog - Delayed Word Recall: Word 4", "submissionValue": "Delayed Word Recall: Word [4]", "synonyms": ["Delayed Word Recall: Word [4]"]}, {"conceptId": "C100220", "definition": "Alzheimer's Disease Assessment Scale-Cognitive CDISC Version - Delayed word recall task for word 5.", "preferredTerm": "CDISC ADAS-Cog - Delayed Word Recall: Word 5", "submissionValue": "Delayed Word Recall: Word [5]", "synonyms": ["Delayed Word Recall: Word [5]"]}, {"conceptId": "C100221", "definition": "Alzheimer's Disease Assessment Scale-Cognitive CDISC Version - Delayed word recall task for word 6.", "preferredTerm": "CDISC ADAS-Cog - Delayed Word Recall: Word 6", "submissionValue": "Delayed Word Recall: Word [6]", "synonyms": ["Delayed Word Recall: Word [6]"]}, {"conceptId": "C100222", "definition": "Alzheimer's Disease Assessment Scale-Cognitive CDISC Version - Delayed word recall task for word 7.", "preferredTerm": "CDISC ADAS-Cog - Delayed Word Recall: Word 7", "submissionValue": "Delayed Word Recall: Word [7]", "synonyms": ["Delayed Word Recall: Word [7]"]}, {"conceptId": "C100223", "definition": "Alzheimer's Disease Assessment Scale-Cognitive CDISC Version - Delayed word recall task for word 8.", "preferredTerm": "CDISC ADAS-Cog - Delayed Word Recall: Word 8", "submissionValue": "Delayed Word Recall: Word [8]", "synonyms": ["Delayed Word Recall: Word [8]"]}, {"conceptId": "C100224", "definition": "Alzheimer's Disease Assessment Scale-Cognitive CDISC Version - Delayed word recall task for word 9.", "preferredTerm": "CDISC ADAS-Cog - Delayed Word Recall: Word 9", "submissionValue": "Delayed Word Recall: Word [9]", "synonyms": ["Delayed Word Recall: Word [9]"]}, {"conceptId": "C100284", "definition": "Alzheimer's Disease Assessment Scale-Cognitive CDISC Version - Summary score for the executive function maze tasks.", "preferredTerm": "CDISC ADAS-Cog - Executive Function Maze Summary Score", "submissionValue": "Executive Function Maze", "synonyms": ["Executive Function Maze"]}, {"conceptId": "C100285", "definition": "Alzheimer's Disease Assessment Scale-Cognitive CDISC Version - Number of errors during the executive function maze task.", "preferredTerm": "CDISC ADAS-Cog - Executive Function Maze: Errors", "submissionValue": "Executive Function Maze: Errors", "synonyms": ["Executive Function Maze: Errors"]}, {"conceptId": "C100286", "definition": "Alzheimer's Disease Assessment Scale-Cognitive CDISC Version - The time in seconds stored in ISO 8601 time for the executive function maze task.", "preferredTerm": "CDISC ADAS-Cog - Executive Function Maze: Time", "submissionValue": "Executive Function Maze: Time", "synonyms": ["Executive Function Maze: Time"]}, {"conceptId": "C100232", "definition": "Alzheimer's Disease Assessment Scale-Cognitive CDISC Version - Summary score for ideational praxis.", "preferredTerm": "CDISC ADAS-Cog - Ideational Praxis Summary Score", "submissionValue": "Ideational Praxis", "synonyms": ["Ideational Praxis"]}, {"conceptId": "C100236", "definition": "Alzheimer's Disease Assessment Scale-Cognitive CDISC Version - Ideational praxis task for address the envelop to yourself.", "preferredTerm": "CDISC ADAS-Cog - Ideational Praxis: Address", "submissionValue": "Ideational Praxis: Address", "synonyms": ["Ideational Praxis: Address"]}, {"conceptId": "C100233", "definition": "Alzheimer's Disease Assessment Scale-Cognitive CDISC Version - Ideational praxis task for folding the paper.", "preferredTerm": "CDISC ADAS-Cog - Ideational Praxis: Fold", "submissionValue": "Ideational Praxis: Fold", "synonyms": ["Ideational Praxis: Fold"]}, {"conceptId": "C100234", "definition": "Alzheimer's Disease Assessment Scale-Cognitive CDISC Version - Ideational praxis task for put the paper in the envelop.", "preferredTerm": "CDISC ADAS-Cog - Ideational Praxis: Insert", "submissionValue": "Ideational Praxis: Insert", "synonyms": ["Ideational Praxis: Insert"]}, {"conceptId": "C100235", "definition": "Alzheimer's Disease Assessment Scale-Cognitive CDISC Version - Ideational praxis task for seal the envelop.", "preferredTerm": "CDISC ADAS-Cog - Ideational Praxis: Seal", "submissionValue": "Ideational Praxis: Seal", "synonyms": ["Ideational Praxis: Seal"]}, {"conceptId": "C100237", "definition": "Alzheimer's Disease Assessment Scale-Cognitive CDISC Version - Ideational praxis task for showing where the stamp goes.", "preferredTerm": "CDISC ADAS-Cog - Ideational Praxis: Stamp", "submissionValue": "Ideational Praxis: Stamp", "synonyms": ["Ideational Praxis: Stamp"]}, {"conceptId": "C100191", "definition": "Alzheimer's Disease Assessment Scale-Cognitive CDISC Version - Naming task summary score for object and fingers.", "preferredTerm": "CDISC ADAS-Cog - Naming Objects and Fingers Summary Score", "submissionValue": "Naming Objects and Fingers", "synonyms": ["Naming Objects and Fingers"]}, {"conceptId": "C100192", "definition": "Alzheimer's Disease Assessment Scale-Cognitive CDISC Version - Naming task for object 1.", "preferredTerm": "CDISC ADAS-Cog - Naming Objects and Fingers: 1", "submissionValue": "Naming Objects and Fingers: 1", "synonyms": ["Naming Objects and Fingers: 1"]}, {"conceptId": "C100201", "definition": "Alzheimer's Disease Assessment Scale-Cognitive CDISC Version - Naming task for object 10.", "preferredTerm": "CDISC ADAS-Cog - Naming Objects and Fingers: 10", "submissionValue": "Naming Objects and Fingers: 10", "synonyms": ["Naming Objects and Fingers: 10"]}, {"conceptId": "C100202", "definition": "Alzheimer's Disease Assessment Scale-Cognitive CDISC Version - Naming task for object 11.", "preferredTerm": "CDISC ADAS-Cog - Naming Objects and Fingers: 11", "submissionValue": "Naming Objects and Fingers: 11", "synonyms": ["Naming Objects and Fingers: 11"]}, {"conceptId": "C100203", "definition": "Alzheimer's Disease Assessment Scale-Cognitive CDISC Version - Naming task for object 12.", "preferredTerm": "CDISC ADAS-Cog - Naming Objects and Fingers: 12", "submissionValue": "Naming Objects and Fingers: 12", "synonyms": ["Naming Objects and Fingers: 12"]}, {"conceptId": "C100193", "definition": "Alzheimer's Disease Assessment Scale-Cognitive CDISC Version - Naming task for object 2.", "preferredTerm": "CDISC ADAS-Cog - Naming Objects and Fingers: 2", "submissionValue": "Naming Objects and Fingers: 2", "synonyms": ["Naming Objects and Fingers: 2"]}, {"conceptId": "C100194", "definition": "Alzheimer's Disease Assessment Scale-Cognitive CDISC Version - Naming task for object 3.", "preferredTerm": "CDISC ADAS-Cog - Naming Objects and Fingers: 3", "submissionValue": "Naming Objects and Fingers: 3", "synonyms": ["Naming Objects and Fingers: 3"]}, {"conceptId": "C100195", "definition": "Alzheimer's Disease Assessment Scale-Cognitive CDISC Version - Naming task for object 4.", "preferredTerm": "CDISC ADAS-Cog - Naming Objects and Fingers: 4", "submissionValue": "Naming Objects and Fingers: 4", "synonyms": ["Naming Objects and Fingers: 4"]}, {"conceptId": "C100196", "definition": "Alzheimer's Disease Assessment Scale-Cognitive CDISC Version - Naming task for object 5.", "preferredTerm": "CDISC ADAS-Cog - Naming Objects and Fingers: 5", "submissionValue": "Naming Objects and Fingers: 5", "synonyms": ["Naming Objects and Fingers: 5"]}, {"conceptId": "C100197", "definition": "Alzheimer's Disease Assessment Scale-Cognitive CDISC Version - Naming task for object 6.", "preferredTerm": "CDISC ADAS-Cog - Naming Objects and Fingers: 6", "submissionValue": "Naming Objects and Fingers: 6", "synonyms": ["Naming Objects and Fingers: 6"]}, {"conceptId": "C100198", "definition": "Alzheimer's Disease Assessment Scale-Cognitive CDISC Version - Naming task for object 7.", "preferredTerm": "CDISC ADAS-Cog - Naming Objects and Fingers: 7", "submissionValue": "Naming Objects and Fingers: 7", "synonyms": ["Naming Objects and Fingers: 7"]}, {"conceptId": "C100199", "definition": "Alzheimer's Disease Assessment Scale-Cognitive CDISC Version - Naming task for object 8.", "preferredTerm": "CDISC ADAS-Cog - Naming Objects and Fingers: 8", "submissionValue": "Naming Objects and Fingers: 8", "synonyms": ["Naming Objects and Fingers: 8"]}, {"conceptId": "C100200", "definition": "Alzheimer's Disease Assessment Scale-Cognitive CDISC Version - Naming task for object 9.", "preferredTerm": "CDISC ADAS-Cog - Naming Objects and Fingers: 9", "submissionValue": "Naming Objects and Fingers: 9", "synonyms": ["Naming Objects and Fingers: 9"]}, {"conceptId": "C100206", "definition": "Alzheimer's Disease Assessment Scale-Cognitive CDISC Version - Naming task for fingers of the dominant hand, middle finger.", "preferredTerm": "CDISC ADAS-Cog - Naming Objects and Fingers: Middle", "submissionValue": "Naming Objects and Fingers: Middle", "synonyms": ["Naming Objects and Fingers: Middle"]}, {"conceptId": "C100208", "definition": "Alzheimer's Disease Assessment Scale-Cognitive CDISC Version - Naming task for fingers of the dominant hand, little finger or pinky.", "preferredTerm": "CDISC ADAS-Cog - Naming Objects and Fingers: Pinky", "submissionValue": "Naming Objects and Fingers: Pinky", "synonyms": ["Naming Objects and Fingers: Pinky"]}, {"conceptId": "C100205", "definition": "Alzheimer's Disease Assessment Scale-Cognitive CDISC Version - Naming task for fingers of the dominant hand, index, or pointer finger.", "preferredTerm": "CDISC ADAS-Cog - Naming Objects and Fingers: Pointer", "submissionValue": "Naming Objects and Fingers: Pointer", "synonyms": ["Naming Objects and Fingers: Pointer"]}, {"conceptId": "C100207", "definition": "Alzheimer's Disease Assessment Scale-Cognitive CDISC Version - Naming task for fingers of the dominant hand, ring finger.", "preferredTerm": "CDISC ADAS-Cog - Naming Objects and Fingers: Ring", "submissionValue": "Naming Objects and Fingers: Ring", "synonyms": ["Naming Objects and Fingers: Ring"]}, {"conceptId": "C100204", "definition": "Alzheimer's Disease Assessment Scale-Cognitive CDISC Version - Naming task for fingers of the dominant hand, thumb.", "preferredTerm": "CDISC ADAS-Cog - Naming Objects and Fingers: Thumb", "submissionValue": "Naming Objects and Fingers: Thumb", "synonyms": ["Naming Objects and Fingers: Thumb"]}, {"conceptId": "C100280", "definition": "Alzheimer's Disease Assessment Scale-Cognitive CDISC Version - Summary score for the number cancellation tasks.", "preferredTerm": "CDISC ADAS-Cog - Number Cancellation Summary Score", "submissionValue": "Number Cancellation", "synonyms": ["Number Cancellation"]}, {"conceptId": "C100281", "definition": "Alzheimer's Disease Assessment Scale-Cognitive CDISC Version - Number of targets hit during the number cancellation task.", "preferredTerm": "CDISC ADAS-Cog - Number Cancellation: Correct", "submissionValue": "Number Cancellation: Correct", "synonyms": ["Number Cancellation: Correct"]}, {"conceptId": "C100282", "definition": "Alzheimer's Disease Assessment Scale-Cognitive CDISC Version - Number of errors during the number cancellation task.", "preferredTerm": "CDISC ADAS-Cog - Number Cancellation: Errors", "submissionValue": "Number Cancellation: Errors", "synonyms": ["Number Cancellation: Errors"]}, {"conceptId": "C100283", "definition": "Alzheimer's Disease Assessment Scale-Cognitive CDISC Version - Number of times reminded for the number cancellation task.", "preferredTerm": "CDISC ADAS-Cog - Number Cancellation: Remind", "submissionValue": "Number Cancellation: Remind", "synonyms": ["Number Cancellation: Remind"]}, {"conceptId": "C100238", "definition": "Alzheimer's Disease Assessment Scale-Cognitive CDISC Version - Summary score for orientation.", "preferredTerm": "CDISC ADAS-Cog - Orientation Summary Score", "submissionValue": "Orientation", "synonyms": ["Orientation"]}, {"conceptId": "C100241", "definition": "Alzheimer's Disease Assessment Scale-Cognitive CDISC Version - Orientation task for knowing the current day.", "preferredTerm": "CDISC ADAS-Cog - Orientation: Date", "submissionValue": "Orientation: Date", "synonyms": ["Orientation: Date"]}, {"conceptId": "C100243", "definition": "Alzheimer's Disease Assessment Scale-Cognitive CDISC Version - Orientation task for knowing the current day of the week.", "preferredTerm": "CDISC ADAS-Cog - Orientation: Day of Week", "submissionValue": "Orientation: Day of Week", "synonyms": ["Orientation: Day of Week"]}, {"conceptId": "C100239", "definition": "Alzheimer's Disease Assessment Scale-Cognitive CDISC Version - Orientation task for knowing one's own full name.", "preferredTerm": "CDISC ADAS-Cog - Orientation: Full Name", "submissionValue": "Orientation: Full Name", "synonyms": ["Orientation: Full Name"]}, {"conceptId": "C100240", "definition": "Alzheimer's Disease Assessment Scale-Cognitive CDISC Version - Orientation task for knowing the current month.", "preferredTerm": "CDISC ADAS-Cog - Orientation: Month", "submissionValue": "Orientation: Month", "synonyms": ["Orientation: Month"]}, {"conceptId": "C100245", "definition": "Alzheimer's Disease Assessment Scale-Cognitive CDISC Version - Orientation task for knowing the current place.", "preferredTerm": "CDISC ADAS-Cog - Orientation: Place", "submissionValue": "Orientation: Place", "synonyms": ["Orientation: Place"]}, {"conceptId": "C100244", "definition": "Alzheimer's Disease Assessment Scale-Cognitive CDISC Version - Orientation task for knowing the current season.", "preferredTerm": "CDISC ADAS-Cog - Orientation: Season", "submissionValue": "Orientation: Season", "synonyms": ["Orientation: Season"]}, {"conceptId": "C100246", "definition": "Alzheimer's Disease Assessment Scale-Cognitive CDISC Version - Orientation task for knowing the approximate current clock time.", "preferredTerm": "CDISC ADAS-Cog - Orientation: Time", "submissionValue": "Orientation: Time", "synonyms": ["Orientation: Time"]}, {"conceptId": "C100242", "definition": "Alzheimer's Disease Assessment Scale-Cognitive CDISC Version - Orientation task for knowing the current year.", "preferredTerm": "CDISC ADAS-Cog - Orientation: Year", "submissionValue": "Orientation: Year", "synonyms": ["Orientation: Year"]}, {"conceptId": "C100275", "definition": "Alzheimer's Disease Assessment Scale-Cognitive CDISC Version - Remembering test instructions.", "preferredTerm": "CDISC ADAS-Cog - Remembering Test Instructions", "submissionValue": "Remembering Test Instructions", "synonyms": ["Remembering Test Instructions"]}, {"conceptId": "C100276", "definition": "Alzheimer's Disease Assessment Scale-Cognitive CDISC Version - Global rating of the quality of speech, or difficulty in making oneself understood.", "preferredTerm": "CDISC ADAS-Cog - Spoken Language Ability", "submissionValue": "Spoken Language Ability", "synonyms": ["Spoken Language Ability"]}, {"conceptId": "C100277", "definition": "Alzheimer's Disease Assessment Scale-Cognitive CDISC Version - Difficulty finding the desired word in spontaneous speech.", "preferredTerm": "CDISC ADAS-Cog - Word Difficulty in Spontaneous Speech", "submissionValue": "Word Finding Difficulty in Spont Speech", "synonyms": ["Word Finding Difficulty in Spont Speech"]}, {"conceptId": "C100177", "definition": "Alzheimer's Disease Assessment Scale-Cognitive CDISC Version - Word recall task word average score of trials 1, 2, 3.", "preferredTerm": "CDISC ADAS-Cog - Word Recall Average Score", "submissionValue": "Word Recall", "synonyms": ["Word Recall"]}, {"conceptId": "C100178", "definition": "Alzheimer's Disease Assessment Scale-Cognitive CDISC Version - Sub-score for word recall task trial 1.", "preferredTerm": "CDISC ADAS-Cog - Word Recall Trial 1 Subscore", "submissionValue": "Word Recall Trial 1", "synonyms": ["Word Recall Trial 1"]}, {"conceptId": "C100179", "definition": "Alzheimer's Disease Assessment Scale-Cognitive CDISC Version - Sub-score for word recall task trial 2.", "preferredTerm": "CDISC ADAS-Cog - Word Recall Trial 2 Subscore", "submissionValue": "Word Recall Trial 2", "synonyms": ["Word Recall Trial 2"]}, {"conceptId": "C100180", "definition": "Alzheimer's Disease Assessment Scale-Cognitive CDISC Version - Sub-score for word recall task trial 3.", "preferredTerm": "CDISC ADAS-Cog - Word Recall Trial 3 Subscore", "submissionValue": "Word Recall Trial 3", "synonyms": ["Word Recall Trial 3"]}, {"conceptId": "C100190", "definition": "Alzheimer's Disease Assessment Scale-Cognitive CDISC Version - Word recall task word 10 for trial 1, 2, 3.", "preferredTerm": "CDISC ADAS-Cog - Word Recall: Word 10", "submissionValue": "Word Recall: Word [10]", "synonyms": ["Word Recall: Word [10]"]}, {"conceptId": "C100181", "definition": "Alzheimer's Disease Assessment Scale-Cognitive CDISC Version - Word recall task word 1 for trial 1, 2, 3.", "preferredTerm": "CDISC ADAS-Cog - Word Recall: Word 1", "submissionValue": "Word Recall: Word [1]", "synonyms": ["Word Recall: Word [1]"]}, {"conceptId": "C100182", "definition": "Alzheimer's Disease Assessment Scale-Cognitive CDISC Version - Word recall task word 2 for trial 1, 2, 3.", "preferredTerm": "CDISC ADAS-Cog - Word Recall: Word 2", "submissionValue": "Word Recall: Word [2]", "synonyms": ["Word Recall: Word [2]"]}, {"conceptId": "C100183", "definition": "Alzheimer's Disease Assessment Scale-Cognitive CDISC Version - Word recall task word 3 for trial 1, 2, 3.", "preferredTerm": "CDISC ADAS-Cog - Word Recall: Word 3", "submissionValue": "Word Recall: Word [3]", "synonyms": ["Word Recall: Word [3]"]}, {"conceptId": "C100184", "definition": "Alzheimer's Disease Assessment Scale-Cognitive CDISC Version - Word recall task word 4 for trial 1, 2, 3.", "preferredTerm": "CDISC ADAS-Cog - Word Recall: Word 4", "submissionValue": "Word Recall: Word [4]", "synonyms": ["Word Recall: Word [4]"]}, {"conceptId": "C100185", "definition": "Alzheimer's Disease Assessment Scale-Cognitive CDISC Version - Word recall task word 5 for trial 1, 2, 3.", "preferredTerm": "CDISC ADAS-Cog - Word Recall: Word 5", "submissionValue": "Word Recall: Word [5]", "synonyms": ["Word Recall: Word [5]"]}, {"conceptId": "C100186", "definition": "Alzheimer's Disease Assessment Scale-Cognitive CDISC Version - Word recall task word 6 for trial 1, 2, 3.", "preferredTerm": "CDISC ADAS-Cog - Word Recall: Word 6", "submissionValue": "Word Recall: Word [6]", "synonyms": ["Word Recall: Word [6]"]}, {"conceptId": "C100187", "definition": "Alzheimer's Disease Assessment Scale-Cognitive CDISC Version - Word recall task word 7 for trial 1, 2, 3.", "preferredTerm": "CDISC ADAS-Cog - Word Recall: Word 7", "submissionValue": "Word Recall: Word [7]", "synonyms": ["Word Recall: Word [7]"]}, {"conceptId": "C100188", "definition": "Alzheimer's Disease Assessment Scale-Cognitive CDISC Version - Word recall task word 8 for trial 1, 2, 3.", "preferredTerm": "CDISC ADAS-Cog - Word Recall: Word 8", "submissionValue": "Word Recall: Word [8]", "synonyms": ["Word Recall: Word [8]"]}, {"conceptId": "C100189", "definition": "Alzheimer's Disease Assessment Scale-Cognitive CDISC Version - Word recall task word 9 for trial 1, 2, 3.", "preferredTerm": "CDISC ADAS-Cog - Word Recall: Word 9", "submissionValue": "Word Recall: Word [9]", "synonyms": ["Word Recall: Word [9]"]}, {"conceptId": "C100247", "definition": "Alzheimer's Disease Assessment Scale-Cognitive CDISC Version - Summary score for word recognition across trials 1-3.", "preferredTerm": "CDISC ADAS-Cog - Word Recognition Summary Score", "submissionValue": "Word Recognition", "synonyms": ["Word Recognition"]}, {"conceptId": "C100248", "definition": "Alzheimer's Disease Assessment Scale-Cognitive CDISC Version - Sub-score for word recognition trial 1.", "preferredTerm": "CDISC ADAS-Cog - Word Recognition Trial 1 Summary Score", "submissionValue": "Word Recognition Trial 1", "synonyms": ["Word Recognition Trial 1"]}, {"conceptId": "C100249", "definition": "Alzheimer's Disease Assessment Scale-Cognitive CDISC Version - Sub-score for word recognition trial 2.", "preferredTerm": "CDISC ADAS-Cog - Word Recognition Trial 2 Summary Score", "submissionValue": "Word Recognition Trial 2", "synonyms": ["Word Recognition Trial 2"]}, {"conceptId": "C100250", "definition": "Alzheimer's Disease Assessment Scale-Cognitive CDISC Version - Sub-score for word recognition trial 3.", "preferredTerm": "CDISC ADAS-Cog - Word Recognition Trial 3 Summary Score", "submissionValue": "Word Recognition Trial 3", "synonyms": ["Word Recognition Trial 3"]}, {"conceptId": "C100260", "definition": "Alzheimer's Disease Assessment Scale-Cognitive CDISC Version - Word recognition task for word 10 Trials 1, 2, 3.", "preferredTerm": "CDISC ADAS-Cog - Word Recognition: Word 10", "submissionValue": "Word Recognition: Word [10]", "synonyms": ["Word Recognition: Word [10]"]}, {"conceptId": "C100261", "definition": "Alzheimer's Disease Assessment Scale-Cognitive CDISC Version - Word recognition task for word 11 Trials 1, 2, 3.", "preferredTerm": "CDISC ADAS-Cog - Word Recognition: Word 11", "submissionValue": "Word Recognition: Word [11]", "synonyms": ["Word Recognition: Word [11]"]}, {"conceptId": "C100262", "definition": "Alzheimer's Disease Assessment Scale-Cognitive CDISC Version - Word recognition task for word 12 Trials 1, 2, 3.", "preferredTerm": "CDISC ADAS-Cog - Word Recognition: Word 12", "submissionValue": "Word Recognition: Word [12]", "synonyms": ["Word Recognition: Word [12]"]}, {"conceptId": "C100263", "definition": "Alzheimer's Disease Assessment Scale-Cognitive CDISC Version - Word recognition task for word 13 Trials 1, 2, 3.", "preferredTerm": "CDISC ADAS-Cog - Word Recognition: Word 13", "submissionValue": "Word Recognition: Word [13]", "synonyms": ["Word Recognition: Word [13]"]}, {"conceptId": "C100264", "definition": "Alzheimer's Disease Assessment Scale-Cognitive CDISC Version - Word recognition task for word 14 Trials 1, 2, 3.", "preferredTerm": "CDISC ADAS-Cog - Word Recognition: Word 14", "submissionValue": "Word Recognition: Word [14]", "synonyms": ["Word Recognition: Word [14]"]}, {"conceptId": "C100265", "definition": "Alzheimer's Disease Assessment Scale-Cognitive CDISC Version - Word recognition task for word 15 Trials 1, 2, 3.", "preferredTerm": "CDISC ADAS-Cog - Word Recognition: Word 15", "submissionValue": "Word Recognition: Word [15]", "synonyms": ["Word Recognition: Word [15]"]}, {"conceptId": "C100266", "definition": "Alzheimer's Disease Assessment Scale-Cognitive CDISC Version - Word recognition task for word 16 Trials 1, 2, 3.", "preferredTerm": "CDISC ADAS-Cog - Word Recognition: Word 16", "submissionValue": "Word Recognition: Word [16]", "synonyms": ["Word Recognition: Word [16]"]}, {"conceptId": "C100267", "definition": "Alzheimer's Disease Assessment Scale-Cognitive CDISC Version - Word recognition task for word 17 Trials 1, 2, 3.", "preferredTerm": "CDISC ADAS-Cog - Word Recognition: Word 17", "submissionValue": "Word Recognition: Word [17]", "synonyms": ["Word Recognition: Word [17]"]}, {"conceptId": "C100268", "definition": "Alzheimer's Disease Assessment Scale-Cognitive CDISC Version - Word recognition task for word 18 Trials 1, 2, 3.", "preferredTerm": "CDISC ADAS-Cog - Word Recognition: Word 18", "submissionValue": "Word Recognition: Word [18]", "synonyms": ["Word Recognition: Word [18]"]}, {"conceptId": "C100269", "definition": "Alzheimer's Disease Assessment Scale-Cognitive CDISC Version - Word recognition task for word 19 Trials 1, 2, 3.", "preferredTerm": "CDISC ADAS-Cog - Word Recognition: Word 19", "submissionValue": "Word Recognition: Word [19]", "synonyms": ["Word Recognition: Word [19]"]}, {"conceptId": "C100251", "definition": "Alzheimer's Disease Assessment Scale-Cognitive CDISC Version - Word recognition task for word 1 Trials 1, 2, 3.", "preferredTerm": "CDISC ADAS-Cog - Word Recognition: Word 1", "submissionValue": "Word Recognition: Word [1]", "synonyms": ["Word Recognition: Word [1]"]}, {"conceptId": "C100270", "definition": "Alzheimer's Disease Assessment Scale-Cognitive CDISC Version - Word recognition task for word 20 Trials 1, 2, 3.", "preferredTerm": "CDISC ADAS-Cog - Word Recognition: Word 20", "submissionValue": "Word Recognition: Word [20]", "synonyms": ["Word Recognition: Word [20]"]}, {"conceptId": "C100271", "definition": "Alzheimer's Disease Assessment Scale-Cognitive CDISC Version - Word recognition task for word 21 Trials 1, 2, 3.", "preferredTerm": "CDISC ADAS-Cog - Word Recognition: Word 21", "submissionValue": "Word Recognition: Word [21]", "synonyms": ["Word Recognition: Word [21]"]}, {"conceptId": "C100272", "definition": "Alzheimer's Disease Assessment Scale-Cognitive CDISC Version - Word recognition task for word 22 Trials 1, 2, 3.", "preferredTerm": "CDISC ADAS-Cog - Word Recognition: Word 22", "submissionValue": "Word Recognition: Word [22]", "synonyms": ["Word Recognition: Word [22]"]}, {"conceptId": "C100273", "definition": "Alzheimer's Disease Assessment Scale-Cognitive CDISC Version - Word recognition task for word 23 Trials 1, 2, 3.", "preferredTerm": "CDISC ADAS-Cog - Word Recognition: Word 23", "submissionValue": "Word Recognition: Word [23]", "synonyms": ["Word Recognition: Word [23]"]}, {"conceptId": "C100274", "definition": "Alzheimer's Disease Assessment Scale-Cognitive CDISC Version - Word recognition task for word 24 Trials 1, 2, 3.", "preferredTerm": "CDISC ADAS-Cog - Word Recognition: Word 24", "submissionValue": "Word Recognition: Word [24]", "synonyms": ["Word Recognition: Word [24]"]}, {"conceptId": "C100252", "definition": "Alzheimer's Disease Assessment Scale-Cognitive CDISC Version - Word recognition task for word 2 Trials 1, 2, 3.", "preferredTerm": "CDISC ADAS-Cog - Word Recognition: Word 2", "submissionValue": "Word Recognition: Word [2]", "synonyms": ["Word Recognition: Word [2]"]}, {"conceptId": "C100253", "definition": "Alzheimer's Disease Assessment Scale-Cognitive CDISC Version - Word recognition task for word 3 Trials 1, 2, 3.", "preferredTerm": "CDISC ADAS-Cog - Word Recognition: Word 3", "submissionValue": "Word Recognition: Word [3]", "synonyms": ["Word Recognition: Word [3]"]}, {"conceptId": "C100254", "definition": "Alzheimer's Disease Assessment Scale-Cognitive CDISC Version - Word recognition task for word 4 Trials 1, 2, 3.", "preferredTerm": "CDISC ADAS-Cog - Word Recognition: Word 4", "submissionValue": "Word Recognition: Word [4]", "synonyms": ["Word Recognition: Word [4]"]}, {"conceptId": "C100255", "definition": "Alzheimer's Disease Assessment Scale-Cognitive CDISC Version - Word recognition task for word 5 Trials 1, 2, 3.", "preferredTerm": "CDISC ADAS-Cog - Word Recognition: Word 5", "submissionValue": "Word Recognition: Word [5]", "synonyms": ["Word Recognition: Word [5]"]}, {"conceptId": "C100256", "definition": "Alzheimer's Disease Assessment Scale-Cognitive CDISC Version - Word recognition task for word 6 Trials 1, 2, 3.", "preferredTerm": "CDISC ADAS-Cog - Word Recognition: Word 6", "submissionValue": "Word Recognition: Word [6]", "synonyms": ["Word Recognition: Word [6]"]}, {"conceptId": "C100257", "definition": "Alzheimer's Disease Assessment Scale-Cognitive CDISC Version - Word recognition task for word 7 Trials 1, 2, 3.", "preferredTerm": "CDISC ADAS-Cog - Word Recognition: Word 7", "submissionValue": "Word Recognition: Word [7]", "synonyms": ["Word Recognition: Word [7]"]}, {"conceptId": "C100258", "definition": "Alzheimer's Disease Assessment Scale-Cognitive CDISC Version - Word recognition task for word 8 Trials 1, 2, 3.", "preferredTerm": "CDISC ADAS-Cog - Word Recognition: Word 8", "submissionValue": "Word Recognition: Word [8]", "synonyms": ["Word Recognition: Word [8]"]}, {"conceptId": "C100259", "definition": "Alzheimer's Disease Assessment Scale-Cognitive CDISC Version - Word recognition task for word 9 Trials 1, 2, 3.", "preferredTerm": "CDISC ADAS-Cog - Word Recognition: Word 9", "submissionValue": "Word Recognition: Word [9]", "synonyms": ["Word Recognition: Word [9]"]}]}