{"_links": {"parentPackage": {"href": "/mdr/ct/packages/sdtmct-2017-03-31", "title": "SDTM Controlled Terminology Package 29 Effective 2017-03-31", "type": "Terminology"}, "priorVersion": {"href": "/mdr/ct/packages/sdtmct-2016-12-16/codelists/C111112", "title": "CDISC SDTM Device Properties Test Name Terminology", "type": "Code List"}, "rootItem": {"href": "/mdr/root/ct/sdtmct/codelists/C111112", "title": "Version-agnostic anchor resource for codelist C111112", "type": "Root Value Domain"}, "self": {"href": "/mdr/ct/packages/sdtmct-2017-03-31/codelists/C111112", "title": "CDISC SDTM Device Properties Test Name Terminology", "type": "Code List"}}, "conceptId": "C111112", "definition": "A terminology codelist based on the test name used to obtain the device property.", "extensible": "true", "name": "Device Properties Test Name", "preferredTerm": "CDISC SDTM Device Properties Test Name Terminology", "submissionValue": "DOTEST", "synonyms": ["Device Properties Test Name"], "terms": [{"conceptId": "C53414", "definition": "The materials from which something is made.", "preferredTerm": "Composition", "submissionValue": "Composition", "synonyms": ["Composition"]}, {"conceptId": "C112278", "definition": "The class of medical device as determined by the US Food and Drug Administration, based upon the level of control necessary to ensure safety and effectiveness (21 CFR 860).", "preferredTerm": "FDA Device Classification", "submissionValue": "FDA Device Classification", "synonyms": ["FDA Device Classification"]}, {"conceptId": "C41184", "definition": "A general description of the disease or condition the product will diagnose, treat, prevent, cure, or mitigate.", "preferredTerm": "Indication", "submissionValue": "Indication for Use", "synonyms": ["Indication for Use"]}, {"conceptId": "C120606", "definition": "A classification of light emission.", "preferredTerm": "Luminescence Type", "submissionValue": "Luminescence Type", "synonyms": ["Luminescence Type"]}, {"conceptId": "C116119", "definition": "The classification of the coil that is used in an magnetic resonance imaging procedure. Usually refers to the anatomical location for where the coil is placed such as head, body or breast.", "preferredTerm": "MRI Coil Type", "submissionValue": "MRI Coil Type", "synonyms": ["MRI Coil Type"]}, {"conceptId": "C116118", "definition": "A descriptor referring to the number of unique molecular probes contained in each assay component from which results are obtained, such as each well in a 96-well plate.", "preferredTerm": "Multiplex Probe Parameter", "submissionValue": "Multiplex Probe Parameter", "synonyms": ["Multiplex Probe Parameter"]}, {"conceptId": "C112332", "definition": "A quantitative or qualitative measurement of the physical dimensions of the pores in a material.", "preferredTerm": "Material Pore Size", "submissionValue": "Pore Size", "synonyms": ["Pore Size"]}, {"conceptId": "C112406", "definition": "The lot number of the reagent.", "preferredTerm": "Reagent Lot Number", "submissionValue": "Reagent Lot", "synonyms": ["Reagent Lot"]}, {"conceptId": "C116120", "definition": "The classification of the crystalline material, which emits light in response to radiation exposure, used in the imaging procedure.", "preferredTerm": "Scintillation Crystal Type", "submissionValue": "Scintillation Crystal Type", "synonyms": ["Scintillation Crystal Type"]}, {"conceptId": "C70855", "definition": "The period during which a medical product retains its properties and stated performance within specified limits if stored under defined conditions. The stability period is determined from the date the product was manufactured.", "preferredTerm": "Medical Product Shelf Life", "submissionValue": "Shelf Life", "synonyms": ["Shelf Life"]}, {"conceptId": "C25681", "definition": "The physical magnitude of something. (NCI)", "preferredTerm": "Size", "submissionValue": "Size", "synonyms": ["Size"]}, {"conceptId": "C111093", "definition": "A form or variant of software; one of a sequence of copies of a software program, each incorporating new modifications. (NCI)", "preferredTerm": "Software Version", "submissionValue": "Software Version", "synonyms": ["Software Version"]}, {"conceptId": "C112421", "definition": "A quantitative or qualitative measurement of the physical dimensions of the open spaces in a loosely woven sheet of inorganic or biological materials, which is used to physically support organs or tissue during a surgical procedure.", "preferredTerm": "Surgical Mesh Open Area", "submissionValue": "Surgical Mesh Open Area", "synonyms": ["Surgical Mesh Open Area"]}, {"conceptId": "C25206", "definition": "The property of a body or region of space that determines whether or not there will be a net flow of heat into it or out of it from a neighboring body or region and in which direction (if any) the heat will flow, perceptible by living organism as a somatic sensation of cold or heat. It is a measure of the average translational kinetic energy associated with the disordered microscopic motion of atoms and molecules. Temperature is measured in one of the three standard temperature scales: Celsius, Kelvin, and Fahrenheit. (NCI)", "preferredTerm": "Temperature", "submissionValue": "Temperature", "synonyms": ["Temperature"]}, {"conceptId": "C41145", "definition": "The dimension between two surfaces of an object, usually the smallest dimension as opposed to the width or the length.", "preferredTerm": "Thickness", "submissionValue": "Thickness", "synonyms": ["Thickness"]}]}