{"_links": {"parentPackage": {"href": "/mdr/ct/packages/sdtmct-2017-03-31", "title": "SDTM Controlled Terminology Package 29 Effective 2017-03-31", "type": "Terminology"}, "priorVersion": {"href": "/mdr/ct/packages/sdtmct-2016-12-16/codelists/C112442", "title": "CDISC Questionnaire KFSS Test Name Terminology", "type": "Code List"}, "rootItem": {"href": "/mdr/root/ct/sdtmct/codelists/C112442", "title": "Version-agnostic anchor resource for codelist C112442", "type": "Root Value Domain"}, "self": {"href": "/mdr/ct/packages/sdtmct-2017-03-31/codelists/C112442", "title": "CDISC Questionnaire KFSS Test Name Terminology", "type": "Code List"}}, "conceptId": "C112442", "definition": "Kurtzke Functional Systems Scores test name.", "extensible": "false", "name": "Kurtzke Functional Systems Scores Questionnaire Test Name", "preferredTerm": "CDISC Questionnaire KFSS Test Name Terminology", "submissionValue": "KFSS1TN", "synonyms": ["Kurtzke Functional Systems Scores Questionnaire Test Name"], "terms": [{"conceptId": "C112614", "definition": "Kurtzke Functional Systems Scores - Bowel and bladder functions.", "preferredTerm": "KFSS - Bowel and Bladder Functions", "submissionValue": "KFSS1-Bowel and Bladder Functions", "synonyms": ["KFSS1-Bowel and Bladder Functions"]}, {"conceptId": "C112612", "definition": "Kurtzke Functional Systems Scores - Brain stem functions.", "preferredTerm": "KFSS - Brain Stem Functions", "submissionValue": "KFSS1-Brain Stem Functions", "synonyms": ["KFSS1-Brain Stem Functions"]}, {"conceptId": "C112610", "definition": "Kurtzke Functional Systems Scores - Cerebellar functions.", "preferredTerm": "KFSS - Cerebellar Functions", "submissionValue": "KFSS1-Cerebellar Functions", "synonyms": ["KFSS1-Cerebellar Functions"]}, {"conceptId": "C112617", "definition": "Kurtzke Functional Systems Scores - Cerebral (or mental) functions.", "preferredTerm": "KFSS - Cerebral (or Mental) Functions", "submissionValue": "KFSS1-Cerebral or Mental Functions", "synonyms": ["KFSS1-Cerebral or Mental Functions"]}, {"conceptId": "C113884", "definition": "Kurtzke Functional Systems Scores - Other functions.", "preferredTerm": "KFSS - Other Functions", "submissionValue": "KFSS1-Other Functions", "synonyms": ["KFSS1-Other Functions"]}, {"conceptId": "C113885", "definition": "Kurtzke Functional Systems Scores - Any other neurologic findings attributed to MS (specify).", "preferredTerm": "KFSS - Other Functions Specify", "submissionValue": "KFSS1-Other Functions Specify", "synonyms": ["KFSS1-Other Functions Specify"]}, {"conceptId": "C112616", "definition": "Kurtzke Functional Systems Scores - Check here for presence of temporal pallor.", "preferredTerm": "KFSS - Presence of Temporal Pallor", "submissionValue": "KFSS1-Presence of Temporal Pallor", "synonyms": ["KFSS1-Presence of Temporal Pallor"]}, {"conceptId": "C112609", "definition": "Kurtzke Functional Systems Scores - Pyramidal functions.", "preferredTerm": "KFSS - Pyramidal Functions", "submissionValue": "KFSS1-Pyramidal Functions", "synonyms": ["KFSS1-Pyramidal Functions"]}, {"conceptId": "C112613", "definition": "Kurtzke Functional Systems Scores - Sensory functions.", "preferredTerm": "KFSS - Sensory Functions", "submissionValue": "KFSS1-Sensory Functions", "synonyms": ["KFSS1-Sensory Functions"]}, {"conceptId": "C112615", "definition": "Kurtzke Functional Systems Scores - Visual (or optic) functions.", "preferredTerm": "KFSS - Visual (or Optic) Functions", "submissionValue": "KFSS1-Visual or Optic Functions", "synonyms": ["KFSS1-Visual or Optic Functions"]}, {"conceptId": "C112611", "definition": "Kurtzke Functional Systems Scores - Check here when weakness (grade 3 or more on pyramidal) interferes with testing.", "preferredTerm": "KFSS - Weakness Interferes With Testing", "submissionValue": "KFSS1-Weakness Interferes With Testing", "synonyms": ["KFSS1-Weakness Interferes With Testing"]}]}