{"_links": {"parentPackage": {"href": "/mdr/ct/packages/sdtmct-2017-03-31", "title": "SDTM Controlled Terminology Package 29 Effective 2017-03-31", "type": "Terminology"}, "priorVersion": {"href": "/mdr/ct/packages/sdtmct-2016-12-16/codelists/C115391", "title": "CDISC Functional Test NHPT Test Name Terminology", "type": "Code List"}, "rootItem": {"href": "/mdr/root/ct/sdtmct/codelists/C115391", "title": "Version-agnostic anchor resource for codelist C115391", "type": "Root Value Domain"}, "self": {"href": "/mdr/ct/packages/sdtmct-2017-03-31/codelists/C115391", "title": "CDISC Functional Test NHPT Test Name Terminology", "type": "Code List"}}, "conceptId": "C115391", "definition": "Nine-Hole Peg Test test name.", "extensible": "false", "name": "Nine-Hole Peg Test Functional Test Test Name", "preferredTerm": "CDISC Functional Test NHPT Test Name Terminology", "submissionValue": "NHPT01TN", "synonyms": ["Nine-Hole Peg Test Functional Test Test Name"], "terms": [{"conceptId": "C115808", "definition": "Nine-Hole Peg Test - Did it take more than two attempts to get two successful trials?", "preferredTerm": "NHPT - More Than Two Attempts", "submissionValue": "NHPT01-More Than Two Attempts", "synonyms": ["NHPT01-More Than Two Attempts"]}, {"conceptId": "C115807", "definition": "Nine-Hole Peg Test - Time in seconds to complete 9-Hole Peg Test.", "preferredTerm": "NHPT - Time to Complete 9-Hole Peg Test", "submissionValue": "NHPT01-Time to Complete 9-Hole Peg Test", "synonyms": ["NHPT01-Time to Complete 9-Hole Peg Test"]}]}