{"_links": {"parentPackage": {"href": "/mdr/ct/packages/sdtmct-2017-03-31", "title": "SDTM Controlled Terminology Package 29 Effective 2017-03-31", "type": "Terminology"}, "priorVersion": {"href": "/mdr/ct/packages/sdtmct-2016-12-16/codelists/C116106", "title": "CDISC SDTM Pharmacogenomics Findings Test Code Terminology", "type": "Code List"}, "rootItem": {"href": "/mdr/root/ct/sdtmct/codelists/C116106", "title": "Version-agnostic anchor resource for codelist C116106", "type": "Root Value Domain"}, "self": {"href": "/mdr/ct/packages/sdtmct-2017-03-31/codelists/C116106", "title": "CDISC SDTM Pharmacogenomics Findings Test Code Terminology", "type": "Code List"}}, "conceptId": "C116106", "definition": "Terminology relevant to the test codes that describe pharmacogenomics findings.", "extensible": "true", "name": "Pharmacogenomics Findings Test Code", "preferredTerm": "CDISC SDTM Pharmacogenomics Findings Test Code Terminology", "submissionValue": "PFTESTCD", "synonyms": ["Pharmacogenomics Findings Test Code"], "terms": [{"conceptId": "C16277", "definition": "The determination of which version of the gene is on each chromosome.", "preferredTerm": "Allele", "submissionValue": "ALLELE", "synonyms": ["Allele"]}, {"conceptId": "C132433", "definition": "A subgroup of alleles of a polymorphic gene that may form clusters (e.g., phylogenetic) based on high sequence similarity, which may include either a shared single nucleotide polymorphism or a shared set of polymorphic sites. (CDISC)", "preferredTerm": "Allelic Family", "submissionValue": "ALLFAM", "synonyms": ["Allelic Family"]}, {"conceptId": "C132434", "definition": "The number of base pairs present in an RNA or DNA sequence that is the product of an amplification process.", "preferredTerm": "Amplicon Size", "submissionValue": "AMPLSZ", "synonyms": ["Amplicon Size"]}, {"conceptId": "C41255", "definition": "An act or process of elucidation; explication, or explanation of the meaning of the event or thing via the assignment of objects from the domain to the constants of a formal language, truth-values to the proposition symbols, truth-functions to the connectives, other functions to the function symbols, and extensions to the predicates, if any. The assignments are result of human logic application and are not native to the symbols of the formal language.", "preferredTerm": "Interpretation", "submissionValue": "INTP", "synonyms": ["Interpretation"]}]}