{"_links": {"parentPackage": {"href": "/mdr/ct/packages/sdtmct-2017-03-31", "title": "SDTM Controlled Terminology Package 29 Effective 2017-03-31", "type": "Terminology"}, "priorVersion": {"href": "/mdr/ct/packages/sdtmct-2016-12-16/codelists/C120524", "title": "CDISC SDTM Holter ECG Test Name Terminology", "type": "Code List"}, "rootItem": {"href": "/mdr/root/ct/sdtmct/codelists/C120524", "title": "Version-agnostic anchor resource for codelist C120524", "type": "Root Value Domain"}, "self": {"href": "/mdr/ct/packages/sdtmct-2017-03-31/codelists/C120524", "title": "CDISC SDTM Holter ECG Test Name Terminology", "type": "Code List"}}, "conceptId": "C120524", "definition": "Terminology relevant to the test names that describe Holter ECG interpretative findings.", "extensible": "true", "name": "Holter ECG Test Name", "preferredTerm": "CDISC SDTM Holter ECG Test Name Terminology", "submissionValue": "HETEST", "synonyms": ["Holter ECG Test Name"], "terms": [{"conceptId": "C111131", "definition": "An electrocardiographic assessment of cardiac atrioventricular conduction.", "preferredTerm": "Atrioventricular Conduction ECG Assessment", "submissionValue": "Atrioventricular Conduction", "synonyms": ["Atrioventricular Conduction"]}, {"conceptId": "C111132", "definition": "An electrocardiographic assessment of mean cardiac electrical vector and the ECG voltage.", "preferredTerm": "Axis and Voltage ECG Assessment", "submissionValue": "Axis and Voltage", "synonyms": ["Axis and Voltage"]}, {"conceptId": "C111155", "definition": "An electrocardiographic assessment of chamber hypertrophy or enlargement.", "preferredTerm": "Chamber Hypertrophy or Enlargement ECG Assessment", "submissionValue": "Chamber Hypertrophy or Enlargement", "synonyms": ["Chamber Hypertrophy or Enlargement"]}, {"conceptId": "C117761", "definition": "A comparative interpretation of an ECG relative to a previous (comparator) ECG. The definition of the comparator ECG may be specified elsewhere. Common comparator result values include improved, no change, deteriorated.", "preferredTerm": "Comparison to a Prior ECG", "submissionValue": "Comparison to a Prior ECG", "synonyms": ["Comparison to a Prior ECG"]}, {"conceptId": "C41255", "definition": "An act or process of elucidation; explication, or explanation of the meaning of the event or thing via the assignment of objects from the domain to the constants of a formal language, truth-values to the proposition symbols, truth-functions to the connectives, other functions to the function symbols, and extensions to the predicates, if any. The assignments are result of human logic application and are not native to the symbols of the formal language.", "preferredTerm": "Interpretation", "submissionValue": "Interpretation", "synonyms": ["Interpretation"]}, {"conceptId": "C111238", "definition": "An electrocardiographic assessment of intraventricular and intra-atrial conduction.", "preferredTerm": "Intraventricular and Intraatrial Conduction ECG Assessment", "submissionValue": "Intraventricular-Intraatrial Conduction", "synonyms": ["Intraventricular-Intraatrial Conduction"]}, {"conceptId": "C111280", "definition": "An electrocardiographic assessment of findings suggestive of myocardial infarction.", "preferredTerm": "Myocardial Infarction ECG Assessment", "submissionValue": "Myocardial Infarction", "synonyms": ["Myocardial Infarction"]}, {"conceptId": "C111285", "definition": "An electrocardiographic assessment of presence of artificial electronic pacing.", "preferredTerm": "Pacemaker ECG Assessment", "submissionValue": "Pacemaker", "synonyms": ["Pacemaker"]}, {"conceptId": "C111307", "definition": "An electrocardiographic assessment of cardiac rhythm not otherwise specified.", "preferredTerm": "Rhythm Not Otherwise Specified ECG Assessment", "submissionValue": "Rhythm Not Otherwise Specified", "synonyms": ["Rhythm Not Otherwise Specified"]}, {"conceptId": "C111363", "definition": "An electrocardiographic assessment of the characteristics of the ST segment, T wave, and U wave.", "preferredTerm": "ST Segment, T wave, and U wave ECG Assessment", "submissionValue": "ST Segment, T wave, and U wave", "synonyms": ["ST Segment, T wave, and U wave"]}, {"conceptId": "C111312", "definition": "An electrocardiographic assessment of sinus node rhythms and arrhythmias.", "preferredTerm": "Sinus Node Rhythm and Arrhythmia ECG Assessment", "submissionValue": "Sinus Node Rhythms and Arrhythmias", "synonyms": ["Sinus Node Rhythms and Arrhythmias"]}, {"conceptId": "C111320", "definition": "An electrocardiographic assessment of supraventricular arrhythmias excluding tachycardias.", "preferredTerm": "Supraventricular Arrhythmia ECG Assessment", "submissionValue": "Supraventricular Arrhythmias", "synonyms": ["Supraventricular Arrhythmias"]}, {"conceptId": "C111321", "definition": "An electrocardiographic assessment of supraventricular tachyarrhythmias.", "preferredTerm": "Supraventricular Tachyarrhythmia ECG Assessment", "submissionValue": "Supraventricular Tachyarrhythmias", "synonyms": ["Supraventricular Tachyarrhythmias"]}, {"conceptId": "C117807", "definition": "A statement about an electrocardiographic recording describing technical issues or interference during the recording, processing, or transmission of the data. This does not represent an electrocardiographic diagnosis.", "preferredTerm": "ECG Technical Quality", "submissionValue": "Technical Quality", "synonyms": ["Technical Quality"]}, {"conceptId": "C111330", "definition": "An electrocardiographic assessment of ventricular arrhythmias excluding tachycardias.", "preferredTerm": "Ventricular Arrhythmia ECG Assessment", "submissionValue": "Ventricular Arrhythmias", "synonyms": ["Ventricular Arrhythmias"]}, {"conceptId": "C111331", "definition": "An electrocardiographic assessment of ventricular tachyarrhythmias.", "preferredTerm": "Ventricular Tachyarrhythmia ECG Assessment", "submissionValue": "Ventricular Tachyarrhythmias", "synonyms": ["Ventricular Tachyarrhythmias"]}]}