{"_links": {"parentPackage": {"href": "/mdr/ct/packages/sdtmct-2017-03-31", "title": "SDTM Controlled Terminology Package 29 Effective 2017-03-31", "type": "Terminology"}, "priorVersion": {"href": "/mdr/ct/packages/sdtmct-2016-12-16/codelists/C127269", "title": "CDISC SDTM Musculoskeletal System Finding Test Code Terminology", "type": "Code List"}, "rootItem": {"href": "/mdr/root/ct/sdtmct/codelists/C127269", "title": "Version-agnostic anchor resource for codelist C127269", "type": "Root Value Domain"}, "self": {"href": "/mdr/ct/packages/sdtmct-2017-03-31/codelists/C127269", "title": "CDISC SDTM Musculoskeletal System Finding Test Code Terminology", "type": "Code List"}}, "conceptId": "C127269", "definition": "A terminology codelist to describe the test code for a physiological examination of the musculoskeletal system.", "extensible": "true", "name": "Musculoskeletal System Finding Test Code", "preferredTerm": "CDISC SDTM Musculoskeletal System Finding Test Code Terminology", "submissionValue": "MUSCTSCD", "synonyms": ["Musculoskeletal System Finding Test Code"], "terms": [{"conceptId": "C128986", "definition": "The numerical value that represents the result of a clinical assessment of bone erosion based on the Genant modification of the Sharp Joint Erosion Assessment (Genant HK. Methods of assessing radiographic change in rheumatoid arthritis. Am J Med. 1983 Dec 30;75(6A):35-47).", "preferredTerm": "Sharp Genant Bone Erosion Score", "submissionValue": "SGBESCR", "synonyms": ["Sharp/Genant Bone Erosion Score"]}, {"conceptId": "C128987", "definition": "The numerical value that represents the result of a clinical assessment of joint space narrowing based on the Genant modification of the Sharp Joint Space Narrowing Assessment (Genant HK. Methods of assessing radiographic change in rheumatoid arthritis. Am J Med. 1983 Dec 30;75(6A):35-47).", "preferredTerm": "Sharp Genant Joint Space Narrowing Score", "submissionValue": "SGJSNSCR", "synonyms": ["Sharp/Genant JSN Score"]}, {"conceptId": "C128988", "definition": "The numerical value that represents the result of a clinical assessment of bone erosion based on the Van der Heijde modification of the Sharp Joint Erosion Assessment (Van der Heijde DM, van Riel PL, Nuver-Zwart IH, Gribnau FW, van de Putte LB. Effects of hydroxychloroquine and sulphasalazine on progression of joint damage in rheumatoid arthritis. Lancet 1989;1:1036-8).", "preferredTerm": "Sharp van der Heijde Bone Erosion Score", "submissionValue": "SVBESCR", "synonyms": ["Sharp/Van der Heijde Bone Erosion Score"]}, {"conceptId": "C128989", "definition": "The numerical value that represents the result of a clinical assessment of joint space narrowing based on the Van der Heijde modification of the Sharp Joint Space Narrowing Assessment (Van der Heijde DM, van Riel PL, Nuver-Zwart IH, Gribnau FW, van de Putte LB. Effects of hydroxychloroquine and sulphasalazine on progression of joint damage in rheumatoid arthritis. Lancet 1989;1:1036-8).", "preferredTerm": "Sharp van der Heijde Joint Space Narrowing Score", "submissionValue": "SVJSNSCR", "synonyms": ["Sharp/Van der Heijde JSN Score"]}, {"conceptId": "C127774", "definition": "An indication as to whether there are symptoms of swelling.", "preferredTerm": "Swollen Indicator", "submissionValue": "SWLLIND", "synonyms": ["Swollen Indicator"]}, {"conceptId": "C127775", "definition": "An indication as to whether there are symptoms of tenderness.", "preferredTerm": "Tenderness Indicator", "submissionValue": "TNDRIND", "synonyms": ["Tenderness Indicator"]}]}