{"_links": {"parentPackage": {"href": "/mdr/ct/packages/sdtmct-2017-03-31", "title": "SDTM Controlled Terminology Package 29 Effective 2017-03-31", "type": "Terminology"}, "priorVersion": {"href": "/mdr/ct/packages/sdtmct-2016-12-16/codelists/C128687", "title": "CDISC SDTM Microbiology Susceptibility Test Name Terminology", "type": "Code List"}, "rootItem": {"href": "/mdr/root/ct/sdtmct/codelists/C128687", "title": "Version-agnostic anchor resource for codelist C128687", "type": "Root Value Domain"}, "self": {"href": "/mdr/ct/packages/sdtmct-2017-03-31/codelists/C128687", "title": "CDISC SDTM Microbiology Susceptibility Test Name Terminology", "type": "Code List"}}, "conceptId": "C128687", "definition": "Terminology relevant to the test codes that define microorganism responses to antimicrobial agents.", "extensible": "true", "name": "Microbiology Susceptibility Test Name", "preferredTerm": "CDISC SDTM Microbiology Susceptibility Test Name Terminology", "submissionValue": "MSTEST", "synonyms": ["Microbiology Susceptibility Test Name"], "terms": [{"conceptId": "C116250", "definition": "A fold change based on a concentration of a specific drug expected to produce 50 percent inhibition of the standard growth of a microbial organism, or of a biological/biochemical reaction. It is a ratio calculated by the current IC50 Subject Result divided by the IC50 Subject Result from the baseline visit.", "preferredTerm": "Half Maximal Inhibitory Concentration Fold Change from Baseline Measurement", "submissionValue": "IC50 Fold Change from Baseline", "synonyms": ["IC50 Fold Change from Baseline"]}, {"conceptId": "C116249", "definition": "A fold change based on a concentration of a specific drug expected to produce 50 percent inhibition of the standard growth of a microbial organism, or of a biological/biochemical reaction. It is a ratio calculated by the IC50 Subject Result divided by the IC50 Reference Control Result.", "preferredTerm": "Half Maximal Inhibitory Concentration Fold Change from Reference Measurement", "submissionValue": "IC50 Fold Change from Reference", "synonyms": ["IC50 Fold Change from Reference"]}, {"conceptId": "C116248", "definition": "A reference control sample response based on a concentration of a specific drug expected to produce 50 percent inhibition of the standard growth of a microbial organism, or of a biological/biochemical reaction.", "preferredTerm": "Half Maximal Inhibitory Concentration Reference Control Result Measurement", "submissionValue": "IC50 Reference Control Result", "synonyms": ["IC50 Reference Control Result"]}, {"conceptId": "C116247", "definition": "A measurement of titer of a microbial organism or biological/biochemical reaction that has been exposed to a concentration of a specific drug expected to produce 50 percent inhibition of the standard growth of the microbial organism, or of a reaction.", "preferredTerm": "Half Maximal Inhibitory Concentration Subject Result Measurement", "submissionValue": "IC50 Subject Result", "synonyms": ["IC50 Subject Result"]}, {"conceptId": "C116254", "definition": "A fold change based on a concentration of a specific drug expected to produce 95 percent inhibition of the standard growth of a microbial organism, or of a biological/biochemical reaction. It is a ratio calculated by the current IC95 Subject Result divided by the IC95 Subject Result from the baseline visit.", "preferredTerm": "95 Percent Maximal Inhibitory Concentration Fold Change from Baseline Measurement", "submissionValue": "IC95 Fold Change from Baseline", "synonyms": ["IC95 Fold Change from Baseline"]}, {"conceptId": "C116253", "definition": "A fold change based on a concentration of a specific drug expected to produce 95 percent inhibition of the standard growth of a microbial organism, or of a biological/biochemical reaction. It is a ratio calculated by the IC95 Subject Result divided by the IC95 Reference Control Result.", "preferredTerm": "95 Percent Maximal Inhibitory Concentration Fold Change from Reference Measurement", "submissionValue": "IC95 Fold Change from Reference", "synonyms": ["IC95 Fold Change from Reference"]}, {"conceptId": "C116252", "definition": "A reference control sample response based on a concentration of a specific drug expected to produce 95 percent inhibition of the standard growth of a microbial organism, or of a biological/biochemical reaction.", "preferredTerm": "95 Percent Maximal Inhibitory Concentration Reference Control Result Measurement", "submissionValue": "IC95 Reference Control Result", "synonyms": ["IC95 Reference Control Result"]}, {"conceptId": "C116251", "definition": "A measurement of titer of a microbial organism or biological/biochemical reaction that has been exposed to a concentration of a specific drug expected to produce 95 percent inhibition of the standard growth of the microbial organism, or of a reaction.", "preferredTerm": "95 Percent Maximal Inhibitory Concentration Subject Result Measurement", "submissionValue": "IC95 Subject Result", "synonyms": ["IC95 Subject Result"]}, {"conceptId": "C116255", "definition": "An indication of reduced or increased susceptibility of a microbial organism, or activity of a biological/biochemical reaction in response to the inhibitory concentration (IC50 and/or IC95) of a specific drug.", "preferredTerm": "Inhibitory Concentration Net Assessment Measurement", "submissionValue": "Inhibitory Concentration Net Assessment", "synonyms": ["Inhibitory Concentration Net Assessment"]}, {"conceptId": "C85540", "definition": "A measurement of the response of the microbial organism to a controlled concentration of an antimicrobial agent.", "preferredTerm": "Microbial Susceptibility Test", "submissionValue": "Microbial Susceptibility", "synonyms": ["Microbial Susceptibility"]}, {"conceptId": "C128985", "definition": "A measurement that specifies the minimum concentration of the agent at which organism growth was inhibited.", "preferredTerm": "Minimum Inhibitory Concentration Test", "submissionValue": "Minimum Inhibitory Concentration", "synonyms": ["Minimum Inhibitory Concentration"]}]}