{"_links": {"parentPackage": {"href": "/mdr/ct/packages/sdtmct-2017-03-31", "title": "SDTM Controlled Terminology Package 29 Effective 2017-03-31", "type": "Terminology"}, "rootItem": {"href": "/mdr/root/ct/sdtmct/codelists/C132522", "title": "Version-agnostic anchor resource for codelist C132522", "type": "Root Value Domain"}, "self": {"href": "/mdr/ct/packages/sdtmct-2017-03-31/codelists/C132522", "title": "CDISC Questionnaire HAQ-DI Without VAS Test Name Terminology", "type": "Code List"}}, "conceptId": "C132522", "definition": "Health Assessment Questionnaire Disability Index Without Pain Visual Analog Scale test name.", "extensible": "false", "name": "Health Assessment Questionnaire Disability Index Without Pain Visual Analog Scale Test Name", "preferredTerm": "CDISC Questionnaire HAQ-DI Without VAS Test Name Terminology", "submissionValue": "HAQ02TN", "synonyms": ["Health Assessment Questionnaire Disability Index Without Pain Visual Analog Scale Test Name"], "terms": [{"conceptId": "C132605", "definition": "Health Assessment Questionnaire Disability Index Without Pain Visual Analog Scale - Activities: Are you able to do chores such as vacuuming or yardwork?", "preferredTerm": "HAQ-DI Without VAS - Able to Do Chores", "submissionValue": "HAQ02-Able to Do Chores", "synonyms": ["HAQ02-Able to Do Chores"]}, {"conceptId": "C132609", "definition": "Health Assessment Questionnaire Disability Index Without Pain Visual Analog Scale - Aids or devices that you usually use for any of these activities: Bathtub bar.", "preferredTerm": "HAQ-DI Without VAS - Aid: Bathtub Bar", "submissionValue": "HAQ02-Aid: Bathtub Bar", "synonyms": ["HAQ02-Aid: Bathtub Bar"]}, {"conceptId": "C132607", "definition": "Health Assessment Questionnaire Disability Index Without Pain Visual Analog Scale - Aids or devices that you usually use for any of these activities: Bathtub seat.", "preferredTerm": "HAQ-DI Without VAS - Aid: Bathtub Seat", "submissionValue": "HAQ02-Aid: Bathtub Seat", "synonyms": ["HAQ02-Aid: Bathtub Seat"]}, {"conceptId": "C132587", "definition": "Health Assessment Questionnaire Disability Index Without Pain Visual Analog Scale - Aids or devices that you usually use for any of these activities: Built up or special utensils.", "preferredTerm": "HAQ-DI Without VAS - Aid: Built Up or Special Utensils", "submissionValue": "HAQ02-Aid: Built Up or Special Utensils", "synonyms": ["HAQ02-Aid: Built Up or Special Utensils"]}, {"conceptId": "C132582", "definition": "Health Assessment Questionnaire Disability Index Without Pain Visual Analog Scale - Aids or devices that you usually use for any of these activities: Cane.", "preferredTerm": "HAQ-DI Without VAS - Aid: Cane", "submissionValue": "HAQ02-Aid: Cane", "synonyms": ["HAQ02-Aid: Cane"]}, {"conceptId": "C132584", "definition": "Health Assessment Questionnaire Disability Index Without Pain Visual Analog Scale - Aids or devices that you usually use for any of these activities: Crutches.", "preferredTerm": "HAQ-DI Without VAS - Aid: Crutches", "submissionValue": "HAQ02-Aid: Crutches", "synonyms": ["HAQ02-Aid: Crutches"]}, {"conceptId": "C132586", "definition": "Health Assessment Questionnaire Disability Index Without Pain Visual Analog Scale - Aids or devices that you usually use for any of these activities: Devices used for Dressing (button hook, zipper pull, long-handled shoe horn, etc.).", "preferredTerm": "HAQ-DI Without VAS - Aid: Devices Used for Dressing", "submissionValue": "HAQ02-Aid: Devices Used for Dressing", "synonyms": ["HAQ02-Aid: Devices Used for Dressing"]}, {"conceptId": "C132608", "definition": "Health Assessment Questionnaire Disability Index Without Pain Visual Analog Scale - Aids or devices that you usually use for any of these activities: Jar opener (for jars previously opened).", "preferredTerm": "HAQ-DI Without VAS - Aid: Jar Opener (Previously Open)", "submissionValue": "HAQ02-Aid: Jar Opener (Previously Open)", "synonyms": ["HAQ02-Aid: Jar Opener (Previously Open)"]}, {"conceptId": "C132611", "definition": "Health Assessment Questionnaire Disability Index Without Pain Visual Analog Scale - Aids or devices that you usually use for any of these activities: Long-handled appliances in bathroom.", "preferredTerm": "HAQ-DI Without VAS - Aid: Long-Handled Appliances Bathroom", "submissionValue": "HAQ02-Aid: Long-Handled Appl Bathroom", "synonyms": ["HAQ02-Aid: Long-Handled Appl Bathroom"]}, {"conceptId": "C132610", "definition": "Health Assessment Questionnaire Disability Index Without Pain Visual Analog Scale - Aids or devices that you usually use for any of these activities: Long-handled appliances for reach.", "preferredTerm": "HAQ-DI Without VAS - Aid: Long-Handled Appliances Reach", "submissionValue": "HAQ02-Aid: Long-Handled Appl Reach", "synonyms": ["HAQ02-Aid: Long-Handled Appl Reach"]}, {"conceptId": "C132606", "definition": "Health Assessment Questionnaire Disability Index Without Pain Visual Analog Scale - Aids or devices that you usually use for any of these activities: Raised toilet seat.", "preferredTerm": "HAQ-DI Without VAS - Aid: Raised Toilet Seat", "submissionValue": "HAQ02-Aid: Raised Toilet Seat", "synonyms": ["HAQ02-Aid: Raised Toilet Seat"]}, {"conceptId": "C132588", "definition": "Health Assessment Questionnaire Disability Index Without Pain Visual Analog Scale - Aids or devices that you usually use for any of these activities: Special or built up chair.", "preferredTerm": "HAQ-DI Without VAS - Aid: Special or Built Up Chair", "submissionValue": "HAQ02-Aid: Special or Built Up Chair", "synonyms": ["HAQ02-Aid: Special or Built Up Chair"]}, {"conceptId": "C132583", "definition": "Health Assessment Questionnaire Disability Index Without Pain Visual Analog Scale - Aids or devices that you usually use for any of these activities: Walker.", "preferredTerm": "HAQ-DI Without VAS - Aid: Walker", "submissionValue": "HAQ02-Aid: Walker", "synonyms": ["HAQ02-Aid: Walker"]}, {"conceptId": "C132585", "definition": "Health Assessment Questionnaire Disability Index Without Pain Visual Analog Scale - Aids or devices that you usually use for any of these activities: Wheelchair.", "preferredTerm": "HAQ-DI Without VAS - Aid: Wheelchair", "submissionValue": "HAQ02-Aid: Wheelchair", "synonyms": ["HAQ02-Aid: Wheelchair"]}, {"conceptId": "C132599", "definition": "Health Assessment Questionnaire Disability Index Without Pain Visual Analog Scale - Reach: Are you able to bend down to pick up clothing from the floor?", "preferredTerm": "HAQ-DI Without VAS - Bend Down Pick Up Clothing - Floor", "submissionValue": "HAQ02-Bend Down Pick Up Clothing - Floor", "synonyms": ["HAQ02-Bend Down Pick Up Clothing - Floor"]}, {"conceptId": "C132581", "definition": "Health Assessment Questionnaire Disability Index Without Pain Visual Analog Scale - Walking: Are you able to climb up five steps?", "preferredTerm": "HAQ-DI Without VAS - Climb Up Five Steps", "submissionValue": "HAQ02-Climb Up Five Steps", "synonyms": ["HAQ02-Climb Up Five Steps"]}, {"conceptId": "C132577", "definition": "Health Assessment Questionnaire Disability Index Without Pain Visual Analog Scale - Eating: Are you able to cut your meat?", "preferredTerm": "HAQ-DI Without VAS - Cut Your Meat", "submissionValue": "HAQ02-Cut Your Meat", "synonyms": ["HAQ02-Cut Your Meat"]}, {"conceptId": "C132573", "definition": "Health Assessment Questionnaire Disability Index Without Pain Visual Analog Scale - Dressing & Grooming: Are you able to dress yourself, including tying shoelaces and doing buttons?", "preferredTerm": "HAQ-DI Without VAS - Dress Yourself", "submissionValue": "HAQ02-Dress Yourself", "synonyms": ["HAQ02-Dress Yourself"]}, {"conceptId": "C132576", "definition": "Health Assessment Questionnaire Disability Index Without Pain Visual Analog Scale - Arising: Are you able to get in and out of bed?", "preferredTerm": "HAQ-DI Without VAS - Get In and Out of Bed", "submissionValue": "HAQ02-Get In and Out of Bed", "synonyms": ["HAQ02-Get In and Out of Bed"]}, {"conceptId": "C132604", "definition": "Health Assessment Questionnaire Disability Index Without Pain Visual Analog Scale - Activities: Are you able to get in and out of a car?", "preferredTerm": "HAQ-DI Without VAS - Get In and Out of a Car", "submissionValue": "HAQ02-Get In and Out of a Car", "synonyms": ["HAQ02-Get In and Out of a Car"]}, {"conceptId": "C132597", "definition": "Health Assessment Questionnaire Disability Index Without Pain Visual Analog Scale - Hygiene: Are you able to get on and off the toilet?", "preferredTerm": "HAQ-DI Without VAS - Get On and Off The Toilet", "submissionValue": "HAQ02-Get On and Off The Toilet", "synonyms": ["HAQ02-Get On and Off The Toilet"]}, {"conceptId": "C132592", "definition": "Health Assessment Questionnaire Disability Index Without Pain Visual Analog Scale - Usually need help from another person: Arising.", "preferredTerm": "HAQ-DI Without VAS - Help: Arising", "submissionValue": "HAQ02-Help: Arising", "synonyms": ["HAQ02-Help: Arising"]}, {"conceptId": "C132591", "definition": "Health Assessment Questionnaire Disability Index Without Pain Visual Analog Scale - Usually need help from another person: Dressing and grooming.", "preferredTerm": "HAQ-DI Without VAS - Help: Dressing and Grooming", "submissionValue": "HAQ02-Help: Dressing and Grooming", "synonyms": ["HAQ02-Help: Dressing and Grooming"]}, {"conceptId": "C132593", "definition": "Health Assessment Questionnaire Disability Index Without Pain Visual Analog Scale - Usually need help from another person: Eating.", "preferredTerm": "HAQ-DI Without VAS - Help: Eating", "submissionValue": "HAQ02-Help: Eating", "synonyms": ["HAQ02-Help: Eating"]}, {"conceptId": "C132617", "definition": "Health Assessment Questionnaire Disability Index Without Pain Visual Analog Scale - Usually need help from another person: Errands and chores.", "preferredTerm": "HAQ-DI Without VAS - Help: Errands and Chores", "submissionValue": "HAQ02-Help: Errands and Chores", "synonyms": ["HAQ02-Help: Errands and Chores"]}, {"conceptId": "C132616", "definition": "Health Assessment Questionnaire Disability Index Without Pain Visual Analog Scale - Usually need help from another person: Gripping and opening things.", "preferredTerm": "HAQ-DI Without VAS - Help: Gripping and Opening Things", "submissionValue": "HAQ02-Help: Gripping and Opening Things", "synonyms": ["HAQ02-Help: Gripping and Opening Things"]}, {"conceptId": "C132614", "definition": "Health Assessment Questionnaire Disability Index Without Pain Visual Analog Scale - Usually need help from another person: Hygiene.", "preferredTerm": "HAQ-DI Without VAS - Help: Hygiene", "submissionValue": "HAQ02-Help: Hygiene", "synonyms": ["HAQ02-Help: Hygiene"]}, {"conceptId": "C132615", "definition": "Health Assessment Questionnaire Disability Index Without Pain Visual Analog Scale - Usually need help from another person: Reach.", "preferredTerm": "HAQ-DI Without VAS - Help: Reach", "submissionValue": "HAQ02-Help: Reach", "synonyms": ["HAQ02-Help: Reach"]}, {"conceptId": "C132594", "definition": "Health Assessment Questionnaire Disability Index Without Pain Visual Analog Scale - Usually need help from another person: Walking.", "preferredTerm": "HAQ-DI Without VAS - Help: Walking", "submissionValue": "HAQ02-Help: Walking", "synonyms": ["HAQ02-Help: Walking"]}, {"conceptId": "C132578", "definition": "Health Assessment Questionnaire Disability Index Without Pain Visual Analog Scale - Eating: Are you able to lift a full cup or glass to your mouth?", "preferredTerm": "HAQ-DI Without VAS - Lift a Full Cup or Glass to Mouth", "submissionValue": "HAQ02-Lift a Full Cup or Glass to Mouth", "synonyms": ["HAQ02-Lift a Full Cup or Glass to Mouth"]}, {"conceptId": "C132600", "definition": "Health Assessment Questionnaire Disability Index Without Pain Visual Analog Scale - Grip: Are you able to open car doors?", "preferredTerm": "HAQ-DI Without VAS - Open Car Doors", "submissionValue": "HAQ02-Open Car Doors", "synonyms": ["HAQ02-Open Car Doors"]}, {"conceptId": "C132601", "definition": "Health Assessment Questionnaire Disability Index Without Pain Visual Analog Scale - Grip: Are you able to open jars which have been previously opened?", "preferredTerm": "HAQ-DI Without VAS - Open Jars Previously Opened", "submissionValue": "HAQ02-Open Jars Previously Opened", "synonyms": ["HAQ02-Open Jars Previously Opened"]}, {"conceptId": "C132579", "definition": "Health Assessment Questionnaire Disability Index Without Pain Visual Analog Scale - Eating: Are you able to open a new milk carton?", "preferredTerm": "HAQ-DI Without VAS - Open a New Milk Carton", "submissionValue": "HAQ02-Open a New Milk Carton", "synonyms": ["HAQ02-Open a New Milk Carton"]}, {"conceptId": "C132589", "definition": "Health Assessment Questionnaire Disability Index Without Pain Visual Analog Scale - Aids or devices that you usually use for any of these activities: Other.", "preferredTerm": "HAQ-DI Without VAS - Other Aid (Dress or Arising or Eat or Walk)", "submissionValue": "HAQ02-Othr Aid (Dress/Arising/Eat/Walk)", "synonyms": ["HAQ02-Othr Aid (Dress/Arising/Eat/Walk)"]}, {"conceptId": "C132612", "definition": "Health Assessment Questionnaire Disability Index Without Pain Visual Analog Scale - Aids or devices that you usually use for any of these activities: Other.", "preferredTerm": "HAQ-DI Without VAS - Other Aid (Hygiene or Reach or Grip or Act)", "submissionValue": "HAQ02-Othr Aid (Hygiene/Reach/Grip/Act)", "synonyms": ["HAQ02-Othr Aid (Hygiene/Reach/Grip/Act)"]}, {"conceptId": "C132598", "definition": "Health Assessment Questionnaire Disability Index Without Pain Visual Analog Scale - Reach: Are you able to reach and get down a 5-pound object (such as a bag of sugar) from just above your head?", "preferredTerm": "HAQ-DI Without VAS - Reach-Get Down 5 Lb Object Above Head", "submissionValue": "HAQ02-Reach-Get Down 5 Lb Obj Above Head", "synonyms": ["HAQ02-Reach-Get Down 5 Lb Obj Above Head"]}, {"conceptId": "C132603", "definition": "Health Assessment Questionnaire Disability Index Without Pain Visual Analog Scale - Activities: Are you able to run errands and shop?", "preferredTerm": "HAQ-DI Without VAS - Run Errands and Shop", "submissionValue": "HAQ02-Run Errands and Shop", "synonyms": ["HAQ02-Run Errands and Shop"]}, {"conceptId": "C132574", "definition": "Health Assessment Questionnaire Disability Index Without Pain Visual Analog Scale - Dressing & Grooming: Are you able to shampoo your hair?", "preferredTerm": "HAQ-DI Without VAS - Shampoo Your Hair", "submissionValue": "HAQ02-Shampoo Your Hair", "synonyms": ["HAQ02-Shampoo Your Hair"]}, {"conceptId": "C132590", "definition": "Health Assessment Questionnaire Disability Index Without Pain Visual Analog Scale - Aids or devices that you usually use for any of these activities: Other (specify).", "preferredTerm": "HAQ-DI Without VAS - Special Aid (Dress or Arising or Eat or Walk)", "submissionValue": "HAQ02-Spec Aid (Dress/Arising/Eat/Walk)", "synonyms": ["HAQ02-Spec Aid (Dress/Arising/Eat/Walk)"]}, {"conceptId": "C132613", "definition": "Health Assessment Questionnaire Disability Index Without Pain Visual Analog Scale - Aids or devices that you usually use for any of these activities: Other (specify).", "preferredTerm": "HAQ-DI Without VAS - Special Aid (Hygiene or Reach or Grip or Act)", "submissionValue": "HAQ02-Spec Aid (Hygiene/Reach/Grip/Act)", "synonyms": ["HAQ02-Spec Aid (Hygiene/Reach/Grip/Act)"]}, {"conceptId": "C132575", "definition": "Health Assessment Questionnaire Disability Index Without Pain Visual Analog Scale - Arising: Are you able to stand up from a straight chair?", "preferredTerm": "HAQ-DI Without VAS - Stand Up From a Straight Chair", "submissionValue": "HAQ02-Stand Up From a Straight Chair", "synonyms": ["HAQ02-Stand Up From a Straight Chair"]}, {"conceptId": "C132596", "definition": "Health Assessment Questionnaire Disability Index Without Pain Visual Analog Scale - Hygiene: Are you able to take a tub bath?", "preferredTerm": "HAQ-DI Without VAS - Take a Tub Bath", "submissionValue": "HAQ02-Take a Tub Bath", "synonyms": ["HAQ02-Take a Tub Bath"]}, {"conceptId": "C132602", "definition": "Health Assessment Questionnaire Disability Index Without Pain Visual Analog Scale - Grip: Are you able to turn faucets on and off?", "preferredTerm": "HAQ-DI Without VAS - Turn Faucets On And Off", "submissionValue": "HAQ02-Turn Faucets On And Off", "synonyms": ["HAQ02-Turn Faucets On And Off"]}, {"conceptId": "C132580", "definition": "Health Assessment Questionnaire Disability Index Without Pain Visual Analog Scale - Walking: Are you able to walk outdoors on flat ground?", "preferredTerm": "HAQ-DI Without VAS - Walk Outdoors on Flat Ground", "submissionValue": "HAQ02-Walk Outdoors on Flat Ground", "synonyms": ["HAQ02-Walk Outdoors on Flat Ground"]}, {"conceptId": "C132595", "definition": "Health Assessment Questionnaire Disability Index Without Pain Visual Analog Scale - Hygiene: Are you able to wash and dry your body?", "preferredTerm": "HAQ-DI Without VAS - Wash and Dry Your Body", "submissionValue": "HAQ02-Wash and Dry Your Body", "synonyms": ["HAQ02-Wash and Dry Your Body"]}]}