{"_links": {"parentPackage": {"href": "/mdr/ct/packages/sdtmct-2017-03-31", "title": "SDTM Controlled Terminology Package 29 Effective 2017-03-31", "type": "Terminology"}, "priorVersion": {"href": "/mdr/ct/packages/sdtmct-2016-12-16/codelists/C66736", "title": "CDISC SDTM Trial Indication Type Terminology", "type": "Code List"}, "rootItem": {"href": "/mdr/root/ct/sdtmct/codelists/C66736", "title": "Version-agnostic anchor resource for codelist C66736", "type": "Root Value Domain"}, "self": {"href": "/mdr/ct/packages/sdtmct-2017-03-31/codelists/C66736", "title": "CDISC SDTM Trial Indication Type Terminology", "type": "Code List"}}, "conceptId": "C66736", "definition": "A terminology codelist relevant to the responses for the planned purpose of the therapy, device, or agent under study in the clinical trial.", "extensible": "true", "name": "Trial Intent Type Response", "preferredTerm": "CDISC SDTM Trial Indication Type Terminology", "submissionValue": "TINDTP", "synonyms": ["Trial Intent Type Response"], "terms": [{"conceptId": "C49654", "definition": "A type of study protocol designed to evaluate intervention(s) aimed to cure a disease or condition. (NCI)", "preferredTerm": "Cure Study", "submissionValue": "CURE"}, {"conceptId": "C49653", "definition": "A type of study protocol designed to evaluate intervention(s) aimed at identifying a disease or condition. (NCI)", "preferredTerm": "Diagnosis Study", "submissionValue": "DIAGNOSIS"}, {"conceptId": "C49655", "definition": "A type of study designed to identify actions necessary to eliminate or reduce the risk to human life or well-being as a result of a particular medication or treatment regimen. (NCI)", "preferredTerm": "Adverse Effect Mitigation Study", "submissionValue": "MITIGATION"}, {"conceptId": "C49657", "definition": "A type of study designed to identify actions necessary to permanently eliminate or reduce the long-term risk to human life as a result of a particular medication or treatment regimen.", "preferredTerm": "Prevention Study", "submissionValue": "PREVENTION"}, {"conceptId": "C49656", "definition": "A type of study protocol designed to evaluate intervention(s) for treatment of disease, syndrome or condition.", "preferredTerm": "Treatment Study", "submissionValue": "TREATMENT", "synonyms": ["Therapy Trial"]}]}