{"_links": {"parentPackage": {"href": "/mdr/ct/packages/sdtmct-2017-03-31", "title": "SDTM Controlled Terminology Package 29 Effective 2017-03-31", "type": "Terminology"}, "priorVersion": {"href": "/mdr/ct/packages/sdtmct-2016-12-16/codelists/C66729", "title": "CDISC SDTM Route of Administration Terminology", "type": "Code List"}, "rootItem": {"href": "/mdr/root/ct/sdtmct/codelists/C66729", "title": "Version-agnostic anchor resource for codelist C66729", "type": "Root Value Domain"}, "self": {"href": "/mdr/ct/packages/sdtmct-2017-03-31/codelists/C66729", "title": "CDISC SDTM Route of Administration Terminology", "type": "Code List"}}, "conceptId": "C66729", "definition": "A terminology codelist relevant to the course by which a substance is administered in order to reach the site of action in the body.", "extensible": "true", "name": "Route of Administration Response", "preferredTerm": "CDISC SDTM Route of Administration Terminology", "submissionValue": "ROUTE", "synonyms": ["Route of Administration Response"], "terms": [{"conceptId": "C38192", "definition": "Administration to or by way of the ear. (FDA)", "preferredTerm": "Auricular Route of Administration", "submissionValue": "AURICULAR (OTIC)"}, {"conceptId": "C38193", "definition": "Administration directed toward the cheek, generally from within the mouth. (FDA)", "preferredTerm": "Buccal Route of Administration", "submissionValue": "BUCCAL"}, {"conceptId": "C38194", "definition": "Administration to the conjunctiva, the delicate membrane that lines the eyelids and covers the exposed surface of the eyeball. (FDA)", "preferredTerm": "Conjunctival Route of Administration", "submissionValue": "CONJUNCTIVAL"}, {"conceptId": "C38675", "definition": "Administration to the skin. (FDA)", "preferredTerm": "Cutaneous Route of Administration", "submissionValue": "CUTANEOUS"}, {"conceptId": "C38197", "definition": "Administration to a tooth or teeth. (FDA)", "preferredTerm": "Dental Route of Administration", "submissionValue": "DENTAL"}, {"conceptId": "C78373", "definition": "Administration by way of food or water.", "preferredTerm": "Dietary Route of Administration", "submissionValue": "DIETARY"}, {"conceptId": "C38633", "definition": "Administration of through the diffusion of substance through a membrane in an electric field. (FDA)", "preferredTerm": "Electro-osmosis Route of Administration", "submissionValue": "ELECTRO-OSMOSIS"}, {"conceptId": "C38205", "definition": "Administration within the canal of the cervix uteri. Synonymous with the term intracervical. (FDA)", "preferredTerm": "Endocervical Route of Administration", "submissionValue": "ENDOCERVICAL", "synonyms": ["Intracervical Route of Administration"]}, {"conceptId": "C38206", "definition": "Administration within the nasal sinuses of the head. (FDA)", "preferredTerm": "Endosinusial Route of Administration", "submissionValue": "ENDOSINUSIAL"}, {"conceptId": "C38208", "definition": "Administration directly into the trachea. Synonymous with the term intratracheal. (FDA)", "preferredTerm": "Endotracheal Route of Administration", "submissionValue": "ENDOTRACHEAL", "synonyms": ["Intratracheal Route of Administration"]}, {"conceptId": "C38209", "definition": "Administration directly into the intestines. (FDA)", "preferredTerm": "Enteral Route of Administration", "submissionValue": "ENTERAL"}, {"conceptId": "C38210", "definition": "Administration upon or over the dura mater. (FDA)", "preferredTerm": "Epidural Route of Administration", "submissionValue": "EPIDURAL"}, {"conceptId": "C38211", "definition": "Administration to the outside of the membrane enveloping the fetus. (FDA)", "preferredTerm": "Extraamniotic Route of Administration", "submissionValue": "EXTRA-AMNIOTIC"}, {"conceptId": "C38212", "definition": "Administration outside of the body. (FDA)", "preferredTerm": "Extracorporeal Circulation Route of Administration", "submissionValue": "EXTRACORPOREAL"}, {"conceptId": "C38200", "definition": "Administration through hemodialysate fluid. (FDA)", "preferredTerm": "Administration via Hemodialysis", "submissionValue": "HEMODIALYSIS"}, {"conceptId": "C38215", "definition": "Administration that results in substances passing into tissue spaces or into cells. (FDA)", "preferredTerm": "Infiltration Route of Administration", "submissionValue": "INFILTRATION"}, {"conceptId": "C38219", "definition": "Administration to or in the interstices of a tissue. (FDA)", "preferredTerm": "Interstitial Route of Administration", "submissionValue": "INTERSTITIAL"}, {"conceptId": "C38220", "definition": "Administration within the abdomen. (FDA)", "preferredTerm": "Intraabdominal Route of Administration", "submissionValue": "INTRA-ABDOMINAL"}, {"conceptId": "C38221", "definition": "Administration within the amnion. (FDA)", "preferredTerm": "Intraamniotic Route of Administration", "submissionValue": "INTRA-AMNIOTIC"}, {"conceptId": "C38222", "definition": "Administration within an artery or arteries. (FDA)", "preferredTerm": "Intraarterial Route of Administration", "submissionValue": "INTRA-ARTERIAL"}, {"conceptId": "C38223", "definition": "Administration within a joint. (FDA)", "preferredTerm": "Intraarticular Route of Administration", "submissionValue": "INTRA-ARTICULAR"}, {"conceptId": "C38224", "definition": "Administration within the bile, bile ducts or gallbladder. (FDA)", "preferredTerm": "Intrabiliary Route of Administration", "submissionValue": "INTRABILIARY"}, {"conceptId": "C38225", "definition": "Administration within a bronchus. (FDA)", "preferredTerm": "Intrabronchial Route of Administration", "submissionValue": "INTRABRONCHIAL"}, {"conceptId": "C38226", "definition": "Administration within a bursa. (FDA)", "preferredTerm": "Intrabursal Route of Administration", "submissionValue": "INTRABURSAL"}, {"conceptId": "C64984", "definition": "Administration by injection directly into the anterior chamber of the eye.", "preferredTerm": "Intracameral Route of Administration", "submissionValue": "INTRACAMERAL"}, {"conceptId": "C38227", "definition": "Administration within the heart. (FDA)", "preferredTerm": "Intracardiac Route of Administration", "submissionValue": "INTRACARDIAC"}, {"conceptId": "C38228", "definition": "Administration within a cartilage; endochondral. (FDA)", "preferredTerm": "Intracartilaginous Route of Administration", "submissionValue": "INTRACARTILAGINOUS"}, {"conceptId": "C38229", "definition": "Administration within the cauda equina. (FDA)", "preferredTerm": "Intracaudal Route of Administration", "submissionValue": "INTRACAUDAL"}, {"conceptId": "C38230", "definition": "Administration within a pathologic cavity, such as occurs in the lung in tuberculosis. (FDA)", "preferredTerm": "Intracavernous Route of Administration", "submissionValue": "INTRACAVERNOUS"}, {"conceptId": "C38231", "definition": "Administration within a non-pathologic cavity, such as that of the cervix, uterus, or penis, or such as that is formed as the result of a wound. (FDA)", "preferredTerm": "Intracavitary Route of Administration", "submissionValue": "INTRACAVITARY"}, {"conceptId": "C38232", "definition": "Administration within the cerebrum. (FDA)", "preferredTerm": "Intracerebral Route of Administration", "submissionValue": "INTRACEREBRAL"}, {"conceptId": "C38233", "definition": "Administration within the cisterna magna cerebellomedularis. (FDA)", "preferredTerm": "Intracisternal Route of Administration", "submissionValue": "INTRACISTERNAL"}, {"conceptId": "C38234", "definition": "Administration within the cornea (the transparent structure forming the anterior part of the fibrous tunic of the eye). (FDA)", "preferredTerm": "Intracorneal Route of Administration", "submissionValue": "INTRACORNEAL"}, {"conceptId": "C38217", "definition": "Administration of a drug within a portion of a tooth which is covered by enamel and which is separated from the roots by a slightly constricted region known as the neck. (FDA)", "preferredTerm": "Intracoronal Dental Route of Administration", "submissionValue": "INTRACORONAL, DENTAL"}, {"conceptId": "C38218", "definition": "Administration within the coronary arteries. (FDA)", "preferredTerm": "Intracoronary Route of Administration", "submissionValue": "INTRACORONARY"}, {"conceptId": "C38235", "definition": "Administration within the dilatable spaces of the corporus cavernosa of the penis. (FDA)", "preferredTerm": "Intracorporus Cavernosum Route of Administration", "submissionValue": "INTRACORPORUS CAVERNOSUM"}, {"conceptId": "C38238", "definition": "Administration within the dermis. (FDA)", "preferredTerm": "Intradermal Route of Administration", "submissionValue": "INTRADERMAL"}, {"conceptId": "C38239", "definition": "Administration within a disc. (FDA)", "preferredTerm": "Intradiscal Route of Administration", "submissionValue": "INTRADISCAL"}, {"conceptId": "C38240", "definition": "Administration within the duct of a gland. (FDA)", "preferredTerm": "Intraductal Route of Administration", "submissionValue": "INTRADUCTAL"}, {"conceptId": "C38241", "definition": "Administration within the duodenum. (FDA)", "preferredTerm": "Intraduodenal Route of Administration", "submissionValue": "INTRADUODENAL"}, {"conceptId": "C38242", "definition": "Administration within or beneath the dura. (FDA)", "preferredTerm": "Intradural Route of Administration", "submissionValue": "INTRADURAL"}, {"conceptId": "C38243", "definition": "Administration within the epidermis. (FDA)", "preferredTerm": "Intraepidermal Route of Administration", "submissionValue": "INTRAEPIDERMAL"}, {"conceptId": "C38245", "definition": "Administration within the esophagus. (FDA)", "preferredTerm": "Intraesophageal Route of Administration", "submissionValue": "INTRAESOPHAGEAL"}, {"conceptId": "C38246", "definition": "Administration within the stomach. (FDA)", "preferredTerm": "Intragastric Route of Administration", "submissionValue": "INTRAGASTRIC"}, {"conceptId": "C38247", "definition": "Administration within the gingivae. (FDA)", "preferredTerm": "Intragingival Route of Administration", "submissionValue": "INTRAGINGIVAL"}, {"conceptId": "C38248", "definition": "Administration into the liver.", "preferredTerm": "Intrahepatic Route of Administration", "submissionValue": "INTRAHEPATIC"}, {"conceptId": "C38249", "definition": "Administration within the distal portion of the small intestine, from the jejunum to the cecum. (FDA)", "preferredTerm": "Intraileal Route of Administration", "submissionValue": "INTRAILEAL"}, {"conceptId": "C102399", "definition": "Administration into the jejunum.", "preferredTerm": "Intrajejunal Route of Administration", "submissionValue": "INTRAJEJUNAL"}, {"conceptId": "C38250", "definition": "Administration within or introduced directly into a localized lesion. (FDA)", "preferredTerm": "Intralesional Route of Administration", "submissionValue": "INTRALESIONAL"}, {"conceptId": "C38251", "definition": "Administration within the lumen of a tube. (FDA)", "preferredTerm": "Intraluminal Route of Administration", "submissionValue": "INTRALUMINAL"}, {"conceptId": "C38252", "definition": "Administration within the lymph. (FDA)", "preferredTerm": "Intralymphatic Route of Administration", "submissionValue": "INTRALYMPHATIC"}, {"conceptId": "C38253", "definition": "Administration within the marrow cavity of a bone. (FDA)", "preferredTerm": "Intramedullary Route of Administration", "submissionValue": "INTRAMEDULLARY"}, {"conceptId": "C38254", "definition": "Administration within the meninges (the three membranes that envelope the brain and spinal cord). (FDA)", "preferredTerm": "Intrameningeal Route of Administration", "submissionValue": "INTRAMENINGEAL"}, {"conceptId": "C28161", "definition": "Administration within a muscle. (FDA)", "preferredTerm": "Intramuscular Route of Administration", "submissionValue": "INTRAMUSCULAR"}, {"conceptId": "C79141", "definition": "Administration within a lymph node.", "preferredTerm": "Intranodal Route of Administration", "submissionValue": "INTRANODAL"}, {"conceptId": "C38255", "definition": "Administration within the eye. (FDA)", "preferredTerm": "Intraocular Route of Administration", "submissionValue": "INTRAOCULAR"}, {"conceptId": "C64987", "definition": "Administration within the marrow of the bone.", "preferredTerm": "Intraosseous Route of Administration", "submissionValue": "INTRAOSSEOUS"}, {"conceptId": "C38256", "definition": "Administration within the ovary. (FDA)", "preferredTerm": "Intraovarian Route of Administration", "submissionValue": "INTRAOVARIAN"}, {"conceptId": "C102400", "definition": "Administration into the palate.", "preferredTerm": "Intrapalatal Route of Administration", "submissionValue": "INTRAPALATAL"}, {"conceptId": "C119548", "definition": "Administration within or into the parenchyma of a targeted organ.", "preferredTerm": "Intraparenchymal Route of Administration", "submissionValue": "INTRAPARENCHYMAL"}, {"conceptId": "C38257", "definition": "Administration within the pericardium. (FDA)", "preferredTerm": "Intrapericardial Route of Administration", "submissionValue": "INTRAPERICARDIAL"}, {"conceptId": "C38258", "definition": "Administration within the peritoneal cavity. (FDA)", "preferredTerm": "Intraperitoneal Route of Administration", "submissionValue": "INTRAPERITONEAL"}, {"conceptId": "C38259", "definition": "Administration within the pleura. (FDA)", "preferredTerm": "Intrapleural Route of Administration", "submissionValue": "INTRAPLEURAL"}, {"conceptId": "C38260", "definition": "Administration within the prostate gland. (FDA)", "preferredTerm": "Intraprostatic Route of Administration", "submissionValue": "INTRAPROSTATIC"}, {"conceptId": "C38261", "definition": "Administration within the lungs or its bronchi. (FDA)", "preferredTerm": "Intrapulmonary Route of Administration", "submissionValue": "INTRAPULMONARY"}, {"conceptId": "C38262", "definition": "Administration within the nasal or periorbital sinuses. (FDA)", "preferredTerm": "Intrasinal Route of Administration", "submissionValue": "INTRASINAL"}, {"conceptId": "C38263", "definition": "Administration within the vertebral column. (FDA)", "preferredTerm": "Intraspinal Route of Administration", "submissionValue": "INTRASPINAL"}, {"conceptId": "C65138", "definition": "Administration into a stoma.", "preferredTerm": "Administration via Stoma", "submissionValue": "INTRASTOMAL"}, {"conceptId": "C38264", "definition": "Administration within the synovial cavity of a joint. (FDA)", "preferredTerm": "Intrasynovial Route of Administration", "submissionValue": "INTRASYNOVIAL"}, {"conceptId": "C38265", "definition": "Administration within a tendon. (FDA)", "preferredTerm": "Intratendinous Route of Administration", "submissionValue": "INTRATENDINOUS"}, {"conceptId": "C38266", "definition": "Administration within the testicle. (FDA)", "preferredTerm": "Intratesticular Route of Administration", "submissionValue": "INTRATESTICULAR"}, {"conceptId": "C128995", "definition": "Administration within the thalamus.", "preferredTerm": "Intrathalamic Route of Administration", "submissionValue": "INTRATHALAMIC"}, {"conceptId": "C38267", "definition": "Administration within the cerebrospinal fluid at any level of the cerebrospinal axis, including injection into the cerebral ventricles. (FDA)", "preferredTerm": "Intrathecal Route of Administration", "submissionValue": "INTRATHECAL"}, {"conceptId": "C38207", "definition": "Administration within the thorax (internal to the ribs); synonymous with the term endothoracic. (FDA)", "preferredTerm": "Endothoracic Route of Administration", "submissionValue": "INTRATHORACIC"}, {"conceptId": "C38268", "definition": "Administration within the tubules of an organ. (FDA)", "preferredTerm": "Intratubular Route of Administration", "submissionValue": "INTRATUBULAR"}, {"conceptId": "C38269", "definition": "Administration within a tumor. (FDA)", "preferredTerm": "Intratumoral Route of Administration", "submissionValue": "INTRATUMOR", "synonyms": ["Intratumor Route of Administration"]}, {"conceptId": "C38270", "definition": "Administration within the auris media. (FDA)", "preferredTerm": "Intratympanic Route of Administration", "submissionValue": "INTRATYMPANIC"}, {"conceptId": "C38272", "definition": "Administration within the uterus. (FDA)", "preferredTerm": "Intrauterine Route of Administration", "submissionValue": "INTRAUTERINE"}, {"conceptId": "C128996", "definition": "Administration within the vagina.", "preferredTerm": "Intravaginal Route of Administration", "submissionValue": "INTRAVAGINAL"}, {"conceptId": "C38273", "definition": "Administration within a vessel or vessels. (FDA)", "preferredTerm": "Intravascular Route of Administration", "submissionValue": "INTRAVASCULAR"}, {"conceptId": "C38276", "definition": "Administration within or into a vein or veins. (FDA)", "preferredTerm": "Intravenous Route of Administration", "submissionValue": "INTRAVENOUS"}, {"conceptId": "C38274", "definition": "Administration within or into a vein or veins all at once. (FDA)", "preferredTerm": "Intravenous Bolus", "submissionValue": "INTRAVENOUS BOLUS"}, {"conceptId": "C38279", "definition": "Administration within or into a vein or veins over a sustained period of time. (FDA)", "preferredTerm": "Intravenous Drip", "submissionValue": "INTRAVENOUS DRIP"}, {"conceptId": "C38277", "definition": "Administration within a ventricle. (FDA)", "preferredTerm": "Intraventricular Route of Administration", "submissionValue": "INTRAVENTRICULAR"}, {"conceptId": "C38278", "definition": "Administration within the bladder. (FDA)", "preferredTerm": "Intravesical Route of Administration", "submissionValue": "INTRAVESICAL"}, {"conceptId": "C38280", "definition": "Administration within the vitreous body of the eye. (FDA)", "preferredTerm": "Intravitreal Route of Administration", "submissionValue": "INTRAVITREAL"}, {"conceptId": "C38203", "definition": "Administration by means of an electric current where ions of soluble salts migrate into the tissues of the body. (FDA)", "preferredTerm": "Iontophoresis Route of Administration", "submissionValue": "IONTOPHORESIS"}, {"conceptId": "C38281", "definition": "Administration to bathe or flush open wounds or body cavities. (FDA)", "preferredTerm": "Irrigation-Route of Administration", "submissionValue": "IRRIGATION"}, {"conceptId": "C38282", "definition": "Administration directly upon the larynx. (FDA)", "preferredTerm": "Laryngeal Route of Administration", "submissionValue": "LARYNGEAL"}, {"conceptId": "C38284", "definition": "Administration to the nose; administered by way of the nose. (FDA)", "preferredTerm": "Nasal Route of Administration", "submissionValue": "NASAL", "synonyms": ["Intranasal Route of Administration"]}, {"conceptId": "C38285", "definition": "Administration through the nose and into the stomach, usually by means of a tube. (FDA)", "preferredTerm": "Nasogastric Route of Administration", "submissionValue": "NASOGASTRIC"}, {"conceptId": "C48623", "definition": "Routes of administration are not applicable. (FDA)", "preferredTerm": "Route of Administration Not Applicable", "submissionValue": "NOT APPLICABLE"}, {"conceptId": "C38286", "definition": "Administration by the topical route which is then covered by a dressing which occludes the area. (FDA)", "preferredTerm": "Occlusive Dressing Technique", "submissionValue": "OCCLUSIVE DRESSING TECHNIQUE"}, {"conceptId": "C38287", "definition": "Administration to the external eye. (FDA)", "preferredTerm": "Ophthalmic Route of Administration", "submissionValue": "OPHTHALMIC"}, {"conceptId": "C38288", "definition": "Administration to or by way of the mouth. (FDA)", "preferredTerm": "Oral Route of Administration", "submissionValue": "ORAL", "synonyms": ["Intraoral Route of Administration", "PO"]}, {"conceptId": "C78374", "definition": "Administration through the mouth and into the stomach, usually by means of a tube. (NCI)", "preferredTerm": "Oral Gavage Route of Administration", "submissionValue": "ORAL GAVAGE"}, {"conceptId": "C64906", "definition": "Administration across the mucosa of the oral cavity.", "preferredTerm": "Oromucosal Route of Administration", "submissionValue": "OROMUCOSAL"}, {"conceptId": "C38289", "definition": "Administration directly to the mouth and pharynx. (FDA)", "preferredTerm": "Oropharyngeal Route of Administration", "submissionValue": "OROPHARYNGEAL"}, {"conceptId": "C38291", "definition": "Administration by injection, infusion, or implantation. (FDA)", "preferredTerm": "Parenteral Route of Administration", "submissionValue": "PARENTERAL"}, {"conceptId": "C38676", "definition": "Administration through the skin. (FDA)", "preferredTerm": "Percutaneous Route of Administration", "submissionValue": "PERCUTANEOUS"}, {"conceptId": "C38292", "definition": "Administration around a joint. (FDA)", "preferredTerm": "Periarticular Route of Administration", "submissionValue": "PERIARTICULAR"}, {"conceptId": "C38677", "definition": "Administration to the outside of the dura mater of the spinal cord. (FDA)", "preferredTerm": "Peridural Route of Administration", "submissionValue": "PERIDURAL"}, {"conceptId": "C38293", "definition": "Administration surrounding a nerve or nerves. (FDA)", "preferredTerm": "Perineural Route of Administration", "submissionValue": "PERINEURAL"}, {"conceptId": "C38294", "definition": "Administration around a tooth. (FDA)", "preferredTerm": "Periodontal Route of Administration", "submissionValue": "PERIODONTAL"}, {"conceptId": "C112396", "definition": "Administration into the area surrounding a vein. (NCI)", "preferredTerm": "Perivenous Route of Administration", "submissionValue": "PERIVENOUS"}, {"conceptId": "C38295", "definition": "Administration to the rectum. (FDA)", "preferredTerm": "Rectal Route of Administration", "submissionValue": "RECTAL"}, {"conceptId": "C38216", "definition": "Administration within the respiratory tract by inhaling orally or nasally for local or systemic effect. (FDA)", "preferredTerm": "Inhalation Route of Administration", "submissionValue": "RESPIRATORY (INHALATION)"}, {"conceptId": "C38296", "definition": "Administration behind the pons or behind the eyeball. (FDA)", "preferredTerm": "Retrobulbar Route of Administration", "submissionValue": "RETROBULBAR"}, {"conceptId": "C38198", "definition": "Administration into any soft tissue. (FDA)", "preferredTerm": "Soft Tissue Route of Administration", "submissionValue": "SOFT TISSUE"}, {"conceptId": "C38297", "definition": "Administration beneath the arachnoid. (FDA)", "preferredTerm": "Subarachnoid Route of Administration", "submissionValue": "SUBARACHNOID"}, {"conceptId": "C38298", "definition": "Administration beneath the conjunctiva. (FDA)", "preferredTerm": "Subconjunctival Route of Administration", "submissionValue": "SUBCONJUNCTIVAL"}, {"conceptId": "C38299", "definition": "Administration beneath the skin; hypodermic. Synonymous with the term SUBDERMAL. (FDA)", "preferredTerm": "Subcutaneous Route of Administration", "submissionValue": "SUBCUTANEOUS", "synonyms": ["SC", "Subdermal Route of Administration"]}, {"conceptId": "C38300", "definition": "Administration beneath the tongue. (FDA)", "preferredTerm": "Sublingual Route of Administration", "submissionValue": "SUBLINGUAL"}, {"conceptId": "C38301", "definition": "Administration beneath the mucous membrane. (FDA)", "preferredTerm": "Submucosal Route of Administration", "submissionValue": "SUBMUCOSAL"}, {"conceptId": "C79143", "definition": "Administration beneath the retina.", "preferredTerm": "Subretinal Route of Administration", "submissionValue": "SUBRETINAL"}, {"conceptId": "C94636", "definition": "Administration by injection through the membrane covering the muscles and nerves at the back of the eyeball.", "preferredTerm": "Subtenon Route of Administration", "submissionValue": "SUBTENON"}, {"conceptId": "C128997", "definition": "Administration above the choroid.", "preferredTerm": "Suprachoroidal Route of Administration", "submissionValue": "SUPRACHOROIDAL"}, {"conceptId": "C38304", "definition": "Administration to a particular spot on the outer surface of the body. The E2B term TRANSMAMMARY is a subset of the term TOPICAL. (FDA)", "preferredTerm": "Topical Route of Administration", "submissionValue": "TOPICAL", "synonyms": ["TOP"]}, {"conceptId": "C38305", "definition": "Administration through the dermal layer of the skin to the systemic circulation by diffusion. (FDA)", "preferredTerm": "Transdermal Route of Administration", "submissionValue": "TRANSDERMAL"}, {"conceptId": "C111326", "definition": "Administration by ingestion of colostrum or breast milk.", "preferredTerm": "Transmammary Route of Administration", "submissionValue": "TRANSMAMMARY"}, {"conceptId": "C38283", "definition": "Administration across the mucosa. (FDA)", "preferredTerm": "Mucosal Route of Administration", "submissionValue": "TRANSMUCOSAL"}, {"conceptId": "C38307", "definition": "Administration through or across the placenta. (FDA)", "preferredTerm": "Transplacental Route of Administration", "submissionValue": "TRANSPLACENTAL"}, {"conceptId": "C38308", "definition": "Administration through the wall of the trachea. (FDA)", "preferredTerm": "Transtracheal Route of Administration", "submissionValue": "TRANSTRACHEAL"}, {"conceptId": "C38309", "definition": "Administration across or through the tympanic cavity. (FDA)", "preferredTerm": "Transtympanic Route of Administration", "submissionValue": "TRANSTYMPANIC"}, {"conceptId": "C38310", "definition": "Route of administration has not yet been assigned. (FDA)", "preferredTerm": "Unassigned Route of Administration", "submissionValue": "UNASSIGNED"}, {"conceptId": "C38311", "definition": "Route of administration is unknown. (FDA)", "preferredTerm": "Unknown Route of Administration", "submissionValue": "UNKNOWN"}, {"conceptId": "C38312", "definition": "Administration into the ureter. (FDA)", "preferredTerm": "Ureteral Route of Administration", "submissionValue": "URETERAL"}, {"conceptId": "C38271", "definition": "Administration into the urethra. (FDA)", "preferredTerm": "Intraurethral Route of Administration", "submissionValue": "URETHRAL"}, {"conceptId": "C38313", "definition": "Administration into the vagina. (FDA)", "preferredTerm": "Vaginal Route of Administration", "submissionValue": "VAGINAL"}]}