{"_links": {"parentPackage": {"href": "/mdr/ct/packages/sdtmct-2017-03-31", "title": "SDTM Controlled Terminology Package 29 Effective 2017-03-31", "type": "Terminology"}, "priorVersion": {"href": "/mdr/ct/packages/sdtmct-2016-12-16/codelists/C99077", "title": "CDISC SDTM Study Type Terminology", "type": "Code List"}, "rootItem": {"href": "/mdr/root/ct/sdtmct/codelists/C99077", "title": "Version-agnostic anchor resource for codelist C99077", "type": "Root Value Domain"}, "self": {"href": "/mdr/ct/packages/sdtmct-2017-03-31/codelists/C99077", "title": "CDISC SDTM Study Type Terminology", "type": "Code List"}}, "conceptId": "C99077", "definition": "A terminology codelist relevant to the role the study plays in determining the interventions a subject receives.", "extensible": "false", "name": "Study Type Response", "preferredTerm": "CDISC SDTM Study Type Terminology", "submissionValue": "STYPE", "synonyms": ["Study Type Response"], "terms": [{"conceptId": "C98722", "definition": "Studies that provide a means for obtaining an experimental drug or device for patients who are not adequately treated by existing therapy, who do not meet the eligibility criteria for enrollment, or who are otherwise unable to participate in another clinical study. Expanded Access studies include individual-patient IND, treatment IND, compassionate use, emergency use or continued access.", "preferredTerm": "Expanded Access Study", "submissionValue": "EXPANDED ACCESS"}, {"conceptId": "C98388", "definition": "Studies in which individuals are assigned by an investigator based on a protocol to receive specific interventions. Subjects may receive diagnostic, therapeutic or other types of interventions. The assignment of the intervention may or may not be random. The individuals are then followed and biomedical and/or health outcomes are assessed.", "preferredTerm": "Interventional Study", "submissionValue": "INTERVENTIONAL"}, {"conceptId": "C16084", "definition": "Studies in which biomedical and/or health outcomes are assessed in pre-defined groups of individuals. Subjects in the study may receive diagnostic, therapeutic, or other interventions, but the investigator does not assign specific interventions to the subjects of the study.", "preferredTerm": "Observational Study", "submissionValue": "OBSERVATIONAL"}, {"conceptId": "C129000", "definition": "Observational studies which include an organized system that uses observational methods to collect uniform data (clinical and other) prospectively for a population defined by a particular disorder/disease, condition (including susceptibility to a disorder), or exposure (including products, health care services, and/or procedures) and that serves a predetermined scientific, clinical, or policy purpose. Patient registries may be single purpose or on-going data collection programs that address one or more questions. (AHRQ)", "preferredTerm": "Patient Registry Study", "submissionValue": "PATIENT REGISTRY"}]}