{"_links": {"parentPackage": {"href": "/mdr/ct/packages/sendct-2021-12-17", "title": "SEND Controlled Terminology Package 48 Effective 2021-12-17", "type": "Terminology"}, "priorVersion": {"href": "/mdr/ct/packages/sendct-2021-09-24/codelists/C177911", "title": "CDISC Define-XML Specification Version Terminology", "type": "Code List"}, "rootItem": {"href": "/mdr/root/ct/sendct/codelists/C177911", "title": "Version-agnostic anchor resource for codelist C177911", "type": "Root Value Domain"}, "self": {"href": "/mdr/ct/packages/sendct-2021-12-17/codelists/C177911", "title": "CDISC Define-XML Specification Version Terminology", "type": "Code List"}}, "conceptId": "C177911", "definition": "Terminology related to the version of the Define-XML specification that is in use for the study.", "extensible": "true", "name": "CDISC Define-XML Specification Version", "preferredTerm": "CDISC Define-XML Specification Version Terminology", "submissionValue": "DFXMLVER", "synonyms": ["CDISC Define-XML Specification Version"], "terms": [{"conceptId": "C178063", "definition": "The 1.0 version of the Clinical Data Interchange specifications Consortium (CDISC) Define-XML specification.", "preferredTerm": "CDISC Define-XML Version 1.0", "submissionValue": "DEFINE-XML 1.0"}, {"conceptId": "C178062", "definition": "The 2.0 version of the Clinical Data Interchange specifications Consortium (CDISC) Define-XML specification.", "preferredTerm": "CDISC Define-XML Version 2.0", "submissionValue": "DEFINE-XML 2.0"}, {"conceptId": "C178061", "definition": "The 2.1 version of the Clinical Data Interchange Standards Consortium (CDISC) Define-XML specification.", "preferredTerm": "CDISC Define-XML Version 2.1", "submissionValue": "DEFINE-XML 2.1"}]}