{"_links": {"parentPackage": {"href": "/mdr/ct/packages/sendct-2021-12-17", "title": "SEND Controlled Terminology Package 48 Effective 2021-12-17", "type": "Terminology"}, "priorVersion": {"href": "/mdr/ct/packages/sendct-2021-09-24/codelists/C89980", "title": "CDISC SEND Subject Characteristic Test Name Terminology", "type": "Code List"}, "rootItem": {"href": "/mdr/root/ct/sendct/codelists/C89980", "title": "Version-agnostic anchor resource for codelist C89980", "type": "Root Value Domain"}, "self": {"href": "/mdr/ct/packages/sendct-2021-12-17/codelists/C89980", "title": "CDISC SEND Subject Characteristic Test Name Terminology", "type": "Code List"}}, "conceptId": "C89980", "definition": "Terminology for the test names concerned with the distinguishing qualities or prominent aspect of a person, object, action, process, or substance.", "extensible": "true", "name": "SEND Subject Characteristics Test Name", "preferredTerm": "CDISC SEND Subject Characteristic Test Name Terminology", "submissionValue": "SBCSND", "synonyms": ["SEND Subject Characteristics Test Name"], "terms": [{"conceptId": "C173665", "definition": "A secondary sequence of characters used to identify a subject.", "preferredTerm": "Alternate Subject Identifier", "submissionValue": "Alternate Subject Identifier", "synonyms": ["Alternate Subject Identifier"]}, {"conceptId": "C90383", "definition": "A plan that specifies a diet, amount and schedule of nutritional intake.", "preferredTerm": "Feeding Regimen", "submissionValue": "Feeding Regimen", "synonyms": ["Feeding Regimen"]}, {"conceptId": "C90392", "definition": "The hue of a subject's hair or fur. (NCI)", "preferredTerm": "Hair Coat Color", "submissionValue": "Hair Coat Color", "synonyms": ["Hair Coat Color"]}, {"conceptId": "C158347", "definition": "An indication as to whether the study subject has had its major histocompatibility complex characterized.", "preferredTerm": "Major Histocompatibility Complex Tested Indicator", "submissionValue": "MHC Tested Indicator", "synonyms": ["Major Histocompatibility Complex Tested Indicator", "MHC Tested Indicator"]}, {"conceptId": "C158349", "definition": "An indication as to whether the animal(s) have been neutered.", "preferredTerm": "Neutered Indicator", "submissionValue": "Neutered Indicator", "synonyms": ["Neutered Indicator"]}, {"conceptId": "C90435", "definition": "A distinctive observable characteristic of an object. (NCI)", "preferredTerm": "Physical Marking", "submissionValue": "Physical Marking", "synonyms": ["Physical Marking"]}, {"conceptId": "C158348", "definition": "An indication as to whether the study subject has been in a previous study.", "preferredTerm": "Previous Research Experience Indicator", "submissionValue": "Previous Research Experience Indicator", "synonyms": ["Previous Research Experience Indicator"]}, {"conceptId": "C158346", "definition": "A description of the subject's sexual maturity at the time the subject was neutered.", "preferredTerm": "Sexual Maturity Status at Neutering", "submissionValue": "Sexual Maturity Status at Neutering", "synonyms": ["Sexual Maturity Status at Neutering"]}, {"conceptId": "C158148", "definition": "The capacity of an organism to reproduce via sexual reproduction.", "preferredTerm": "Sexual Maturity Status", "submissionValue": "Sexual Maturity Status", "synonyms": ["Sexual Maturity Status"]}, {"conceptId": "C158350", "definition": "An indication as to whether the subject(s) were telemetered during the study.", "preferredTerm": "Telemeterized Indicator", "submissionValue": "Telemetered Indicator", "synonyms": ["Telemetered Indicator", "Telemeterized Indicator"]}, {"conceptId": "C90473", "definition": "The name of the organization that supplied the test subjects. (NCI)", "preferredTerm": "Test Subject Supplier", "submissionValue": "Test Subject Supplier Name", "synonyms": ["Test Subject Supplier", "Test Subject Supplier Name"]}, {"conceptId": "C90474", "definition": "The geographic location of the organization that supplied the test subjects.", "preferredTerm": "Test Subject Supplier Site", "submissionValue": "Test Subject Supplier Site", "synonyms": ["Test Subject Supplier Site"]}, {"conceptId": "C68551", "definition": "Numeric ID assignment by United States Department of Agriculture for test facilities.", "preferredTerm": "USDA_ID", "submissionValue": "USDA Number", "synonyms": ["USDA Number"]}]}