{"_links": {"parentPackage": {"href": "/mdr/ct/packages/sendct-2023-03-31", "title": "SEND Controlled Terminology Package 53 Effective 2023-03-31", "type": "Terminology"}, "priorVersion": {"href": "/mdr/ct/packages/sendct-2022-12-16/codelists/C124322", "title": "CDISC SEND Pregnancy Findings Result Category Terminology", "type": "Code List"}, "rootItem": {"href": "/mdr/root/ct/sendct/codelists/C124322", "title": "Version-agnostic anchor resource for codelist C124322", "type": "Root Value Domain"}, "self": {"href": "/mdr/ct/packages/sendct-2023-03-31/codelists/C124322", "title": "CDISC SEND Pregnancy Findings Result Category Terminology", "type": "Code List"}}, "conceptId": "C124322", "definition": "Terminology relevant to the classifications of the results for pregnancy findings.", "extensible": "true", "name": "Pregnancy Findings Result Category", "preferredTerm": "CDISC SEND Pregnancy Findings Result Category Terminology", "submissionValue": "PYRESCAT", "synonyms": ["Pregnancy Findings Result Category"], "terms": [{"conceptId": "C82475", "definition": "Observed to be negative for a pregnancy test or not pregnant.", "preferredTerm": "Not Pregnant", "submissionValue": "NOT PREGNANT"}, {"conceptId": "C124295", "definition": "Observed to be or have been pregnant or positive for a pregnancy test.", "preferredTerm": "Pregnant", "submissionValue": "PREGNANT"}, {"conceptId": "C124294", "definition": "A term referring to the lack of definitive criteria for classification of a finding.", "preferredTerm": "Undetermined", "submissionValue": "UNDETERMINED"}]}