{"_links": {"parentPackage": {"href": "/mdr/ct/packages/sendct-2023-03-31", "title": "SEND Controlled Terminology Package 53 Effective 2023-03-31", "type": "Terminology"}, "priorVersion": {"href": "/mdr/ct/packages/sendct-2022-12-16/codelists/C163029", "title": "CDISC SEND Irradiation Field Orientation/Sequence Response Terminology", "type": "Code List"}, "rootItem": {"href": "/mdr/root/ct/sendct/codelists/C163029", "title": "Version-agnostic anchor resource for codelist C163029", "type": "Root Value Domain"}, "self": {"href": "/mdr/ct/packages/sendct-2023-03-31/codelists/C163029", "title": "CDISC SEND Irradiation Field Orientation/Sequence Response Terminology", "type": "Code List"}}, "conceptId": "C163029", "definition": "Terminology relevant to the description of the irradiation field as it pertains to orientation to the body and, when appropriate, the sequencing of exposure(s).", "extensible": "true", "name": "Irradiation Field Orientation/Sequence Response", "preferredTerm": "CDISC SEND Irradiation Field Orientation/Sequence Response Terminology", "submissionValue": "IRORSEQR", "synonyms": ["Irradiation Field Orientation/Sequence Response"], "terms": [{"conceptId": "C163716", "definition": "An irradiation modality in which radiation is applied first in an anteroposterior anatomical plane and then in a posteroanterior anatomical plane.", "preferredTerm": "Anteroposterior/Posteroanterior Sequential Radiotherapy", "submissionValue": "AP/PA SEQUENTIAL", "synonyms": ["AnteriorPosterior-PosteriorAnterior Sequential", "Anteroposterior-Posteroanterior Sequential", "AP-PA Sequential", "APPA Sequential"]}, {"conceptId": "C163717", "definition": "An irradiation modality in which radiation is applied simultaneously in the anteroposterior anatomical plane and in the posteroanterior anatomical plane.", "preferredTerm": "Posteroanterior/Anteroposterior Simultaneous Radiotherapy", "submissionValue": "AP/PA SIMULTANEOUS", "synonyms": ["AnteriorPosterior-PosteriorAnterior Simultaneous", "Anteroposterior-Posteroanterior Simultaneous", "AP-PA Simultaneous", "APPA Simultaneous"]}, {"conceptId": "C163718", "definition": "An irradiation modality in which radiation is applied to each side of the body or body part in a sequential manner.", "preferredTerm": "Bilateral Sequential Radiotherapy", "submissionValue": "BILATERAL SEQUENTIAL"}, {"conceptId": "C163719", "definition": "An irradiation modality in which radiation is applied to both sides of the body or body part at the same time.", "preferredTerm": "Bilateral Simultaneous Radiotherapy", "submissionValue": "BILATERAL SIMULTANEOUS"}]}