{"_links": {"parentPackage": {"href": "/mdr/ct/packages/sendct-2023-03-31", "title": "SEND Controlled Terminology Package 53 Effective 2023-03-31", "type": "Terminology"}, "rootItem": {"href": "/mdr/root/ct/sendct/codelists/C197993", "title": "Version-agnostic anchor resource for codelist C197993", "type": "Root Value Domain"}, "self": {"href": "/mdr/ct/packages/sendct-2023-03-31/codelists/C197993", "title": "CDISC SEND Toxicokinetic Description Response Terminology", "type": "Code List"}}, "conceptId": "C197993", "definition": "Terminology responses describing the designation that subjects within the trial set had samples collected to support toxicokinetic analysis.", "extensible": "false", "name": "Toxicokinetic Description Response", "preferredTerm": "CDISC SEND Toxicokinetic Description Response Terminology", "submissionValue": "TKDESCRS", "synonyms": ["Toxicokinetic Description Response"], "terms": [{"conceptId": "C198410", "definition": "A designation that subjects within the trial set did not have samples collected to support toxicokinetic analysis.", "preferredTerm": "Toxicokinetic Samples Not Taken", "submissionValue": "NON-TK"}, {"conceptId": "C198409", "definition": "A designation that subjects within the trial set had samples collected to support toxicokinetic analysis.", "preferredTerm": "Toxicokinetic Samples Taken", "submissionValue": "TK"}]}