{"_links": {"parentPackage": {"href": "/mdr/ct/packages/sendct-2023-03-31", "title": "SEND Controlled Terminology Package 53 Effective 2023-03-31", "type": "Terminology"}, "rootItem": {"href": "/mdr/root/ct/sendct/codelists/C197996", "title": "Version-agnostic anchor resource for codelist C197996", "type": "Root Value Domain"}, "self": {"href": "/mdr/ct/packages/sendct-2023-03-31/codelists/C197996", "title": "CDISC SEND Developmental Milestone Test Name Terminology", "type": "Code List"}}, "conceptId": "C197996", "definition": "Terminology relevant to the test names that describe developmental milestone observations.", "extensible": "true", "name": "Developmental Milestones Test Name", "preferredTerm": "CDISC SEND Developmental Milestone Test Name Terminology", "submissionValue": "DPTEST", "synonyms": ["Developmental Milestones Test Name"], "terms": [{"conceptId": "C198403", "definition": "An indication as to whether the prepuce has separated from the glans penis.", "preferredTerm": "Preputial Separation Indicator", "submissionValue": "Preputial Separation Indicator", "synonyms": ["Preputial Separation Indicator"]}, {"conceptId": "C198404", "definition": "An indication as to whether the external orifice to the vagina is open.", "preferredTerm": "Vaginal Opening Indicator", "submissionValue": "Vaginal Opening Indicator", "synonyms": ["Vaginal Opening Indicator"]}]}