{"_links": {"parentPackage": {"href": "/mdr/ct/packages/sendct-2023-03-31", "title": "SEND Controlled Terminology Package 53 Effective 2023-03-31", "type": "Terminology"}, "rootItem": {"href": "/mdr/root/ct/sendct/codelists/C197997", "title": "Version-agnostic anchor resource for codelist C197997", "type": "Root Value Domain"}, "self": {"href": "/mdr/ct/packages/sendct-2023-03-31/codelists/C197997", "title": "CDISC SEND Developmental Milestone Test Code Terminology", "type": "Code List"}}, "conceptId": "C197997", "definition": "Terminology relevant to the test codes that describe developmental milestone observations.", "extensible": "true", "name": "Developmental Milestones Test Code", "preferredTerm": "CDISC SEND Developmental Milestone Test Code Terminology", "submissionValue": "DPTESTCD", "synonyms": ["Developmental Milestones Test Code"], "terms": [{"conceptId": "C198403", "definition": "An indication as to whether the prepuce has separated from the glans penis.", "preferredTerm": "Preputial Separation Indicator", "submissionValue": "PPSIND", "synonyms": ["Preputial Separation Indicator"]}, {"conceptId": "C198404", "definition": "An indication as to whether the external orifice to the vagina is open.", "preferredTerm": "Vaginal Opening Indicator", "submissionValue": "VAGOPIND", "synonyms": ["Vaginal Opening Indicator"]}]}