{"_links": {"parentPackage": {"href": "/mdr/ct/packages/sendct-2023-03-31", "title": "SEND Controlled Terminology Package 53 Effective 2023-03-31", "type": "Terminology"}, "rootItem": {"href": "/mdr/root/ct/sendct/codelists/C197994", "title": "Version-agnostic anchor resource for codelist C197994", "type": "Root Value Domain"}, "self": {"href": "/mdr/ct/packages/sendct-2023-03-31/codelists/C197994", "title": "CDISC SEND Pregnancy Status Response Terminology", "type": "Code List"}}, "conceptId": "C197994", "definition": "Terminology relevant for pregnancy status responses.", "extensible": "true", "name": "Pregnancy Status Response", "preferredTerm": "CDISC SEND Pregnancy Status Response Terminology", "submissionValue": "PRGSTARS", "synonyms": ["Pregnancy Status Response"], "terms": [{"conceptId": "C82475", "definition": "Observed to be negative for a pregnancy test or not pregnant.", "preferredTerm": "Not Pregnant", "submissionValue": "NOT PREGNANT"}, {"conceptId": "C124295", "definition": "Observed to be or have been pregnant or positive for a pregnancy test.", "preferredTerm": "Pregnant", "submissionValue": "PREGNANT"}, {"conceptId": "C124294", "definition": "A term referring to the lack of definitive criteria for classification of a finding.", "preferredTerm": "Undetermined", "submissionValue": "UNDETERMINED"}]}