{"_links": {"parentPackage": {"href": "/mdr/ct/packages/sendct-2023-03-31", "title": "SEND Controlled Terminology Package 53 Effective 2023-03-31", "type": "Terminology"}, "rootItem": {"href": "/mdr/root/ct/sendct/codelists/C197995", "title": "Version-agnostic anchor resource for codelist C197995", "type": "Root Value Domain"}, "self": {"href": "/mdr/ct/packages/sendct-2023-03-31/codelists/C197995", "title": "CDISC SEND Pregnancy Outcome Response Terminology", "type": "Code List"}}, "conceptId": "C197995", "definition": "Terminology relevant for pregnancy outcome responses.", "extensible": "true", "name": "Pregnancy Outcome Response", "preferredTerm": "CDISC SEND Pregnancy Outcome Response Terminology", "submissionValue": "PRGOUTRS", "synonyms": ["Pregnancy Outcome Response"], "terms": [{"conceptId": "C124616", "definition": "Loss of all or part of the products of conception prior to the scheduled c-section date or expected delivery date.", "preferredTerm": "Experimental Organism Aborted", "submissionValue": "ABORTED"}, {"conceptId": "C124617", "definition": "A birth event that occurs prior to the scheduled c-section date or expected delivery date.", "preferredTerm": "Early Delivery of Experimental Organism", "submissionValue": "EARLY DELIVERY"}, {"conceptId": "C198405", "definition": "A pregnancy result for a female that had one to many live births.", "preferredTerm": "Live Litter", "submissionValue": "LIVE LITTER"}, {"conceptId": "C124618", "definition": "A pregnancy result for a female that had all intrauterine deaths.", "preferredTerm": "Resorbed or Dead Litter", "submissionValue": "RESORBED OR DEAD LITTER"}]}