{"_links": {"parentPackage": {"href": "/mdr/ct/packages/sendct-2023-03-31", "title": "SEND Controlled Terminology Package 53 Effective 2023-03-31", "type": "Terminology"}, "priorVersion": {"href": "/mdr/ct/packages/sendct-2022-12-16/codelists/C65047", "title": "CDISC SDTM Laboratory Test Code Terminology", "type": "Code List"}, "rootItem": {"href": "/mdr/root/ct/sendct/codelists/C65047", "title": "Version-agnostic anchor resource for codelist C65047", "type": "Root Value Domain"}, "self": {"href": "/mdr/ct/packages/sendct-2023-03-31/codelists/C65047", "title": "CDISC SDTM Laboratory Test Code Terminology", "type": "Code List"}}, "conceptId": "C65047", "definition": "Terminology used for laboratory test codes of the CDISC Study Data Tabulation Model.", "extensible": "true", "name": "Laboratory Test Code", "preferredTerm": "CDISC SDTM Laboratory Test Code Terminology", "submissionValue": "LBTESTCD", "synonyms": ["Laboratory Test Code"], "terms": [{"conceptId": "C100429", "definition": "A measurement of the alpha-1 acid glycoprotein in a biological specimen.", "preferredTerm": "Alpha-1 Acid Glycoprotein Measurement", "submissionValue": "A1AGLP", "synonyms": ["Alpha-1 Acid Glycoprotein"]}, {"conceptId": "C181404", "definition": "A measurement of the functional alpha-1 antitrypsin in a biological specimen.", "preferredTerm": "Functional Alpha-1 Antitrypsin Measurement", "submissionValue": "A1ANTRPF", "synonyms": ["Alpha-1 Antitrypsin, Functional"]}, {"conceptId": "C80167", "definition": "A measurement of the alpha-1 antitrypsin in a biological specimen.", "preferredTerm": "Alpha-1 Antitrypsin Measurement", "submissionValue": "A1ANTRYP", "synonyms": ["Alpha-1 Antitrypsin", "Serum Trypsin Inhibitor"]}, {"conceptId": "C186022", "definition": "A measurement of the amount of alpha-1 microglobulin being excreted in a biological specimen over a defined amount of time (e.g. one hour).", "preferredTerm": "Alpha-1 Microglobulin Excretion Rate Measurement", "submissionValue": "A1MCGEXR", "synonyms": ["Alpha-1 Microglobulin Excretion Rate"]}, {"conceptId": "C100462", "definition": "A relative measurement (ratio or percentage) of the alpha-1 microglobulin to creatinine in a biological specimen.", "preferredTerm": "Alpha-1 Microglobulin to Creatinine Ratio Measurement", "submissionValue": "A1MCREAT", "synonyms": ["Alpha-1 Microglobulin/Creatinine"]}, {"conceptId": "C100461", "definition": "A measurement of the alpha-1 microglobulin in a biological specimen.", "preferredTerm": "Alpha-1 Microglobulin Measurement", "submissionValue": "A1MICG", "synonyms": ["Alpha-1 Microglobulin", "Protein HC"]}, {"conceptId": "C80168", "definition": "A measurement of the alpha-2 macroglobulin in a biological specimen.", "preferredTerm": "Alpha-2 Macroglobulin Measurement", "submissionValue": "A2MACG", "synonyms": ["Alpha-2 Macroglobulin"]}, {"conceptId": "C172524", "definition": "A measurement of the 7-alpha-hydroxy-4-cholesten-3-one in a biological specimen.", "preferredTerm": "7-alpha-Hydroxy-4-cholesten-3-one Measurement", "submissionValue": "A73OXC", "synonyms": ["7-Alpha hydroxy-4-cholesten-3-one", "7-alpha-Hydroxy-4-cholesten-3-one"]}, {"conceptId": "C154761", "definition": "A measurement of the alpha-aminoadipic acid in a biological specimen.", "preferredTerm": "Alpha-Aminoadipic Acid Measurement", "submissionValue": "AAMAPAC", "synonyms": ["Alpha-Aminoadipate", "Alpha-Aminoadipic Acid"]}, {"conceptId": "C154759", "definition": "A measurement of the alpha-aminobutyric acid in a biological specimen.", "preferredTerm": "Alpha-Aminobutyric Acid Measurement", "submissionValue": "AAMBTAC", "synonyms": ["Alpha-aminobutyrate", "Alpha-Aminobutyric Acid", "Homoalanine"]}, {"conceptId": "C100430", "definition": "A measurement of the alanine aminopeptidase in a biological specimen.", "preferredTerm": "Alanine Aminopeptidase Measurement", "submissionValue": "AAP", "synonyms": ["Alanine Aminopeptidase"]}, {"conceptId": "C189527", "definition": "A measurement of the polymers of Z-variant alpha-1 antitrypsin in a biological specimen.", "preferredTerm": "Alpha-1 Antitrypsin Z-Polymer Measurement", "submissionValue": "AATZPL", "synonyms": ["AAT Z-Polymer", "Alpha-1 Antitrypsin Z-Polymer"]}, {"conceptId": "C184526", "definition": "A measurement of the synthetic cannabinoid AB-FUBINACA in a biological specimen.", "preferredTerm": "AB-FUBINACA Measurement", "submissionValue": "ABFBCA", "synonyms": ["AB-FUBINACA"]}, {"conceptId": "C111124", "definition": "A measurement of the abnormal cells in a biological specimen.", "preferredTerm": "Abnormal Cell Count", "submissionValue": "ABNCE", "synonyms": ["Abnormal Cells"]}, {"conceptId": "C150835", "definition": "A relative measurement (ratio or percentage) of abnormal cells to total cells in a biological specimen.", "preferredTerm": "Abnormal Cells to Total Cells Ratio Measurement", "submissionValue": "ABNCECE", "synonyms": ["Abnormal Cells/Total Cells"]}, {"conceptId": "C150834", "definition": "A relative measurement (ratio or percentage) of abnormal cells to leukocytes in a biological specimen.", "preferredTerm": "Abnormal Cells to Leukocytes Ratio Measurement", "submissionValue": "ABNCELE", "synonyms": ["Abnormal Cells/Leukocytes"]}, {"conceptId": "C125939", "definition": "The characterization of the blood type of an individual by testing for the presence of A antigen and B antigen on the surface of red blood cells.", "preferredTerm": "ABO Blood Group Determination", "submissionValue": "ABO", "synonyms": ["ABO Blood Group"]}, {"conceptId": "C135397", "definition": "The characterization of the ABO blood group A1 subtype in an individual. (NCI)", "preferredTerm": "ABO A1 Subtype Determination", "submissionValue": "ABOA1", "synonyms": ["ABO A1 Subtype"]}, {"conceptId": "C184527", "definition": "A measurement of the synthetic cannabinoid AB-PINACA in a biological specimen.", "preferredTerm": "AB-PINACA Measurement", "submissionValue": "ABPNCA", "synonyms": ["AB-PINACA"]}, {"conceptId": "C74699", "definition": "A measurement of the acanthocytes in a biological specimen.", "preferredTerm": "Acanthocyte Count", "submissionValue": "ACANT", "synonyms": ["Acanthocytes"]}, {"conceptId": "C74633", "definition": "A relative measurement (ratio or percentage) of acanthocytes to all erythrocytes in a biological specimen.", "preferredTerm": "Acanthocyte to Erythrocyte Ratio Measurement", "submissionValue": "ACANTRBC", "synonyms": ["Acanthocytes/Erythrocytes"]}, {"conceptId": "C80169", "definition": "A measurement of the angiotensin converting enzyme in a biological specimen.", "preferredTerm": "Angiotensin Converting Enzyme Measurement", "submissionValue": "ACE", "synonyms": ["Angiotensin Converting Enzyme"]}, {"conceptId": "C135398", "definition": "A measurement of the acetaminophen in a biological specimen.", "preferredTerm": "Acetaminophen Measurement", "submissionValue": "ACETAMIN", "synonyms": ["Acetaminophen", "Paracetamol"]}, {"conceptId": "C92247", "definition": "A measurement of the acetoacetic acid in a biological specimen.", "preferredTerm": "Acetoacetic Acid Measurement", "submissionValue": "ACETOAC", "synonyms": ["Acetoacetate", "Acetoacetic Acid"]}, {"conceptId": "C147288", "definition": "A measurement of the acetone in a biological specimen.", "preferredTerm": "Acetone Measurement", "submissionValue": "ACETONE", "synonyms": ["Acetone"]}, {"conceptId": "C74838", "definition": "A measurement of the acetylcholine hormone in a biological specimen.", "preferredTerm": "Acetylcholine Measurement", "submissionValue": "ACH", "synonyms": ["Acetylcholine"]}, {"conceptId": "C96560", "definition": "A measurement of the acetylcholinesterase in a biological specimen.", "preferredTerm": "Acetylcholinesterase Measurement", "submissionValue": "ACHE", "synonyms": ["Acetylcholinesterase"]}, {"conceptId": "C96559", "definition": "A measurement of the acetylcholine receptor antibody in a biological specimen.", "preferredTerm": "Acetylcholine Receptor Antibody Measurement", "submissionValue": "ACHRAB", "synonyms": ["Acetylcholine Receptor Antibody"]}, {"conceptId": "C80163", "definition": "A measurement of the acid phosphatase in a biological specimen.", "preferredTerm": "Acid Phosphatase Measurement", "submissionValue": "ACPHOS", "synonyms": ["Acid Phosphatase"]}, {"conceptId": "C147289", "definition": "A relative measurement (ratio or percentage) of the acylcarnitine to free carnitine in a biological specimen.", "preferredTerm": "Acylcarnitine to Free Carnitine Ratio Measurement", "submissionValue": "ACRNCRNF", "synonyms": ["Acylcarnitine/Carnitine, Free"]}, {"conceptId": "C189522", "definition": "A measurement of the acid sphingomyelinase in a biological specimen.", "preferredTerm": "Sphingomyelin Phosphodiesterase Measurement", "submissionValue": "ACSPGM", "synonyms": ["Acid Sphingomyelinase"]}, {"conceptId": "C103348", "definition": "A measurement of the inhibition of blood coagulation in response to anticoagulant therapies.", "preferredTerm": "Activated Coagulation Time", "submissionValue": "ACT", "synonyms": ["Activated Clotting Time", "Activated Coagulation Time"]}, {"conceptId": "C189521", "definition": "A measurement of the amount of acetoacetic acid being excreted in a biological specimen over a defined period of time (e.g. one hour).", "preferredTerm": "Acetoacetic Acid Excretion Rate Measurement", "submissionValue": "ACTACEXR", "synonyms": ["Acetoacetate Excretion Rate", "Acetoacetic Acid Excretion Rate"]}, {"conceptId": "C184510", "definition": "A measurement of the beta-actin in a biological specimen.", "preferredTerm": "Beta-Actin Measurement", "submissionValue": "ACTB", "synonyms": ["Actin Beta", "B-Actin", "Beta-Actin"]}, {"conceptId": "C74780", "definition": "A measurement of the adrenocorticotropic hormone in a biological specimen.", "preferredTerm": "Adrenocorticotropic Hormone Measurement", "submissionValue": "ACTH", "synonyms": ["Adrenocorticotropic Hormone", "Corticotropin"]}, {"conceptId": "C156535", "definition": "A measurement of the acylcarnitine in a biological specimen.", "preferredTerm": "Acylcarnitine Measurement", "submissionValue": "ACYCRNTN", "synonyms": ["Acylcarnitine"]}, {"conceptId": "C156534", "definition": "A measurement of the acylglycine in a biological specimen.", "preferredTerm": "Acylglycine Measurement", "submissionValue": "ACYGLYCN", "synonyms": ["Acylglycine"]}, {"conceptId": "C92286", "definition": "A measurement of the acyl coenzyme A oxidase in a biological specimen.", "preferredTerm": "Acyl Coenzyme A Oxidase Measurement", "submissionValue": "ACYLCAOX", "synonyms": ["Acyl CoA Oxidase", "Acyl Coenzyme A Oxidase", "Fatty Acyl Coenzyme A Oxidase"]}, {"conceptId": "C147290", "definition": "A measurement of the ADAM metallopeptidase domain 8 protein in a biological specimen.", "preferredTerm": "ADAM Metallopeptidase Domain 8 Measurement", "submissionValue": "ADAM8", "synonyms": ["A Disintegrin And Metalloproteinase Domain 8", "ADAM Metallopeptidase Domain 8", "CD156a Antigen"]}, {"conceptId": "C187684", "definition": "A measurement of the von Willebrand coagulation factor cleaving protease, ADAMTS13, in a biological specimen.", "preferredTerm": "von Willebrand Coagulation Factor Cleaving Protease Measurement", "submissionValue": "ADAMTS13", "synonyms": ["A Disintegrin-Like And Metalloprotease (Reprolysin Type) With Thrombospondin Type 1 Motif, 13", "ADAM Metallopeptidase With Thrombospondin Type 1 Motif 13", "von Willebrand Coagulation Factor Cleaving Protease ADAMTS13"]}, {"conceptId": "C184529", "definition": "A measurement of the synthetic cannabinoid ADB-PINACA in a biological specimen.", "preferredTerm": "ADB-PINACA Measurement", "submissionValue": "ADBPNCA", "synonyms": ["ADB-PINACA"]}, {"conceptId": "C74847", "definition": "A measurement of the antidiuretic hormone in a biological specimen.", "preferredTerm": "Antidiuretic Hormone Measurement", "submissionValue": "ADH", "synonyms": ["Antidiuretic Hormone", "Vasopressin"]}, {"conceptId": "C158233", "definition": "A measurement of asymmetric dimethylarginine in a biological specimen.", "preferredTerm": "Asymmetric Dimethylarginine Measurement", "submissionValue": "ADMA", "synonyms": ["Asymmetric Dimethylarginine", "N,N-dimethylarginine"]}, {"conceptId": "C187830", "definition": "A measurement of the biological activity of von Willebrand coagulation factor cleaving protease, ADAMTS13, in a biological specimen.", "preferredTerm": "von Willebrand Coagulation Factor Cleaving Protease Activity Measurement", "submissionValue": "ADMTS13A", "synonyms": ["A Disintegrin-Like And Metalloprotease (Reprolysin Type) With Thrombospondin Type 1 Motif, 13 Activity", "ADAM Metallopeptidase With Thrombospondin Type 1 Motif 13 Activity", "ADAMTS13 Activity", "von Willebrand Coagulation Factor Cleaving Protease ADAMTS13 Activity"]}, {"conceptId": "C102257", "definition": "A measurement of the adenosine diphosphate in a biological specimen.", "preferredTerm": "Adenosine Diphosphate Measurement", "submissionValue": "ADP", "synonyms": ["Adenosine Diphosphate"]}, {"conceptId": "C74839", "definition": "A measurement of the total adiponectin hormone in a biological specimen.", "preferredTerm": "Adiponectin Measurement", "submissionValue": "ADPNCTN", "synonyms": ["Adiponectin"]}, {"conceptId": "C132363", "definition": "A measurement of the high molecular weight adiponectin hormone in a biological specimen.", "preferredTerm": "High Molecular Weight Adiponectin Measurement", "submissionValue": "ADPNHMW", "synonyms": ["Adiponectin, High Molecular Weight"]}, {"conceptId": "C74913", "definition": "A measurement of the anti-double stranded DNA antibody in a biological specimen.", "preferredTerm": "Anti-Double Stranded DNA Measurement", "submissionValue": "ADSDNA", "synonyms": ["Anti-Double Stranded DNA"]}, {"conceptId": "C98706", "definition": "A measurement of the ability of antithrombin to inactivate activated Factor X in a biological specimen. This test is used to monitor low molecular weight or unfractionated heparin levels in a biological specimen.", "preferredTerm": "Anti-Factor Xa Activity Measurement", "submissionValue": "AFACTXAA", "synonyms": ["Anti-Factor Xa Activity"]}, {"conceptId": "C74732", "definition": "A measurement of the alpha fetoprotein in a biological specimen.", "preferredTerm": "Alpha-fetoprotein Measurement", "submissionValue": "AFP", "synonyms": ["Alpha Fetoprotein", "Alpha-1-Fetoprotein"]}, {"conceptId": "C147291", "definition": "A measurement of alpha fetoprotein, which has been adjusted for body weight, in a biological specimen.", "preferredTerm": "Alpha Fetoprotein Adjusted for Body Weight Measurement", "submissionValue": "AFPADJBW", "synonyms": ["Alpha Fetoprotein Adj for Body Weight"]}, {"conceptId": "C96562", "definition": "A measurement of the alpha fetoprotein L1 in a biological specimen.", "preferredTerm": "Alpha Fetoprotein L1 Measurement", "submissionValue": "AFPL1", "synonyms": ["Alpha Fetoprotein L1"]}, {"conceptId": "C96563", "definition": "A measurement of the alpha fetoprotein L2 in a biological specimen.", "preferredTerm": "Alpha Fetoprotein L2 Measurement", "submissionValue": "AFPL2", "synonyms": ["Alpha Fetoprotein L2"]}, {"conceptId": "C96564", "definition": "A measurement of the alpha fetoprotein L3 in a biological specimen.", "preferredTerm": "Alpha Fetoprotein L3 Measurement", "submissionValue": "AFPL3", "synonyms": ["Alpha Fetoprotein L3"]}, {"conceptId": "C96565", "definition": "A relative measurement (ratio or percentage) of alpha fetoprotein L3 to total alpha fetoprotein in a biological specimen.", "preferredTerm": "Alpha Fetoprotein L3 to Total Alpha Fetoprotein Ratio Measurement", "submissionValue": "AFPL3AFP", "synonyms": ["A Fetoprotein L3/A Fetoprotein"]}, {"conceptId": "C124334", "definition": "A measurement of the 1,5-anhydroglucitol in a biological specimen.", "preferredTerm": "1,5-Anhydroglucitol Measurement", "submissionValue": "AG1_5", "synonyms": ["1,5-Anhydroglucitol"]}, {"conceptId": "C111126", "definition": "A measurement of the alpha-hydroxybutyrate dehydrogenase in a biological specimen.", "preferredTerm": "Alpha Hydroxybutyrate Dehydrogenase Measurement", "submissionValue": "AHBDH", "synonyms": ["Alpha Hydroxybutyrate Dehydrogenase"]}, {"conceptId": "C181418", "definition": "A measurement of the alpha-hydroxytriazolam a biological specimen.", "preferredTerm": "Alpha-Hydroxytriazolam Measurement", "submissionValue": "AHTRZLM", "synonyms": ["Alpha-Hydroxytriazolam"]}, {"conceptId": "C122091", "definition": "A measurement of the alanine in a biological specimen.", "preferredTerm": "Alanine Measurement", "submissionValue": "ALA", "synonyms": ["Alanine"]}, {"conceptId": "C147292", "definition": "A relative measurement (ratio or percentage) of the Apolipoprotein A1 to Apolipoprotein B in a biological specimen.", "preferredTerm": "Apolipoprotein A1 to Apolipoprotein B Ratio Measurement", "submissionValue": "ALA1ALB", "synonyms": ["Apolipoprotein A1/Apolipoprotein B"]}, {"conceptId": "C158222", "definition": "A relative measurement (ratio) of the total apolipoprotein A to apolipoprotein B in a biological specimen.", "preferredTerm": "Apolipoprotein A to Apolipoprotein B Ratio Measurement", "submissionValue": "ALAALB", "synonyms": ["Apolipoprotein A/Apolipoprotein B"]}, {"conceptId": "C64431", "definition": "A measurement of the albumin protein in a biological specimen.", "preferredTerm": "Albumin Measurement", "submissionValue": "ALB", "synonyms": ["Albumin", "Microalbumin"]}, {"conceptId": "C147293", "definition": "A measurement of the albumin clearance in a biological specimen.", "preferredTerm": "Albumin Clearance", "submissionValue": "ALBC", "synonyms": ["Albumin Clearance"]}, {"conceptId": "C74761", "definition": "A relative measurement (ratio) of the albumin to the creatinine in a biological specimen.", "preferredTerm": "Albumin To Creatinine Protein Ratio Measurement", "submissionValue": "ALBCREAT", "synonyms": ["Albumin/Creatinine", "Microalbumin/Creatinine Ratio"]}, {"conceptId": "C150814", "definition": "A measurement of the amount of albumin excreted in a biological specimen over a defined period of time (e.g. one hour).", "preferredTerm": "Albumin Excretion Rate", "submissionValue": "ALBEXR", "synonyms": ["Albumin Excretion Rate"]}, {"conceptId": "C158228", "definition": "A relative measurement (ratio or percentage) of the glycated albumin to total albumin in a biological specimen.", "preferredTerm": "Glycated Albumin to Albumin Ratio Measurement", "submissionValue": "ALBGALB", "synonyms": ["Glycated Albumin/Albumin", "Glycosylated Albumin/Albumin"]}, {"conceptId": "C74894", "definition": "The ratio of albumin to globulin in a biological specimen.", "preferredTerm": "Albumin to Globulin Ratio Measurement", "submissionValue": "ALBGLOB", "synonyms": ["Albumin/Globulin"]}, {"conceptId": "C122092", "definition": "A measurement of the glycated albumin present in a biological specimen.", "preferredTerm": "Glycated Albumin Measurement", "submissionValue": "ALBGLYCA", "synonyms": ["Glycated Albumin"]}, {"conceptId": "C154734", "definition": "A relative measurement (ratio) of the albumin in cerebrospinal fluid to albumin in serum or plasma in a biological specimen.", "preferredTerm": "Albumin Index", "submissionValue": "ALBIDX", "synonyms": ["Albumin Index"]}, {"conceptId": "C103453", "definition": "A relative measurement (ratio or percentage) of the albumin to total protein in a biological specimen.", "preferredTerm": "Albumin to Total Protein Ratio Measurement", "submissionValue": "ALBPROT", "synonyms": ["Albumin/Total Protein"]}, {"conceptId": "C154743", "definition": "A measurement of the aldrin epoxidase in a biological specimen.", "preferredTerm": "Aldrin Epoxidase Measurement", "submissionValue": "ALDEPX", "synonyms": ["Aldrin Epoxidase"]}, {"conceptId": "C74731", "definition": "A measurement of the aldolase enzyme in a biological specimen.", "preferredTerm": "Aldolase Measurement", "submissionValue": "ALDOLASE", "synonyms": ["Aldolase"]}, {"conceptId": "C74841", "definition": "A measurement of the aldosterone hormone in a biological specimen.", "preferredTerm": "Aldosterone Measurement", "submissionValue": "ALDSTRN", "synonyms": ["Aldosterone"]}, {"conceptId": "C184566", "definition": "A measurement of the alfentanil in a biological specimen.", "preferredTerm": "Alfentanil Measurement", "submissionValue": "ALFNTNL", "synonyms": ["Alfentanil"]}, {"conceptId": "C154762", "definition": "A measurement of the alloisoleucine in a biological specimen.", "preferredTerm": "Alloisoleucine Measurement", "submissionValue": "ALLOILE", "synonyms": ["Alloisoleucine"]}, {"conceptId": "C184519", "definition": "A measurement of the arachidonate 5-lipoxygenase in a biological specimen.", "preferredTerm": "Arachidonate 5-Lipoxygenase Measurement", "submissionValue": "ALOX5", "synonyms": ["5-Lipoxygenase", "5-LO", "5-LOX", "ALOX5", "Arachidonate 5-Lipoxygenase"]}, {"conceptId": "C64432", "definition": "A measurement of the alkaline phosphatase in a biological specimen.", "preferredTerm": "Alkaline Phosphatase Measurement", "submissionValue": "ALP", "synonyms": ["Alkaline Phosphatase"]}, {"conceptId": "C147294", "definition": "A relative measurement (ratio or percentage) of the bone specific alkaline phosphatase isoform to total alkaline phosphatase in a biological specimen.", "preferredTerm": "Bone Alkaline Phosphatase to Total Alkaline Phosphatase Ratio Measurement", "submissionValue": "ALPBALP", "synonyms": ["Alk Phos, Bone/Total Alk Phos", "Alkaline Phosphatase, Bone/Total Alkaline Phosphatase"]}, {"conceptId": "C92287", "definition": "A measurement of the bone specific alkaline phosphatase isoform in a biological specimen.", "preferredTerm": "Bone Specific Alkaline Phosphatase Measurement", "submissionValue": "ALPBS", "synonyms": ["Bone Specific Alkaline Phosphatase"]}, {"conceptId": "C79438", "definition": "A relative measurement (ratio or percentage) of the alkaline phosphatase to creatinine in a biological specimen.", "preferredTerm": "Alkaline Phosphatase to Creatinine Ratio Measurement", "submissionValue": "ALPCREAT", "synonyms": ["Alkaline Phosphatase/Creatinine"]}, {"conceptId": "C165942", "definition": "A measurement of the amount of alkaline phosphatase being excreted in a biological specimen over a defined amount of time (e.g. one hour).", "preferredTerm": "Alkaline Phosphatase Excretion Rate", "submissionValue": "ALPEXR", "synonyms": ["Alkaline Phosphatase Excretion Rate"]}, {"conceptId": "C147295", "definition": "A relative measurement (ratio or percentage) of the intestinal specific alkaline phosphatase isoform to total alkaline phosphatase in a biological specimen.", "preferredTerm": "Intestinal Alkaline Phosphatase to Total Alkaline Phosphatase Ratio Measurement", "submissionValue": "ALPIALP", "synonyms": ["Alk Phos, Intestinal/Total Alk Phos", "Alkaline Phosphatase, Intestinal/Total Alkaline Phosphatase"]}, {"conceptId": "C119266", "definition": "A measurement of the intestinal specific alkaline phosphatase isoform in a biological specimen.", "preferredTerm": "Intestinal Specific Alkaline Phosphatase Measurement", "submissionValue": "ALPIS", "synonyms": ["Intestinal Specific Alkaline Phosphatase"]}, {"conceptId": "C139091", "definition": "A measurement of the alkaline phosphatase isoenzyme in a biological specimen.", "preferredTerm": "Alkaline Phosphatase Isoenzyme Measurement", "submissionValue": "ALPISOE", "synonyms": ["Alkaline Phosphatase Isoenzyme"]}, {"conceptId": "C147296", "definition": "A relative measurement (ratio or percentage) of the liver specific alkaline phosphatase isoform to total alkaline phosphatase in a biological specimen.", "preferredTerm": "Liver Alkaline Phosphatase to Total Alkaline Phosphatase Ratio Measurement", "submissionValue": "ALPLALP", "synonyms": ["Alk Phos, Liver/Total Alk Phos", "Alkaline Phosphatase, Liver/Total Alkaline Phosphatase"]}, {"conceptId": "C189497", "definition": "A relative measurement (ratio or percentage) of the liver and bone specific alkaline phosphatase isoforms to total alkaline phosphatase in a biological specimen.", "preferredTerm": "Liver and Bone Specific Alkaline Phosphatase Isoform to Alkaline Phosphatase Ratio Measurement", "submissionValue": "ALPLBALP", "synonyms": ["Alk Phos, Liver + Bone/Total Alk Phos"]}, {"conceptId": "C119267", "definition": "A measurement of the liver specific alkaline phosphatase isoform in a biological specimen.", "preferredTerm": "Liver Specific Alkaline Phosphatase Measurement", "submissionValue": "ALPLS", "synonyms": ["Liver Specific Alkaline Phosphatase"]}, {"conceptId": "C184508", "definition": "A relative measurement (ratio or percentage) of the placental specific alkaline phosphatase isoform to total alkaline phosphatase in a biological specimen.", "preferredTerm": "Placental Alkaline Phosphatase to Total Alkaline Phosphatase Measurement", "submissionValue": "ALPPALP", "synonyms": ["Alk Phos, Placental/Total Alk Phos", "Alkaline Phosphatase, Placental/Total Alkaline Phosphatase"]}, {"conceptId": "C184509", "definition": "A measurement of the placental specific alkaline phosphatase isoform in a biological specimen.", "preferredTerm": "Placental Specific Alkaline Phosphatase Measurement", "submissionValue": "ALPPS", "synonyms": ["Placental Specific Alkaline Phosphatase"]}, {"conceptId": "C75370", "definition": "A measurement of the alprazolam present in a biological specimen.", "preferredTerm": "Alprazolam Measurement", "submissionValue": "ALPRZLM", "synonyms": ["Alprazolam"]}, {"conceptId": "C163419", "definition": "A measurement of the acid labile subunit in a biological specimen.", "preferredTerm": "Acid Labile Subunit Measurement", "submissionValue": "ALS", "synonyms": ["Acid Labile Subunit", "ALS", "IGFALS", "Insulin Like Growth Factor Binding Protein Acid Labile Subunit"]}, {"conceptId": "C64433", "definition": "A measurement of the alanine aminotransferase in a biological specimen.", "preferredTerm": "Alanine Aminotransferase Measurement", "submissionValue": "ALT", "synonyms": ["Alanine Aminotransferase", "SGPT"]}, {"conceptId": "C106498", "definition": "A relative measurement (ratio or percentage) of the alanine aminotransferase (ALT) to aspartate aminotransferase (AST) present in a sample.", "preferredTerm": "Alanine Aminotransferase to Aspartate Aminotransferase Ratio Measurement", "submissionValue": "ALTAST", "synonyms": ["ALT/AST"]}, {"conceptId": "C103349", "definition": "A measurement of the alpha tocopherol in a biological specimen.", "preferredTerm": "Alpha Tocopherol Measurement", "submissionValue": "ALTCPHRL", "synonyms": ["Alpha Tocopherol"]}, {"conceptId": "C111127", "definition": "A measurement of aluminum in a biological specimen.", "preferredTerm": "Aluminum Measurement", "submissionValue": "ALUMINUM", "synonyms": ["Al", "Aluminum"]}, {"conceptId": "C184539", "definition": "A measurement of the synthetic cannabinoid AM-2201 in a biological specimen.", "preferredTerm": "AM-2201 Measurement", "submissionValue": "AM2201", "synonyms": ["AM-2201", "AM2201"]}, {"conceptId": "C184538", "definition": "A measurement of the synthetic cannabinoid metabolite AM694 N-5-hydroxypentyl in a biological specimen.", "preferredTerm": "AM694 N-5-hydroxypentyl Measurement", "submissionValue": "AM694N5H", "synonyms": ["AM694 N-5-hydroxypentyl"]}, {"conceptId": "C81975", "definition": "A measurement of the antimitochondrial antibodies in a biological specimen.", "preferredTerm": "Antimitochondrial Antibody Measurement", "submissionValue": "AMA", "synonyms": ["Antimitochondrial Antibodies", "Mitochondrial Antibody"]}, {"conceptId": "C147297", "definition": "A relative measurement (ratio or percentage) of the acetylcholine receptor modulation antibody to the total acetylcholine receptor antibodies in a biological specimen.", "preferredTerm": "Acetylcholine Receptor Modulation Antibody to Acetylcholine Receptor Antibody Ratio Measurement", "submissionValue": "AMABARAB", "synonyms": ["ACH Receptor Modulation Antibody/ACH Receptor Antibody", "ACH Receptor Modulatn Ab/ACH Receptor Ab"]}, {"conceptId": "C132364", "definition": "A measurement of the alpha-methylacyl coenzyme A racemase in a biological specimen.", "preferredTerm": "Alpha-Methylacyl Coenzyme A Racemase Measurement", "submissionValue": "AMACR", "synonyms": ["Alpha-Methylacyl Coenzyme A Racemase"]}, {"conceptId": "C75363", "definition": "A measurement of the amobarbital present in a biological specimen.", "preferredTerm": "Amobarbital Measurement", "submissionValue": "AMBRBTL", "synonyms": ["Amobarbital"]}, {"conceptId": "C132365", "definition": "A measurement of the alpha-methylacyl coenzyme A racemase mRNA in a biological specimen.", "preferredTerm": "Alpha-Methylacyl Coenzyme A Racemase mRNA Measurement", "submissionValue": "AMCRMRNA", "synonyms": ["AMACR mRNA"]}, {"conceptId": "C120625", "definition": "A measurement of the anti-Mullerian hormone in a biological specimen.", "preferredTerm": "Anti-Mullerian Hormone Measurement", "submissionValue": "AMH", "synonyms": ["Anti-Mullerian Hormone"]}, {"conceptId": "C186023", "definition": "A measurement of the amitriptyline in a biological specimen.", "preferredTerm": "Amitriptyline Measurement", "submissionValue": "AMITRPTL", "synonyms": ["Amitriptyline"]}, {"conceptId": "C74799", "definition": "A measurement of the ammonia in a biological specimen.", "preferredTerm": "Ammonia Measurement", "submissionValue": "AMMONIA", "synonyms": ["Ammonia", "NH3"]}, {"conceptId": "C186024", "definition": "A measurement of the ammonium ion (NH4+) in a biological specimen.", "preferredTerm": "Ammonium Measurement", "submissionValue": "AMNM", "synonyms": ["Ammonium", "Ammonium Ion", "NH4+"]}, {"conceptId": "C186025", "definition": "A relative measurement (ratio) of ammonium to creatinine in a biological specimen.", "preferredTerm": "Ammonium to Creatinine Ratio Measurement", "submissionValue": "AMNMCRT", "synonyms": ["Ammonium/Creatinine"]}, {"conceptId": "C81183", "definition": "A measurement of the total amino acids in a biological specimen.", "preferredTerm": "Amino Acid Measurement", "submissionValue": "AMNOACID", "synonyms": ["AA", "Amino Acids"]}, {"conceptId": "C74666", "definition": "A measurement of the amorphous sediment present in a biological specimen.", "preferredTerm": "Amorphous Sediment Measurement", "submissionValue": "AMORPHSD", "synonyms": ["Amorphous Debris", "Amorphous Sediment"]}, {"conceptId": "C75347", "definition": "A measurement of the alpha-methylphenethylamine in a biological specimen.", "preferredTerm": "Amphetamine Measurement", "submissionValue": "AMPEA", "synonyms": ["Alpha-Methylphenethylamine", "Amphetamine"]}, {"conceptId": "C74687", "definition": "A measurement of any amphetamine class drug present in a biological specimen.", "preferredTerm": "Amphetamine Drug Class Measurement", "submissionValue": "AMPHET", "synonyms": ["Amphetamine"]}, {"conceptId": "C102262", "definition": "A measurement of the dextroamphetamine in a biological specimen.", "preferredTerm": "Dextroamphetamine Measurement", "submissionValue": "AMPHETD", "synonyms": ["d-amphetamine", "Dextroamphetamine"]}, {"conceptId": "C64434", "definition": "A measurement of the total enzyme amylase in a biological specimen.", "preferredTerm": "Amylase Measurement", "submissionValue": "AMYLASE", "synonyms": ["Amylase"]}, {"conceptId": "C111243", "definition": "A measurement of macroamylase in a biological specimen.", "preferredTerm": "Macroamylase Measurement", "submissionValue": "AMYLASEM", "synonyms": ["Macroamylase"]}, {"conceptId": "C98767", "definition": "A measurement of the pancreatic enzyme amylase in a biological specimen.", "preferredTerm": "Pancreatic Amylase Measurement", "submissionValue": "AMYLASEP", "synonyms": ["Amylase, Pancreatic", "Pancreatic Amylase Isoenzyme"]}, {"conceptId": "C98780", "definition": "A measurement of the salivary enzyme amylase in a biological specimen.", "preferredTerm": "Salivary Amylase Measurement", "submissionValue": "AMYLASES", "synonyms": ["Amylase, Salivary", "Salivary Amylase Isoenzyme"]}, {"conceptId": "C103352", "definition": "A measurement of amyloid beta protein which is composed of peptides 1 to 38 in a biological specimen.", "preferredTerm": "Amyloid Beta 1-38 Measurement", "submissionValue": "AMYLB38", "synonyms": ["Amyloid Beta 1-38", "Amyloid Beta 38", "Amyloid Beta 38 Protein"]}, {"conceptId": "C103353", "definition": "A measurement of amyloid beta protein which is composed of peptides 1 to 40 in a biological specimen.", "preferredTerm": "Amyloid Beta 1-40 Measurement", "submissionValue": "AMYLB40", "synonyms": ["Amyloid Beta 1-40", "Amyloid Beta 40", "Amyloid Beta 40 Protein"]}, {"conceptId": "C184518", "definition": "A measurement of amyloid beta protein which is composed of peptides 1 to 41 in a biological specimen.", "preferredTerm": "Amyloid Beta 1-41 Measurement", "submissionValue": "AMYLB41", "synonyms": ["Amyloid Beta 1-41", "Amyloid Beta 41", "Amyloid Beta 41 Protein"]}, {"conceptId": "C84809", "definition": "A measurement of amyloid beta protein which is composed of peptides 1 to 42 in a biological specimen.", "preferredTerm": "Beta Amyloid 42 Measurement", "submissionValue": "AMYLB42", "synonyms": ["Amyloid Beta 1-42", "Amyloid Beta 42", "Amyloid Beta 42 Protein"]}, {"conceptId": "C125940", "definition": "A measurement of the total amyloid A in a biological specimen.", "preferredTerm": "Amyloid A Measurement", "submissionValue": "AMYLOIDA", "synonyms": ["Amyloid A"]}, {"conceptId": "C81999", "definition": "A measurement of the total amyloid beta in a biological specimen.", "preferredTerm": "Beta Amyloid Measurement", "submissionValue": "AMYLOIDB", "synonyms": ["Amyloid, Beta", "Beta Amyloid"]}, {"conceptId": "C81998", "definition": "A measurement of the total amyloid P in a biological specimen.", "preferredTerm": "Amyloid P Measurement", "submissionValue": "AMYLOIDP", "synonyms": ["Amyloid P", "Amyloid P Component", "SAP", "Serum Amyloid P Component"]}, {"conceptId": "C74916", "definition": "A measurement of the total antinuclear antibodies (antibodies that attack the body's own tissue) in a biological specimen.", "preferredTerm": "Antinuclear Antibody Measurement", "submissionValue": "ANA", "synonyms": ["Antinuclear Antibodies"]}, {"conceptId": "C176313", "definition": "A measurement of the total anti-neutrophil antibody in a biological specimen.", "preferredTerm": "Anti-Neutrophil Antibody Measurement", "submissionValue": "ANAB", "synonyms": ["Anti-Neutrophil Antibody"]}, {"conceptId": "C147298", "definition": "A measurement of the anabasine in a biological specimen.", "preferredTerm": "Anabasine Measurement", "submissionValue": "ANABASN", "synonyms": ["Anabasine"]}, {"conceptId": "C147299", "definition": "A measurement of the alpha-N-acetylglucosaminidase in a biological specimen.", "preferredTerm": "Alpha-N-acetylglucosaminidase Measurement", "submissionValue": "ANAG", "synonyms": ["Alpha-N-acetylglucosaminidase"]}, {"conceptId": "C122093", "definition": "A measurement of the antinuclear IgG antibody in a biological specimen.", "preferredTerm": "Antinuclear IgG Antibody Measurement", "submissionValue": "ANAIGGAB", "synonyms": ["Antinuclear IgG Antibody"]}, {"conceptId": "C120626", "definition": "A measurement of the anti-neutrophil cytoplasmic antibody in a biological specimen.", "preferredTerm": "Anti-Neutrophil Cytoplasmic Antibody Measurement", "submissionValue": "ANCAB", "synonyms": ["Anti-Neutrophil Cytoplasmic Antibody"]}, {"conceptId": "C147300", "definition": "A measurement of the atypical (cytoplasmic staining usually uniform and no interlobular accentuation) neutrophil cytoplasmic antibodies in a biological specimen.", "preferredTerm": "Atypical Neutrophil Cytoplasmic Antibody Measurement", "submissionValue": "ANCATYAB", "synonyms": ["Anti-Neutrophil Cytoplasmic Antibody, Atypical", "Neutrophil Cytoplasmic Ab, Atypical"]}, {"conceptId": "C147301", "definition": "A measurement of the classic (cytoplasmic granular fluorescence with central interlobular accentuation) neutrophil cytoplasmic antibodies in a biological specimen.", "preferredTerm": "Classic Neutrophil Cytoplasmic Antibody Measurement", "submissionValue": "ANCCLSAB", "synonyms": ["Anti-Neutrophil Cytoplasmic Antibody, Classic", "Neutrophil Cytoplasmic Ab, Classic"]}, {"conceptId": "C163420", "definition": "A measurement of the anti-neutrophil cytoplasmic IgG antibody in a biological specimen.", "preferredTerm": "Anti-Neutrophil Cytoplasmic IgG Antibody Measurement", "submissionValue": "ANCIGAB", "synonyms": ["Anti-Neutrophil Cytoplasmic IgG Antibody"]}, {"conceptId": "C147302", "definition": "A measurement of the perinuclear (perinuclear staining without nuclear extension) neutrophil cytoplasmic antibodies in a biological specimen.", "preferredTerm": "Perinuclear Neutrophil Cytoplasmic Antibody Measurement", "submissionValue": "ANCPNCAB", "synonyms": ["Anti-Neutrophil Cytoplasmic Antibody, Perinuclear", "Neutrophil Cytoplasmic Ab, Perinuclear"]}, {"conceptId": "C74842", "definition": "A measurement of the androstenediol metabolite in a biological specimen.", "preferredTerm": "Androstenediol Metabolite Measurement", "submissionValue": "ANDSTNDL", "synonyms": ["Androstenediol"]}, {"conceptId": "C74843", "definition": "A measurement of the androstenedione hormone in a biological specimen.", "preferredTerm": "Androstenedione Measurement", "submissionValue": "ANDSTNDN", "synonyms": ["4-Androstenedione", "Androstenedione"]}, {"conceptId": "C186026", "definition": "A measurement of the androsterone in a biological specimen.", "preferredTerm": "Androsterone Measurement", "submissionValue": "ANDSTRN", "synonyms": ["Androsterone"]}, {"conceptId": "C91372", "definition": "A test that uses Coombs' reagent to detect the presence of anti-erythrocyte antibodies in a biological specimen.", "preferredTerm": "Indirect Antiglobulin Test", "submissionValue": "ANGLBIND", "synonyms": ["Antiglobulin Test, Indirect", "Indirect Coombs Test"]}, {"conceptId": "C81974", "definition": "A measurement of the antibody or complement-coated erythrocytes in a biological specimen in vivo.", "preferredTerm": "Direct Antiglobulin Test", "submissionValue": "ANGLOBDR", "synonyms": ["Antiglobulin Test Polyspecific, Direct", "Antiglobulin Test, Direct", "Direct Coombs Test"]}, {"conceptId": "C111128", "definition": "A measurement of angiopoietin 1 in a biological specimen.", "preferredTerm": "Angiopoietin 1 Measurement", "submissionValue": "ANGPT1", "synonyms": ["Angiopoietin 1"]}, {"conceptId": "C163421", "definition": "A measurement of angiopoietin 2 in a biological specimen.", "preferredTerm": "Angiopoietin 2 Measurement", "submissionValue": "ANGPT2", "synonyms": ["ANG2", "Angiopoietin 2"]}, {"conceptId": "C74844", "definition": "A measurement of the angiotensin I hormone in a biological specimen.", "preferredTerm": "Angiotensin I Measurement", "submissionValue": "ANGTNS1", "synonyms": ["Angiotensin I"]}, {"conceptId": "C74845", "definition": "A measurement of the angiotensin II hormone in a biological specimen.", "preferredTerm": "Angiotensin II Measurement", "submissionValue": "ANGTNS2", "synonyms": ["Angiotensin II"]}, {"conceptId": "C74846", "definition": "A measurement of the angiotensinogen hormone in a biological specimen.", "preferredTerm": "Angiotensinogen Measurement", "submissionValue": "ANGTNSGN", "synonyms": ["Angiotensin Precursor", "Angiotensinogen"]}, {"conceptId": "C74685", "definition": "A computed estimate of the unmeasured anions (those other than the chloride and bicarbonate anions) in a biological specimen.", "preferredTerm": "Anion Gap Measurement", "submissionValue": "ANIONG", "synonyms": ["Anion Gap"]}, {"conceptId": "C147303", "definition": "A computed estimate of the unmeasured anions (computed as sodium minus the chloride and bicarbonate) in a biological specimen.", "preferredTerm": "Anion Gap 3 Measurement", "submissionValue": "ANIONG3", "synonyms": ["Anion Gap 3"]}, {"conceptId": "C147304", "definition": "A computed estimate of the unmeasured anions (computed as the difference between the sum of serum sodium + serum potassium and the sum of the serum bicarbonate+ chloride) in a biological specimen.", "preferredTerm": "Anion Gap 4 Measurement", "submissionValue": "ANIONG4", "synonyms": ["Anion Gap 4"]}, {"conceptId": "C74797", "definition": "A measurement of the variability in the size of the red blood cells in a whole blood specimen.", "preferredTerm": "Anisocyte Measurement", "submissionValue": "ANISO", "synonyms": ["Anisocytes", "Anisocytosis"]}, {"conceptId": "C161354", "definition": "A measurement of the color variation of erythrocytes in a biological specimen.", "preferredTerm": "Anisochromia Measurement", "submissionValue": "ANISOCHR", "synonyms": ["Anisochromia"]}, {"conceptId": "C184568", "definition": "A measurement of the anileridine in a biological specimen.", "preferredTerm": "Anileridine Measurement", "submissionValue": "ANLRDN", "synonyms": ["Anileridine"]}, {"conceptId": "C74886", "definition": "A measurement of the atrial natriuretic peptide in a biological specimen.", "preferredTerm": "Atrial Natriuretic Peptide Measurement", "submissionValue": "ANP", "synonyms": ["Atrial Natriuretic Peptide", "Atriopeptin"]}, {"conceptId": "C172523", "definition": "A measurement of the mid-regional pro-atrial natriuretic peptide in a biological specimen.", "preferredTerm": "Mid-Regional Pro-Atrial Natriuretic Peptide Measurement", "submissionValue": "ANPPROMR", "synonyms": ["Mid-Reg Pro-Atrial Natriuretic Peptide", "Mid-Regional Pro-Atrial Natriuretic Peptide", "MR-proANP", "MRproANP"]}, {"conceptId": "C139088", "definition": "A measurement of the N-terminal proA-type natriuretic peptide in a biological specimen.", "preferredTerm": "N-Terminal ProA-type Natriuretic Peptide Measurement", "submissionValue": "ANPPRONT", "synonyms": ["N-terminal pro-Atrial Natriuretic Peptide", "N-Terminal ProA-type Natriuretic Peptide", "NT proANP II"]}, {"conceptId": "C81958", "definition": "A measurement of the antithrombin activity in a biological specimen.", "preferredTerm": "Antithrombin Activity Measurement", "submissionValue": "ANTHRMA", "synonyms": ["Antithrombin Activity", "Antithrombin III Activity"]}, {"conceptId": "C81977", "definition": "A measurement of the antithrombin antigen in a biological specimen.", "preferredTerm": "Antithrombin Antigen Measurement", "submissionValue": "ANTHRMAG", "synonyms": ["Antithrombin", "Antithrombin Antigen", "Antithrombin III", "Antithrombin III Antigen"]}, {"conceptId": "C74691", "definition": "A measurement of any antidepressant class drug present in a biological specimen.", "preferredTerm": "Antidepressant Measurement", "submissionValue": "ANTIDPRS", "synonyms": ["Antidepressants"]}, {"conceptId": "C120627", "definition": "A measurement of the anti-nucleosome antibody in a biological specimen.", "preferredTerm": "Anti-Nucleosome Antibody Measurement", "submissionValue": "ANUAB", "synonyms": ["Anti-Nucleosome Antibody"]}, {"conceptId": "C172525", "definition": "A measurement of the acetaminophen-cysteine adducts in a biological specimen.", "preferredTerm": "Acetaminophen-Cysteine Adduct Measurement", "submissionValue": "APAPCYS", "synonyms": ["Acetaminophen Protein Adduct", "Acetaminophen-Cysteine Adduct", "APAP-CYS", "APAP-Protein"]}, {"conceptId": "C102258", "definition": "A measurement of the total antiphospholipid antibodies in a biological specimen.", "preferredTerm": "Antiphospholipid Antibody Measurement", "submissionValue": "APLAB", "synonyms": ["Antiphospholipid Antibodies"]}, {"conceptId": "C161372", "definition": "A measurement to confirm the presence of Lupus anticoagulants, calculated as [(Screen aPTT - Confirm aPTT)/Screen aPTT]x100.", "preferredTerm": "APTT-LA Screen to Confirm Percent Difference", "submissionValue": "APLASCPD", "synonyms": ["APTT-LA Screen to Confirm Percent Difference", "PTT-LA Screen to Confirm Pct Difference"]}, {"conceptId": "C124335", "definition": "A measurement of the antiphospholipid IgG antibody in a biological specimen.", "preferredTerm": "Anti-Phospholipid IgG Antibody Measurement", "submissionValue": "APLIGGAB", "synonyms": ["Anti-Phospholipid IgG Antibody"]}, {"conceptId": "C124336", "definition": "A measurement of the antiphospholipid IgM antibody in a biological specimen.", "preferredTerm": "Anti-Phospholipid IgM Antibody Measurement", "submissionValue": "APLIGMAB", "synonyms": ["Anti-Phospholipid IgM Antibody"]}, {"conceptId": "C103351", "definition": "A measurement of the alpha-2 antiplasmin in a biological specimen.", "preferredTerm": "Alpha-2 Antiplasmin Measurement", "submissionValue": "APLSMA2", "synonyms": ["Alpha-2 Antiplasmin", "Alpha-2 Plasmin Inhibitor"]}, {"conceptId": "C122094", "definition": "A measurement of the alpha-2 antiplasmin activity in a biological specimen.", "preferredTerm": "Alpha-2 Antiplasmin Activity Measurement", "submissionValue": "APLSMA2A", "synonyms": ["Alpha-2 Antiplasmin Activity"]}, {"conceptId": "C124337", "definition": "A measurement of the total apolipoprotein A in a biological specimen.", "preferredTerm": "Apolipoprotein A Measurement", "submissionValue": "APOA", "synonyms": ["Apolipoprotein A"]}, {"conceptId": "C74733", "definition": "A measurement of the apolipoprotein A1 in a biological specimen.", "preferredTerm": "Apolipoprotein A1 Measurement", "submissionValue": "APOA1", "synonyms": ["Apolipoprotein A1"]}, {"conceptId": "C82000", "definition": "A measurement of the apolipoprotein AII in a biological specimen.", "preferredTerm": "Apolipoprotein AII Measurement", "submissionValue": "APOA2", "synonyms": ["Apolipoprotein AII"]}, {"conceptId": "C103354", "definition": "A measurement of the apolipoprotein A4 in a biological specimen.", "preferredTerm": "Apolipoprotein A4 Measurement", "submissionValue": "APOA4", "synonyms": ["Apolipoprotein A4"]}, {"conceptId": "C103355", "definition": "A measurement of the apolipoprotein A5 in a biological specimen.", "preferredTerm": "Apolipoprotein A5 Measurement", "submissionValue": "APOA5", "synonyms": ["Apolipoprotein A5"]}, {"conceptId": "C74734", "definition": "A measurement of the total apolipoprotein B in a biological specimen.", "preferredTerm": "Apolipoprotein B Measurement", "submissionValue": "APOB", "synonyms": ["Apolipoprotein B"]}, {"conceptId": "C120628", "definition": "A measurement of the apolipoprotein B100 in a biological specimen.", "preferredTerm": "Apolipoprotein B100 Measurement", "submissionValue": "APOB100", "synonyms": ["Apolipoprotein B100"]}, {"conceptId": "C120629", "definition": "A measurement of the apolipoprotein B48 in a biological specimen.", "preferredTerm": "Apolipoprotein B48 Measurement", "submissionValue": "APOB48", "synonyms": ["Apolipoprotein B48"]}, {"conceptId": "C103356", "definition": "A relative measurement (ratio or percentage) of the Apolipoprotein B to Apolipoprotein A1 in a biological specimen.", "preferredTerm": "Apolipoprotein B to Apolipoprotein A1 Ratio Measurement", "submissionValue": "APOBAPA1", "synonyms": ["Apolipoprotein B/Apolipoprotein A1"]}, {"conceptId": "C120630", "definition": "A measurement of the apolipoprotein CI in a biological specimen.", "preferredTerm": "Apolipoprotein CI Measurement", "submissionValue": "APOC1", "synonyms": ["Apolipoprotein CI"]}, {"conceptId": "C100427", "definition": "A measurement of the apolipoprotein C2 in a biological specimen.", "preferredTerm": "Apolipoprotein C2 Measurement", "submissionValue": "APOC2", "synonyms": ["Apolipoprotein C2", "Apolipoprotein CII"]}, {"conceptId": "C82001", "definition": "A measurement of the apolipoprotein CIII in a biological specimen.", "preferredTerm": "Apolipoprotein CIII Measurement", "submissionValue": "APOC3", "synonyms": ["Apolipoprotein CIII"]}, {"conceptId": "C198281", "definition": "A measurement of the apolipoprotein D in a biological specimen.", "preferredTerm": "Apolipoprotein D Measurement", "submissionValue": "APOD", "synonyms": ["Apolipoprotein D"]}, {"conceptId": "C82002", "definition": "A measurement of the apolipoprotein E in a biological specimen.", "preferredTerm": "Apolipoprotein E Measurement", "submissionValue": "APOE", "synonyms": ["Apolipoprotein E"]}, {"conceptId": "C92293", "definition": "A measurement of the apolipoprotein E4 in a biological specimen.", "preferredTerm": "Apolipoprotein E4 Measurement", "submissionValue": "APOE4", "synonyms": ["Apolipoprotein E4"]}, {"conceptId": "C82003", "definition": "A measurement of the apolipoprotein H in a biological specimen.", "preferredTerm": "Apolipoprotein H Measurement", "submissionValue": "APOH", "synonyms": ["Apolipoprotein H"]}, {"conceptId": "C100428", "definition": "A measurement of the apolipoprotein J in a biological specimen.", "preferredTerm": "Apolipoprotein J Measurement", "submissionValue": "APOJ", "synonyms": ["Apolipoprotein J", "Clusterin"]}, {"conceptId": "C111130", "definition": "A relative measurement (ratio or percentage) of the apolipoprotein J to creatinine in a biological specimen.", "preferredTerm": "Apolipoprotein J to Creatinine Ratio Measurement", "submissionValue": "APOJCRT", "synonyms": ["Apolipoprotein J/Creatinine", "Clusterin/Creatinine"]}, {"conceptId": "C119268", "definition": "A measurement of the amyloid alpha precursor protein present in a biological specimen.", "preferredTerm": "Amyloid Alpha Precursor Protein Measurement", "submissionValue": "APPA", "synonyms": ["Amyloid Alpha Precursor Protein"]}, {"conceptId": "C105438", "definition": "A measurement of the amyloid beta precursor protein present in a biological specimen.", "preferredTerm": "Amyloid Beta Precursor Protein Measurement", "submissionValue": "APPB", "synonyms": ["Amyloid Beta Precursor", "Amyloid Beta Precursor Protein", "Amyloid Precursor Beta", "Amyloid Precursor Protein"]}, {"conceptId": "C179695", "definition": "The outward or visible aspect of a specimen.", "preferredTerm": "Specimen Appearance Assessment", "submissionValue": "APPEAR", "synonyms": ["Specimen Appearance"]}, {"conceptId": "C119269", "definition": "A measurement of the total amyloid precursor protein present in a biological specimen.", "preferredTerm": "Total Amyloid Precursor Protein Measurement", "submissionValue": "APPT", "synonyms": ["Total Amyloid Precursor Protein"]}, {"conceptId": "C184578", "definition": "A measurement of the aprobarbital in a biological specimen.", "preferredTerm": "Aprobarbital Measurement", "submissionValue": "APRBRBTL", "synonyms": ["Aprobarbital"]}, {"conceptId": "C156512", "definition": "A calculation that indicates the likely presence of liver cirrhosis and fibrosis, measured as the relative measurement of aspartate aminotransferase (AST) to AST upper limit of normal, divided by the platelet count, and multiplied by 100.", "preferredTerm": "Aspartate Aminotransferase to Platelet Ratio Index", "submissionValue": "APRI", "synonyms": ["APRI Score", "AST to Platelet Ratio Index"]}, {"conceptId": "C111123", "definition": "A measurement of the a proliferation-inducing ligand in a biological specimen.", "preferredTerm": "A Proliferation-Inducing Ligand Measurement", "submissionValue": "APRIL", "synonyms": ["A Proliferation-Inducing Ligand", "CD256", "TNFSF13", "Tumor Necrosis Factor Ligand Superfamily Member 13"]}, {"conceptId": "C100471", "definition": "A measurement of the resistance in the anticoagulation response to activated protein C in a biological specimen.", "preferredTerm": "Activated Protein C Resistance Measurement", "submissionValue": "APROTCRS", "synonyms": ["Activated Protein C Resistance", "Factor V Leiden Screen"]}, {"conceptId": "C38462", "definition": "A measurement of the length of time that it takes for clotting to occur when activating reagents are added to a biological specimen. The test is partial due to the absence of tissue factor (Factor III) from the reaction mixture.", "preferredTerm": "Activated Partial Thromboplastin Time", "submissionValue": "APTT", "synonyms": ["Activated Partial Thromboplastin Time"]}, {"conceptId": "C161369", "definition": "A relative measurement (ratio or percentage) of the Lupus anticoagulant sensitive APTT in a subject's specimen when compared to a control specimen.", "preferredTerm": "APTT-LA Actual to Control Ratio Measurement", "submissionValue": "APTTLAAC", "synonyms": ["APTT-LA Actual/Control", "Lupus Anticoagulant Sensitive APTT Actual/Control"]}, {"conceptId": "C102277", "definition": "A measurement of the length of time that it takes for clotting to occur when a lupus sensitive reagent is added to a plasma specimen.", "preferredTerm": "Lupus Anticoagulant Sensitive APTT Measurement", "submissionValue": "APTTLAS", "synonyms": ["APTT-LA", "Lupus Anticoagulant Sensitive APTT"]}, {"conceptId": "C98862", "definition": "A relative measurement (ratio or percentage) of the subject's activated partial thromboplastin time to a standard or control partial thromboplastin time.", "preferredTerm": "Activated PTT/Standard Ratio Measurement", "submissionValue": "APTTSTND", "synonyms": ["Activated Partial Thromboplastin Time/Standard Thromboplastin Time", "Activated PTT/Standard", "Activated PTT/Standard PTT"]}, {"conceptId": "C102259", "definition": "A measurement of the arachidonic acid present in a biological specimen.", "preferredTerm": "Arachidonic Acid Measurement", "submissionValue": "ARA", "synonyms": ["Arachidonic Acid"]}, {"conceptId": "C122095", "definition": "A measurement of the arginine in a biological specimen.", "preferredTerm": "Arginine Measurement", "submissionValue": "ARG", "synonyms": ["Arginine"]}, {"conceptId": "C154763", "definition": "A measurement of the argininosuccinic acid in a biological specimen.", "preferredTerm": "Argininosuccinic Acid Measurement", "submissionValue": "ARGSAC", "synonyms": ["Argininosuccinate", "Argininosuccinic Acid"]}, {"conceptId": "C177974", "definition": "A measurement of the aripiprazole in a biological specimen.", "preferredTerm": "Aripiprazole Measurement", "submissionValue": "ARPIPZL", "synonyms": ["Aripiprazole"]}, {"conceptId": "C124338", "definition": "A relative measurement (ratio) of the aldosterone to renin activity in a biological specimen.", "preferredTerm": "Aldosterone to Renin Activity Ratio Measurement", "submissionValue": "ARR", "synonyms": ["Aldosterone/Renin Activity"]}, {"conceptId": "C147305", "definition": "A measurement of the arsenic in a biological specimen.", "preferredTerm": "Arsenic Measurement", "submissionValue": "ARSENIC", "synonyms": ["Arsenic", "As"]}, {"conceptId": "C177985", "definition": "A measurement of the asenapine in a biological specimen.", "preferredTerm": "Asenapine Measurement", "submissionValue": "ASENAPN", "synonyms": ["Asenapine"]}, {"conceptId": "C163422", "definition": "A measurement of the alpha-smooth muscle actin in a biological specimen.", "preferredTerm": "Alpha-Smooth Muscle Actin Measurement", "submissionValue": "ASMACT", "synonyms": ["Alpha-Actin 2", "Alpha-SMA", "Alpha-Smooth Muscle Actin"]}, {"conceptId": "C122096", "definition": "A measurement of the asparagine in a biological specimen.", "preferredTerm": "Asparagine Measurement", "submissionValue": "ASN", "synonyms": ["Asparagine"]}, {"conceptId": "C122097", "definition": "A measurement of the aspartic acid in a biological specimen.", "preferredTerm": "Aspartic Acid Measurement", "submissionValue": "ASP", "synonyms": ["Aspartate", "Aspartic Acid"]}, {"conceptId": "C92269", "definition": "A measurement of the anti-single stranded DNA IgG antibody in a biological specimen.", "preferredTerm": "Anti-Single Stranded DNA IgG Measurement", "submissionValue": "ASSDNA", "synonyms": ["Anti-Single Stranded DNA IgG"]}, {"conceptId": "C64467", "definition": "A measurement of the aspartate aminotransferase in a biological specimen.", "preferredTerm": "Aspartate Aminotransferase Measurement", "submissionValue": "AST", "synonyms": ["Aspartate Aminotransferase", "SGOT"]}, {"conceptId": "C81978", "definition": "A measurement of the aspartate aminotransferase antigen in a biological specimen.", "preferredTerm": "Aspartate Aminotransferase Antigen Measurement", "submissionValue": "ASTAG", "synonyms": ["Aspartate Aminotransferase Antigen", "SGOT Antigen"]}, {"conceptId": "C176297", "definition": "A relative measurement (ratio or percentage) of the aspartate aminotransferase (AST) to alanine aminotransferase (ALT) present in a sample.", "preferredTerm": "Aspartate Aminotransferase to Alanine Aminotransferase Ratio Measurement", "submissionValue": "ASTALT", "synonyms": ["AST/ALT"]}, {"conceptId": "C158225", "definition": "A relative measurement (ratio) of the aspartate aminotransferase to creatine kinase in a biological specimen.", "preferredTerm": "Aspartate Aminotransferase to Creatine Kinase Ratio Measurement", "submissionValue": "ASTCK", "synonyms": ["Aspartate Aminotransferase/CPK", "Aspartate Aminotransferase/Creatine Kinase", "AST/Creatine Kinase"]}, {"conceptId": "C117830", "definition": "A relative measurement (ratio or percentage) of the aspartate aminotransferase to creatinine in a biological specimen.", "preferredTerm": "Aspartate Aminotransferase to Creatinine Ratio Measurement", "submissionValue": "ASTCREAT", "synonyms": ["Aspartate Aminotransferase/Creatinine"]}, {"conceptId": "C186027", "definition": "A measurement of the 3-alpha-androstanediol glucuronide in a biological specimen.", "preferredTerm": "3-Alpha-Androstanediol Glucuronide Measurement", "submissionValue": "ASTDLG3A", "synonyms": ["3-Alpha-Androstanediol Glucuronide"]}, {"conceptId": "C142272", "definition": "A measurement of the alpha synuclein protein in a biological specimen.", "preferredTerm": "Alpha Synuclein Protein Measurement", "submissionValue": "ASYNP", "synonyms": ["Alpha Synuclein Protein"]}, {"conceptId": "C147306", "definition": "A relative measurement (ratio or percentage) of the biological activity of antithrombin in a subject's specimen when compared to the same activity in a control specimen.", "preferredTerm": "Antithrombin Activity Actual to Control Ratio Measurement", "submissionValue": "ATHMBAAC", "synonyms": ["Antithrombin Activity Actual/Antithrombin Activity Control", "Antithrombin Activity Actual/Control", "Antithrombin Activity Actual/Normal"]}, {"conceptId": "C170592", "definition": "A relative measurement (ratio or percentage) of the Antithrombin in a subject's specimen when compared to a control specimen.", "preferredTerm": "Antithrombin Actual to Control Ratio Measurement", "submissionValue": "ATHMBAC", "synonyms": ["Antithrombin Actual/Control", "Antithrombin Actual/Normal"]}, {"conceptId": "C154726", "definition": "A measurement of the base 10 logarithm of the ratio of molar concentration of plasma triglyceride to high density lipoprotein cholesterol in a biological specimen.", "preferredTerm": "Atherogenic Index of Plasma", "submissionValue": "ATHPIDX", "synonyms": ["AIP", "Atherogenic Index", "Atherogenic Index of Plasma"]}, {"conceptId": "C147307", "definition": "A measurement of the adenosine triphosphate in a biological specimen.", "preferredTerm": "Adenosine Triphosphate Measurement", "submissionValue": "ATP", "synonyms": ["Adenosine Triphosphate"]}, {"conceptId": "C103350", "definition": "A relative measurement (ratio or percentage) of alpha-tocopherol to the total vitamin E in a biological specimen.", "preferredTerm": "Alpha Tocopherol to Vitamin E Ratio Measurement", "submissionValue": "ATPVITE", "synonyms": ["Alpha Tocopherol/Vitamin E"]}, {"conceptId": "C74657", "definition": "A measurement of the Auer rods (elongated needle structures that are found in the cytoplasm of leukemic blasts and are formed by clumps of azurophilic granular material) in a biological specimen.", "preferredTerm": "Auer Rod Measurement", "submissionValue": "AUERRODS", "synonyms": ["Auer Rods"]}, {"conceptId": "C165943", "definition": "A measurement of the AXL receptor tyrosine kinase in a biological specimen.", "preferredTerm": "AXL Receptor Tyrosine Kinase Measurement", "submissionValue": "AXL", "synonyms": ["ARK", "AXL Receptor Tyrosine Kinase", "JTK11", "Tyro7", "UFO"]}, {"conceptId": "C116185", "definition": "An observation of azurophilic granules in a biological specimen.", "preferredTerm": "Azurophilic Granule Measurement", "submissionValue": "AZURGRAN", "synonyms": ["Azurophilic Granulation", "Azurophilic Granules"]}, {"conceptId": "C127607", "definition": "A measurement of the beta-1B glycoprotein in a biological specimen.", "preferredTerm": "Beta-1B Glycoprotein Measurement", "submissionValue": "B1BGLP", "synonyms": ["Beta-1B Glycoprotein", "Hemopexin", "HPX"]}, {"conceptId": "C147308", "definition": "A measurement of the beta-2 glycoprotein 1 IgG antibodies in a biological specimen.", "preferredTerm": "Beta-2 Glycoprotein 1 IgA Antibody Measurement", "submissionValue": "B2G1GAAB", "synonyms": ["Beta-2 Glycoprotein 1 IgA Antibody"]}, {"conceptId": "C103358", "definition": "A measurement of the Beta-2 glycoprotein 1 IgG antibodies in a biological specimen.", "preferredTerm": "Beta-2 Glycoprotein 1 IgG Antibody Measurement", "submissionValue": "B2G1GGAB", "synonyms": ["Beta-2 Glycoprotein 1 IgG Antibody"]}, {"conceptId": "C103359", "definition": "A measurement of the Beta-2 glycoprotein 1 IgM antibodies in a biological specimen.", "preferredTerm": "Beta-2 Glycoprotein 1 IgM Antibody Measurement", "submissionValue": "B2G1GMAB", "synonyms": ["Beta-2 Glycoprotein 1 IgM Antibody"]}, {"conceptId": "C81979", "definition": "A measurement of the beta-2 glycoprotein antibody in a biological specimen.", "preferredTerm": "Beta-2 Glycoprotein Antibody Measurement", "submissionValue": "B2GLYAB", "synonyms": ["Beta-2 Glycoprotein Antibody"]}, {"conceptId": "C127608", "definition": "A relative measurement (ratio) of the beta-2 microglobulin to creatinine in a biological specimen.", "preferredTerm": "Beta-2 Microglobulin to Creatinine Ratio Measurement", "submissionValue": "B2MCREAT", "synonyms": ["Beta-2 Microglobulin/Creatinine"]}, {"conceptId": "C81980", "definition": "A measurement of the beta-2 microglobulin in a biological specimen.", "preferredTerm": "Beta-2 Microglobulin Measurement", "submissionValue": "B2MICG", "synonyms": ["Beta-2 Microglobulin"]}, {"conceptId": "C64469", "definition": "A measurement of the bacteria in a biological specimen.", "preferredTerm": "Bacterial Count", "submissionValue": "BACT", "synonyms": ["Bacteria"]}, {"conceptId": "C111135", "definition": "A measurement of the B-cell activating factor in a biological specimen.", "preferredTerm": "B-Cell Activating Factor Measurement", "submissionValue": "BAFF", "synonyms": ["B-Cell Activating Factor"]}, {"conceptId": "C154764", "definition": "A measurement of the beta alanine in a biological specimen.", "preferredTerm": "Beta Alanine Measurement", "submissionValue": "BALA", "synonyms": ["Beta Alanine"]}, {"conceptId": "C154765", "definition": "A measurement of the beta-aminobutyric acid in a biological specimen.", "preferredTerm": "Beta-Aminobutyric Acid Measurement", "submissionValue": "BAMBTAC", "synonyms": ["BABA", "Beta-aminobutyrate", "Beta-Aminobutyric Acid"]}, {"conceptId": "C74688", "definition": "A measurement of any barbiturate class drug present in a biological specimen.", "preferredTerm": "Barbiturate Drug Class Measurement", "submissionValue": "BARB", "synonyms": ["Barbiturates"]}, {"conceptId": "C147309", "definition": "A measurement of the amount of alkali required to return a biological specimen to a normal pH under standard conditions.", "preferredTerm": "Base Deficit", "submissionValue": "BASEDEF", "synonyms": ["Base Deficit"]}, {"conceptId": "C119270", "definition": "A calculated measurement of the amount of acid required to return blood to a normal pH under standard conditions.", "preferredTerm": "Base Excess Measurement", "submissionValue": "BASEEXCS", "synonyms": ["Actual Base Excess", "Base Excess"]}, {"conceptId": "C64470", "definition": "A measurement of the basophils in a biological specimen.", "preferredTerm": "Absolute Basophil Count", "submissionValue": "BASO", "synonyms": ["Basophils"]}, {"conceptId": "C130154", "definition": "A measurement of the banded basophils in a biological specimen.", "preferredTerm": "Basophil Band Form Count", "submissionValue": "BASOB", "synonyms": ["Basophils Band Form"]}, {"conceptId": "C130155", "definition": "A relative measurement (ratio or percentage) of the banded basophils to leukocytes in a biological specimen.", "preferredTerm": "Basophil Band Form to Leukocytes Ratio Measurement", "submissionValue": "BASOBLE", "synonyms": ["Basophils Band Form/Leukocytes"]}, {"conceptId": "C98865", "definition": "A relative measurement (ratio or percentage) of the basophils to total cells in a biological specimen (for example a bone marrow specimen).", "preferredTerm": "Basophil to Total Cell Ratio Measurement", "submissionValue": "BASOCE", "synonyms": ["Basophils/Total Cells"]}, {"conceptId": "C96670", "definition": "A measurement of the immature basophils in a biological specimen.", "preferredTerm": "Immature Basophil Count", "submissionValue": "BASOIM", "synonyms": ["Immature Basophils"]}, {"conceptId": "C96671", "definition": "A relative measurement (ratio or percentage) of immature basophils to total leukocytes in a biological specimen.", "preferredTerm": "Immature Basophil to Leukocyte Ratio Measurement", "submissionValue": "BASOIMLE", "synonyms": ["Immature Basophils/Leukocytes"]}, {"conceptId": "C64471", "definition": "A relative measurement (ratio or percentage) of the basophils to leukocytes in a biological specimen.", "preferredTerm": "Basophil to Leukocyte Ratio", "submissionValue": "BASOLE", "synonyms": ["Basophils/Leukocytes"]}, {"conceptId": "C135399", "definition": "A measurement of the basophilic metamyelocytes in a biological specimen.", "preferredTerm": "Basophilic Metamyelocyte Count", "submissionValue": "BASOMM", "synonyms": ["Basophilic Metamyelocytes"]}, {"conceptId": "C135400", "definition": "A measurement of the basophilic myelocytes in a biological specimen.", "preferredTerm": "Basophilic Myelocyte Count", "submissionValue": "BASOMYL", "synonyms": ["Basophilic Myelocytes"]}, {"conceptId": "C181448", "definition": "A relative measurement (ratio or percentage) of the basophilic myelocytes to lymphocytes in a biological specimen (for example a bone marrow specimen).", "preferredTerm": "Basophilic Myelocytes to Lymphocytes Ratio Measurement", "submissionValue": "BASOMYLY", "synonyms": ["Basophilic Myelocytes/Lymphocytes"]}, {"conceptId": "C135401", "definition": "A measurement of the segmented basophils in a biological specimen.", "preferredTerm": "Segmented Basophil Count", "submissionValue": "BASOSG", "synonyms": ["Basophils, Segmented"]}, {"conceptId": "C123455", "definition": "A measurement of the beta cell function (insulin production and secretion) in a biological specimen.", "preferredTerm": "Beta-Cell Function Measurement", "submissionValue": "BCEFNCTN", "synonyms": ["Beta-cell Function"]}, {"conceptId": "C170577", "definition": "A measurement of the soluble B cell maturation antigen in a biological specimen.", "preferredTerm": "Soluble B Cell Maturation Antigen Measurement", "submissionValue": "BCMAS", "synonyms": ["Soluble B Cell Maturation Antigen", "Soluble BCM", "Soluble BCMA", "Soluble CD269", "Soluble TNF Receptor Superfamily Member 17", "Soluble TNFRSF13A"]}, {"conceptId": "C122102", "definition": "A measurement of the beta-defensin 2 in a biological specimen.", "preferredTerm": "Beta-defensin 2 Measurement", "submissionValue": "BD2", "synonyms": ["Beta-defensin 2"]}, {"conceptId": "C82004", "definition": "A measurement of the brain-derived neurotrophic factor in a biological specimen.", "preferredTerm": "Brain-Derived Neurotrophic Factor Measurement", "submissionValue": "BDNF", "synonyms": ["Brain-Derived Neurotrophic Factor"]}, {"conceptId": "C100472", "definition": "A measurement of the beta carotene in a biological specimen.", "preferredTerm": "Beta Carotene Measurement", "submissionValue": "BETACRTN", "synonyms": ["b-Carotene", "Beta Carotene", "Beta Carotin"]}, {"conceptId": "C172517", "definition": "A measurement of the betaine class compounds in a biological specimen.", "preferredTerm": "Betaines Measurement", "submissionValue": "BETAINES", "synonyms": ["Betaines"]}, {"conceptId": "C184531", "definition": "A measurement of the bufotenine in a biological specimen.", "preferredTerm": "Bufotenine Measurement", "submissionValue": "BFTNN", "synonyms": ["Bufotenine"]}, {"conceptId": "C172497", "definition": "A measurement of the beta and gamma tocopherol in a biological specimen.", "preferredTerm": "Beta and Gamma Tocopherol Measurement", "submissionValue": "BGTCPHRL", "synonyms": ["Beta and Gamma Tocopherol", "Beta+Gamma Tocopherol"]}, {"conceptId": "C186028", "definition": "A relative measurement (ratio) of the beta-hydroxybutyrate to acetoacetate in a biological specimen.", "preferredTerm": "Beta-Hydroxybutyrate to Acetoacetate Ratio Measurement", "submissionValue": "BHBACTAC", "synonyms": ["Beta-Hydroxybutyrate/Acetoacetate"]}, {"conceptId": "C189520", "definition": "A measurement of the amount of beta-Hydroxybutyrate being excreted in a biological specimen over a defined period of time (e.g. one hour).", "preferredTerm": "Beta-Hydroxybutyrate Excretion Rate Measurement", "submissionValue": "BHBEXR", "synonyms": ["3-Hydroxybutyrate Excretion Rate", "B-Hydroxybutyrate Excretion Rate", "Beta-Hydroxybutyrate Excretion Rate", "BHB Excretion Rate"]}, {"conceptId": "C96568", "definition": "A measurement of the total Beta-hydroxybutyrate in a biological specimen.", "preferredTerm": "Beta-Hydroxybutyrate Measurement", "submissionValue": "BHYXBTR", "synonyms": ["3-Hydroxybutyrate", "B-Hydroxybutyrate", "Beta-Hydroxybutyrate", "Beta-Hydroxybutyric Acid", "BHB"]}, {"conceptId": "C74667", "definition": "A measurement of the bicarbonate in a biological specimen.", "preferredTerm": "Bicarbonate Measurement", "submissionValue": "BICARB", "synonyms": ["Bicarbonate", "HCO3"]}, {"conceptId": "C64481", "definition": "A measurement of the conjugated or water-soluble bilirubin in a biological specimen.", "preferredTerm": "Direct Bilirubin Measurement", "submissionValue": "BILDIR", "synonyms": ["Direct Bilirubin"]}, {"conceptId": "C158226", "definition": "A relative measurement (ratio or percentage) of the direct bilirubin to total bilirubin in a biological specimen.", "preferredTerm": "Direct Bilirubin to Bilirubin Ratio Measurement", "submissionValue": "BILDIRBI", "synonyms": ["Direct Bilirubin/Bilirubin"]}, {"conceptId": "C74800", "definition": "A measurement of the total bile acids in a biological specimen.", "preferredTerm": "Bile Acid Measurement", "submissionValue": "BILEAC", "synonyms": ["Bile Acid", "Bile Acids", "Bile Salt", "Bile Salts"]}, {"conceptId": "C38037", "definition": "A measurement of the total bilirubin in a biological specimen.", "preferredTerm": "Total Bilirubin Measurement", "submissionValue": "BILI", "synonyms": ["Bilirubin", "Total Bilirubin"]}, {"conceptId": "C64483", "definition": "A measurement of the unconjugated or non-water-soluble bilirubin in a biological specimen.", "preferredTerm": "Indirect Bilirubin Measurement", "submissionValue": "BILIND", "synonyms": ["Indirect Bilirubin"]}, {"conceptId": "C74700", "definition": "A measurement of the bite cells (erythrocytes with the appearance of a bite having been removed, due to oxidative hemolysis) in a biological specimen.", "preferredTerm": "Bite Cell Count", "submissionValue": "BITECE", "synonyms": ["Bite Cells"]}, {"conceptId": "C111136", "definition": "A measurement of the total Bence-Jones protein in a biological specimen.", "preferredTerm": "Bence-Jones Protein Measurement", "submissionValue": "BJPROT", "synonyms": ["Bence-Jones Protein"]}, {"conceptId": "C74605", "definition": "A measurement of the blast cells in a biological specimen.", "preferredTerm": "Blast Count", "submissionValue": "BLAST", "synonyms": ["Blasts"]}, {"conceptId": "C150836", "definition": "A relative measurement (ratio or percentage) of the blasts to total cells in a biological specimen.", "preferredTerm": "Blasts to Total Cells Ratio Measurement", "submissionValue": "BLASTCE", "synonyms": ["Blasts/Total Cells"]}, {"conceptId": "C147311", "definition": "A measurement of the basophilic erythroblasts in a biological specimen taken from a non-human organism.", "preferredTerm": "Basophilic Erythroblast Count", "submissionValue": "BLASTERY", "synonyms": ["Basophilic Erythroblast"]}, {"conceptId": "C103407", "definition": "A measurement of the immunoblasts in a biological specimen.", "preferredTerm": "Immunoblast Count", "submissionValue": "BLASTIMM", "synonyms": ["Immunoblastic Lymphocytes", "Immunoblasts"]}, {"conceptId": "C64487", "definition": "A relative measurement (ratio or percentage) of the blasts to leukocytes in a biological specimen.", "preferredTerm": "Blast to Leukocyte Ratio", "submissionValue": "BLASTLE", "synonyms": ["Blasts/Leukocytes"]}, {"conceptId": "C74630", "definition": "A measurement of the leukemic blasts (lymphoblasts and/or myeloblasts that remain in an immature state even when outside the bone marrow) in a biological specimen.", "preferredTerm": "Leukemic Blast Count", "submissionValue": "BLASTLM", "synonyms": ["Leukemic Blasts"]}, {"conceptId": "C147312", "definition": "A relative measurement (ratio or percentage) of the blasts to the total nucleated cells in a biological specimen.", "preferredTerm": "Blasts to Nucleated Cells Ratio Measurement", "submissionValue": "BLASTNCE", "synonyms": ["Blasts/Nucleated Cells"]}, {"conceptId": "C100446", "definition": "A measurement of the rubriblasts in a biological specimen.", "preferredTerm": "Proerythroblast Measurement", "submissionValue": "BLASTRUB", "synonyms": ["Proerythroblast", "Pronormoblast", "Rubriblast"]}, {"conceptId": "C89775", "definition": "A measurement of the time from the start to cessation of an induced bleed.", "preferredTerm": "Bleeding Time", "submissionValue": "BLEEDT", "synonyms": ["Bleeding Time", "Clotting Time Homeostasis"]}, {"conceptId": "C127609", "definition": "A measurement of the blister cells in a biological specimen.", "preferredTerm": "Blister Cell Count", "submissionValue": "BLISTCE", "synonyms": ["Blister Cell"]}, {"conceptId": "C106535", "definition": "A relative measurement (ratio or percentage) of immunoblasts to all lymphocytes present in a sample.", "preferredTerm": "Immunoblasts to Lymphocytes Ratio Measurement", "submissionValue": "BLSTIMLY", "synonyms": ["Immunoblasts/Lymphocytes", "Lymphocytes, Immunoblastic/Lymphocytes"]}, {"conceptId": "C74641", "definition": "A relative measurement (ratio or percentage) of the leukemic blasts (immature lymphoblasts and/or myeloblasts) to mature lymphocytes in a biological specimen.", "preferredTerm": "Leukemic Blast to Lymphocyte Ratio Measurement", "submissionValue": "BLSTLMLY", "synonyms": ["Leukemic Blasts/Lymphocytes"]}, {"conceptId": "C102278", "definition": "A measurement of the lymphoblasts (immature cells that differentiate to form lymphocytes) in a biological specimen.", "preferredTerm": "Lymphoblast Count", "submissionValue": "BLSTLY", "synonyms": ["Lymphoblasts", "Lymphoid Blasts"]}, {"conceptId": "C105444", "definition": "A relative measurement (ratio or percentage) of the lymphoblasts to leukocytes in a biological specimen.", "preferredTerm": "Lymphoblast to Leukocyte Ratio Measurement", "submissionValue": "BLSTLYLE", "synonyms": ["Lymphoblasts/Leukocytes"]}, {"conceptId": "C189503", "definition": "A relative measurement (ratio or percentage) of the lymphoblasts to lymphocytes in a biological specimen.", "preferredTerm": "Lymphoblast to Lymphocyte Ratio Measurement", "submissionValue": "BLSTLYLY", "synonyms": ["Lymphoblasts/Lymphocytes"]}, {"conceptId": "C98761", "definition": "A relative measurement (ratio or percentage) of the myeloblasts to total cells in a biological specimen (for example a bone marrow specimen).", "preferredTerm": "Myeloblast to Total Cell Ratio Measurement", "submissionValue": "BLSTMBCE", "synonyms": ["Myeloblasts/Total Cells"]}, {"conceptId": "C98752", "definition": "A measurement of the megakaryoblasts in a biological specimen.", "preferredTerm": "Megakaryoblast Cell Count", "submissionValue": "BLSTMGK", "synonyms": ["Megakaryoblasts"]}, {"conceptId": "C98753", "definition": "A relative measurement (ratio or percentage) of the megakaryoblasts to total cells in a biological specimen (for example a bone marrow specimen).", "preferredTerm": "Megakaryoblast to Total Cell Ratio Measurement", "submissionValue": "BLSTMKCE", "synonyms": ["Megakaryoblasts/Total Cells"]}, {"conceptId": "C187813", "definition": "A relative measurement (ratio or percentage) of megakaryoblasts to total leukocytes in a biological specimen.", "preferredTerm": "Megakaryoblasts to Leukocytes Ratio Measurement", "submissionValue": "BLSTMKLE", "synonyms": ["Megakaryoblasts/Leukocytes"]}, {"conceptId": "C189501", "definition": "A measurement of the normoblasts in a biological specimen.", "preferredTerm": "Normoblast Count", "submissionValue": "BLSTNM", "synonyms": ["Normoblasts"]}, {"conceptId": "C98764", "definition": "A relative measurement (ratio or percentage) of the normoblasts to total cells in a biological specimen (for example a bone marrow specimen).", "preferredTerm": "Normoblast to Total Cell Ratio Measurement", "submissionValue": "BLSTNMCE", "synonyms": ["Normoblasts/Total Cells"]}, {"conceptId": "C98870", "definition": "A relative measurement (ratio or percentage) of the rubriblasts to total cells in a biological specimen (for example a bone marrow specimen).", "preferredTerm": "Pronormoblast to Total Cell Ratio Measurement", "submissionValue": "BLSTRBCE", "synonyms": ["Proerythroblast/Total Cells", "Pronormoblasts/Total Cells", "Rubriblast/Total Cells"]}, {"conceptId": "C100419", "definition": "A measurement of the ringed sideroblasts (abnormal nucleated erythroblasts with a large number of iron deposits in the perinuclear mitochondria, forming a ring around the nucleus) in a biological specimen.", "preferredTerm": "Ring Sideroblast Measurement", "submissionValue": "BLSTRSID", "synonyms": ["Ringed Sideroblasts"]}, {"conceptId": "C100418", "definition": "A measurement of the sideroblasts (nucleated erythroblasts with iron granules in the cytoplasm) in a biological specimen.", "preferredTerm": "Sideroblast Measurement", "submissionValue": "BLSTSID", "synonyms": ["Sideroblast"]}, {"conceptId": "C174314", "definition": "A measurement of the B-lymphocytes in a biological specimen.", "preferredTerm": "B-Lymphocyte Count", "submissionValue": "BLYCE", "synonyms": ["B-Cell Lymphocytes", "B-Cells", "B-Lymphocytes"]}, {"conceptId": "C174317", "definition": "A relative measurement (ratio or percentage) of the B-lymphocytes to total cells in a biological specimen.", "preferredTerm": "B-Lymphocyte to Total Cells Ratio Measurement", "submissionValue": "BLYCECE", "synonyms": ["B-Lymphocytes/Total Cells"]}, {"conceptId": "C174316", "definition": "A relative measurement (ratio or percentage) of the B-lymphocytes to leukocytes in a biological specimen.", "preferredTerm": "B-Lymphocyte to Leukocyte Ratio Measurement", "submissionValue": "BLYCELE", "synonyms": ["B-Lymphocytes/Leukocytes"]}, {"conceptId": "C174315", "definition": "A relative measurement (ratio or percentage) of the B-lymphocytes to total lymphocytes in a biological specimen.", "preferredTerm": "B-Lymphocyte to Lymphocyte Ratio Measurement", "submissionValue": "BLYCELY", "synonyms": ["B-Lymphocytes/Lymphocytes"]}, {"conceptId": "C128951", "definition": "A measurement to determine human leukocyte antigens (HLA) histocompatibility between the recipient and the donor by examining the presence or absence of the recipient's anti-HLA antibody reactivity towards HLA antigens expressed on the donor B-lymphocytes.", "preferredTerm": "B-lymphocyte Crossmatch Measurement", "submissionValue": "BLYMXM", "synonyms": ["B-lymphocyte Crossmatch"]}, {"conceptId": "C74735", "definition": "A measurement of the brain (B-type) natriuretic peptide in a biological specimen.", "preferredTerm": "Brain Natriuretic Peptide Measurement", "submissionValue": "BNP", "synonyms": ["B-Type Natriuretic Peptide", "Brain Natriuretic Peptide"]}, {"conceptId": "C82032", "definition": "A measurement of the proB-type natriuretic peptide in a biological specimen.", "preferredTerm": "ProB-Type Natriuretic Peptide Measurement", "submissionValue": "BNPPRO", "synonyms": ["Pro-Brain Natriuretic Peptide", "ProB-type Natriuretic Peptide", "proBNP"]}, {"conceptId": "C96610", "definition": "A measurement of the N-terminal proB-type natriuretic peptide in a biological specimen.", "preferredTerm": "N-Terminal ProB-type Natriuretic Peptide Measurement", "submissionValue": "BNPPRONT", "synonyms": ["N-terminal pro-Brain Natriuretic Peptide", "N-Terminal ProB-type Natriuretic Peptide", "NT proBNP II"]}, {"conceptId": "C74692", "definition": "A measurement of any benzodiazepine class drug present in a biological specimen.", "preferredTerm": "Benzodiazepine Measurement", "submissionValue": "BNZDZPN", "synonyms": ["Benzodiazepine"]}, {"conceptId": "C75350", "definition": "A measurement of the benzoylecgonine in a biological specimen.", "preferredTerm": "Benzoylecgonine Measurement", "submissionValue": "BNZLCGN", "synonyms": ["Benzoylecgonine"]}, {"conceptId": "C75380", "definition": "A measurement of the boldenone in a biological specimen.", "preferredTerm": "Boldenone Measurement", "submissionValue": "BOLDNON", "synonyms": ["Boldenone"]}, {"conceptId": "C184579", "definition": "A measurement of the bolasterone in a biological specimen.", "preferredTerm": "Bolasterone Measurement", "submissionValue": "BOLSTRN", "synonyms": ["Bolasterone"]}, {"conceptId": "C120631", "definition": "A measurement of the bactericidal/permeability-increasing protein antibody in a biological specimen.", "preferredTerm": "Bactericidal/Permeability-Increasing Protein Antibody Measurement", "submissionValue": "BPIAB", "synonyms": ["Bactericidal/Permeability-Inc Protein Ab", "BPI Auto-antibody"]}, {"conceptId": "C184608", "definition": "A measurement of the barbital in a biological specimen.", "preferredTerm": "Barbital Measurement", "submissionValue": "BRBTL", "synonyms": ["Barbital"]}, {"conceptId": "C184609", "definition": "A measurement of the bromazepam in a biological specimen.", "preferredTerm": "Bromazepam Measurement", "submissionValue": "BRMZPM", "synonyms": ["Bromazepam"]}, {"conceptId": "C184639", "definition": "A measurement of the brivaracetam in a biological specimen.", "preferredTerm": "Brivaracetam Measurement", "submissionValue": "BRVRCTM", "synonyms": ["Brivaracetam"]}, {"conceptId": "C177973", "definition": "A measurement of the brexpiprazole in a biological specimen.", "preferredTerm": "Brexpiprazole Measurement", "submissionValue": "BRXPIPZL", "synonyms": ["Brexpiprazole"]}, {"conceptId": "C74634", "definition": "A relative measurement (ratio or percentage) of bite cells (erythrocytes with the appearance of a bite having been removed, due to oxidative hemolysis) to all erythrocytes in a biological specimen.", "preferredTerm": "Bite Cell to Erythrocyte Ratio Measurement", "submissionValue": "BTECERBC", "synonyms": ["Bite Cells/Erythrocytes"]}, {"conceptId": "C165772", "definition": "A measurement of the Bruton's tyrosine kinase in a biological specimen.", "preferredTerm": "Bruton's Tyrosine Kinase Measurement", "submissionValue": "BTK", "synonyms": ["Agammaglobulinemia Tyrosine Kinase", "ATK", "B-cell Progenitor Kinase", "Bruton Tyrosine Kinase", "Bruton's Tyrosine Kinase", "Tyrosine-protein kinase BTK"]}, {"conceptId": "C165944", "definition": "A measurement of the free Bruton's tyrosine kinase in a biological specimen.", "preferredTerm": "Free Bruton's Tyrosine Kinase Measurement", "submissionValue": "BTKFR", "synonyms": ["Bruton's Tyrosine Kinase, Free"]}, {"conceptId": "C75364", "definition": "A measurement of the butabarbital in a biological specimen.", "preferredTerm": "Butabarbital Measurement", "submissionValue": "BTLBARTL", "synonyms": ["Butabarbital"]}, {"conceptId": "C75365", "definition": "A measurement of the butalbital present in a biological specimen.", "preferredTerm": "Butalbital Measurement", "submissionValue": "BTLBTL", "synonyms": ["Butalbital"]}, {"conceptId": "C184610", "definition": "A measurement of the butorphanol in a biological specimen.", "preferredTerm": "Butorphanol Measurement", "submissionValue": "BTRPHNL", "synonyms": ["Butorphanol"]}, {"conceptId": "C111142", "definition": "A measurement of the total butyrylcholinesterase in a biological specimen.", "preferredTerm": "Butyrylcholinesterase Measurement", "submissionValue": "BUCHE", "synonyms": ["Acylcholine Acylhydrolase", "Butyrylcholinesterase", "Non-neuronal Cholinesterase", "Plasma Cholinesterase", "Pseudocholinesterase"]}, {"conceptId": "C75352", "definition": "A measurement of the buprenorphine drug present in a biological specimen.", "preferredTerm": "Buprenorphine Measurement", "submissionValue": "BUPREN", "synonyms": ["Buprenorphine"]}, {"conceptId": "C74701", "definition": "A measurement of the Burr cells (erythrocytes characterized by the presence of small, blunt projections evenly distributed across the cell surface) in a biological specimen.", "preferredTerm": "Burr Cell Count", "submissionValue": "BURRCE", "synonyms": ["Burr Cells", "Echinocytes"]}, {"conceptId": "C184532", "definition": "A measurement of the butylone in a biological specimen.", "preferredTerm": "Butylone Measurement", "submissionValue": "BUTYLN", "synonyms": ["Butylone"]}, {"conceptId": "C184554", "definition": "A measurement of the benzylpiperazine in a biological specimen.", "preferredTerm": "Benzylpiperazine Measurement", "submissionValue": "BZP", "synonyms": ["1-benzylpiperazine", "Benzylpiperazine", "N-benzylpiperazine"]}, {"conceptId": "C130068", "definition": "A measurement of the Cynodon dactylon pollen antigen IgE antibody in a biological specimen.", "preferredTerm": "Bermuda Grass Pollen IgE Measurement", "submissionValue": "C130068", "synonyms": ["Bermuda Grass Pollen IgE"]}, {"conceptId": "C130069", "definition": "A measurement of the Cynodon dactylon pollen antigen IgA antibody in a biological specimen.", "preferredTerm": "Bermuda Grass Pollen IgA Measurement", "submissionValue": "C130069", "synonyms": ["Bermuda Grass Pollen IgA"]}, {"conceptId": "C130070", "definition": "A measurement of the Cynodon dactylon pollen antigen IgG antibody in a biological specimen.", "preferredTerm": "Bermuda Grass Pollen IgG Measurement", "submissionValue": "C130070", "synonyms": ["Bermuda Grass Pollen IgG"]}, {"conceptId": "C130071", "definition": "A measurement of the Cynodon dactylon pollen antigen IgG4 antibody in a biological specimen.", "preferredTerm": "Bermuda Grass Pollen IgG4 Measurement", "submissionValue": "C130071", "synonyms": ["Bermuda Grass Pollen IgG4"]}, {"conceptId": "C130072", "definition": "A measurement of the Betula pollen antigen IgE antibody in a biological specimen.", "preferredTerm": "Birch Pollen IgE Measurement", "submissionValue": "C130072", "synonyms": ["Birch Pollen IgE"]}, {"conceptId": "C130073", "definition": "A measurement of the Betula pollen antigen IgA antibody in a biological specimen.", "preferredTerm": "Birch Pollen IgA Measurement", "submissionValue": "C130073", "synonyms": ["Birch Pollen IgA"]}, {"conceptId": "C130074", "definition": "A measurement of the Betula pollen antigen IgG antibody in a biological specimen.", "preferredTerm": "Birch Pollen IgG Measurement", "submissionValue": "C130074", "synonyms": ["Birch Pollen IgG"]}, {"conceptId": "C130075", "definition": "A measurement of the Betula pollen antigen IgG4 antibody in a biological specimen.", "preferredTerm": "Birch Pollen IgG4 Measurement", "submissionValue": "C130075", "synonyms": ["Birch Pollen IgG4"]}, {"conceptId": "C130076", "definition": "A measurement of the Betula verrucosa pollen antigen IgE antibody in a biological specimen.", "preferredTerm": "Silver Birch Pollen IgE Measurement", "submissionValue": "C130076", "synonyms": ["Silver Birch Pollen IgE"]}, {"conceptId": "C130077", "definition": "A measurement of the Betula verrucosa pollen antigen IgA antibody in a biological specimen.", "preferredTerm": "Silver Birch Pollen IgA Measurement", "submissionValue": "C130077", "synonyms": ["Silver Birch Pollen IgA"]}, {"conceptId": "C130078", "definition": "A measurement of the Betula verrucosa pollen antigen IgG antibody in a biological specimen.", "preferredTerm": "Silver Birch Pollen IgG Measurement", "submissionValue": "C130078", "synonyms": ["Silver Birch Pollen IgG"]}, {"conceptId": "C130079", "definition": "A measurement of the Betula verrucosa pollen antigen IgG4 antibody in a biological specimen.", "preferredTerm": "Silver Birch Pollen IgG4 Measurement", "submissionValue": "C130079", "synonyms": ["Silver Birch Pollen IgG4"]}, {"conceptId": "C130080", "definition": "A measurement of the Dactylis glomerata pollen antigen IgE antibody in a biological specimen.", "preferredTerm": "Orchard Grass Pollen IgE Measurement", "submissionValue": "C130080", "synonyms": ["Cocksfoot Grass Pollen IgE", "Orchard Grass Pollen IgE"]}, {"conceptId": "C130081", "definition": "A measurement of the Dactylis glomerata pollen antigen IgA antibody in a biological specimen.", "preferredTerm": "Orchard Grass Pollen IgA Measurement", "submissionValue": "C130081", "synonyms": ["Cocksfoot Grass Pollen IgA", "Orchard Grass Pollen IgA"]}, {"conceptId": "C130082", "definition": "A measurement of the Dactylis glomerata pollen antigen IgG antibody in a biological specimen.", "preferredTerm": "Orchard Grass Pollen IgG Measurement", "submissionValue": "C130082", "synonyms": ["Cocksfoot Grass Pollen IgG", "Orchard Grass Pollen IgG"]}, {"conceptId": "C130083", "definition": "A measurement of the Dactylis glomerata pollen antigen IgG4 antibody in a biological specimen.", "preferredTerm": "Orchard Grass Pollen IgG4 Measurement", "submissionValue": "C130083", "synonyms": ["Cocksfoot Grass Pollen IgG4", "Orchard Grass Pollen IgG4"]}, {"conceptId": "C130084", "definition": "A measurement of the Plantagio lanceolata pollen antigen IgE antibody in a biological specimen.", "preferredTerm": "English Plantain Pollen IgE Measurement", "submissionValue": "C130084", "synonyms": ["English Plantain Pollen IgE"]}, {"conceptId": "C130085", "definition": "A measurement of the Plantagio lanceolata pollen antigen IgA antibody in a biological specimen.", "preferredTerm": "English Plantain Pollen IgA Measurement", "submissionValue": "C130085", "synonyms": ["English Plantain Pollen IgA"]}, {"conceptId": "C130086", "definition": "A measurement of the Plantagio lanceolata pollen antigen IgG antibody in a biological specimen.", "preferredTerm": "English Plantain Pollen IgG Measurement", "submissionValue": "C130086", "synonyms": ["English Plantain Pollen IgG"]}, {"conceptId": "C130087", "definition": "A measurement of the Plantagio lanceolata pollen antigen IgG4 antibody in a biological specimen.", "preferredTerm": "English Plantain Pollen IgG4 Measurement", "submissionValue": "C130087", "synonyms": ["English Plantain Pollen IgG4"]}, {"conceptId": "C130088", "definition": "A measurement of the Phleum pratense pollen antigen IgE antibody in a biological specimen.", "preferredTerm": "Timothy Grass Pollen IgE Measurement", "submissionValue": "C130088", "synonyms": ["Timothy Grass Pollen IgE"]}, {"conceptId": "C130089", "definition": "A measurement of the Phleum pratense pollen antigen IgA antibody in a biological specimen.", "preferredTerm": "Timothy Grass Pollen IgA Measurement", "submissionValue": "C130089", "synonyms": ["Timothy Grass Pollen IgA"]}, {"conceptId": "C130090", "definition": "A measurement of the Phleum pratense pollen antigen IgG antibody in a biological specimen.", "preferredTerm": "Timothy Grass Pollen IgG Measurement", "submissionValue": "C130090", "synonyms": ["Timothy Grass Pollen IgG"]}, {"conceptId": "C130091", "definition": "A measurement of the Phleum pratense pollen antigen IgG4 antibody in a biological specimen.", "preferredTerm": "Timothy Grass Pollen IgG4 Measurement", "submissionValue": "C130091", "synonyms": ["Timothy Grass Pollen IgG4"]}, {"conceptId": "C130092", "definition": "A measurement of the Ambrosia psilostachya pollen antigen IgE antibody in a biological specimen.", "preferredTerm": "Western Ragweed Pollen IgE Measurement", "submissionValue": "C130092", "synonyms": ["Western Ragweed Pollen IgE"]}, {"conceptId": "C130093", "definition": "A measurement of the Ambrosia psilostachya pollen antigen IgA antibody in a biological specimen.", "preferredTerm": "Western Ragweed Pollen IgA Measurement", "submissionValue": "C130093", "synonyms": ["Western Ragweed Pollen IgA"]}, {"conceptId": "C130094", "definition": "A measurement of the Ambrosia psilostachya pollen antigen IgG antibody in a biological specimen.", "preferredTerm": "Western Ragweed Pollen IgG Measurement", "submissionValue": "C130094", "synonyms": ["Western Ragweed Pollen IgG"]}, {"conceptId": "C130095", "definition": "A measurement of the Ambrosia psilostachya pollen antigen IgG4 antibody in a biological specimen.", "preferredTerm": "Western Ragweed Pollen IgG4 Measurement", "submissionValue": "C130095", "synonyms": ["Western Ragweed Pollen IgG4"]}, {"conceptId": "C130100", "definition": "A measurement of the mixed antigen IgE antibody in a biological specimen.", "preferredTerm": "Mixed Antigen IgE Antibody Measurement", "submissionValue": "C130100", "synonyms": ["Mixed Antigen IgE Antibody"]}, {"conceptId": "C130101", "definition": "A measurement of the tree mix pollen antigen IgE antibody in a biological specimen.", "preferredTerm": "Tree Mix Pollen Antigen IgE Antibody Measurement", "submissionValue": "C130101", "synonyms": ["Tree Mix Pollen Antigen IgE Antibody"]}, {"conceptId": "C130102", "definition": "A measurement of the tree mix pollen antigen IgG antibody in a biological specimen.", "preferredTerm": "Tree Mix Pollen Antigen IgG Antibody Measurement", "submissionValue": "C130102", "synonyms": ["Tree Mix Pollen Antigen IgG Antibody"]}, {"conceptId": "C130103", "definition": "A measurement of the grass mix pollen antigen IgE antibody in a biological specimen.", "preferredTerm": "Grass Mix Pollen Antigen IgE Antibody Measurement", "submissionValue": "C130103", "synonyms": ["Grass Mix Pollen Antigen IgE Antibody"]}, {"conceptId": "C130104", "definition": "A measurement of the grass mix pollen antigen IgG antibody in a biological specimen.", "preferredTerm": "Grass Mix Pollen Antigen IgG Antibody Measurement", "submissionValue": "C130104", "synonyms": ["Grass Mix Pollen Antigen IgG Antibody"]}, {"conceptId": "C130105", "definition": "A measurement of the grass mix pollen antigen IgA antibody in a biological specimen.", "preferredTerm": "Grass Mix Pollen Antigen IgA Antibody Measurement", "submissionValue": "C130105", "synonyms": ["Grass Mix Pollen Antigen IgA Antibody"]}, {"conceptId": "C130106", "definition": "A measurement of the weed mix pollen antigen IgE antibody in a biological specimen.", "preferredTerm": "Weed Mix Pollen Antigen IgE Antibody Measurement", "submissionValue": "C130106", "synonyms": ["Weed Mix Pollen Antigen IgE Antibody"]}, {"conceptId": "C130107", "definition": "A measurement of the weed mix pollen antigen IgG antibody in a biological specimen.", "preferredTerm": "Weed Mix Pollen Antigen IgG Antibody Measurement", "submissionValue": "C130107", "synonyms": ["Weed Mix Pollen Antigen IgG Antibody"]}, {"conceptId": "C130108", "definition": "A measurement of the weed mix pollen antigen IgA antibody in a biological specimen.", "preferredTerm": "Weed Mix Pollen Antigen IgA Antibody Measurement", "submissionValue": "C130108", "synonyms": ["Weed Mix Pollen Antigen IgA Antibody"]}, {"conceptId": "C130109", "definition": "A measurement of the mold mix antigen IgE antibody in a biological specimen.", "preferredTerm": "Mold Mix Antigen IgE Antibody Measurement", "submissionValue": "C130109", "synonyms": ["Mold Mix Antigen IgE Antibody"]}, {"conceptId": "C130110", "definition": "A measurement of the mold mix antigen IgG antibody in a biological specimen.", "preferredTerm": "Mold Mix Antigen IgG Antibody Measurement", "submissionValue": "C130110", "synonyms": ["Mold Mix Antigen IgG Antibody"]}, {"conceptId": "C130111", "definition": "A measurement of the mold mix antigen IgA antibody in a biological specimen.", "preferredTerm": "Mold Mix Antigen IgA Antibody Measurement", "submissionValue": "C130111", "synonyms": ["Mold Mix Antigen IgA Antibody"]}, {"conceptId": "C130112", "definition": "A measurement of the animal mix antigen IgE antibody in a biological specimen.", "preferredTerm": "Animal Mix Antigen IgE Antibody Measurement", "submissionValue": "C130112", "synonyms": ["Animal Mix Antigen IgE Antibody"]}, {"conceptId": "C130113", "definition": "A measurement of the animal mix antigen IgG antibody in a biological specimen.", "preferredTerm": "Animal Mix Antigen IgG Antibody Measurement", "submissionValue": "C130113", "synonyms": ["Animal Mix Antigen IgG Antibody"]}, {"conceptId": "C130114", "definition": "A measurement of the industrial mix antigen IgE antibody in a biological specimen.", "preferredTerm": "Industrial Mix Antigen IgE Antibody Measurement", "submissionValue": "C130114", "synonyms": ["Industrial Mix Antigen IgE Antibody"]}, {"conceptId": "C130115", "definition": "A measurement of the industrial mix antigen IgG antibody in a biological specimen.", "preferredTerm": "Industrial Mix Antigen IgG Antibody Measurement", "submissionValue": "C130115", "synonyms": ["Industrial Mix Antigen IgG Antibody"]}, {"conceptId": "C130116", "definition": "A measurement of the bee mix antigen IgE antibody in a biological specimen.", "preferredTerm": "Bee Mix Antigen IgE Antibody Measurement", "submissionValue": "C130116", "synonyms": ["Bee Mix Antigen IgE Antibody"]}, {"conceptId": "C130117", "definition": "A measurement of the bee mix antigen IgG antibody in a biological specimen.", "preferredTerm": "Bee Mix Antigen IgG Antibody Measurement", "submissionValue": "C130117", "synonyms": ["Bee Mix Antigen IgG Antibody"]}, {"conceptId": "C130118", "definition": "A measurement of the bee mix antigen IgG4 antibody in a biological specimen.", "preferredTerm": "Bee Mix Antigen IgG4 Antibody Measurement", "submissionValue": "C130118", "synonyms": ["Bee Mix Antigen IgG4 Antibody"]}, {"conceptId": "C130119", "definition": "A measurement of the dairy mix antigen IgG antibody in a biological specimen.", "preferredTerm": "Dairy Mix Antigen IgG Antibody Measurement", "submissionValue": "C130119", "synonyms": ["Dairy Mix Antigen IgG Antibody"]}, {"conceptId": "C130120", "definition": "A measurement of the shellfish mix antigen IgE antibody in a biological specimen.", "preferredTerm": "Shellfish Mix Antigen IgE Antibody Measurement", "submissionValue": "C130120", "synonyms": ["Shellfish Mix Antigen IgE Antibody"]}, {"conceptId": "C130121", "definition": "A measurement of the shellfish mix antigen IgG antibody in a biological specimen.", "preferredTerm": "Shellfish Mix Antigen IgG Antibody Measurement", "submissionValue": "C130121", "synonyms": ["Shellfish Mix Antigen IgG Antibody"]}, {"conceptId": "C130122", "definition": "A measurement of the nut mix antigen IgE antibody in a biological specimen.", "preferredTerm": "Nut Mix Antigen IgE Antibody Measurement", "submissionValue": "C130122", "synonyms": ["Nut Mix Antigen IgE Antibody"]}, {"conceptId": "C130123", "definition": "A measurement of the nut mix antigen IgG antibody in a biological specimen.", "preferredTerm": "Nut Mix Antigen IgG Antibody Measurement", "submissionValue": "C130123", "synonyms": ["Nut Mix Antigen IgG Antibody"]}, {"conceptId": "C130124", "definition": "A measurement of the Felis catus dander antigen IgE antibody in a biological specimen.", "preferredTerm": "Cat Dander Antigen IgE Antibody Measurement", "submissionValue": "C130124", "synonyms": ["Cat Dander Antigen IgE Antibody"]}, {"conceptId": "C130125", "definition": "A measurement of the Felis catus dander antigen IgG antibody in a biological specimen.", "preferredTerm": "Cat Dander Antigen IgG Antibody Measurement", "submissionValue": "C130125", "synonyms": ["Cat Dander Antigen IgG Antibody"]}, {"conceptId": "C130126", "definition": "A measurement of the Felis catus dander antigen IgA antibody in a biological specimen.", "preferredTerm": "Cat Dander Antigen IgA Antibody Measurement", "submissionValue": "C130126", "synonyms": ["Cat Dander Antigen IgA Antibody"]}, {"conceptId": "C130127", "definition": "A measurement of the Felis catus dander antigen IgG4 antibody in a biological specimen.", "preferredTerm": "Cat Dander Antigen IgG4 Antibody Measurement", "submissionValue": "C130127", "synonyms": ["Cat Dander Antigen IgG4 Antibody"]}, {"conceptId": "C130128", "definition": "A measurement of the Canis lupus dander antigen IgE antibody in a biological specimen.", "preferredTerm": "Dog Dander Antigen IgE Antibody Measurement", "submissionValue": "C130128", "synonyms": ["Dog Dander Antigen IgE Antibody"]}, {"conceptId": "C130129", "definition": "A measurement of the Canis lupus dander antigen IgG antibody in a biological specimen.", "preferredTerm": "Dog Dander Antigen IgG Antibody Measurement", "submissionValue": "C130129", "synonyms": ["Dog Dander Antigen IgG Antibody"]}, {"conceptId": "C130130", "definition": "A measurement of the Canis lupus dander antigen IgA antibody in a biological specimen.", "preferredTerm": "Dog Dander Antigen IgA Antibody Measurement", "submissionValue": "C130130", "synonyms": ["Dog Dander Antigen IgA Antibody"]}, {"conceptId": "C130131", "definition": "A measurement of the Canis lupus dander antigen IgG4 antibody in a biological specimen.", "preferredTerm": "Dog Dander Antigen IgG4 Antibody Measurement", "submissionValue": "C130131", "synonyms": ["Dog Dander Antigen IgG4 Antibody"]}, {"conceptId": "C130132", "definition": "A measurement of the Dermatophagoides farinae antigen IgE antibody in a biological specimen.", "preferredTerm": "Dermatophagoides farinae Antigen IgE Antibody Measurement", "submissionValue": "C130132", "synonyms": ["American House Dust Mite IgE Antibody", "D. farinae Antigen IgE Antibody", "Dermatophagoides farinae IgE Antibody"]}, {"conceptId": "C130133", "definition": "A measurement of the Dermatophagoides farinae antigen IgG antibody in a biological specimen.", "preferredTerm": "Dermatophagoides farinae Antigen IgG Antibody Measurement", "submissionValue": "C130133", "synonyms": ["American House Dust Mite IgG Antibody", "D. farinae Antigen IgG Antibody", "Dermatophagoides farinae IgG Antibody"]}, {"conceptId": "C130134", "definition": "A measurement of the Dermatophagoides pteronyssinus antigen IgE antibody in a biological specimen.", "preferredTerm": "Dermatophagoides pteronyssinus Antigen IgE Antibody Measurement", "submissionValue": "C130134", "synonyms": ["D. pteronyssinus Antigen IgE Antibody", "Dermatophagoides pteronyssinus IgE Antibody", "European House Dust Mite IgE Antibody"]}, {"conceptId": "C130135", "definition": "A measurement of the Dermatophagoides pteronyssinus antigen IgG antibody in a biological specimen.", "preferredTerm": "Dermatophagoides pteronyssinus Antigen IgG Antibody Measurement", "submissionValue": "C130135", "synonyms": ["D. pteronyssinus Antigen IgG Antibody", "Dermatophagoides pteronyssinus IgG Antibody", "European House Dust Mite IgG Antibody"]}, {"conceptId": "C130136", "definition": "A measurement of the Periplaneta americana antigen IgE antibody in a biological specimen.", "preferredTerm": "American Cockroach Antigen IgE Antibody Measurement", "submissionValue": "C130136", "synonyms": ["American Cockroach Antigen IgE Antibody"]}, {"conceptId": "C130137", "definition": "A measurement of the Periplaneta americana antigen IgA antibody in a biological specimen.", "preferredTerm": "American Cockroach Antigen IgA Antibody Measurement", "submissionValue": "C130137", "synonyms": ["American Cockroach Antigen IgA Antibody"]}, {"conceptId": "C130138", "definition": "A measurement of the Periplaneta americana antigen IgG antibody in a biological specimen.", "preferredTerm": "American Cockroach Antigen IgG Antibody Measurement", "submissionValue": "C130138", "synonyms": ["American Cockroach Antigen IgG Antibody"]}, {"conceptId": "C130139", "definition": "A measurement of the Periplaneta americana antigen IgG4 antibody in a biological specimen.", "preferredTerm": "American Cockroach Antigen IgG4 Antibody Measurement", "submissionValue": "C130139", "synonyms": ["American Cockroach Antigen IgG4 Antibody"]}, {"conceptId": "C130140", "definition": "A measurement of the Blattella germanica antigen IgE antibody in a biological specimen.", "preferredTerm": "German Cockroach Antigen IgE Antibody Measurement", "submissionValue": "C130140", "synonyms": ["German Cockroach Antigen IgE Antibody"]}, {"conceptId": "C130141", "definition": "A measurement of the Blattella germanica antigen IgA antibody in a biological specimen.", "preferredTerm": "German Cockroach Antigen IgA Antibody Measurement", "submissionValue": "C130141", "synonyms": ["German Cockroach Antigen IgA Antibody"]}, {"conceptId": "C130142", "definition": "A measurement of the Blattella germanica antigen IgG antibody in a biological specimen.", "preferredTerm": "German Cockroach Antigen IgG Antibody Measurement", "submissionValue": "C130142", "synonyms": ["German Cockroach Antigen IgG Antibody"]}, {"conceptId": "C130143", "definition": "A measurement of the Blattella germanica antigen IgG4 antibody in a biological specimen.", "preferredTerm": "German Cockroach Antigen IgG4 Antibody Measurement", "submissionValue": "C130143", "synonyms": ["German Cockroach Antigen IgG4 Antibody"]}, {"conceptId": "C147276", "definition": "A measurement of the Arachis hypogaea antigen IgE antibody in a biological specimen.", "preferredTerm": "Arachis hypogaea Antigen IgE Antibody Measurement", "submissionValue": "C147276", "synonyms": ["Arachis hypogaea Antigen IgE Antibody", "Peanut Antigen IgE Antibody"]}, {"conceptId": "C147277", "definition": "A measurement of the Triticum aestivum antigen IgE antibody in a biological specimen.", "preferredTerm": "Triticum aestivum Antigen IgE Antibody Measurement", "submissionValue": "C147277", "synonyms": ["Bread Wheat Antigen IgE Antibody", "Triticum aestivum Antigen IgE Antibody"]}, {"conceptId": "C147278", "definition": "A measurement of the Glycine max antigen IgE antibody in a biological specimen.", "preferredTerm": "Glycine max Antigen IgE Antibody Measurement", "submissionValue": "C147278", "synonyms": ["Glycine max Antigen IgE Antibody", "Soybean Antigen IgE Antibody"]}, {"conceptId": "C147279", "definition": "A measurement of the Zea mays antigen IgE antibody in a biological specimen.", "preferredTerm": "Zea mays Antigen IgE Antibody Measurement", "submissionValue": "C147279", "synonyms": ["Corn Antigen IgE Antibody", "Zea mays Antigen IgE Antibody"]}, {"conceptId": "C147280", "definition": "A measurement of the cow milk protein antigen IgE antibody in a biological specimen.", "preferredTerm": "Cow Milk Protein Antigen IgE Antibody Measurement", "submissionValue": "C147280", "synonyms": ["Cow Milk Protein Antigen IgE Antibody"]}, {"conceptId": "C147281", "definition": "A measurement of the egg white antigen IgE antibody in a biological specimen.", "preferredTerm": "Egg White Antigen IgE Antibody Measurement", "submissionValue": "C147281", "synonyms": ["Egg White Antigen IgE Antibody"]}, {"conceptId": "C147282", "definition": "A measurement of the Quercus alba pollen antigen IgE antibody in a biological specimen.", "preferredTerm": "White Oak Pollen IgE Antibody Measurement", "submissionValue": "C147282", "synonyms": ["White Oak Pollen IgE Antibody"]}, {"conceptId": "C147283", "definition": "A measurement of the Ulmus americana pollen antigen IgG antibody in a biological specimen.", "preferredTerm": "White Elm Pollen IgG Antibody Measurement", "submissionValue": "C147283", "synonyms": ["White Elm Pollen IgG Antibody"]}, {"conceptId": "C147284", "definition": "A measurement of the Acer negundo pollen antigen IgE antibody in a biological specimen.", "preferredTerm": "Boxelder Pollen IgE Antibody Measurement", "submissionValue": "C147284", "synonyms": ["Boxelder Pollen IgE Antibody"]}, {"conceptId": "C147285", "definition": "A measurement of the Ambrosia elatior pollen antigen IgE antibody in a biological specimen.", "preferredTerm": "Common Ragweed Pollen IgE Antibody Measurement", "submissionValue": "C147285", "synonyms": ["Common Ragweed Pollen IgE Antibody"]}, {"conceptId": "C165875", "definition": "A classification of the amount of Cynodon dactylon pollen antigen IgE antibody, using the RAST (radioallergosorbent test) scoring system, in a biological specimen.", "preferredTerm": "Bermuda Grass Pollen IgE Antibody RAST Score Measurement", "submissionValue": "C165875", "synonyms": ["Bermuda Grass Pollen IgE AB RAST Score"]}, {"conceptId": "C165876", "definition": "A classification of the amount of Betula pollen antigen IgE antibody, using the RAST (radioallergosorbent test) scoring system, in a biological specimen.", "preferredTerm": "Birch Pollen IgE Antibody RAST Score Measurement", "submissionValue": "C165876", "synonyms": ["Birch Pollen IgE AB RAST Score"]}, {"conceptId": "C165877", "definition": "A classification of the amount of Felis catus dander antigen IgE antibody, using the RAST (radioallergosorbent test) scoring system, in a biological specimen.", "preferredTerm": "Cat Dander IgE Antibody RAST Score Measurement", "submissionValue": "C165877", "synonyms": ["Cat Dander IgE AB RAST Score"]}, {"conceptId": "C165878", "definition": "A classification of the amount of Blattella germanica antigen IgE antibody, using the RAST (radioallergosorbent test) scoring system, in a biological specimen.", "preferredTerm": "German Cockroach IgE Antibody RAST Score Measurement", "submissionValue": "C165878", "synonyms": ["German Cockroach IgE AB RAST Score"]}, {"conceptId": "C165879", "definition": "A classification of the amount of Dermatophagoides farinae IgE antibody, using the RAST (radioallergosorbent test) scoring system, in a biological specimen.", "preferredTerm": "Dermatophagoides farinae IgE Antibody RAST Score Measurement", "submissionValue": "C165879", "synonyms": ["American House Dust Mite IgE Antibody RAST Score", "D. farinae IgE AB RAST Score", "Dermatophagoides farinae IgE Antibody RAST Score"]}, {"conceptId": "C165880", "definition": "A classification of the amount of Dermatophagoides pteronyssinus antigen IgE antibody, using the RAST (radioallergosorbent test) scoring system, in a biological specimen.", "preferredTerm": "Dermatophagoides pteronyssinus IgE Antibody RAST Score Measurement", "submissionValue": "C165880", "synonyms": ["D. pteronyssinus IgE AB RAST Score", "Dermatophagoides pteronyssinus IgE Antibody RAST Score", "European House Dust Mite IgE Antibody RAST Score"]}, {"conceptId": "C165881", "definition": "A measurement of the Ulmus americana pollen antigen IgE antibody in a biological specimen.", "preferredTerm": "White Elm Pollen IgE Antibody Measurement", "submissionValue": "C165881", "synonyms": ["White Elm Pollen IgE Antibody"]}, {"conceptId": "C165882", "definition": "A classification of the amount of Ulmus americana pollen antigen IgE antibody, using the RAST (radioallergosorbent test) scoring system, in a biological specimen.", "preferredTerm": "White Elm Pollen IgE Antibody RAST Score Measurement", "submissionValue": "C165882", "synonyms": ["White Elm Pollen IgE AB RAST Score"]}, {"conceptId": "C165883", "definition": "A classification of the amount of Dactylis glomerata pollen antigen IgE antibody, using the RAST (radioallergosorbent test) scoring system, in a biological specimen.", "preferredTerm": "Orchard Grass Pollen IgE Antibody RAST Score Measurement", "submissionValue": "C165883", "synonyms": ["Orchard Grass Pollen IgE AB RAST Score"]}, {"conceptId": "C165884", "definition": "A measurement of the Olea europaea pollen antigen IgE antibody in a biological specimen.", "preferredTerm": "Olive Tree Pollen IgE Antibody Measurement", "submissionValue": "C165884", "synonyms": ["Olive Tree Pollen IgE Antibody"]}, {"conceptId": "C165885", "definition": "A classification of the amount of Olea europaea pollen antigen IgE antibody, using the RAST (radioallergosorbent test) scoring system, in a biological specimen.", "preferredTerm": "Olive Tree Pollen IgE Antibody RAST Score Measurement", "submissionValue": "C165885", "synonyms": ["Olive Tree Pollen IgE AB RAST Score"]}, {"conceptId": "C165886", "definition": "A classification of the amount of Quercus alba pollen antigen IgE antibody, using the RAST (radioallergosorbent test) scoring system, in a biological specimen.", "preferredTerm": "White Oak Pollen IgE Antibody RAST Score Measurement", "submissionValue": "C165886", "synonyms": ["White Oak Pollen IgE AB RAST Score"]}, {"conceptId": "C165887", "definition": "A classification of the amount of Plantagio lanceolata pollen antigen IgE antibody, using the RAST (radioallergosorbent test) scoring system, in a biological specimen.", "preferredTerm": "English Plantain Pollen IgE Antibody RAST Score Measurement", "submissionValue": "C165887", "synonyms": ["English Plantain Pollen IgE AB RAST Score", "EnglishPlantain Pollen IgE AB RAST Score"]}, {"conceptId": "C165888", "definition": "A measurement of the Salsola tragus pollen antigen IgE antibody in a biological specimen.", "preferredTerm": "Russian Thistle Pollen IgE Antibody Measurement", "submissionValue": "C165888", "synonyms": ["Russian Thistle Pollen IgE Antibody"]}, {"conceptId": "C165889", "definition": "A classification of the amount of Salsola tragus pollen antigen IgE antibody, using the RAST (radioallergosorbent test) scoring system, in a biological specimen.", "preferredTerm": "Russian Thistle Pollen IgE Antibody RAST Score Measurement", "submissionValue": "C165889", "synonyms": ["Russian Thistle Pollen IgE AB RAST Score"]}, {"conceptId": "C165890", "definition": "A classification of the amount of Phleum pratense pollen antigen IgE antibody, using the RAST (radioallergosorbent test) scoring system, in a biological specimen.", "preferredTerm": "Timothy Grass Pollen IgE Antibody RAST Score Measurement", "submissionValue": "C165890", "synonyms": ["Timothy Grass Pollen IgE AB RAST Score"]}, {"conceptId": "C165891", "definition": "A classification of the amount of Ambrosia psilostachya pollen antigen IgE antibody, using the RAST (radioallergosorbent test) scoring system, in a biological specimen.", "preferredTerm": "Western Ragweed Pollen IgE Antibody RAST Score Measurement", "submissionValue": "C165891", "synonyms": ["Western Ragweed Pollen IgE AB RAST Score"]}, {"conceptId": "C165892", "definition": "A measurement of the Elymus tricoides pollen antigen IgE antibody in a biological specimen.", "preferredTerm": "Wild Rye Pollen IgE Antibody Measurement", "submissionValue": "C165892", "synonyms": ["Wild Rye Pollen IgE Antibody"]}, {"conceptId": "C165893", "definition": "A classification of the amount of Elymus tricoides pollen antigen IgE antibody, using the RAST (radioallergosorbent test) scoring system, in a biological specimen.", "preferredTerm": "Wild Rye Pollen IgE Antibody RAST Score Measurement", "submissionValue": "C165893", "synonyms": ["Wild Rye Pollen IgE AB RAST Score"]}, {"conceptId": "C165894", "definition": "A measurement of the Dermatophagoides farinae antigen IgG4 antibody in a biological specimen.", "preferredTerm": "Dermatophagoides farinae Antigen IgG4 Antibody Measurement", "submissionValue": "C165894", "synonyms": ["American House Dust Mite IgG4 Antibody", "D. farinae Antigen IgG4 Antibody", "Dermatophagoides farinae IgG4 Antibody"]}, {"conceptId": "C165895", "definition": "A measurement of the Sorghum halepense pollen IgG4 antibody in a biological specimen.", "preferredTerm": "Johnson Grass Pollen IgG4 Antibody Measurement", "submissionValue": "C165895", "synonyms": ["Johnson Grass Pollen IgG4 Antibody"]}, {"conceptId": "C165896", "definition": "A measurement of the Dermatophagoides pteronyssinus antigen IgG4 antibody in a biological specimen.", "preferredTerm": "Dermatophagoides pteronyssinus Antigen IgG4 Antibody Measurement", "submissionValue": "C165896", "synonyms": ["D. pteronyssinus Antigen IgG4 Antibody", "Dermatophagoides pteronyssinus IgG4 Antibody", "European House Dust Mite IgG4 Antibody"]}, {"conceptId": "C165897", "definition": "A classification of the amount of Cynodon dactylon pollen IgG antibody, using the RAST (radioallergosorbent test) scoring system, in a biological specimen.", "preferredTerm": "Bermuda Grass Pollen IgG Antibody RAST Score Measurement", "submissionValue": "C165897", "synonyms": ["Bermuda Grass Pollen IgG AB RAST Score"]}, {"conceptId": "C165898", "definition": "A classification of the amount of Betula pollen IgG antibody, using the RAST (radioallergosorbent test) scoring system, in a biological specimen.", "preferredTerm": "Birch Pollen IgG Antibody RAST Score Measurement", "submissionValue": "C165898", "synonyms": ["Birch Pollen IgG AB RAST Score"]}, {"conceptId": "C165899", "definition": "A classification of the amount of Betula verrucosa pollen IgG antibody, using the RAST (radioallergosorbent test) scoring system, in a biological specimen.", "preferredTerm": "Silver Birch Pollen IgG Antibody RAST Score Measurement", "submissionValue": "C165899", "synonyms": ["Silver Birch Pollen IgG AB RAST Score"]}, {"conceptId": "C165900", "definition": "A classification of the amount of Dactylis glomerata pollen IgG antibody, using the RAST (radioallergosorbent test) scoring system, in a biological specimen.", "preferredTerm": "Orchard Grass Pollen IgG Antibody RAST Score Measurement", "submissionValue": "C165900", "synonyms": ["Cocksfoot Grass Pollen IgG RAST Score", "Orchard Grass Pollen IgG AB RAST Score"]}, {"conceptId": "C165901", "definition": "A classification of the amount of Plantagio lanceolata pollen IgG antibody, using the RAST (radioallergosorbent test) scoring system, in a biological specimen.", "preferredTerm": "English Plantain Pollen IgG Antibody RAST Score Measurement", "submissionValue": "C165901", "synonyms": ["English Plantain Pollen IgG AB RAST Score", "EnglishPlantain Pollen IgG AB RAST Score"]}, {"conceptId": "C165902", "definition": "A classification of the amount of Phleum pratense pollen IgG antibody, using the RAST (radioallergosorbent test) scoring system, in a biological specimen.", "preferredTerm": "Timothy Grass Pollen IgG Antibody RAST Score Measurement", "submissionValue": "C165902", "synonyms": ["Timothy Grass Pollen IgG AB RAST Score"]}, {"conceptId": "C165903", "definition": "A classification of the amount of Ambrosia psilostachya pollen IgG antibody, using the RAST (radioallergosorbent test) scoring system, in a biological specimen.", "preferredTerm": "Western Ragweed Pollen IgG Antibody RAST Score Measurement", "submissionValue": "C165903", "synonyms": ["Western Ragweed Pollen IgG AB RAST Score"]}, {"conceptId": "C165904", "definition": "A classification of the amount of tree mix pollen IgG antibody, using the RAST (radioallergosorbent test) scoring system, in a biological specimen.", "preferredTerm": "Tree Mix Pollen IgG Antibody RAST Score Measurement", "submissionValue": "C165904", "synonyms": ["Tree Mix Pollen IgG AB RAST Score"]}, {"conceptId": "C165905", "definition": "A classification of the amount of tree grass pollen IgG antibody, using the RAST (radioallergosorbent test) scoring system, in a biological specimen.", "preferredTerm": "Grass Mix Pollen IgG Antibody RAST Score Measurement", "submissionValue": "C165905", "synonyms": ["Grass Mix Pollen IgG AB RAST Score"]}, {"conceptId": "C165906", "definition": "A classification of the amount of weed mix pollen IgG antibody, using the RAST (radioallergosorbent test) scoring system, in a biological specimen.", "preferredTerm": "Weed Mix Pollen IgG Antibody RAST Score Measurement", "submissionValue": "C165906", "synonyms": ["Weed Mix Pollen IgG AB RAST Score"]}, {"conceptId": "C165907", "definition": "A classification of the amount of mold mix  IgG antibody, using the RAST (radioallergosorbent test) scoring system, in a biological specimen.", "preferredTerm": "Mold Mix IgG Antibody RAST Score Measurement", "submissionValue": "C165907", "synonyms": ["Mold Mix IgG AB RAST Score"]}, {"conceptId": "C165908", "definition": "A classification of the amount of animal mix IgG antibody, using the RAST (radioallergosorbent test) scoring system, in a biological specimen.", "preferredTerm": "Animal Mix IgG Antibody RAST Score Measurement", "submissionValue": "C165908", "synonyms": ["Animal Mix IgG AB RAST Score"]}, {"conceptId": "C165909", "definition": "A classification of the amount of industrial mix IgG antibody, using the RAST (radioallergosorbent test) scoring system, in a biological specimen.", "preferredTerm": "Industrial Mix IgG Antibody RAST Score Measurement", "submissionValue": "C165909", "synonyms": ["Industrial Mix IgG AB RAST Score"]}, {"conceptId": "C165910", "definition": "A classification of the amount of bee mix IgG antibody, using the RAST (radioallergosorbent test) scoring system, in a biological specimen.", "preferredTerm": "Bee Mix IgG Antibody RAST Score Measurement", "submissionValue": "C165910", "synonyms": ["Bee Mix IgG AB RAST Score"]}, {"conceptId": "C165911", "definition": "A classification of the amount of dairy mix IgG antibody, using the RAST (radioallergosorbent test) scoring system, in a biological specimen.", "preferredTerm": "Dairy Mix IgG Antibody RAST Score Measurement", "submissionValue": "C165911", "synonyms": ["Dairy Mix IgG AB RAST Score"]}, {"conceptId": "C165912", "definition": "A classification of the amount of shellfish mix IgG antibody, using the RAST (radioallergosorbent test) scoring system, in a biological specimen.", "preferredTerm": "Shellfish Mix IgG Antibody RAST Score Measurement", "submissionValue": "C165912", "synonyms": ["Shellfish Mix IgG AB RAST Score"]}, {"conceptId": "C165913", "definition": "A classification of the amount of nut mix IgG antibody, using the RAST (radioallergosorbent test) scoring system, in a biological specimen.", "preferredTerm": "Nut Mix IgG Antibody RAST Score Measurement", "submissionValue": "C165913", "synonyms": ["Nut Mix IgG AB RAST Score"]}, {"conceptId": "C165914", "definition": "A classification of the amount of Felis cattus dander IgG antibody, using the RAST (radioallergosorbent test) scoring system, in a biological specimen.", "preferredTerm": "Cat Dander IgG Antibody RAST Score Measurement", "submissionValue": "C165914", "synonyms": ["Cat Dander IgG AB RAST Score"]}, {"conceptId": "C165915", "definition": "A classification of the amount of Canis lupus IgG antibody, using the RAST (radioallergosorbent test) scoring system, in a biological specimen.", "preferredTerm": "Dog Dander IgG Antibody RAST Score Measurement", "submissionValue": "C165915", "synonyms": ["Dog Dander IgG AB RAST Score"]}, {"conceptId": "C165916", "definition": "A classification of the amount of D. farinae antigen IgG antibody, using the RAST (radioallergosorbent test) scoring system, in a biological specimen.", "preferredTerm": "Dermatophagoides farinae IgG Antibody RAST Score Measurement", "submissionValue": "C165916", "synonyms": ["American House Dust Mite IgG Antibody RAST Score", "D. farinae IgG AB RAST Score"]}, {"conceptId": "C165917", "definition": "A classification of the amount of D. pteronyssinus antigen IgG antibody, using the RAST (radioallergosorbent test) scoring system, in a biological specimen.", "preferredTerm": "Dermatophagoides pteronyssinus IgG Antibody RAST Score Measurement", "submissionValue": "C165917", "synonyms": ["D. pteronyssinus Antigen IgG AB RAST Score", "Dermatophagoides pteronyssinus IgG Antibody", "European House Dust Mite IgG Antibody"]}, {"conceptId": "C165918", "definition": "A classification of the amount of Periplaneta americana antigen IgG antibody, using the RAST (radioallergosorbent test) scoring system, in a biological specimen.", "preferredTerm": "American Cockroach IgG Antibody RAST Score Measurement", "submissionValue": "C165918", "synonyms": ["American Cockroach IgG AB RAST Score"]}, {"conceptId": "C165919", "definition": "A classification of the amount of Blattella germanica antigen IgG antibody, using the RAST (radioallergosorbent test) scoring system, in a biological specimen.", "preferredTerm": "German Cockroach IgG Antibody RAST Score Measurement", "submissionValue": "C165919", "synonyms": ["German Cockroach IgG AB RAST Score"]}, {"conceptId": "C165920", "definition": "A classification of the amount of Ulmus americana pollen IgG antibody, using the RAST (radioallergosorbent test) scoring system, in a biological specimen.", "preferredTerm": "White Elm Pollen IgG Antibody RAST Score Measurement", "submissionValue": "C165920", "synonyms": ["White Elm Pollen IgG AB RAST Score"]}, {"conceptId": "C165921", "definition": "A classification of the amount of Betula pollen IgE antibody, using the RAST (radioallergosorbent test) scoring system, in a biological specimen.", "preferredTerm": "Silver Birch Pollen IgE Antibody RAST Score Measurement", "submissionValue": "C165921", "synonyms": ["Silver Birch Pollen IgE AB RAST Score"]}, {"conceptId": "C165922", "definition": "A classification of the amount of mixed antigen IgE antibody, using the RAST (radioallergosorbent test) scoring system, in a biological specimen.", "preferredTerm": "Mixed Antigen IgE Antibody RAST Score Measurement", "submissionValue": "C165922", "synonyms": ["Mixed Antigen IgE Antibody RAST Score"]}, {"conceptId": "C165923", "definition": "A classification of the amount of tree mix pollen IgE antibody, using the RAST (radioallergosorbent test) scoring system, in a biological specimen.", "preferredTerm": "Tree Mix Pollen IgE Antibody RAST Score Measurement", "submissionValue": "C165923", "synonyms": ["Tree Mix Pollen IgE AB RAST Score"]}, {"conceptId": "C165924", "definition": "A classification of the amount of grass mix pollen IgE antibody, using the RAST (radioallergosorbent test) scoring system, in a biological specimen.", "preferredTerm": "Grass Mix Pollen IgE Antibody RAST Score Measurement", "submissionValue": "C165924", "synonyms": ["Grass Mix Pollen IgE AB RAST Score"]}, {"conceptId": "C165925", "definition": "A classification of the amount of weed mix pollen IgE antibody, using the RAST (radioallergosorbent test) scoring system, in a biological specimen.", "preferredTerm": "Weed Mix Pollen IgE Antibody RAST Score Measurement", "submissionValue": "C165925", "synonyms": ["Weed Mix Pollen IgE AB RAST Score"]}, {"conceptId": "C165926", "definition": "A classification of the amount of mold mix pollen IgE antibody, using the RAST (radioallergosorbent test) scoring system, in a biological specimen.", "preferredTerm": "Mold Mix IgE Antibody RAST Score Measurement", "submissionValue": "C165926", "synonyms": ["Mold Mix IgE AB RAST Score"]}, {"conceptId": "C165927", "definition": "A classification of the amount of animal mix pollen IgE antibody, using the RAST (radioallergosorbent test) scoring system, in a biological specimen.", "preferredTerm": "Animal Mix IgE Antibody RAST Score Measurement", "submissionValue": "C165927", "synonyms": ["Animal Mix IgE AB RAST Score"]}, {"conceptId": "C165928", "definition": "A classification of the amount of industrial mix pollen IgE antibody, using the RAST (radioallergosorbent test) scoring system, in a biological specimen.", "preferredTerm": "Industrial Mix IgE Antibody RAST Score Measurement", "submissionValue": "C165928", "synonyms": ["Industrial Mix IgE AB RAST Score"]}, {"conceptId": "C165929", "definition": "A classification of the amount of bee mix pollen IgE antibody, using the RAST (radioallergosorbent test) scoring system, in a biological specimen.", "preferredTerm": "Bee Mix IgE Antibody RAST Score Measurement", "submissionValue": "C165929", "synonyms": ["Bee Mix IgE AB RAST Score"]}, {"conceptId": "C165930", "definition": "A classification of the amount of shellfish mix pollen IgE antibody, using the RAST (radioallergosorbent test) scoring system, in a biological specimen.", "preferredTerm": "Shellfish Mix IgE Antibody RAST Score Measurement", "submissionValue": "C165930", "synonyms": ["Shellfish Mix IgE AB RAST Score"]}, {"conceptId": "C165931", "definition": "A classification of the amount of nut mix pollen IgE antibody, using the RAST (radioallergosorbent test) scoring system, in a biological specimen.", "preferredTerm": "Nut Mix IgE Antibody RAST Score Measurement", "submissionValue": "C165931", "synonyms": ["Nut Mix IgE AB RAST Score"]}, {"conceptId": "C165932", "definition": "A classification of the amount of canis lupus dander IgE antibody, using the RAST (radioallergosorbent test) scoring system, in a biological specimen.", "preferredTerm": "Dog Dander IgE Antibody RAST Score Measurement", "submissionValue": "C165932", "synonyms": ["Dog Dander IgE AB RAST Score"]}, {"conceptId": "C165933", "definition": "A classification of the amount of Periplaneta americana antigen IgE antibody, using the RAST (radioallergosorbent test) scoring system, in a biological specimen.", "preferredTerm": "American Cockroach IgE Antibody RAST Score Measurement", "submissionValue": "C165933", "synonyms": ["American Cockroach IgE AB RAST Score"]}, {"conceptId": "C165934", "definition": "A classification of the amount of Arachis hypogaea antigen IgE antibody, using the RAST (radioallergosorbent test) scoring system, in a biological specimen.", "preferredTerm": "Arachis hypogaea IgE Antibody RAST Score Measurement", "submissionValue": "C165934", "synonyms": ["Arachis hypogaea IgE AB RAST Score"]}, {"conceptId": "C165935", "definition": "A classification of the amount of Triticum aestivum antigen IgE antibody, using the RAST (radioallergosorbent test) scoring system, in a biological specimen.", "preferredTerm": "Triticum aestivum IgE Antibody RAST Score Measurement", "submissionValue": "C165935", "synonyms": ["Triticum aestivum IgE AB RAST Score"]}, {"conceptId": "C165936", "definition": "A classification of the amount of Glycine max antigen IgE antibody, using the RAST (radioallergosorbent test) scoring system, in a biological specimen.", "preferredTerm": "Glycine max IgE Antibody RAST Score Measurement", "submissionValue": "C165936", "synonyms": ["Glycine max IgE AB RAST Score"]}, {"conceptId": "C165937", "definition": "A classification of the amount of Zea mays IgE antibody, using the RAST (radioallergosorbent test) scoring system, in a biological specimen.", "preferredTerm": "Zea mays IgE Antibody RAST Score Measurement", "submissionValue": "C165937", "synonyms": ["Zea mays IgE AB RAST Score"]}, {"conceptId": "C165938", "definition": "A classification of the amount of cow milk protein IgE antibody, using the RAST (radioallergosorbent test) scoring system, in a biological specimen.", "preferredTerm": "Cow Milk Protein IgE Antibody RAST Score Measurement", "submissionValue": "C165938", "synonyms": ["Cow Milk Protein IgE AB RAST Score"]}, {"conceptId": "C165939", "definition": "A classification of the amount of egg white antigen IgE antibody, using the RAST (radioallergosorbent test) scoring system, in a biological specimen.", "preferredTerm": "Egg White IgE Antibody RAST Score Measurement", "submissionValue": "C165939", "synonyms": ["Egg White IgE AB RAST Score"]}, {"conceptId": "C165940", "definition": "A classification of the amount of Acer negundo pollen IgE antibody, using the RAST (radioallergosorbent test) scoring system, in a biological specimen.", "preferredTerm": "Boxelder Pollen IgE Antibody RAST Score Measurement", "submissionValue": "C165940", "synonyms": ["Boxelder Pollen IgE AB RAST Score"]}, {"conceptId": "C165941", "definition": "A classification of the amount of Ambrosia artemisiifolia pollen IgE antibody, using the RAST (radioallergosorbent test) scoring system, in a biological specimen.", "preferredTerm": "Common Ragweed Pollen IgE Antibody RAST Score Measurement", "submissionValue": "C165941", "synonyms": ["Common Ragweed Pollen IgE AB RAST Score"]}, {"conceptId": "C177958", "definition": "A measurement of the cashew antigen IgE antibody in a biological specimen.", "preferredTerm": "Cashew Antigen IgE Antibody Measurement", "submissionValue": "C177958", "synonyms": ["Anacardium occidentale Nut Antigen IgE Antibody", "Cashew Antigen IgE Antibody"]}, {"conceptId": "C177959", "definition": "A measurement of any of the Triticum species of wheat antigen IgE antibody in a biological specimen.", "preferredTerm": "Triticum Species Antigen IgE Antibody Measurement", "submissionValue": "C177959", "synonyms": ["Triticum Species Antigen IgE Antibody", "Wheat Antigen IgE Antibody"]}, {"conceptId": "C177960", "definition": "A measurement of the hazelnut antigen IgE antibody in a biological specimen.", "preferredTerm": "Hazelnut Antigen IgE Antibody Measurement", "submissionValue": "C177960", "synonyms": ["Corylus Species Nut Antigen IgE Antibody", "Hazelnut Antigen IgE Antibody"]}, {"conceptId": "C177961", "definition": "A measurement of the walnut antigen IgE antibody in a biological specimen.", "preferredTerm": "Walnut Antigen IgE Antibody Measurement", "submissionValue": "C177961", "synonyms": ["Juglans Species Nut Antigen IgE Antibody", "Walnut Antigen IgE Antibody"]}, {"conceptId": "C147313", "definition": "A measurement of the complement C1 esterase inhibitor in a biological specimen.", "preferredTerm": "Complement C1 Esterase Inhibitor Measurement", "submissionValue": "C1INH", "synonyms": ["Complement C1 Esterase Inhibitor"]}, {"conceptId": "C186029", "definition": "A measurement of the complement C1q in a biological specimen.", "preferredTerm": "Complement C1q Measurement", "submissionValue": "C1Q", "synonyms": ["Complement C1q"]}, {"conceptId": "C80173", "definition": "A measurement of the complement C1q antibody in a biological specimen.", "preferredTerm": "Complement C1q Antibody Measurement", "submissionValue": "C1QAB", "synonyms": ["Complement C1q Antibody"]}, {"conceptId": "C80174", "definition": "A measurement of the complement C3 in a biological specimen.", "preferredTerm": "Complement C3 Measurement", "submissionValue": "C3", "synonyms": ["Complement C3"]}, {"conceptId": "C80175", "definition": "A measurement of the complement C3a in a biological specimen.", "preferredTerm": "Complement C3a Measurement", "submissionValue": "C3A", "synonyms": ["Complement C3a"]}, {"conceptId": "C163423", "definition": "A measurement of the complement C3a DesArg in a biological specimen.", "preferredTerm": "Complement C3a DesArg Measurement", "submissionValue": "C3ADARG", "synonyms": ["Acylation-Stimulating Protein", "ASP", "Complement C3a DesArg"]}, {"conceptId": "C80176", "definition": "A measurement of the complement C3b in a biological specimen.", "preferredTerm": "Complement C3b Measurement", "submissionValue": "C3B", "synonyms": ["Complement C3b"]}, {"conceptId": "C184521", "definition": "A measurement of the complement C3c in a biological specimen.", "preferredTerm": "Complement C3c Measurement", "submissionValue": "C3C", "synonyms": ["Complement C3c"]}, {"conceptId": "C119271", "definition": "A measurement of the complement C3d antibody in a biological specimen.", "preferredTerm": "Complement C3d Antibody Measurement", "submissionValue": "C3DAB", "synonyms": ["Complement C3d Antibody"]}, {"conceptId": "C165945", "definition": "A measurement of the collagen III neo-peptide C3M in a biological specimen.", "preferredTerm": "Collagen III Neo-Peptide C3M Measurement", "submissionValue": "C3M", "synonyms": ["Collagen III Neo-Peptide C3M"]}, {"conceptId": "C80177", "definition": "A measurement of the complement C4 in a biological specimen.", "preferredTerm": "Complement C4 Measurement", "submissionValue": "C4", "synonyms": ["Complement C4"]}, {"conceptId": "C80178", "definition": "A measurement of the complement C4a in a biological specimen.", "preferredTerm": "Complement C4a Measurement", "submissionValue": "C4A", "synonyms": ["Complement C4a"]}, {"conceptId": "C127610", "definition": "A measurement of the complement C4d in a biological specimen.", "preferredTerm": "Complement C4d Measurement", "submissionValue": "C4D", "synonyms": ["Complement C4d"]}, {"conceptId": "C160935", "definition": "A measurement of the total complement C5 in a biological specimen.", "preferredTerm": "Complement C5 Measurement", "submissionValue": "C5", "synonyms": ["Complement C5"]}, {"conceptId": "C80179", "definition": "A measurement of the complement C5a in a biological specimen.", "preferredTerm": "Complement C5a Measurement", "submissionValue": "C5A", "synonyms": ["Complement C5a"]}, {"conceptId": "C158235", "definition": "A measurement of the complement C5b-9 in a biological specimen.", "preferredTerm": "Complement C5b-9 Measurement", "submissionValue": "C5B9", "synonyms": ["Complement C5b-9"]}, {"conceptId": "C170579", "definition": "A measurement of the soluble complement C5b-9 in a biological specimen.", "preferredTerm": "Soluble Complement C5b-9 Measurement", "submissionValue": "C5B9S", "synonyms": ["sC5b-9", "Smac", "Soluble Complement C5b-9", "Soluble MAC", "Soluble Membrane Attack Complex", "TCC", "Terminal Complement Complex"]}, {"conceptId": "C161357", "definition": "A measurement of the free complement C5 in a biological specimen.", "preferredTerm": "Free Complement C5 Measurement", "submissionValue": "C5FR", "synonyms": ["Complement C5, Free"]}, {"conceptId": "C64488", "definition": "A measurement of the calcium in a biological specimen.", "preferredTerm": "Calcium Measurement", "submissionValue": "CA", "synonyms": ["Calcium"]}, {"conceptId": "C79089", "definition": "A measurement of the cancer antigen 125 in a biological specimen.", "preferredTerm": "CA-125 Measurement", "submissionValue": "CA125AG", "synonyms": ["CA125", "CA125AG", "Cancer Antigen 125", "Carbohydrate Antigen 125", "MUC16", "Mucin-16", "Mucin-16, Cell Surface Associated"]}, {"conceptId": "C103362", "definition": "A measurement of the cancer antigen 15-3 in a biological specimen.", "preferredTerm": "Cancer Antigen 15-3 Measurement", "submissionValue": "CA15_3AG", "synonyms": ["Cancer Antigen 15-3", "Carbohydrate Antigen 15-3"]}, {"conceptId": "C81982", "definition": "A measurement of the cancer antigen 19-9 in a biological specimen.", "preferredTerm": "Cancer Antigen 19-9 Measurement", "submissionValue": "CA19_9AG", "synonyms": ["Cancer Antigen 19-9", "Carbohydrate Antigen 19-9"]}, {"conceptId": "C103361", "definition": "A measurement of the cancer antigen 1 in a biological specimen.", "preferredTerm": "Cancer Antigen 1 Measurement", "submissionValue": "CA1AG", "synonyms": ["Cancer Antigen 1"]}, {"conceptId": "C172526", "definition": "A measurement of the cancer antigen 242 in a biological specimen.", "preferredTerm": "Cancer Antigen 242 Measurement", "submissionValue": "CA242AG", "synonyms": ["Cancer Antigen 242", "Carbohydrate Antigen 242"]}, {"conceptId": "C111143", "definition": "A measurement of the cancer antigen 27-29 in a biological specimen.", "preferredTerm": "Cancer Antigen 27-29 Measurement", "submissionValue": "CA2729AG", "synonyms": ["Cancer Antigen 27-29"]}, {"conceptId": "C187794", "definition": "A measurement of the cancer antigen 50 in a biological specimen.", "preferredTerm": "Cancer Antigen 50 Measurement", "submissionValue": "CA50AG", "synonyms": ["CA50", "Cancer Antigen 50", "Carbohydrate Antigen 50"]}, {"conceptId": "C106505", "definition": "A measurement of the cancer antigen 72-4 in a biological specimen.", "preferredTerm": "Cancer Antigen 72-4 Measurement", "submissionValue": "CA72_4AG", "synonyms": ["CA 72-4", "Cancer Antigen 72-4", "Carbohydrate Antigen 72-4"]}, {"conceptId": "C74702", "definition": "A measurement of the Cabot rings (red-purple staining, threadlike, ring or figure 8 shaped filaments in an erythrocyte) in a biological specimen.", "preferredTerm": "Cabot Ring Count", "submissionValue": "CABOT", "synonyms": ["Cabot Rings"]}, {"conceptId": "C96589", "definition": "A measurement of the volume of serum or plasma that would be cleared of calcium by excretion of urine for a specified unit of time (e.g. one minute).", "preferredTerm": "Calcium Clearance Measurement", "submissionValue": "CACLR", "synonyms": ["Calcium Clearance"]}, {"conceptId": "C119272", "definition": "A measurement of calcium, which has been corrected using an unspecified protein, in a biological specimen.", "preferredTerm": "Calcium Corrected Measurement", "submissionValue": "CACR", "synonyms": ["Calcium Corrected"]}, {"conceptId": "C154753", "definition": "A measurement of calcium, which has been corrected for albumin, in a biological specimen.", "preferredTerm": "Albumin Corrected Calcium Measurement", "submissionValue": "CACRALB", "synonyms": ["Calcium Corrected for Albumin"]}, {"conceptId": "C79439", "definition": "A relative measurement (ratio or percentage) of the calcium to creatinine in a biological specimen.", "preferredTerm": "Calcium to Creatinine Ratio Measurement", "submissionValue": "CACREAT", "synonyms": ["Calcium/Creatinine"]}, {"conceptId": "C147314", "definition": "A measurement of calcium, which has been corrected for total protein, in a biological specimen.", "preferredTerm": "Calcium Corrected for Total Protein Measurement", "submissionValue": "CACRTP", "synonyms": ["Calcium Corrected for Total Protein"]}, {"conceptId": "C150815", "definition": "A measurement of the amount of calcium being excreted in a biological specimen over a defined period of time (e.g. one hour).", "preferredTerm": "Calcium Excretion Rate", "submissionValue": "CAEXR", "synonyms": ["Calcium Excretion Rate"]}, {"conceptId": "C75346", "definition": "A measurement of the caffeine in a biological specimen.", "preferredTerm": "Caffeine Measurement", "submissionValue": "CAFFEINE", "synonyms": ["Caffeine"]}, {"conceptId": "C81948", "definition": "A measurement of the ionized calcium in a biological specimen.", "preferredTerm": "Ionized Calcium Measurement", "submissionValue": "CAION", "synonyms": ["Calcium, Ionized"]}, {"conceptId": "C125941", "definition": "A measurement of the pH adjusted ionized calcium in a biological specimen.", "preferredTerm": "Ionized pH Adjusted Calcium Measurement", "submissionValue": "CAIONPH", "synonyms": ["Calcium, Ionized pH Adjusted"]}, {"conceptId": "C125942", "definition": "A measurement of the total calbindin in a biological specimen.", "preferredTerm": "Calbindin Measurement", "submissionValue": "CALB", "synonyms": ["Calbindin"]}, {"conceptId": "C82005", "definition": "A measurement of the calprotectin in a biological specimen.", "preferredTerm": "Calprotectin Measurement", "submissionValue": "CALPRO", "synonyms": ["Calprotectin"]}, {"conceptId": "C124339", "definition": "A measurement of cyclic adenosine 3,5-monophosphate in a biological specimen.", "preferredTerm": "Cyclic Adenosine 3,5-Monophosphate Measurement", "submissionValue": "CAMP", "synonyms": ["Cyclic Adenosine 3,5-Monophosphate"]}, {"conceptId": "C186030", "definition": "A relative measurement (ratio) of the cyclic adenosine 3,5-monophosphate to creatinine in a biological specimen.", "preferredTerm": "Cyclic Adenosine 3,5 Monophosphate to Creatinine Ratio Measurement", "submissionValue": "CAMPCRT", "synonyms": ["Cyclic Adenosine 3,5-Monophosphate/Creatinine", "Cyclic Adenosine Monophosphate/Creat", "Cyclic Adenosine Monophosphate/Creatinine"]}, {"conceptId": "C176310", "definition": "A measurement of the coefficient of nitrogen absorption in a biological specimen.", "preferredTerm": "Coefficient of Nitrogen Absorption Measurement", "submissionValue": "CAN", "synonyms": ["Coefficient of Nitrogen Absorption"]}, {"conceptId": "C74689", "definition": "A measurement of any cannabinoid class drug present in a biological specimen.", "preferredTerm": "Cannabinoid Drug Class Measurement", "submissionValue": "CANNAB", "synonyms": ["Cannabinoids"]}, {"conceptId": "C165946", "definition": "A measurement of any cannabinoid drug class metabolite(s) present in a biological specimen.", "preferredTerm": "Cannabinoid Metabolite Measurement", "submissionValue": "CANNABM", "synonyms": ["Cannabinoid Metabolites", "Cannabis Metabolites", "Marijuana Metabolites"]}, {"conceptId": "C135402", "definition": "A measurement of any synthetic cannabinoid class drug present in a biological specimen.", "preferredTerm": "Synthetic Cannabinoid Measurement", "submissionValue": "CANNABS", "synonyms": ["Cannabinoids, Synthetic"]}, {"conceptId": "C187793", "definition": "A measurement of the amount of calcium oxalate being excreted in a biological specimen over a defined amount of time (e.g. one hour).", "preferredTerm": "Calcium Oxalate Excretion Rate", "submissionValue": "CAOXAEXR", "synonyms": ["Calcium Oxalate Excretion Rate"]}, {"conceptId": "C139087", "definition": "A relative measurement (ratio) of the calcium to phosphorus in a biological specimen.", "preferredTerm": "Calcium to Phosphorus Ratio Measurement", "submissionValue": "CAPHOS", "synonyms": ["Calcium/Phosphate", "Calcium/Phosphorus"]}, {"conceptId": "C103360", "definition": "A measurement of the product of the calcium and phosphate measurements in a biological specimen.", "preferredTerm": "Calcium and Phosphorus Product Measurement", "submissionValue": "CAPHOSPD", "synonyms": ["Calcium - Phosphorus Product"]}, {"conceptId": "C96591", "definition": "A measurement of the carboxyhemoglobin, carbon monoxide-bound hemoglobin, in a biological specimen.", "preferredTerm": "Carboxyhemoglobin Measurement", "submissionValue": "CARBXHGB", "synonyms": ["Carboxyhemoglobin"]}, {"conceptId": "C177975", "definition": "A measurement of the cariprazine in a biological specimen.", "preferredTerm": "Cariprazine Measurement", "submissionValue": "CARIPRZN", "synonyms": ["Cariprazine"]}, {"conceptId": "C74682", "definition": "A measurement of the total carnitine in a biological specimen.", "preferredTerm": "Total Carnitine Measurement", "submissionValue": "CARNIT", "synonyms": ["Carnitine"]}, {"conceptId": "C92288", "definition": "A measurement of the carnitine acetyl transferase in a biological specimen.", "preferredTerm": "Carnitine Acetyl Transferase Measurement", "submissionValue": "CARNITAT", "synonyms": ["Carnitine Acetyl Transferase"]}, {"conceptId": "C74677", "definition": "A measurement of the free carnitine in a biological specimen.", "preferredTerm": "Free Carnitine Measurement", "submissionValue": "CARNITF", "synonyms": ["Carnitine, Free"]}, {"conceptId": "C163424", "definition": "A measurement of the amount of carnitine being excreted in a biological specimen over a defined amount of time (e.g. one hour).", "preferredTerm": "Carnitine Excretion Rate", "submissionValue": "CARNTEXR", "synonyms": ["Carnitine Excretion Rate"]}, {"conceptId": "C142273", "definition": "A measurement of the cocaine and amphetamine-regulated transcript protein in a biological specimen.", "preferredTerm": "Cocaine Amphetamine-Regulated Transcript Protein Measurement", "submissionValue": "CARTP", "synonyms": ["CART", "Cocaine Amphetamine-Reg Transcript Prot", "Cocaine and Amphetamine-Regulated Transcript Protein"]}, {"conceptId": "C198282", "definition": "A measurement of the casein in a biological specimen.", "preferredTerm": "Casein Measurement", "submissionValue": "CASEIN", "synonyms": ["Casein"]}, {"conceptId": "C74763", "definition": "A statement that indicates casts were looked for in a biological specimen.", "preferredTerm": "Cast Present Or Absent", "submissionValue": "CASTS", "synonyms": ["Casts"]}, {"conceptId": "C96590", "definition": "A measurement of the calcium sulphate in a biological specimen.", "preferredTerm": "Calcium Sulphate Measurement", "submissionValue": "CASULPH", "synonyms": ["Calcium Sulphate"]}, {"conceptId": "C184534", "definition": "A measurement of the cathinone in a biological specimen.", "preferredTerm": "Cathinone Measurement", "submissionValue": "CATHNON", "synonyms": ["Cathinone"]}, {"conceptId": "C103357", "definition": "A measurement of the beta catenin in a biological specimen.", "preferredTerm": "Beta Catenin Measurement", "submissionValue": "CATNINB", "synonyms": ["Beta Catenin"]}, {"conceptId": "C135403", "definition": "A measurement of the Ba fragment of complement factor B in a biological specimen.", "preferredTerm": "Complement Ba Measurement", "submissionValue": "CBA", "synonyms": ["Ba Fragment of Complement Factor B", "Ba Fragment of Factor B", "Complement Ba"]}, {"conceptId": "C172510", "definition": "A measurement of the carbonic anhydrase 9 in a biological specimen.", "preferredTerm": "Carbonic Anhydrase 9 Measurement", "submissionValue": "CBANH9", "synonyms": ["CA9", "CAIX", "Carbonic Anhydrase 9"]}, {"conceptId": "C80172", "definition": "A measurement of the Bb fragment of complement factor B in a biological specimen.", "preferredTerm": "Complement Bb Measurement", "submissionValue": "CBB", "synonyms": ["Bb Fragment of Complement Factor B", "Bb Fragment of Factor B", "Complement Bb"]}, {"conceptId": "C172520", "definition": "A measurement of the cystathionine beta-synthase in a biological specimen.", "preferredTerm": "Cystathionine Beta-Synthase Measurement", "submissionValue": "CBS", "synonyms": ["Cystathionine Beta-Synthase"]}, {"conceptId": "C74850", "definition": "A measurement of the cholecystokinin hormone in a biological specimen.", "preferredTerm": "Cholecystokinin Measurement", "submissionValue": "CCK", "synonyms": ["Cholecystokinin", "Pancreozymin"]}, {"conceptId": "C130156", "definition": "A measurement of the CCL12, chemokine (C-C motif) ligand 12, in a biological specimen.", "preferredTerm": "Chemokine (C-C Motif) Ligand 12 Measurement", "submissionValue": "CCL12", "synonyms": ["Chemokine (C-C Motif) Ligand 12", "Monocyte Chemotactic Protein 5"]}, {"conceptId": "C165947", "definition": "A measurement of the CCL13, chemokine (C-C motif) ligand 13, in a biological specimen.", "preferredTerm": "Chemokine (C-C Motif) Ligand 13 Measurement", "submissionValue": "CCL13", "synonyms": ["C-C Motif Chemokine Ligand 13", "Chemokine (C-C Motif) Ligand 13", "CKb10", "MCP-4", "NCC1", "SCYA13", "SCYL1"]}, {"conceptId": "C165948", "definition": "A measurement of the CCL16, chemokine (C-C motif) ligand 16, in a biological specimen.", "preferredTerm": "Chemokine (C-C Motif) Ligand 16 Measurement", "submissionValue": "CCL16", "synonyms": ["Chemokine (C-C Motif) Ligand 16", "CKb12", "HCC-4", "ILINCK", "LCC-1", "LEC", "LMC", "Mtn-1", "NCC4", "SCYA16", "SCYL4"]}, {"conceptId": "C112236", "definition": "A measurement of the CCL17, chemokine (C-C motif) ligand 17, in a biological specimen.", "preferredTerm": "Chemokine (C-C Motif) Ligand 17 Measurement", "submissionValue": "CCL17", "synonyms": ["ABCD-2", "Chemokine (C-C Motif) Ligand 17", "SCYA17", "TARC", "Thymus and Activation Regulated Chemokine"]}, {"conceptId": "C112237", "definition": "A measurement of the CCL18, chemokine (C-C motif) ligand 18, in a biological specimen.", "preferredTerm": "Chemokine (C-C Motif) Ligand 18 Measurement", "submissionValue": "CCL18", "synonyms": ["AMAC-1", "AMAC1", "Chemokine (C-C Motif) Ligand 18", "CKB7", "DC-CK1", "DCCK1", "Macrophage inflammatory protein-4", "MIP4", "PARC", "Pulmonary and Activation-Regulated Chemokine", "SCYA18"]}, {"conceptId": "C130157", "definition": "A measurement of the CCL19, chemokine (C-C motif) ligand 19, in a biological specimen.", "preferredTerm": "Chemokine (C-C Motif) Ligand 19 Measurement", "submissionValue": "CCL19", "synonyms": ["Chemokine (C-C Motif) Ligand 19", "Macrophage Inflammatory Protein 3 Beta", "MIP3B"]}, {"conceptId": "C161362", "definition": "A measurement of the chemokine (C-C motif) ligand 20 in a biological specimen.", "preferredTerm": "Chemokine (C-C Motif) Ligand 20 Measurement", "submissionValue": "CCL20", "synonyms": ["CCL20", "Chemokine (C-C Motif) Ligand 20", "LARC", "Liver Activation Regulated Chemokine", "Macrophage Inflammatory Protein-3 Alpha", "MIP3A"]}, {"conceptId": "C147315", "definition": "A measurement of the CCL21, chemokine (C-C motif) ligand 21, in a biological specimen.", "preferredTerm": "Chemokine (C-C Motif) Ligand 21 Measurement", "submissionValue": "CCL21", "synonyms": ["6Ckine", "Chemokine (C-C Motif) Ligand 21", "Secondary Lymphoid Tissue Chemokine"]}, {"conceptId": "C165949", "definition": "A measurement of the CCL23, chemokine (C-C motif) ligand 23, in a biological specimen.", "preferredTerm": "Chemokine (C-C Motif) Ligand 23 Measurement", "submissionValue": "CCL23", "synonyms": ["Chemokine (C-C Motif) Ligand 23", "CK-BETA-8", "Ckb-8-1", "CKb8", "Hmrp-2a", "MIP3", "MPIF-1", "SCYA23"]}, {"conceptId": "C165950", "definition": "A measurement of the CCL25, chemokine (C-C motif) ligand 25, in a biological specimen.", "preferredTerm": "Chemokine (C-C Motif) Ligand 25 Measurement", "submissionValue": "CCL25", "synonyms": ["Chemokine (C-C Motif) Ligand 25", "Ckb15", "SCYA25", "TECK"]}, {"conceptId": "C156520", "definition": "A measurement of the amount of chemokine (C-C Motif) ligand 2 being excreted in a biological specimen over a defined period of time (e.g. one hour).", "preferredTerm": "Chemokine (C-C Motif) Ligand 2 Excretion Rate", "submissionValue": "CCL2EXR", "synonyms": ["Chemokine (C-C Motif) Ligand 2 Excr Rate", "Chemokine (C-C Motif) Ligand 2 Excretion Rate", "MCP1 Excretion Rate"]}, {"conceptId": "C130158", "definition": "A measurement of the CCL7, chemokine (C-C motif) ligand 7, in a biological specimen.", "preferredTerm": "Chemokine (C-C Motif) Ligand 7 Measurement", "submissionValue": "CCL7", "synonyms": ["Chemokine (C-C Motif) Ligand 7", "MCP3", "Monocyte Chemotactic Protein 3"]}, {"conceptId": "C165951", "definition": "A measurement of the CCL8, chemokine (C-C motif) ligand 8, in a biological specimen.", "preferredTerm": "Chemokine (C-C Motif) Ligand 8 Measurement", "submissionValue": "CCL8", "synonyms": ["Chemokine (C-C Motif) Ligand 8", "HC14", "MCP2", "SCYA10", "SCYA8"]}, {"conceptId": "C96595", "definition": "A measurement of the cyclic citrullinated peptide antibody in a biological specimen.", "preferredTerm": "Cyclic Citrullinated Peptide Antibody Measurement", "submissionValue": "CCPAB", "synonyms": ["Cyclic Citrullinated Peptide Antibody"]}, {"conceptId": "C147316", "definition": "A measurement of the cyclic citrullinated peptide IgG antibody in a biological specimen.", "preferredTerm": "Cyclic Citrullinated Peptide IgG Antibody Measurement", "submissionValue": "CCPIGGAB", "synonyms": ["Cyclic Citrullinated Peptide IgG Ab", "Cyclic Citrullinated Peptide IgG Antibody"]}, {"conceptId": "C122103", "definition": "A measurement of the CCR5, chemokine (C-C motif) receptor type 5, in a biological specimen.", "preferredTerm": "C-C Chemokine Receptor Type 5 Measurement", "submissionValue": "CCR5", "synonyms": ["C-C Chemokine Receptor Type 5", "CD195"]}, {"conceptId": "C154728", "definition": "A measurement of the soluble CD163 in a biological specimen.", "preferredTerm": "Soluble CD163 Measurement", "submissionValue": "CD163S", "synonyms": ["Soluble CD163"]}, {"conceptId": "C187826", "definition": "A measurement of the soluble CD38 protein in a biological specimen.", "preferredTerm": "Soluble CD38 Measurement", "submissionValue": "CD38S", "synonyms": ["Cyclic ADP Ribose Hydrolase", "Soluble CD38"]}, {"conceptId": "C172498", "definition": "A measurement of the chenodeoxycholate in a biological specimen.", "preferredTerm": "Chenodeoxycholate Measurement", "submissionValue": "CDCA", "synonyms": ["Chenic Acid", "Chenocholic Acid", "Chenodeoxycholate", "Chenodeoxycholic Acid"]}, {"conceptId": "C176239", "definition": "A measurement of the chenodeoxycholic acid, glycochenodeoxycholic acid, and taurochenodeoxycholic acid in a biological specimen.", "preferredTerm": "Chenodeoxycholate Compounds Measurement", "submissionValue": "CDCACM", "synonyms": ["Chenodeoxycholate Compounds", "Chenodeoxycholic Acid Compounds"]}, {"conceptId": "C101016", "definition": "A measurement of transferrin with a reduced number of carbohydrate moieties in a biological specimen.", "preferredTerm": "Carbohydrate-Deficient Transferrin Measurement", "submissionValue": "CDT", "synonyms": ["Carbohydrate-Deficient Transferrin"]}, {"conceptId": "C125943", "definition": "A relative measurement (ratio or percentage) of the carbohydrate-deficient transferrin to total transferrin in a biological specimen.", "preferredTerm": "Carbohydrate-Deficient Transferrin to Transferrin Ratio Measurement", "submissionValue": "CDTTFRN", "synonyms": ["Carb-Deficient Transferrin/Transferrin"]}, {"conceptId": "C81983", "definition": "A measurement of the carcinoembryonic antigen in a biological specimen.", "preferredTerm": "Carcinoembryonic Antigen Measurement", "submissionValue": "CEA", "synonyms": ["Carcinoembryonic Antigen"]}, {"conceptId": "C172511", "definition": "A measurement of the carcinoembryonic antigen (CEA) cell adhesion molecule 1 in a biological specimen.", "preferredTerm": "CEA Cell Adhesion Molecule 1 Measurement", "submissionValue": "CEACAM1", "synonyms": ["BGP", "Biliary Glycoprotein", "Carcinoembryonic Antigen Cell Adhesion Molecule 1", "CD66a", "CEA Cell Adhesion Molecule 1", "CEA Related Cell Adhesion Molecule 1"]}, {"conceptId": "C191212", "definition": "A measurement of the carcinoembryonic antigen (CEA) cell adhesion molecule 5 in a biological specimen.", "preferredTerm": "CEA Cell Adhesion Molecule 5 Measurement", "submissionValue": "CEACAM5", "synonyms": ["Carcinoembryonic Antigen-Related Cell Adhesion Molecule 5", "CD66e", "CEA Cell Adhesion Molecule 5"]}, {"conceptId": "C191290", "definition": "A measurement of the soluble carcinoembryonic antigen (CEA) cell adhesion molecule 5 in a biological specimen.", "preferredTerm": "Soluble CEA Cell Adhesion Molecule 5 Measurement", "submissionValue": "CEACAM5S", "synonyms": ["Soluble Carcinoembryonic Antigen-Related Cell Adhesion Molecule 5", "Soluble CD66e", "Soluble CEA Cell Adhesion Molecule 5"]}, {"conceptId": "C96592", "definition": "A measurement of the circulating endothelial cells in a biological specimen.", "preferredTerm": "Circulating Endothelial Cell Count", "submissionValue": "CEC", "synonyms": ["Circulating Endothelial Cells"]}, {"conceptId": "C111234", "definition": "A relative measurement (ratio or percentage) of the immature hematopoietic cells to total cells in a biological specimen.", "preferredTerm": "Immature Cell to Total Cell Ratio Measurement", "submissionValue": "CEIMCE", "synonyms": ["Immature Cells/Total Cells"]}, {"conceptId": "C48938", "definition": "A measurement of the total cells in a biological specimen.", "preferredTerm": "Cell Count", "submissionValue": "CELLS", "synonyms": ["Cells"]}, {"conceptId": "C96672", "definition": "A measurement of the total immature cells in a blood specimen.", "preferredTerm": "Immature Cell Count", "submissionValue": "CELLSIM", "synonyms": ["Immature Cells"]}, {"conceptId": "C111153", "definition": "A measurement of the degree, quality or condition of cells in a biological specimen.", "preferredTerm": "Cellularity Measurement", "submissionValue": "CELLULAR", "synonyms": ["Cellularity", "Cellularity Grade"]}, {"conceptId": "C17768", "definition": "An examination or assessment of the form and structure of cells.", "preferredTerm": "Cellular Morphology", "submissionValue": "CEMORPH", "synonyms": ["Cell Morphology"]}, {"conceptId": "C111154", "definition": "A measurement of centromere B antibodies in a biological specimen.", "preferredTerm": "Centromere B Antibody Measurement", "submissionValue": "CENTROAB", "synonyms": ["Centromere B Antibodies"]}, {"conceptId": "C120632", "definition": "A measurement of the cholesteryl ester transfer protein in a biological specimen.", "preferredTerm": "Cholesteryl Ester Transfer Protein Measurement", "submissionValue": "CETP", "synonyms": ["Cholesteryl Ester Transfer Protein"]}, {"conceptId": "C103380", "definition": "A measurement of the biological activity of cholesteryl ester transfer protein in a biological specimen.", "preferredTerm": "Cholesteryl Ester Transfer Protein Activity Measurement", "submissionValue": "CETPA", "synonyms": ["Cholesteryl Ester Transfer Protein Act"]}, {"conceptId": "C176311", "definition": "A measurement of the coefficient of fat absorption in a biological specimen.", "preferredTerm": "Coefficient of Fat Absorption Measurement", "submissionValue": "CFA", "synonyms": ["Coefficient of Fat Absorption"]}, {"conceptId": "C122108", "definition": "A measurement of the chromogranin A in a biological specimen.", "preferredTerm": "Chromogranin A Measurement", "submissionValue": "CGA", "synonyms": ["Chromogranin A"]}, {"conceptId": "C161374", "definition": "A measurement of choriogonadotropin, which has been adjusted for maternal body weight, in a biological specimen.", "preferredTerm": "Choriogonadotropin Adjusted for Maternal Weight Measurement", "submissionValue": "CGADJMW", "synonyms": ["Choriogonadotropin Adj for Maternal Wt", "Choriogonadotropin Adjusted for Maternal Weight"]}, {"conceptId": "C111165", "definition": "A measurement of the cyclic guanosine 3,5-monophosphate in a biological specimen.", "preferredTerm": "Cyclic Guanosine Monophosphate Measurement", "submissionValue": "CGMP", "synonyms": ["Cyclic Guanosine Monophosphate"]}, {"conceptId": "C147317", "definition": "A measurement of the complement required to lyse 100 percent of red blood cells in a biological specimen.", "preferredTerm": "Complement CH100 Measurement", "submissionValue": "CH100", "synonyms": ["CH100", "Complement CH100", "Total Hemolytic Complement CH100"]}, {"conceptId": "C100423", "definition": "A measurement of the complement required to lyse 50 percent of red blood cells in a biological specimen.", "preferredTerm": "CH50 Measurement", "submissionValue": "CH50", "synonyms": ["CH50", "Complement CH50", "Total Hemolytic Complement CH50"]}, {"conceptId": "C139067", "definition": "A direct measurement of the concentration of hemoglobin within individual erythrocytes in a biological specimen, reported as a mean.", "preferredTerm": "Corpuscular Hemoglobin Concentration Mean", "submissionValue": "CHCM", "synonyms": ["Corpuscular HGB Concentration Mean"]}, {"conceptId": "C138970", "definition": "An indirect measurement of the average concentration of hemoglobin per reticulocyte in a biological specimen, calculated as the ratio of hemoglobin to hematocrit.", "preferredTerm": "Reticulocyte Corpuscular Hemoglobin Concentration Mean", "submissionValue": "CHCMR", "synonyms": ["Ret. Corpuscular HGB Concentration Mean", "Reticulocyte Corpuscular Hemoglobin Concentration Mean"]}, {"conceptId": "C139066", "definition": "A measurement of the mean erythrocyte hemoglobin content within an individual erythrocyte, calculated as the product of cell volume and cell hemoglobin concentration.", "preferredTerm": "Corpuscular Hemoglobin Content", "submissionValue": "CHCNT", "synonyms": ["Cellular Hemoglobin Content", "CH", "Corpuscular Hemoglobin Content"]}, {"conceptId": "C181430", "definition": "A measurement of the 7alpha,25-dihydroxycholesterol in a biological specimen.", "preferredTerm": "7alpha,25-Dihydroxycholesterol Measurement", "submissionValue": "CHDH7A25", "synonyms": ["7alpha,25-Dihydroxycholesterol"]}, {"conceptId": "C181431", "definition": "A measurement of the 7alpha,27-dihydroxycholesterol in a biological specimen.", "preferredTerm": "7alpha,27-Dihydroxycholesterol Measurement", "submissionValue": "CHDH7A27", "synonyms": ["7alpha,27-Dihydroxycholesterol"]}, {"conceptId": "C139068", "definition": "A measurement of the standard deviation of hemoglobin concentrations in erythrocytes in a biological specimen, calculated as the standard deviation of hemoglobin content divided by the mean hemoglobin content.", "preferredTerm": "Corpuscular Hemoglobin Concentration Distribution Width", "submissionValue": "CHDW", "synonyms": ["Corpuscular Hemoglobin Concentration Distribution Width", "Corpuscular HGB Conc Distribution Width"]}, {"conceptId": "C139069", "definition": "A measurement of the standard deviation of hemoglobin concentrations in reticulocytes in a biological specimen, calculated as the standard deviation of hemoglobin content divided by the mean hemoglobin content.", "preferredTerm": "Reticulocyte Corpuscular Hemoglobin Distribution Width", "submissionValue": "CHDWR", "synonyms": ["Ret Corpuscular HGB Conc Distr Width", "Reticulocyte Corpuscular Hemoglobin Distribution Width"]}, {"conceptId": "C181423", "definition": "A measurement of the 24(S),25-epoxycholesterol in a biological specimen.", "preferredTerm": "24(S),25-Epoxycholesterol Measurement", "submissionValue": "CHE24S25", "synonyms": ["24(S),25-Epoxycholesterol"]}, {"conceptId": "C187795", "definition": "A measurement of the chitotriosidase-1 in a biological specimen.", "preferredTerm": "Chitotriosidase-1 Measurement", "submissionValue": "CHITTDS", "synonyms": ["Chitinase 1", "Chitotriosidase", "Chitotriosidase-1"]}, {"conceptId": "C120633", "definition": "A measurement of the chylomicrons in a biological specimen.", "preferredTerm": "Chylomicrons Measurement", "submissionValue": "CHLMCRN", "synonyms": ["Chylomicrons"]}, {"conceptId": "C174302", "definition": "A measurement of the chylomicron triglyceride in a biological specimen.", "preferredTerm": "Chylomicron Triglyceride Measurement", "submissionValue": "CHLMCRNT", "synonyms": ["Chylomicron Triglyceride"]}, {"conceptId": "C184612", "definition": "A measurement of the chloral hydrate in a biological specimen.", "preferredTerm": "Chloral Hydrate Measurement", "submissionValue": "CHLRHDRT", "synonyms": ["Chloral Hydrate", "Mickey Finn", "Trichloroacetaldehyde Monohydrate"]}, {"conceptId": "C177968", "definition": "A measurement of the chlorpromazine in a biological specimen.", "preferredTerm": "Chlorpromazine Measurement", "submissionValue": "CHLRPMZN", "synonyms": ["Chlorpromazine"]}, {"conceptId": "C105586", "definition": "A measurement of the cholesterol in a biological specimen.", "preferredTerm": "Cholesterol Measurement", "submissionValue": "CHOL", "synonyms": ["Cholesterol", "Total Cholesterol"]}, {"conceptId": "C172499", "definition": "A measurement of the cholate in a biological specimen.", "preferredTerm": "Cholate Measurement", "submissionValue": "CHOLATE", "synonyms": ["Cholate", "Cholic Acid"]}, {"conceptId": "C176232", "definition": "A measurement of the cholic acid, glycocholic acid, hyocholic acid, and taurocholic acid in a biological specimen.", "preferredTerm": "Cholate Compounds Measurement", "submissionValue": "CHOLCM", "synonyms": ["Cholate Compounds", "Cholic Acid Compounds"]}, {"conceptId": "C181420", "definition": "A measurement of the 20(S)-hydroxycholesterol in a biological specimen.", "preferredTerm": "20(S)-Hydroxycholesterol Measurement", "submissionValue": "CHOLH20S", "synonyms": ["20(S)-Hydroxycholesterol", "20-Alpha-Hydroxycholesterol"]}, {"conceptId": "C181421", "definition": "A measurement of the 22(R)-hydroxycholesterol in a biological specimen.", "preferredTerm": "22(R)-Hydroxycholesterol Measurement", "submissionValue": "CHOLH22R", "synonyms": ["22(R)-Hydroxycholesterol"]}, {"conceptId": "C181422", "definition": "A measurement of the 22(S)-hydroxycholesterol in a biological specimen.", "preferredTerm": "22(S)-Hydroxycholesterol Measurement", "submissionValue": "CHOLH22S", "synonyms": ["22(S)-Hydroxycholesterol"]}, {"conceptId": "C181424", "definition": "A measurement of the 24(R)-hydroxycholesterol in a biological specimen.", "preferredTerm": "24(R)-Hydroxycholesterol Measurement", "submissionValue": "CHOLH24R", "synonyms": ["24(R)-Hydroxycholesterol"]}, {"conceptId": "C181425", "definition": "A measurement of the 24(S)-hydroxycholesterol in a biological specimen.", "preferredTerm": "24(S)-Hydroxycholesterol Measurement", "submissionValue": "CHOLH24S", "synonyms": ["24(S)-Hydroxycholesterol"]}, {"conceptId": "C181426", "definition": "A measurement of the 25-hydroxycholesterol in a biological specimen.", "preferredTerm": "25-Hydroxycholesterol Measurement", "submissionValue": "CHOLH25", "synonyms": ["25-Hydroxycholesterol"]}, {"conceptId": "C181427", "definition": "A measurement of the 27-hydroxycholesterol in a biological specimen.", "preferredTerm": "27-Hydroxycholesterol Measurement", "submissionValue": "CHOLH27", "synonyms": ["27-Hydroxycholesterol"]}, {"conceptId": "C181432", "definition": "A measurement of the 7alpha-hydroxycholesterol in a biological specimen.", "preferredTerm": "7alpha-Hydroxycholesterol Measurement", "submissionValue": "CHOLH7A", "synonyms": ["7alpha-Hydroxycholesterol"]}, {"conceptId": "C181433", "definition": "A measurement of the 7beta-hydroxycholesterol in a biological specimen.", "preferredTerm": "7beta-Hydroxycholesterol Measurement", "submissionValue": "CHOLH7B", "synonyms": ["7beta-Hydroxycholesterol"]}, {"conceptId": "C80171", "definition": "A relative measurement (ratio or percentage) of total cholesterol to high-density lipoprotein cholesterol (HDL-C) in a biological specimen.", "preferredTerm": "Cholesterol to HDL-Cholesterol Ratio Measurement", "submissionValue": "CHOLHDL", "synonyms": ["Cholesterol/HDL-Cholesterol"]}, {"conceptId": "C92289", "definition": "A measurement of the cholinesterase in a biological specimen.", "preferredTerm": "Cholinesterase Measurement", "submissionValue": "CHOLINES", "synonyms": ["Cholinesterase"]}, {"conceptId": "C181434", "definition": "A measurement of the 7-ketocholesterol in a biological specimen.", "preferredTerm": "7-Ketocholesterol Measurement", "submissionValue": "CHOLK7", "synonyms": ["7-Ketocholesterol", "7-Oxocholesterol"]}, {"conceptId": "C156514", "definition": "A measurement of the 4-beta-hydroxycholesterol in a biological specimen.", "preferredTerm": "4-Beta-Hydroxycholesterol Measurement", "submissionValue": "CHOLOH4B", "synonyms": ["4-Beta-Hydroxycholesterol"]}, {"conceptId": "C181435", "definition": "A measurement of the cholestanol in a biological specimen.", "preferredTerm": "Cholestanol Measurement", "submissionValue": "CHOLSTNL", "synonyms": ["5alpha-Cholestanol", "Beta-Cholestanol", "Cholestanol", "Dehydrocholesterol", "Zymostanol"]}, {"conceptId": "C181436", "definition": "A measurement of the cholesterol sulfate in a biological specimen.", "preferredTerm": "Cholesterol Sulfate Measurement", "submissionValue": "CHOLSULF", "synonyms": ["Cholesterol Sulfate"]}, {"conceptId": "C147318", "definition": "A measurement of the chromatin antibodies in a biological specimen.", "preferredTerm": "Chromatin Antibody Measurement", "submissionValue": "CHRMTNAB", "synonyms": ["Chromatin Antibodies"]}, {"conceptId": "C111159", "definition": "A measurement of the total chymotrypsin in a biological specimen.", "preferredTerm": "Chymotrypsin Measurement", "submissionValue": "CHYTRYP", "synonyms": ["Chymotrypsin"]}, {"conceptId": "C127611", "definition": "A measurement of the circulating immune complexes in a biological specimen.", "preferredTerm": "Circulating Immune Complex Measurement", "submissionValue": "CIC", "synonyms": ["Circulating Immune Complexes"]}, {"conceptId": "C122109", "definition": "A measurement of the citrulline in a biological specimen.", "preferredTerm": "Citrulline Measurement", "submissionValue": "CIT", "synonyms": ["Citrulline"]}, {"conceptId": "C122110", "definition": "A relative measurement (ratio or percentage) of the citrate to creatinine in a biological specimen.", "preferredTerm": "Citrate to Creatinine Ratio Measurement", "submissionValue": "CITCREAT", "synonyms": ["Citrate/Creatinine", "Citric Acid/Creatinine"]}, {"conceptId": "C92248", "definition": "A measurement of the citrate in a biological specimen.", "preferredTerm": "Citrate Measurement", "submissionValue": "CITRATE", "synonyms": ["Citrate", "Citric Acid"]}, {"conceptId": "C163425", "definition": "A measurement of the amount of citrate being excreted in a biological specimen over a defined amount of time (e.g. one hour).", "preferredTerm": "Citrate Excretion Rate", "submissionValue": "CITRTEXR", "synonyms": ["Citrate Excretion Rate"]}, {"conceptId": "C64489", "definition": "A measurement of the total creatine kinase in a biological specimen.", "preferredTerm": "Creatine Kinase Measurement", "submissionValue": "CK", "synonyms": ["CPK", "Creatine Kinase", "Creatine Phosphokinase"]}, {"conceptId": "C64490", "definition": "A measurement of the homozygous B-type creatine kinase in a biological specimen.", "preferredTerm": "Creatine Kinase BB Measurement", "submissionValue": "CKBB", "synonyms": ["Creatine Kinase BB"]}, {"conceptId": "C79466", "definition": "A relative measurement (ratio or percentage) of the BB-type creatine kinase to total creatine kinase in a biological specimen.", "preferredTerm": "Creatine Kinase BB to Total Creatine Kinase Ratio Measurement", "submissionValue": "CKBBCK", "synonyms": ["Creatine Kinase BB/Total Creatine Kinase"]}, {"conceptId": "C64491", "definition": "A measurement of the heterozygous MB-type creatine kinase in a biological specimen.", "preferredTerm": "Creatine Kinase MB Measurement", "submissionValue": "CKMB", "synonyms": ["Creatine Kinase MB"]}, {"conceptId": "C79441", "definition": "A relative measurement (ratio or percentage) of the MB-type creatine kinase to total creatine kinase in a biological specimen.", "preferredTerm": "Creatine Kinase MB to Total Creatine Kinase Ratio Measurement", "submissionValue": "CKMBCK", "synonyms": ["Creatine Kinase MB/Total Creatine Kinase"]}, {"conceptId": "C64494", "definition": "A measurement of the homozygous M-type creatine kinase in a biological specimen.", "preferredTerm": "Creatine Kinase MM Measurement", "submissionValue": "CKMM", "synonyms": ["Creatine Kinase MM"]}, {"conceptId": "C79442", "definition": "A relative measurement (ratio or percentage) of the MM-type creatine kinase to total creatine kinase in a biological specimen.", "preferredTerm": "Creatine Kinase MM to Total Creatine Kinase Ratio Measurement", "submissionValue": "CKMMCK", "synonyms": ["Creatine Kinase MM/Total Creatine Kinase"]}, {"conceptId": "C147319", "definition": "A relative measurement (ratio or percentage) of the macromolecular type 1 creatine kinase to total creatine kinase in a biological specimen.", "preferredTerm": "Macromolecular Type 1 Creatine Kinase to Total Creatine Kinase Ratio Measurement", "submissionValue": "CKMT1CK", "synonyms": ["CK, Macromolecular Type 1/Total CK", "Creatine Kinase, Macromolecular Type 1/Total Creatine Kinase"]}, {"conceptId": "C147320", "definition": "A relative measurement (ratio or percentage) of the macromolecular type 2 creatine kinase to total creatine kinase in a biological specimen.", "preferredTerm": "Macromolecular Type 2 Creatine Kinase to Total Creatine Kinase Ratio Measurement", "submissionValue": "CKMT2CK", "synonyms": ["CK, Macromolecular Type 2/Total CK", "Creatine Kinase, Macromolecular Type 2/Total Creatine Kinase"]}, {"conceptId": "C64495", "definition": "A measurement of the chloride in a biological specimen.", "preferredTerm": "Chloride Measurement", "submissionValue": "CL", "synonyms": ["Chloride"]}, {"conceptId": "C96594", "definition": "A measurement of the transparency of a biological specimen.", "preferredTerm": "Clarity Measurement", "submissionValue": "CLARITY", "synonyms": ["Clarity"]}, {"conceptId": "C106509", "definition": "A measurement of the volume of serum or plasma that would be cleared of chloride by excretion of urine for a specified unit of time (e.g. one minute).", "preferredTerm": "Chloride Clearance Measurement", "submissionValue": "CLCLR", "synonyms": ["Chloride Clearance"]}, {"conceptId": "C79440", "definition": "A relative measurement (ratio or percentage) of the chloride to creatinine in a biological specimen.", "preferredTerm": "Chloride to Creatinine Ratio Measurement", "submissionValue": "CLCREAT", "synonyms": ["Chloride/Creatinine"]}, {"conceptId": "C74848", "definition": "A measurement of the calcitonin hormone in a biological specimen.", "preferredTerm": "Calcitonin Measurement", "submissionValue": "CLCTONN", "synonyms": ["Calcitonin"]}, {"conceptId": "C74849", "definition": "A measurement of the calcitriol hormone in a biological specimen.", "preferredTerm": "Calcitriol Measurement", "submissionValue": "CLCTRIOL", "synonyms": ["Calcitriol"]}, {"conceptId": "C135405", "definition": "A relative measurement (ratio or percentage) of the columnar epithelial cells to non-squamous epithelial cells in a biological specimen.", "preferredTerm": "Columnar Epithelial Cells to Non-Squamous Epithelial Cells Ratio Measurement", "submissionValue": "CLEPNSQE", "synonyms": ["Columnar Epi Cells/Non-Squam Epi Cells"]}, {"conceptId": "C150816", "definition": "A measurement of the amount of chloride being excreted in a biological specimen over a defined period of time (e.g. one hour).", "preferredTerm": "Chloride Excretion Rate", "submissionValue": "CLEXR", "synonyms": ["Chloride Excretion Rate"]}, {"conceptId": "C139082", "definition": "A measurement of the clonazepam present in a biological specimen.", "preferredTerm": "Clonazepam Measurement", "submissionValue": "CLNZPM", "synonyms": ["Clonazepam"]}, {"conceptId": "C184613", "definition": "A measurement of the clobazam in a biological specimen.", "preferredTerm": "Clobazam Measurement", "submissionValue": "CLOBAZAM", "synonyms": ["Clobazam", "cloBAZam"]}, {"conceptId": "C184581", "definition": "A measurement of the clostebol in a biological specimen.", "preferredTerm": "Clostebol Measurement", "submissionValue": "CLOSTBL", "synonyms": ["Clostebol"]}, {"conceptId": "C181438", "definition": "A qualitative assessment of clot retraction in a biological specimen.", "preferredTerm": "Qualitative Clot Retraction Measurement", "submissionValue": "CLOTRTC", "synonyms": ["Clot Retraction", "Clot Retraction, Qualitative"]}, {"conceptId": "C181437", "definition": "A measurement of the amount of time it takes for a clot to retract, or pull away from, the wall of a glass collection container.", "preferredTerm": "Clot Retraction Time Measurement", "submissionValue": "CLOTRTCT", "synonyms": ["Clot Retraction Time"]}, {"conceptId": "C184580", "definition": "A measurement of the chlorphentermine in a biological specimen.", "preferredTerm": "Chlorphentermine Measurement", "submissionValue": "CLPHTRMN", "synonyms": ["Chlorphentermine"]}, {"conceptId": "C75371", "definition": "A measurement of the chlordiazepoxide present in a biological specimen.", "preferredTerm": "Chlordiazepoxide Measurement", "submissionValue": "CLRDZPXD", "synonyms": ["Chlordiazepoxide"]}, {"conceptId": "C139077", "definition": "A measurement of the clorazepate present in a biological specimen.", "preferredTerm": "Clorazepate Measurement", "submissionValue": "CLRZPT", "synonyms": ["Clorazepate"]}, {"conceptId": "C187805", "definition": "A measurement of the amount of time it takes for dissolution of a fibrin clot in a biological specimen.", "preferredTerm": "Euglobulin Clot Lysis Time", "submissionValue": "CLT", "synonyms": ["Clot Lysis Time", "ECLT", "ELT", "Euglobulin Clot Lysis Time", "Euglobulin Lysis Time"]}, {"conceptId": "C102261", "definition": "A measurement of the clue cells in a biological specimen.", "preferredTerm": "Clue Cell Count", "submissionValue": "CLUECE", "synonyms": ["Clue Cells"]}, {"conceptId": "C186031", "definition": "A measurement of the clonazepam and/or its metabolite(s) present in a biological specimen, for an assay that can measure both clonazepam and its metabolites.", "preferredTerm": "Clonazepam and/or Metabolites Measurement", "submissionValue": "CLZPMAOM", "synonyms": ["Clonazepam and/or Metabolites"]}, {"conceptId": "C139084", "definition": "A measurement of the carbon monoxide in a biological specimen.", "preferredTerm": "Carbon Monoxide Measurement", "submissionValue": "CMONOX", "synonyms": ["Carbon Monoxide"]}, {"conceptId": "C163426", "definition": "A measurement of the cytidine-uridine monophosphate kinase 2 in a biological specimen.", "preferredTerm": "Cytidine-Uridine Monophosphate Kinase 2 Measurement", "submissionValue": "CMPK2", "synonyms": ["Cytidine-Uridine Monophosphate Kinase 2", "Cytidine/Uridine Monophosphate Kinase 2"]}, {"conceptId": "C122111", "definition": "A measurement of the centromere IgG antibody in a biological specimen.", "preferredTerm": "Centromere IgG Antibody Measurement", "submissionValue": "CNTIGGAB", "synonyms": ["Centromere IgG Antibody", "Centromere Protein B"]}, {"conceptId": "C64545", "definition": "A measurement of the carbon dioxide gas in a biological specimen.", "preferredTerm": "Carbon Dioxide Measurement", "submissionValue": "CO2", "synonyms": ["Carbon Dioxide"]}, {"conceptId": "C112239", "definition": "A measurement of the efficiency of coagulation of a biological specimen. This is calculated by a mathematical formula that takes into account the R value, K value, angle and maximum amplitude of clot formation.", "preferredTerm": "Coagulation Index Measurement", "submissionValue": "COAGIDX", "synonyms": ["CI", "Coagulation Index"]}, {"conceptId": "C172490", "definition": "A measurement of the cocaine and/or its metabolite(s) present in a biological specimen, for an assay that can measure both cocaine and its metabolites.", "preferredTerm": "Cocaine And/Or Metabolites Measurement", "submissionValue": "COCAAOM", "synonyms": ["Cocaine and/or Metabolites"]}, {"conceptId": "C156510", "definition": "A measurement of the cocaethylene present in a biological specimen.", "preferredTerm": "Cocaethylene Measurement", "submissionValue": "COCAETH", "synonyms": ["Cocaethylene", "Cocaine Ethyl"]}, {"conceptId": "C74690", "definition": "A measurement of the cocaine present in a biological specimen.", "preferredTerm": "Cocaine Measurement", "submissionValue": "COCAINE", "synonyms": ["Cocaine"]}, {"conceptId": "C172491", "definition": "A measurement of any cocaine drug class metabolite(s) present in a biological specimen.", "preferredTerm": "Cocaine Metabolites Measurement", "submissionValue": "COCAM", "synonyms": ["Cocaine Metabolites"]}, {"conceptId": "C142274", "definition": "A measurement of the cocaine, benzoylecgonine, and/or ecgonine in a biological specimen.", "preferredTerm": "Cocaine, Benzoylecgonine, and/or Ecgonine Measurement", "submissionValue": "COCBNZEC", "synonyms": ["Cocaine Benzoylecgonine Ecgonine"]}, {"conceptId": "C74877", "definition": "A measurement of the codeine present in a biological specimen.", "preferredTerm": "Codeine Measurement", "submissionValue": "CODEINE", "synonyms": ["Codeine"]}, {"conceptId": "C103383", "definition": "A measurement of the collagen type IV in a biological specimen.", "preferredTerm": "Collagen Type IV Measurement", "submissionValue": "COL4", "synonyms": ["Collagen Type IV"]}, {"conceptId": "C64546", "definition": "A measurement of the color of a biological specimen.", "preferredTerm": "Color Assessment", "submissionValue": "COLOR", "synonyms": ["Color"]}, {"conceptId": "C111145", "definition": "A measurement of the cartilage oligomeric matrix protein in a biological specimen.", "preferredTerm": "Cartilage Oligomeric Matrix Protein Measurement", "submissionValue": "COMP", "synonyms": ["Cartilage Oligomeric Matrix Protein"]}, {"conceptId": "C102282", "definition": "A measurement of the urine conductivity which is a non-linear function of the electrolyte concentration in the urine.", "preferredTerm": "Urine Conductivity", "submissionValue": "CONDUCTU", "synonyms": ["Urine Conductivity"]}, {"conceptId": "C95110", "definition": "A description about the firmness or make-up of an entity.", "preferredTerm": "Consistency", "submissionValue": "CONSIST", "synonyms": ["Consistency"]}, {"conceptId": "C127612", "definition": "A measurement of the copeptin in a biological specimen.", "preferredTerm": "Copeptin Measurement", "submissionValue": "COPEP", "synonyms": ["Copeptin"]}, {"conceptId": "C111161", "definition": "A measurement of copper in a biological specimen.", "preferredTerm": "Copper Measurement", "submissionValue": "COPPER", "synonyms": ["Copper", "Cu"]}, {"conceptId": "C147321", "definition": "A measurement of the ubiquinone 10 in a biological specimen.", "preferredTerm": "Ubiquinone 10 Measurement", "submissionValue": "COQ10", "synonyms": ["Coenzyme Q10", "Ubiquinone 10"]}, {"conceptId": "C106512", "definition": "A relative measurement (ratio or percentage) of the cortisol to creatinine present in a sample.", "preferredTerm": "Cortisol to Creatinine Ratio Measurement", "submissionValue": "CORCREAT", "synonyms": ["Cortisol/Creatinine"]}, {"conceptId": "C88113", "definition": "A measurement of the free, unbound cortisol in a biological specimen.", "preferredTerm": "Free Cortisol Measurement", "submissionValue": "CORTFR", "synonyms": ["Cortisol, Free"]}, {"conceptId": "C74781", "definition": "A measurement of the cortisol in a biological specimen.", "preferredTerm": "Cortisol Measurement", "submissionValue": "CORTISOL", "synonyms": ["Cortisol", "Total Cortisol"]}, {"conceptId": "C186032", "definition": "A measurement of the alpha cortol in a biological specimen.", "preferredTerm": "Alpha Cortol Measurement", "submissionValue": "CORTOLA", "synonyms": ["Alpha Cortol", "alpha-Cortol"]}, {"conceptId": "C186033", "definition": "A measurement of the alpha cortolone in a biological specimen.", "preferredTerm": "Alpha Cortolone Measurement", "submissionValue": "CORTOLNA", "synonyms": ["Alpha Cortolone", "alpha-Cortolone"]}, {"conceptId": "C92249", "definition": "A measurement of the cotinine in a biological specimen.", "preferredTerm": "Cotinine Measurement", "submissionValue": "COTININE", "synonyms": ["Cotinine"]}, {"conceptId": "C165953", "definition": "A measurement of the carboxypeptidase B2 in a biological specimen.", "preferredTerm": "Carboxypeptidase B2 Measurement", "submissionValue": "CPB2", "synonyms": ["Carboxypeptidase B2", "CPU", "PCPB", "TAFI"]}, {"conceptId": "C150837", "definition": "A relative measurement (ratio or percentage) of the C-peptide to creatinine in a biological specimen.", "preferredTerm": "C-peptide to Creatinine Ratio Measurement", "submissionValue": "CPEPCRT", "synonyms": ["C-peptide/Creatinine"]}, {"conceptId": "C187796", "definition": "A measurement of the amount of C-peptide being excreted in a biological specimen over a defined amount of time (e.g. one hour).", "preferredTerm": "C-Peptide Excretion Rate", "submissionValue": "CPEPEXR", "synonyms": ["C-Peptide Excretion Rate"]}, {"conceptId": "C74736", "definition": "A measurement of the C (connecting) peptide of insulin in a biological specimen.", "preferredTerm": "C-peptide Measurement", "submissionValue": "CPEPTIDE", "synonyms": ["C-peptide"]}, {"conceptId": "C147322", "definition": "A measurement of the carbamazepine in a biological specimen.", "preferredTerm": "Carbamazepine Measurement", "submissionValue": "CRBMZPN", "synonyms": ["Carbamazepine"]}, {"conceptId": "C122112", "definition": "A measurement of the cardiolipin IgA antibody in a biological specimen.", "preferredTerm": "Cardiolipin IgA Antibody Measurement", "submissionValue": "CRDIGAAB", "synonyms": ["Cardiolipin IgA Antibody"]}, {"conceptId": "C111144", "definition": "A measurement of the cardiolipin IgG antibody in a biological specimen.", "preferredTerm": "Cardiolipin IgG Antibody Measurement", "submissionValue": "CRDIGGAB", "synonyms": ["Anti-Cardiolipin IgG Antibody", "Cardiolipin IgG Antibody"]}, {"conceptId": "C103363", "definition": "A measurement of the cardiolipin IgM antibodies in a biological specimen.", "preferredTerm": "Cardiolipin IgM Antibody Measurement", "submissionValue": "CRDIGMAB", "synonyms": ["Cardiolipin IgM Antibody"]}, {"conceptId": "C64547", "definition": "A measurement of the creatinine in a biological specimen.", "preferredTerm": "Creatinine Measurement", "submissionValue": "CREAT", "synonyms": ["Creatinine"]}, {"conceptId": "C25747", "definition": "A measurement of the volume of serum or plasma that would be cleared of creatinine by excretion of urine for a specified unit of time (e.g. one minute).", "preferredTerm": "Creatinine Clearance", "submissionValue": "CREATCLR", "synonyms": ["Creatinine Clearance"]}, {"conceptId": "C150817", "definition": "A measurement of the amount of creatinine being excreted in a biological specimen over a defined amount of time (e.g. one hour).", "preferredTerm": "Creatinine Excretion Rate", "submissionValue": "CREATEXR", "synonyms": ["Creatinine Excretion Rate"]}, {"conceptId": "C74703", "definition": "A measurement of the crenated cells in a biological specimen.", "preferredTerm": "Crenated Cell Measurement", "submissionValue": "CRENCE", "synonyms": ["Crenated Cells"]}, {"conceptId": "C74851", "definition": "A measurement of the corticotropin releasing hormone in a biological specimen.", "preferredTerm": "Corticotropin Releasing Hormone Measurement", "submissionValue": "CRH", "synonyms": ["Corticotropin Releasing Factor", "Corticotropin Releasing Hormone"]}, {"conceptId": "C100432", "definition": "A measurement of ceruloplasmin in a biological specimen.", "preferredTerm": "Ceruloplasmin Measurement", "submissionValue": "CRLPLSMN", "synonyms": ["Caeruloplasmin", "Ceruloplasmin"]}, {"conceptId": "C147323", "definition": "A measurement of the total carnitine esters in a biological specimen.", "preferredTerm": "Carnitine Ester Measurement", "submissionValue": "CRNTESTR", "synonyms": ["Carnitine Esters"]}, {"conceptId": "C64548", "definition": "A measurement of the C reactive protein in a biological specimen.", "preferredTerm": "C-Reactive Protein Measurement", "submissionValue": "CRP", "synonyms": ["C Reactive Protein"]}, {"conceptId": "C184611", "definition": "A measurement of the carisoprodol in a biological specimen.", "preferredTerm": "Carisoprodol Measurement", "submissionValue": "CRSPRDL", "synonyms": ["Carisoprodol"]}, {"conceptId": "C147324", "definition": "A measurement of the volume of serum or plasma that would be cleared of creatinine by excretion of urine for a specified unit of time (e.g. one minute), adjusted for body surface area.", "preferredTerm": "Creatinine Clearance Adjusted for BSA", "submissionValue": "CRTCLRBS", "synonyms": ["Creatinine Clearance Adjusted for BSA"]}, {"conceptId": "C150847", "definition": "An estimate of the volume of serum or plasma that would be cleared of creatinine by excretion of urine for a specified unit of time (e.g. one minute).", "preferredTerm": "Estimated Creatinine Clearance", "submissionValue": "CRTCLRE", "synonyms": ["Creatinine Clearance, Estimated"]}, {"conceptId": "C106511", "definition": "A relative measurement (ratio or percentage) of the corticosterone to creatinine present in a sample.", "preferredTerm": "Corticosterone to Creatinine Ratio Measurement", "submissionValue": "CRTCREAT", "synonyms": ["Corticosterone/Creatinine"]}, {"conceptId": "C163427", "definition": "A measurement of the amount of free cortisol being excreted in a biological specimen over a defined amount of time (e.g. one hour).", "preferredTerm": "Free Cortisol Excretion Rate", "submissionValue": "CRTFREXR", "synonyms": ["Cortisol, Free Excretion Rate"]}, {"conceptId": "C186034", "definition": "A measurement of the total carotenes in a biological specimen.", "preferredTerm": "Carotene Measurement", "submissionValue": "CRTN", "synonyms": ["Carotene"]}, {"conceptId": "C79434", "definition": "A measurement of corticosterone in a biological specimen.", "preferredTerm": "Corticosterone Measurement", "submissionValue": "CRTRONE", "synonyms": ["Corticosterone"]}, {"conceptId": "C147325", "definition": "A relative measurement (ratio or percentage) of the volume of cryoglobulin to total serum volume in a biological specimen.", "preferredTerm": "Cryoglobulin Volume to Serum Volume Ratio Measurement", "submissionValue": "CRYGLBSR", "synonyms": ["Cryoglobulin Volume/Serum Volume"]}, {"conceptId": "C147326", "definition": "A measurement of the cryofibrinogen in a biological specimen.", "preferredTerm": "Cryofibrinogen Measurement", "submissionValue": "CRYOFBRN", "synonyms": ["Cryofibrinogen"]}, {"conceptId": "C111164", "definition": "A measurement of cryoglobulin in a biological specimen.", "preferredTerm": "Cryoglobulin Measurement", "submissionValue": "CRYOGLBN", "synonyms": ["Cryoglobulin"]}, {"conceptId": "C74673", "definition": "A statement that indicates crystals were looked for in a biological specimen.", "preferredTerm": "Crystal Present Or Absent", "submissionValue": "CRYSTALS", "synonyms": ["Crystals"]}, {"conceptId": "C120634", "definition": "A measurement of the total cathepsin antibody in a biological specimen.", "preferredTerm": "Cathepsin Antibody Measurement", "submissionValue": "CSAB", "synonyms": ["Cathepsin Antibody"]}, {"conceptId": "C74762", "definition": "A measurement of the bacterial casts present in a biological specimen.", "preferredTerm": "Bacterial Cast Measurement", "submissionValue": "CSBACT", "synonyms": ["Bacterial Casts"]}, {"conceptId": "C96588", "definition": "A measurement of the broad casts in a biological specimen.", "preferredTerm": "Broad Casts Measurement", "submissionValue": "CSBROAD", "synonyms": ["Broad Casts"]}, {"conceptId": "C74764", "definition": "A measurement of the cellular (white blood cell, red blood cell, epithelial and bacterial) casts present in a biological specimen.", "preferredTerm": "Cellular Cast Measurement", "submissionValue": "CSCELL", "synonyms": ["Cellular Casts"]}, {"conceptId": "C150838", "definition": "A measurement of cylindroid casts (casts with a tapering end) in a biological specimen.", "preferredTerm": "Cylindroid Cast Measurement", "submissionValue": "CSCYL", "synonyms": ["Cylindroid Casts", "Cylindroid Pseudocasts"]}, {"conceptId": "C74779", "definition": "A measurement of the epithelial cell casts present in a biological specimen.", "preferredTerm": "Epithelial-Cast Measurement", "submissionValue": "CSEPI", "synonyms": ["Epithelial Casts"]}, {"conceptId": "C112220", "definition": "A measurement of the 846 epitope present on the chondroitin sulfate chains of aggrecan in a biological specimen.", "preferredTerm": "Aggrecan Chondroitin Sulfate Epitope 846 Measurement", "submissionValue": "CSEPI846", "synonyms": ["846-Epitope", "Aggrecan Chondroitin Sulfate Epitope 846", "Chondroitin Sulfate Epitope 846", "Chondroitin Sulfate Proteoglycan 1 Epitope 846", "CS846"]}, {"conceptId": "C174229", "definition": "A measurement of the renal epithelial cell casts in a biological specimen.", "preferredTerm": "Renal Epithelial Casts Measurement", "submissionValue": "CSEPIR", "synonyms": ["Renal Epithelial Casts"]}, {"conceptId": "C174292", "definition": "A measurement of the renal tubular epithelial cell casts in a biological specimen.", "preferredTerm": "Renal Tubular Epithelial Casts Measurement", "submissionValue": "CSEPIRT", "synonyms": ["Renal Tubular Epithelial Casts"]}, {"conceptId": "C74766", "definition": "A measurement of the fatty casts present in a biological specimen.", "preferredTerm": "Fatty Cast Measurement", "submissionValue": "CSFAT", "synonyms": ["Fatty Casts"]}, {"conceptId": "C154735", "definition": "A relative measurement (ratio) of the IgG to albumin in cerebrospinal fluid to the IgG to albumin in serum.", "preferredTerm": "IgG Index", "submissionValue": "CSFIGIDX", "synonyms": ["CSF IgG Index", "CSF Index", "IgG Index"]}, {"conceptId": "C74768", "definition": "A measurement of the granular (coarse and fine) casts present in a biological specimen.", "preferredTerm": "Granular Cast Measurement", "submissionValue": "CSGRAN", "synonyms": ["Granular Casts"]}, {"conceptId": "C74765", "definition": "A measurement of the coarse granular casts present in a biological specimen.", "preferredTerm": "Coarse Granular Cast Measurement", "submissionValue": "CSGRANC", "synonyms": ["Granular Coarse Casts"]}, {"conceptId": "C74769", "definition": "A measurement of the fine granular casts present in a biological specimen.", "preferredTerm": "Granular Fine Cast Measurement", "submissionValue": "CSGRANF", "synonyms": ["Granular Fine Casts"]}, {"conceptId": "C74770", "definition": "A measurement of the hyaline casts present in a biological specimen.", "preferredTerm": "Hyaline Cast Measurement", "submissionValue": "CSHYAL", "synonyms": ["Hyaline Casts"]}, {"conceptId": "C174305", "definition": "A measurement of the hyalogranular casts in a biological specimen.", "preferredTerm": "Hyalogranular Casts", "submissionValue": "CSHYGR", "synonyms": ["Hyalogranular Casts"]}, {"conceptId": "C74771", "definition": "A measurement of the mixed (the cast contains a mixture of cell types) casts present in a biological specimen.", "preferredTerm": "Mixed Cast Count", "submissionValue": "CSMIX", "synonyms": ["Mixed Casts"]}, {"conceptId": "C186035", "definition": "A measurement of the pathologic (non-hyaline) casts present in a biological specimen.", "preferredTerm": "Pathologic Cast Measurement", "submissionValue": "CSPATH", "synonyms": ["Non-Hyalin Casts", "Non-Hyaline Casts", "Pathologic Casts"]}, {"conceptId": "C189518", "definition": "A measurement of the pigment casts present in a biological specimen.", "preferredTerm": "Pigment Cast Measurement", "submissionValue": "CSPIG", "synonyms": ["Pigment Casts", "Pigmented Casts"]}, {"conceptId": "C74772", "definition": "A measurement of the red blood cell casts present in a biological specimen.", "preferredTerm": "Red Blood Cell Cast Measurement", "submissionValue": "CSRBC", "synonyms": ["Erythrocyte Casts", "RBC Casts"]}, {"conceptId": "C74776", "definition": "A measurement of the unclassifiable casts present in a biological specimen.", "preferredTerm": "Unclassified Cast Measurement", "submissionValue": "CSUNCLA", "synonyms": ["Unclassified Casts"]}, {"conceptId": "C74777", "definition": "A measurement of the waxy casts present in a biological specimen.", "preferredTerm": "Waxy Cell Cast Measurement", "submissionValue": "CSWAX", "synonyms": ["Waxy Casts"]}, {"conceptId": "C74778", "definition": "A measurement of the white blood cell casts present in a biological specimen.", "preferredTerm": "White Blood Cell Cast Measurement", "submissionValue": "CSWBC", "synonyms": ["WBC Casts"]}, {"conceptId": "C96593", "definition": "A measurement of the circulating tumor cells in a biological specimen.", "preferredTerm": "Circulating Tumor Cell Count", "submissionValue": "CTC", "synonyms": ["Circulating Tumor Cells"]}, {"conceptId": "C186036", "definition": "A measurement of the apoptotic circulating tumor cells in a biological specimen.", "preferredTerm": "Apoptotic Circulating Tumor Cell Count", "submissionValue": "CTCAPOP", "synonyms": ["Circulating Tumor Cells, Apoptotic"]}, {"conceptId": "C186037", "definition": "A measurement of the total catecholamines in a biological specimen.", "preferredTerm": "Catecholamine Measurement", "submissionValue": "CTCHLMN", "synonyms": ["Catecholamines"]}, {"conceptId": "C186038", "definition": "A measurement of the traditional circulating tumor cells in a biological specimen.", "preferredTerm": "Traditional Circulating Tumor Cell Count", "submissionValue": "CTCTRAD", "synonyms": ["Circulating Tumor Cells, Traditional"]}, {"conceptId": "C189504", "definition": "A measurement of the connective tissue growth factor in a biological specimen.", "preferredTerm": "Connective Tissue Growth Factor Measurement", "submissionValue": "CTGF", "synonyms": ["Cellular Communication Network Factor 2", "CN2", "Connective Tissue Growth Factor", "IGFBP8"]}, 