{"_links": {"parentPackage": {"href": "/mdr/ct/packages/sendct-2023-03-31", "title": "SEND Controlled Terminology Package 53 Effective 2023-03-31", "type": "Terminology"}, "priorVersion": {"href": "/mdr/ct/packages/sendct-2022-12-16/codelists/C66770", "title": "CDISC SDTM Unit for Vital Sign Result Terminology", "type": "Code List"}, "rootItem": {"href": "/mdr/root/ct/sendct/codelists/C66770", "title": "Version-agnostic anchor resource for codelist C66770", "type": "Root Value Domain"}, "self": {"href": "/mdr/ct/packages/sendct-2023-03-31/codelists/C66770", "title": "CDISC SDTM Unit for Vital Sign Result Terminology", "type": "Code List"}}, "conceptId": "C66770", "definition": "The unit used to record and describe the result of a test investigating a vital sign. (NCI)", "extensible": "true", "name": "Units for Vital Signs Results", "preferredTerm": "CDISC SDTM Unit for Vital Sign Result Terminology", "submissionValue": "VSRESU", "synonyms": ["Units for Vital Signs Results"], "terms": [{"conceptId": "C25613", "definition": "One hundred times the quotient of one quantity divided by another, with the same units of measurement.", "preferredTerm": "Percentage", "submissionValue": "%", "synonyms": ["Percentage"]}, {"conceptId": "C49673", "definition": "The number of heartbeats measured per minute time. (NCI)", "preferredTerm": "Beats per Minute", "submissionValue": "beats/min", "synonyms": ["Beats per Minute", "BPM", "bpm"]}, {"conceptId": "C49674", "definition": "The number of breaths (inhalation and exhalation) taken per minute time. (NCI)", "preferredTerm": "Breaths per Minute", "submissionValue": "breaths/min", "synonyms": ["Breaths per Minute"]}, {"conceptId": "C42559", "definition": "A unit of temperature of the temperature scale designed so that the freezing point of water is 0 degrees and the boiling point is 100 degrees at standard atmospheric pressure. The current official definition of the Celsius sets 0.01 C to be at the triple point of water and a degree to be 1/273.16 of the difference in temperature between the triple point of water and absolute zero. One degree Celsius represents the same temperature difference as one Kelvin. (NCI)", "preferredTerm": "Degree Celsius", "submissionValue": "C", "synonyms": ["Degree Celsius"]}, {"conceptId": "C49668", "definition": "A basic unit of length equal to one hundredth of a meter or approximately 0.393700787 inch.", "preferredTerm": "Centimeter", "submissionValue": "cm", "synonyms": ["Centimeter"]}, {"conceptId": "C147129", "definition": "A unit of pressure equal to 0.001316 atmosphere and equal to the pressure indicated by one centimeter rise of mercury in a barometer at the Earth's surface.", "preferredTerm": "Centimeters of Mercury", "submissionValue": "cmHg", "synonyms": ["Centimeter of Mercury"]}, {"conceptId": "C44277", "definition": "The Fahrenheit temperature scale is named after the German physicist Gabriel Fahrenheit (1686-1736), who proposed it in 1724. In this scale, the freezing point of water is 32 degrees Fahrenheit and the boiling point is 212 degrees, placing the boiling and melting points of water 180 degrees apart. In this scale a degree Fahrenheit is 5/9ths of a Kelvin (or of a degree Celsius), and minus 40 degrees Fahrenheit is equal to minus 40 degrees Celsius. (NCI)", "preferredTerm": "Degree Fahrenheit", "submissionValue": "F", "synonyms": ["Degree Fahrenheit"]}, {"conceptId": "C48155", "definition": "A unit of mass equal to one thousandth (1E-3) of a kilogram, the kilogram being the base unit of mass in the International System of Units (SI).", "preferredTerm": "Gram", "submissionValue": "g", "synonyms": ["Gram"]}, {"conceptId": "C42545", "definition": "A unit of frequency equal to one cycle per second.(NCI)", "preferredTerm": "Hertz", "submissionValue": "Hz", "synonyms": ["Cycle per Second", "cycle/sec", "Hertz"]}, {"conceptId": "C48500", "definition": "A traditional unit of length equal to 2.54 centimeters. (NCI)", "preferredTerm": "Inch", "submissionValue": "in", "synonyms": ["Inch"]}, {"conceptId": "C42537", "definition": "A basic unit of thermodynamic temperature, one of the seven base units of the International System of Units (Systeme International d'Unites, SI). It is 1/273.16th of the thermodynamic temperature of the triple point of water. This sets the size of the kelvin unit for temperature differences and defines the thermodynamic temperature of an equilibrium mixture of waters ice-liquid-vapor as 273.16 K, where 0 K is the lowest possible temperature (\"absolute zero\").", "preferredTerm": "Kelvin", "submissionValue": "K", "synonyms": ["Kelvin"]}, {"conceptId": "C139135", "definition": "A unit of energy equal to one kilocalorie per day. (NCI)", "preferredTerm": "Kilocalorie per Day", "submissionValue": "kcal/day"}, {"conceptId": "C28252", "definition": "The base unit of mass in the International System of Units (SI) equal to the mass of the international prototype kilogram, a platinum-iridium cylinder in the custody of the International Bureau of Weights and Measures.", "preferredTerm": "Kilogram", "submissionValue": "kg", "synonyms": ["Kilogram"]}, {"conceptId": "C49671", "definition": "A unit expressed as kilogram of mass per square meter of area.(NCI)", "preferredTerm": "Kilogram per Square Meter", "submissionValue": "kg/m2", "synonyms": ["Kilogram per Square Meter"]}, {"conceptId": "C48531", "definition": "A traditional unit of mass. By international agreement, one avoirdupois pound is equal to exactly 0.453 592 37 kilogram, 16 ounces, or 1.215 28 troy pounds. (NCI)", "preferredTerm": "Pound", "submissionValue": "LB", "synonyms": ["lb", "lb_av", "Pound"]}, {"conceptId": "C41139", "definition": "A meter is defined as the length of the path traveled by light in a vacuum during a time interval of 1/299 792 458 of a second and is equal to 1.093 61 yards.(NCI)", "preferredTerm": "Meter", "submissionValue": "m", "synonyms": ["Meter"]}, {"conceptId": "C42569", "definition": "The standard derived unit of area in the International System of Units (SI) equal to the area of a square whose sides are one meter long.", "preferredTerm": "Square Meter", "submissionValue": "m2", "synonyms": ["Square Meter"]}, {"conceptId": "C127805", "definition": "A unit of energy expenditure equal to the ratio of metabolic rate during physical activity versus a reference metabolic rate.", "preferredTerm": "Metabolic Equivalent of Task Unit", "submissionValue": "MET", "synonyms": ["Metabolic Equivalent of Task"]}, {"conceptId": "C28251", "definition": "A unit of measure equal to one thousandth of a meter. (NCI)", "preferredTerm": "Millimeter", "submissionValue": "mm", "synonyms": ["Millimeter"]}, {"conceptId": "C49670", "definition": "A unit of pressure equal to 0.001316 atmosphere and equal to the pressure indicated by one millimeter rise of mercury in a barometer at the Earth's surface. (NCI)", "preferredTerm": "Millimeter of Mercury", "submissionValue": "mmHg", "synonyms": ["Millimeter of Mercury"]}, {"conceptId": "C42547", "definition": "A unit of pressure equivalent to one Newton per square meter or 10 bars or to 1.45x10(E-4) pounds per square inch.(NCI)", "preferredTerm": "Pascal", "submissionValue": "Pa", "synonyms": ["Pascal"]}, {"conceptId": "C44256", "definition": "The quotient of one quantity divided by another, with the same units of measurement.", "preferredTerm": "Ratio", "submissionValue": "RATIO"}, {"conceptId": "C42549", "definition": "A unit of power equal to the power which in one second produces or transfers the energy of one joule. The unit is used in measurements of power emitted, transferred or received as radiation, sound waves, heat flow rate, and rate of energy transfer. Equal to 1/746 of horsepower.(NCI)", "preferredTerm": "Watt", "submissionValue": "Watt"}]}