{"_links": {"parentPackage": {"href": "/mdr/ct/packages/sendct-2023-03-31", "title": "SEND Controlled Terminology Package 53 Effective 2023-03-31", "type": "Terminology"}, "priorVersion": {"href": "/mdr/ct/packages/sendct-2022-12-16/codelists/C89970", "title": "CDISC SEND Food and Water Consumption Test Code Terminology", "type": "Code List"}, "rootItem": {"href": "/mdr/root/ct/sendct/codelists/C89970", "title": "Version-agnostic anchor resource for codelist C89970", "type": "Root Value Domain"}, "self": {"href": "/mdr/ct/packages/sendct-2023-03-31/codelists/C89970", "title": "CDISC SEND Food and Water Consumption Test Code Terminology", "type": "Code List"}}, "conceptId": "C89970", "definition": "Terminology for the test codes concerned with the subject's consumption of food and/or water.", "extensible": "true", "name": "Food and Water Consumption Test Code", "preferredTerm": "CDISC SEND Food and Water Consumption Test Code Terminology", "submissionValue": "FWTESTCD", "synonyms": ["Food and Water Consumption Test Code"], "terms": [{"conceptId": "C90384", "definition": "A measurement of a subject's nutritional intake. (NCI)", "preferredTerm": "Food Consumption", "submissionValue": "FC", "synonyms": ["Food Consumption"]}, {"conceptId": "C90385", "definition": "The ratio or percentage of nutritional intake to body weight. (NCI)", "preferredTerm": "Food Consumption Relative to Body Weight", "submissionValue": "FCRELBW", "synonyms": ["Food Consumption Relative to Body Wt"]}, {"conceptId": "C90484", "definition": "A measurement of a subject's water intake. (NCI)", "preferredTerm": "Water Consumption", "submissionValue": "WC", "synonyms": ["Water Consumption"]}, {"conceptId": "C90485", "definition": "The ratio or percentage of water intake to body weight. (NCI)", "preferredTerm": "Water Consumption Relative to Body Weight", "submissionValue": "WCRELBW", "synonyms": ["Water Consumption Relative to Body Wt"]}]}