{"_links": {"parentPackage": {"href": "/mdr/ct/packages/sendct-2023-03-31", "title": "SEND Controlled Terminology Package 53 Effective 2023-03-31", "type": "Terminology"}, "priorVersion": {"href": "/mdr/ct/packages/sendct-2022-12-16/codelists/C89961", "title": "CDISC SEND Body Weight Test Name Terminology", "type": "Code List"}, "rootItem": {"href": "/mdr/root/ct/sendct/codelists/C89961", "title": "Version-agnostic anchor resource for codelist C89961", "type": "Root Value Domain"}, "self": {"href": "/mdr/ct/packages/sendct-2023-03-31/codelists/C89961", "title": "CDISC SEND Body Weight Test Name Terminology", "type": "Code List"}}, "conceptId": "C89961", "definition": "Terminology for the test names concerned with the measurement of body mass.", "extensible": "true", "name": "Body Weight Test Name", "preferredTerm": "CDISC SEND Body Weight Test Name Terminology", "submissionValue": "BWTEST", "synonyms": ["Body Weight Test Name"], "terms": [{"conceptId": "C81328", "definition": "The weight of a subject. (NCI)", "preferredTerm": "Body Weight", "submissionValue": "Body Weight", "synonyms": ["Body Weight"]}, {"conceptId": "C124477", "definition": "The maternal body weight adjusted for the weight of the gravid uterus. This is derived by subtracting the gravid uterus weight from the total maternal body weight.", "preferredTerm": "Gravid Uterus Adjusted Maternal Body Weight", "submissionValue": "Gravid Uterus Adjusted Body Weight", "synonyms": ["Gravid Uterus Adjusted Body Weight"]}, {"conceptId": "C90464", "definition": "The weight of a subject at a specified end point. (NCI)", "preferredTerm": "Terminal Body Weight", "submissionValue": "Terminal Body Weight", "synonyms": ["Terminal Body Weight"]}]}