{"_links": {"parentPackage": {"href": "/mdr/ct/packages/ddfct-2023-03-31", "title": "DDF Controlled Terminology Package 53 Effective 2023-03-31", "type": "Terminology"}, "priorVersion": {"href": "/mdr/ct/packages/ddfct-2022-12-16/codelists/C188713", "title": "CDISC DDF Encounter Attribute Terminology", "type": "Code List"}, "rootItem": {"href": "/mdr/root/ct/ddfct/codelists/C188713", "title": "Version-agnostic anchor resource for codelist C188713", "type": "Root Value Domain"}, "self": {"href": "/mdr/ct/packages/ddfct-2023-03-31/codelists/C188713", "title": "CDISC DDF Encounter Attribute Terminology", "type": "Code List"}}, "conceptId": "C188713", "definition": "A terminology value set relevant to the attributes of the encounter.", "name": "DDF Encounter Attribute Terminology", "preferredTerm": "CDISC DDF Encounter Attribute Terminology", "submissionValue": "DDF Encounter Attribute Terminology", "synonyms": ["DDF Encounter Attribute Terminology"], "terms": [{"conceptId": "C188836", "definition": "The textual representation of the protocol-defined clinical encounter.", "preferredTerm": "Clinical Encounter Description", "submissionValue": "Clinical Encounter Description"}, {"conceptId": "C171010", "definition": "The literal identifier (i.e., distinctive designation) for a protocol-defined clinical encounter.", "preferredTerm": "Clinical Encounter Name", "submissionValue": "Clinical Encounter Name"}, {"conceptId": "C188839", "definition": "A characterization or classification of contact between subject/patient and healthcare practitioner/researcher, during which an assessment or activity is performed.", "preferredTerm": "Clinical Encounter Type", "submissionValue": "Clinical Encounter Type"}, {"conceptId": "C188841", "definition": "The means by which an interaction occurs between the subject/participant and person or entity (e.g., a device).", "preferredTerm": "Contact Mode", "submissionValue": "Contact Mode"}, {"conceptId": "C188840", "definition": "The environment/setting where the event, intervention, or finding occurred.", "preferredTerm": "Environmental Setting", "submissionValue": "Environmental Setting"}, {"conceptId": "C188838", "definition": "A system identifier assigned to a clinical encounter that occurs immediately after the current clinical encounter.", "preferredTerm": "Next Clinical Encounter Identifier", "submissionValue": "Next Encounter Identifier"}, {"conceptId": "C188837", "definition": "A system identifier assigned to a clinical encounter that occurs immediately prior to the current clinical encounter.", "preferredTerm": "Previous Clinical Encounter Identifier", "submissionValue": "Previous Encounter Identifier"}]}