{"_links": {"parentPackage": {"href": "/mdr/ct/packages/ddfct-2023-03-31", "title": "DDF Controlled Terminology Package 53 Effective 2023-03-31", "type": "Terminology"}, "priorVersion": {"href": "/mdr/ct/packages/ddfct-2022-12-16/codelists/C188709", "title": "CDISC DDF Study Arm Attribute Terminology", "type": "Code List"}, "rootItem": {"href": "/mdr/root/ct/ddfct/codelists/C188709", "title": "Version-agnostic anchor resource for codelist C188709", "type": "Root Value Domain"}, "self": {"href": "/mdr/ct/packages/ddfct-2023-03-31/codelists/C188709", "title": "CDISC DDF Study Arm Attribute Terminology", "type": "Code List"}}, "conceptId": "C188709", "definition": "A terminology value set relevant to the attributes of the study Arm.", "name": "DDF Study Arm Attribute Terminology", "preferredTerm": "CDISC DDF Study Arm Attribute Terminology", "submissionValue": "DDF Study Arm Attribute Terminology", "synonyms": ["DDF Study Arm Attribute Terminology"], "terms": [{"conceptId": "C188828", "definition": "The textual representation of the study arm data origin.", "preferredTerm": "Study Arm Data Origin Description", "submissionValue": "Study Arm Data Origin Description"}, {"conceptId": "C188829", "definition": "A characterization or classification of the study arm with respect to where the study arm data originates.", "preferredTerm": "Study Arm Data Origin Type", "submissionValue": "Study Arm Data Origin Type"}, {"conceptId": "C93728", "definition": "The textual representation of the arm for the study.", "preferredTerm": "Arm Description", "submissionValue": "Study Arm Description", "synonyms": ["Arm Description"]}, {"conceptId": "C170984", "definition": "The literal identifier (i.e., distinctive designation) of the study arm.", "preferredTerm": "Planned Study Arm Name", "submissionValue": "Study Arm Name"}, {"conceptId": "C188827", "definition": "The literal identifier (i.e., distinctive designation) of the study arm type.", "preferredTerm": "Study Arm Type Name", "submissionValue": "Study Arm Type Name"}]}