{"_links": {"parentPackage": {"href": "/mdr/ct/packages/ddfct-2023-03-31", "title": "DDF Controlled Terminology Package 53 Effective 2023-03-31", "type": "Terminology"}, "priorVersion": {"href": "/mdr/ct/packages/ddfct-2022-12-16/codelists/C188721", "title": "CDISC DDF Intercurrent Event Attribute Terminology", "type": "Code List"}, "rootItem": {"href": "/mdr/root/ct/ddfct/codelists/C188721", "title": "Version-agnostic anchor resource for codelist C188721", "type": "Root Value Domain"}, "self": {"href": "/mdr/ct/packages/ddfct-2023-03-31/codelists/C188721", "title": "CDISC DDF Intercurrent Event Attribute Terminology", "type": "Code List"}}, "conceptId": "C188721", "definition": "A terminology value set relevant to the attributes of the intercurrent event.", "name": "DDF Intercurrent Event Attribute Terminology", "preferredTerm": "CDISC DDF Intercurrent Event Attribute Terminology", "submissionValue": "DDF Intercurrent Event Attribute Terminology", "synonyms": ["DDF Intercurrent Event Attribute Terminology"], "terms": [{"conceptId": "C188856", "definition": "The textual representation of the intercurrent event.", "preferredTerm": "Intercurrent Event Description", "submissionValue": "Intercurrent Event Description"}, {"conceptId": "C188855", "definition": "The literal identifier (i.e., distinctive designation) of the intercurrent event.", "preferredTerm": "Intercurrent Event Name", "submissionValue": "Intercurrent Event Name"}, {"conceptId": "C188857", "definition": "A textual description of the planned strategy to manage and/or mitigate intercurrent events.", "preferredTerm": "Intercurrent Event Strategy", "submissionValue": "Intercurrent Event Strategy"}]}