{"_links": {"parentPackage": {"href": "/mdr/ct/packages/ddfct-2023-03-31", "title": "DDF Controlled Terminology Package 53 Effective 2023-03-31", "type": "Terminology"}, "priorVersion": {"href": "/mdr/ct/packages/ddfct-2022-12-16/codelists/C188708", "title": "CDISC DDF Endpoint Attribute Terminology", "type": "Code List"}, "rootItem": {"href": "/mdr/root/ct/ddfct/codelists/C188708", "title": "Version-agnostic anchor resource for codelist C188708", "type": "Root Value Domain"}, "self": {"href": "/mdr/ct/packages/ddfct-2023-03-31/codelists/C188708", "title": "CDISC DDF Endpoint Attribute Terminology", "type": "Code List"}}, "conceptId": "C188708", "definition": "A terminology value set relevant to the attributes of the endpoint.", "name": "DDF Endpoint Attribute Terminology", "preferredTerm": "CDISC DDF Endpoint Attribute Terminology", "submissionValue": "DDF Endpoint Attribute Terminology", "synonyms": ["DDF Endpoint Attribute Terminology"], "terms": [{"conceptId": "C188824", "definition": "The textual representation of the study endpoint.", "preferredTerm": "Study Endpoint Description", "submissionValue": "Study Endpoint Description"}, {"conceptId": "C188826", "definition": "A characterization or classification of the study endpoint that determines its category of importance relative to other study endpoints.", "preferredTerm": "Study Endpoint Level", "submissionValue": "Study Endpoint Level"}, {"conceptId": "C188825", "definition": "The textual representation of the study endpoint purpose.", "preferredTerm": "Study Endpoint Purpose Description", "submissionValue": "Study Endpoint Purpose Description"}]}