{"_links": {"parentPackage": {"href": "/mdr/ct/packages/ddfct-2023-03-31", "title": "DDF Controlled Terminology Package 53 Effective 2023-03-31", "type": "Terminology"}, "priorVersion": {"href": "/mdr/ct/packages/ddfct-2022-12-16/codelists/C188700", "title": "CDISC DDF Study Protocol Version Attribute Terminology", "type": "Code List"}, "rootItem": {"href": "/mdr/root/ct/ddfct/codelists/C188700", "title": "Version-agnostic anchor resource for codelist C188700", "type": "Root Value Domain"}, "self": {"href": "/mdr/ct/packages/ddfct-2023-03-31/codelists/C188700", "title": "CDISC DDF Study Protocol Version Attribute Terminology", "type": "Code List"}}, "conceptId": "C188700", "definition": "A terminology value set relevant to the attributes of the study protocol version.", "name": "DDF Study Protocol Version Attribute Terminology", "preferredTerm": "CDISC DDF Study Protocol Version Attribute Terminology", "submissionValue": "DDF Study Protocol Version Attribute Terminology", "synonyms": ["DDF Study Protocol Version Attribute Terminology"], "terms": [{"conceptId": "C132345", "definition": "The short descriptive name for the protocol.", "preferredTerm": "Brief Protocol Title", "submissionValue": "Brief Protocol Title", "synonyms": ["Abbreviated Protocol Title"]}, {"conceptId": "C132346", "definition": "The formal descriptive name for the protocol.", "preferredTerm": "Official Protocol Title", "submissionValue": "Official Protocol Title"}, {"conceptId": "C188818", "definition": "A condition of the protocol at a point in time with respect to its state of readiness for implementation.", "preferredTerm": "Study Protocol Status", "submissionValue": "Protocol Status"}, {"conceptId": "C94105", "definition": "The descriptive name of the protocol that is intended for the lay public, written in easily understood language.", "preferredTerm": "Study Protocol Document Version Public Title", "submissionValue": "Public Protocol Title"}, {"conceptId": "C132350", "definition": "A more extensive descriptive name of the protocol that is intended for medical professionals, written using medical and scientific language.", "preferredTerm": "Scientific Protocol Title", "submissionValue": "Scientific Protocol Title"}, {"conceptId": "C188817", "definition": "The date and time specifying when the protocol amendment takes effect or becomes operative.", "preferredTerm": "Study Protocol Amendment Effective Date", "submissionValue": "Study Protocol Amendment Effective Date"}, {"conceptId": "C132347", "definition": "A written description of a change(s) to, or formal clarification of, a protocol. (ICH E6)", "preferredTerm": "Protocol Amendment", "submissionValue": "Study Protocol Amendment"}, {"conceptId": "C93490", "definition": "A plan at a particular point in time for a formal investigation to assess the utility, impact, pharmacological, physiological, and/or psychological effects of a particular treatment, procedure, drug, device, biologic, food product, cosmetic, care plan, or subject characteristic. (BRIDG)", "preferredTerm": "Study Protocol Version", "submissionValue": "Study Protocol Version"}]}