{"_links": {"parentPackage": {"href": "/mdr/ct/packages/ddfct-2023-03-31", "title": "DDF Controlled Terminology Package 53 Effective 2023-03-31", "type": "Terminology"}, "priorVersion": {"href": "/mdr/ct/packages/ddfct-2022-12-16/codelists/C188710", "title": "CDISC DDF Study Epoch Attribute Terminology", "type": "Code List"}, "rootItem": {"href": "/mdr/root/ct/ddfct/codelists/C188710", "title": "Version-agnostic anchor resource for codelist C188710", "type": "Root Value Domain"}, "self": {"href": "/mdr/ct/packages/ddfct-2023-03-31/codelists/C188710", "title": "CDISC DDF Study Epoch Attribute Terminology", "type": "Code List"}}, "conceptId": "C188710", "definition": "A terminology value set relevant to the attributes of the study epoch.", "name": "DDF Study Epoch Attribute Terminology", "preferredTerm": "CDISC DDF Study Epoch Attribute Terminology", "submissionValue": "DDF Study Epoch Attribute Terminology", "synonyms": ["DDF Study Epoch Attribute Terminology"], "terms": [{"conceptId": "C188832", "definition": "A system identifier assigned to the epoch that occurs immediately after the current epoch.", "preferredTerm": "Next Epoch Identifier", "submissionValue": "Next Epoch Identifier"}, {"conceptId": "C188831", "definition": "A system identifier assigned to the epoch that occurs immediately prior to the current epoch.", "preferredTerm": "Previous Epoch Identifier", "submissionValue": "Previous Epoch Identifier"}, {"conceptId": "C93824", "definition": "The textual representation of the study epoch.", "preferredTerm": "Epoch Description", "submissionValue": "Study Epoch Description"}, {"conceptId": "C93825", "definition": "The literal identifier (i.e., distinctive designation) of the study epoch, i.e., the named time period defined in the protocol, wherein a study activity is specified and unchanging throughout the interval, to support a study-specific purpose.", "preferredTerm": "Epoch Name", "submissionValue": "Study Epoch Name"}, {"conceptId": "C188830", "definition": "A characterization or classification of the study epoch, i.e., the named time period defined in the protocol, wherein a study activity is specified and unchanging throughout the interval, to support a study-specific purpose.", "preferredTerm": "Study Epoch Type", "submissionValue": "Study Epoch Type"}]}