{"_links": {"parentPackage": {"href": "/mdr/ct/packages/ddfct-2023-03-31", "title": "DDF Controlled Terminology Package 53 Effective 2023-03-31", "type": "Terminology"}, "priorVersion": {"href": "/mdr/ct/packages/ddfct-2022-12-16/codelists/C188714", "title": "CDISC DDF Activity Attribute Terminology", "type": "Code List"}, "rootItem": {"href": "/mdr/root/ct/ddfct/codelists/C188714", "title": "Version-agnostic anchor resource for codelist C188714", "type": "Root Value Domain"}, "self": {"href": "/mdr/ct/packages/ddfct-2023-03-31/codelists/C188714", "title": "CDISC DDF Activity Attribute Terminology", "type": "Code List"}}, "conceptId": "C188714", "definition": "A terminology value set relevant to the attributes of the activity.", "name": "DDF Activity Attribute Terminology", "preferredTerm": "CDISC DDF Activity Attribute Terminology", "submissionValue": "DDF Activity Attribute Terminology", "synonyms": ["DDF Activity Attribute Terminology"], "terms": [{"conceptId": "C70960", "definition": "The textual representation of the study activity.", "preferredTerm": "Clinical Study Activity Description", "submissionValue": "Clinical Study Activity Description"}, {"conceptId": "C188842", "definition": "The literal identifier (i.e., distinctive designation) of the clinical study activity.", "preferredTerm": "Clinical Study Activity Name", "submissionValue": "Clinical Study Activity Name"}, {"conceptId": "C188844", "definition": "A system identifier assigned to a study activity that occurs immediately after the current study activity.", "preferredTerm": "Next Activity Identifier", "submissionValue": "Next Activity Identifier"}, {"conceptId": "C188843", "definition": "A system identifier assigned to a study activity that occurs immediately prior to the current study activity.", "preferredTerm": "Previous Activity Identifier", "submissionValue": "Previous Activity Identifier"}]}