{"_links": {"parentPackage": {"href": "/mdr/ct/packages/ddfct-2023-03-31", "title": "DDF Controlled Terminology Package 53 Effective 2023-03-31", "type": "Terminology"}, "priorVersion": {"href": "/mdr/ct/packages/ddfct-2022-12-16/codelists/C188717", "title": "CDISC DDF Workflow Attribute Terminology", "type": "Code List"}, "rootItem": {"href": "/mdr/root/ct/ddfct/codelists/C188717", "title": "Version-agnostic anchor resource for codelist C188717", "type": "Root Value Domain"}, "self": {"href": "/mdr/ct/packages/ddfct-2023-03-31/codelists/C188717", "title": "CDISC DDF Workflow Attribute Terminology", "type": "Code List"}}, "conceptId": "C188717", "definition": "A terminology value set relevant to the attributes of the workflow.", "name": "DDF Workflow Attribute Terminology", "preferredTerm": "CDISC DDF Workflow Attribute Terminology", "submissionValue": "DDF Workflow Attribute Terminology", "synonyms": ["DDF Workflow Attribute Terminology"], "terms": [{"conceptId": "C188849", "definition": "The textual representation of the workflow.", "preferredTerm": "Workflow Description", "submissionValue": "Workflow Description"}]}