{"_links": {"parentPackage": {"href": "/mdr/ct/packages/ddfct-2023-03-31", "title": "DDF Controlled Terminology Package 53 Effective 2023-03-31", "type": "Terminology"}, "priorVersion": {"href": "/mdr/ct/packages/ddfct-2022-12-16/codelists/C188720", "title": "CDISC DDF Analysis Population Attribute Terminology", "type": "Code List"}, "rootItem": {"href": "/mdr/root/ct/ddfct/codelists/C188720", "title": "Version-agnostic anchor resource for codelist C188720", "type": "Root Value Domain"}, "self": {"href": "/mdr/ct/packages/ddfct-2023-03-31/codelists/C188720", "title": "CDISC DDF Analysis Population Attribute Terminology", "type": "Code List"}}, "conceptId": "C188720", "definition": "A terminology value set relevant to the attributes of the analysis population.", "name": "DDF Analysis Population Attribute Terminology", "preferredTerm": "CDISC DDF Analysis Population Attribute Terminology", "submissionValue": "DDF Analysis Population Attribute Terminology", "synonyms": ["DDF Analysis Population Attribute Terminology"], "terms": [{"conceptId": "C188854", "definition": "The textual representation of the study population for analysis.", "preferredTerm": "Target Study Population for Analysis Description", "submissionValue": "Target Study Population for Analysis Description"}]}