{"_links": {"parentPackage": {"href": "/mdr/ct/packages/sdtmct-2018-12-21", "title": "SDTM Controlled Terminology Package 36 Effective 2018-12-21", "type": "Terminology"}, "priorVersion": {"href": "/mdr/ct/packages/sdtmct-2018-09-28/codelists/C101821", "title": "CDISC Clinical Classification HAMD 21 Test Code Terminology", "type": "Code List"}, "rootItem": {"href": "/mdr/root/ct/sdtmct/codelists/C101821", "title": "Version-agnostic anchor resource for codelist C101821", "type": "Root Value Domain"}, "self": {"href": "/mdr/ct/packages/sdtmct-2018-12-21/codelists/C101821", "title": "CDISC Clinical Classification HAMD 21 Test Code Terminology", "type": "Code List"}}, "conceptId": "C101821", "definition": "Hamilton Depression Rating Scale 21-Item test code.", "extensible": "false", "name": "Hamilton Depression Rating Scale 21-Item Clinical Classification Test Code", "preferredTerm": "CDISC Clinical Classification HAMD 21 Test Code Terminology", "submissionValue": "HAMD2TC", "synonyms": ["Hamilton Depression Rating Scale 21-Item Clinical Classification Test Code"], "terms": [{"conceptId": "C102087", "definition": "Hamilton Depression Rating Scale 21 Item - Depressed mood: sadness, hopeless, helpless, worthless.", "preferredTerm": "HAMD-21 - Depressed Mood", "submissionValue": "HAMD201", "synonyms": ["HAMD2-Depressed Mood"]}, {"conceptId": "C102088", "definition": "Hamilton Depression Rating Scale 21 Item - Feelings of guilt.", "preferredTerm": "HAMD-21 - Feelings of Guilt", "submissionValue": "HAMD202", "synonyms": ["HAMD2-Feelings of Guilt"]}, {"conceptId": "C102089", "definition": "Hamilton Depression Rating Scale 21 Item - Suicide.", "preferredTerm": "HAMD-21 - Suicide", "submissionValue": "HAMD203", "synonyms": ["HAMD2-Suicide"]}, {"conceptId": "C102090", "definition": "Hamilton Depression Rating Scale 21 Item - Insomnia early.", "preferredTerm": "HAMD-21 - Insomnia Early", "submissionValue": "HAMD204", "synonyms": ["HAMD2-Insomnia Early"]}, {"conceptId": "C102091", "definition": "Hamilton Depression Rating Scale 21 Item - Insomnia middle.", "preferredTerm": "HAMD-21 - Insomnia Middle", "submissionValue": "HAMD205", "synonyms": ["HAMD2-Insomnia Middle"]}, {"conceptId": "C102092", "definition": "Hamilton Depression Rating Scale 21 Item - Insomnia late.", "preferredTerm": "HAMD-21 - Insomnia Late", "submissionValue": "HAMD206", "synonyms": ["HAMD2-Insomnia Late"]}, {"conceptId": "C102093", "definition": "Hamilton Depression Rating Scale 21 Item - Work and activities.", "preferredTerm": "HAMD-21 - Work and Activities", "submissionValue": "HAMD207", "synonyms": ["HAMD2-Work and Activities"]}, {"conceptId": "C102094", "definition": "Hamilton Depression Rating Scale 21 Item - Retardation: psychomotor (slowness of thought and speech; impaired ability to concentrate; decreased motor activity).", "preferredTerm": "HAMD-21 - Retardation", "submissionValue": "HAMD208", "synonyms": ["HAMD2-Retardation"]}, {"conceptId": "C102095", "definition": "Hamilton Depression Rating Scale 21 Item - Agitation.", "preferredTerm": "HAMD-21 - Agitation", "submissionValue": "HAMD209", "synonyms": ["HAMD2-Agitation"]}, {"conceptId": "C102096", "definition": "Hamilton Depression Rating Scale 21 Item - Anxiety Psychological.", "preferredTerm": "HAMD-21 - Anxiety Psychological", "submissionValue": "HAMD210", "synonyms": ["HAMD2-Anxiety Psychological"]}, {"conceptId": "C102097", "definition": "Hamilton Depression Rating Scale 21 Item - Anxiety somatic: physiological concomitants of anxiety, (i.e., effects of autonomic overactivity, 'butterflies,' indigestion, stomach cramps, belching, diarrhea, palpitations, hyperventilation, paresthesia, sweating, flushing, tremor, headache, urinary frequency).", "preferredTerm": "HAMD-21 - Anxiety Somatic", "submissionValue": "HAMD211", "synonyms": ["HAMD2-Anxiety Somatic"]}, {"conceptId": "C102098", "definition": "Hamilton Depression Rating Scale 21 Item - Somatic symptoms gastro-intestinal.", "preferredTerm": "HAMD-21 - Somatic Symptoms Gastro-intestinal", "submissionValue": "HAMD212", "synonyms": ["HAMD2-Somatic Symptoms Gastro-intestinal"]}, {"conceptId": "C102099", "definition": "Hamilton Depression Rating Scale 21 Item - Somatic symptoms general.", "preferredTerm": "HAMD-21 - Somatic Symptoms General", "submissionValue": "HAMD213", "synonyms": ["HAMD2-Somatic Symptoms General"]}, {"conceptId": "C102100", "definition": "Hamilton Depression Rating Scale 21 Item - Genital symptoms: symptoms such as: loss of libido; impaired sexual performance; menstrual disturbances.", "preferredTerm": "HAMD-21 - Genital Symptoms", "submissionValue": "HAMD214", "synonyms": ["HAMD2-Genital Symptoms"]}, {"conceptId": "C102101", "definition": "Hamilton Depression Rating Scale 21 Item - Hypochondriasis.", "preferredTerm": "HAMD-21 - Hypochondriasis", "submissionValue": "HAMD215", "synonyms": ["HAMD2-Hypochondriasis"]}, {"conceptId": "C102102", "definition": "Hamilton Depression Rating Scale 21 Item - Loss of weight when rating by history.", "preferredTerm": "HAMD-21 - Loss of Weight by History", "submissionValue": "HAMD216A", "synonyms": ["HAMD2-Loss of Weight by History"]}, {"conceptId": "C102103", "definition": "Hamilton Depression Rating Scale 21 Item - Loss of weight on weekly ratings by war psychiatrist, when actual weight changes are measured.", "preferredTerm": "HAMD-21 - Loss of Weight Measured", "submissionValue": "HAMD216B", "synonyms": ["HAMD2-Loss of Weight Measured"]}, {"conceptId": "C102104", "definition": "Hamilton Depression Rating Scale 21 Item - Insight.", "preferredTerm": "HAMD-21 - Insight", "submissionValue": "HAMD217", "synonyms": ["HAMD2-Insight"]}, {"conceptId": "C102105", "definition": "Hamilton Depression Rating Scale 21 Item - Diurnal variation.", "preferredTerm": "HAMD-21 - Diurnal Variation", "submissionValue": "HAMD218A", "synonyms": ["HAMD2-Diurnal Variation"]}, {"conceptId": "C102106", "definition": "Hamilton Depression Rating Scale 21 Item - Diurnal variation severity.", "preferredTerm": "HAMD-21 - Diurnal Variation Severity", "submissionValue": "HAMD218B", "synonyms": ["HAMD2-Diurnal Variation Severity"]}, {"conceptId": "C102107", "definition": "Hamilton Depression Rating Scale 21 Item - Depersonalization and derealization: such as feelings of unreality; nihilistic ideas.", "preferredTerm": "HAMD-21 - Depersonalization and Derealization", "submissionValue": "HAMD219", "synonyms": ["HAMD2-Depersonalization/Derealization"]}, {"conceptId": "C102108", "definition": "Hamilton Depression Rating Scale 21 Item - Paranoid symptoms.", "preferredTerm": "HAMD-21 - Paranoid Symptoms", "submissionValue": "HAMD220", "synonyms": ["HAMD2-Paranoid Symptoms"]}, {"conceptId": "C102109", "definition": "Hamilton Depression Rating Scale 21 Item - Obsessional and compulsive symptoms.", "preferredTerm": "HAMD-21 - Obsessional and Compulsive Symptoms", "submissionValue": "HAMD221", "synonyms": ["HAMD2-Obsessional/Compulsive Symptoms"]}, {"conceptId": "C102110", "definition": "Hamilton Depression Rating Scale 21 Item - Total score.", "preferredTerm": "HAMD-21 - Total Score", "submissionValue": "HAMD222", "synonyms": ["HAMD2-Total Score"]}]}