{"_links": {"parentPackage": {"href": "/mdr/ct/packages/sdtmct-2018-12-21", "title": "SDTM Controlled Terminology Package 36 Effective 2018-12-21", "type": "Terminology"}, "priorVersion": {"href": "/mdr/ct/packages/sdtmct-2018-09-28/codelists/C101815", "title": "CDISC Questionnaire ECOG Test Code Terminology", "type": "Code List"}, "rootItem": {"href": "/mdr/root/ct/sdtmct/codelists/C101815", "title": "Version-agnostic anchor resource for codelist C101815", "type": "Root Value Domain"}, "self": {"href": "/mdr/ct/packages/sdtmct-2018-12-21/codelists/C101815", "title": "CDISC Questionnaire ECOG Test Code Terminology", "type": "Code List"}}, "conceptId": "C101815", "definition": "Eastern Cooperative Oncology Group Performance Status test code.", "extensible": "false", "name": "Eastern Cooperative Oncology Group Performance Status Questionnaire Test Code", "preferredTerm": "CDISC Questionnaire ECOG Test Code Terminology", "submissionValue": "ECOG1TC", "synonyms": ["Eastern Cooperative Oncology Group Performance Status Questionnaire Test Code"], "terms": [{"conceptId": "C102408", "definition": "ECOG Performance Status - Performance Status.", "preferredTerm": "ECOG - Performance Status", "submissionValue": "ECOG101", "synonyms": ["ECOG1-Performance Status"]}]}