{"_links": {"parentPackage": {"href": "/mdr/ct/packages/sdtmct-2018-12-21", "title": "SDTM Controlled Terminology Package 36 Effective 2018-12-21", "type": "Terminology"}, "priorVersion": {"href": "/mdr/ct/packages/sdtmct-2018-09-28/codelists/C101813", "title": "CDISC Questionnaire COWS Test Code Terminology", "type": "Code List"}, "rootItem": {"href": "/mdr/root/ct/sdtmct/codelists/C101813", "title": "Version-agnostic anchor resource for codelist C101813", "type": "Root Value Domain"}, "self": {"href": "/mdr/ct/packages/sdtmct-2018-12-21/codelists/C101813", "title": "CDISC Questionnaire COWS Test Code Terminology", "type": "Code List"}}, "conceptId": "C101813", "definition": "Clinical Opiate Withdrawal Scale test code.", "extensible": "false", "name": "Clinical Opiate Withdrawal Scale Questionnaire Test Code", "preferredTerm": "CDISC Questionnaire COWS Test Code Terminology", "submissionValue": "COWS1TC", "synonyms": ["Clinical Opiate Withdrawal Scale Questionnaire Test Code"], "terms": [{"conceptId": "C102056", "definition": "Clinical Opiate Withdrawal Scale - Resting pulse rate.", "preferredTerm": "COWS - Resting Pulse Rate", "submissionValue": "COWS101", "synonyms": ["COWS1-Resting Pulse Rate"]}, {"conceptId": "C112467", "definition": "Clinical Opiate Withdrawal Scale - Resting pulse rate: beats/minute.", "preferredTerm": "COWS - Resting Pulse Rate: Beats/Minute", "submissionValue": "COWS101A", "synonyms": ["COWS1-Resting Pulse Rate Beats/Minute"]}, {"conceptId": "C102057", "definition": "Clinical Opiate Withdrawal Scale - Sweating.", "preferredTerm": "COWS - Sweating", "submissionValue": "COWS102", "synonyms": ["COWS1-Sweating"]}, {"conceptId": "C102058", "definition": "Clinical Opiate Withdrawal Scale - Restlessness.", "preferredTerm": "COWS - Restlessness", "submissionValue": "COWS103", "synonyms": ["COWS1-Restlessness"]}, {"conceptId": "C102059", "definition": "Clinical Opiate Withdrawal Scale - Pupil size.", "preferredTerm": "COWS - Pupil Size", "submissionValue": "COWS104", "synonyms": ["COWS1-Pupil Size"]}, {"conceptId": "C102060", "definition": "Clinical Opiate Withdrawal Scale - Bone or joint aches.", "preferredTerm": "COWS - Bone or Joint Aches", "submissionValue": "COWS105", "synonyms": ["COWS1-Bone or Joint Aches"]}, {"conceptId": "C102061", "definition": "Clinical Opiate Withdrawal Scale - Runny nose or tearing.", "preferredTerm": "COWS - Runny Nose or Tearing", "submissionValue": "COWS106", "synonyms": ["COWS1-Runny Nose or Tearing"]}, {"conceptId": "C102062", "definition": "Clinical Opiate Withdrawal Scale - GI upset.", "preferredTerm": "COWS - GI Upset", "submissionValue": "COWS107", "synonyms": ["COWS1-GI Upset"]}, {"conceptId": "C102063", "definition": "Clinical Opiate Withdrawal Scale - Tremor.", "preferredTerm": "COWS - Tremor", "submissionValue": "COWS108", "synonyms": ["COWS1-Tremor"]}, {"conceptId": "C102064", "definition": "Clinical Opiate Withdrawal Scale - Yawning.", "preferredTerm": "COWS - Yawning", "submissionValue": "COWS109", "synonyms": ["COWS1-Yawning"]}, {"conceptId": "C102065", "definition": "Clinical Opiate Withdrawal Scale - Anxiety or irritability.", "preferredTerm": "COWS - Anxiety or Irritability", "submissionValue": "COWS110", "synonyms": ["COWS1-Anxiety or Irritability"]}, {"conceptId": "C102066", "definition": "Clinical Opiate Withdrawal Scale - Gooseflesh skin.", "preferredTerm": "COWS - Gooseflesh Skin", "submissionValue": "COWS111", "synonyms": ["COWS1-Gooseflesh Skin"]}, {"conceptId": "C112468", "definition": "Clinical Opiate Withdrawal Scale - Total score.", "preferredTerm": "COWS - Total Score", "submissionValue": "COWS112", "synonyms": ["COWS1-Total Score"]}]}