{"_links": {"parentPackage": {"href": "/mdr/ct/packages/sdtmct-2018-12-21", "title": "SDTM Controlled Terminology Package 36 Effective 2018-12-21", "type": "Terminology"}, "priorVersion": {"href": "/mdr/ct/packages/sdtmct-2018-09-28/codelists/C105134", "title": "CDISC Questionnaire PI v1 Test Code Terminology", "type": "Code List"}, "rootItem": {"href": "/mdr/root/ct/sdtmct/codelists/C105134", "title": "Version-agnostic anchor resource for codelist C105134", "type": "Root Value Domain"}, "self": {"href": "/mdr/ct/packages/sdtmct-2018-12-21/codelists/C105134", "title": "CDISC Questionnaire PI v1 Test Code Terminology", "type": "Code List"}}, "conceptId": "C105134", "definition": "Pain Intensity test code.", "extensible": "false", "name": "Pain Intensity Questionnaire Test Code", "preferredTerm": "CDISC Questionnaire PI v1 Test Code Terminology", "submissionValue": "PI01TC", "synonyms": ["Pain Intensity Questionnaire Test Code"], "terms": [{"conceptId": "C105261", "definition": "Pain Intensity - Pain intensity for various time periods of evaluation.", "preferredTerm": "PI - Pain Intensity For Various Time Periods of Evaluation", "submissionValue": "PI0101", "synonyms": ["PI01-Pain Intensity"]}, {"conceptId": "C105262", "definition": "Pain Intensity - Average pain intensity for various time periods of evaluation.", "preferredTerm": "PI - Average Pain Intensity For Various Time Periods of Evaluation", "submissionValue": "PI0102", "synonyms": ["PI01-Average Pain Intensity"]}, {"conceptId": "C105263", "definition": "Pain Intensity - Minimum pain intensity for various time periods of evaluation.", "preferredTerm": "PI - Minimum Pain Intensity For Various Time Periods of Evaluation", "submissionValue": "PI0103", "synonyms": ["PI01-Minimum Pain Intensity"]}, {"conceptId": "C105264", "definition": "Pain Intensity - Maximum pain intensity for various time periods of evaluation.", "preferredTerm": "PI - Maximum Pain Intensity For Various Time Periods of Evaluation", "submissionValue": "PI0104", "synonyms": ["PI01-Maximum Pain Intensity"]}, {"conceptId": "C105265", "definition": "Pain Intensity - Least pain intensity for various time periods of evaluation.", "preferredTerm": "PI - Least Pain Intensity For Various Time Periods of Evaluation", "submissionValue": "PI0105", "synonyms": ["PI01-Least Pain Intensity"]}, {"conceptId": "C105266", "definition": "Pain Intensity - Worst pain intensity for various time periods of evaluation.", "preferredTerm": "PI - Worst Pain Intensity For Various Time Periods of Evaluation", "submissionValue": "PI0106", "synonyms": ["PI01-Worst Pain Intensity"]}]}