{"_links": {"parentPackage": {"href": "/mdr/ct/packages/sdtmct-2018-12-21", "title": "SDTM Controlled Terminology Package 36 Effective 2018-12-21", "type": "Terminology"}, "priorVersion": {"href": "/mdr/ct/packages/sdtmct-2018-09-28/codelists/C111345", "title": "CDISC Questionnaire FAQ-NACC Version Test Name Terminology", "type": "Code List"}, "rootItem": {"href": "/mdr/root/ct/sdtmct/codelists/C111345", "title": "Version-agnostic anchor resource for codelist C111345", "type": "Root Value Domain"}, "self": {"href": "/mdr/ct/packages/sdtmct-2018-12-21/codelists/C111345", "title": "CDISC Questionnaire FAQ-NACC Version Test Name Terminology", "type": "Code List"}}, "conceptId": "C111345", "definition": "Functional Activities Questionnaire-NACC Version test name.", "extensible": "false", "name": "Functional Activities Questionnaire-NACC Version Questionnaire Test Name", "preferredTerm": "CDISC Questionnaire FAQ-NACC Version Test Name Terminology", "submissionValue": "FAQ02TN", "synonyms": ["Functional Activities Questionnaire-NACC Version Questionnaire Test Name"], "terms": [{"conceptId": "C111511", "definition": "Functional Activities Questionnaire-NACC - Assembling tax records, business affairs, or other papers.", "preferredTerm": "FAQ-NACC Version - Assemble", "submissionValue": "FAQ02-Assembling", "synonyms": ["FAQ02-Assembling"]}, {"conceptId": "C111514", "definition": "Functional Activities Questionnaire-NACC - Heating water, making a cup of coffee, turning off the stove.", "preferredTerm": "FAQ-NACC Version - Heat water, Make Coffee, Turn Off Stove", "submissionValue": "FAQ02-Heat Water/Make Coffee/Stove Off", "synonyms": ["FAQ02-Heat Water/Make Coffee/Stove Off"]}, {"conceptId": "C111516", "definition": "Functional Activities Questionnaire-NACC - Keeping track of current events.", "preferredTerm": "FAQ-NACC Version - Keep Track of Current Events", "submissionValue": "FAQ02-Keeping Track of Current Events", "synonyms": ["FAQ02-Keeping Track of Current Events"]}, {"conceptId": "C111517", "definition": "Functional Activities Questionnaire-NACC - Paying attention to and understanding a TV program, book, or magazine.", "preferredTerm": "FAQ-NACC Version - Pay Attention, Understand, Discuss", "submissionValue": "FAQ02-Paying Attention", "synonyms": ["FAQ02-Paying Attention"]}, {"conceptId": "C111513", "definition": "Functional Activities Questionnaire-NACC - Playing a game of skill such as bridge or chess, working on a hobby.", "preferredTerm": "FAQ-NACC Version - Play Game of Skill, Work on Hobby", "submissionValue": "FAQ02-Playing a Game of Skill", "synonyms": ["FAQ02-Playing a Game of Skill"]}, {"conceptId": "C111515", "definition": "Functional Activities Questionnaire-NACC - Preparing a balanced meal.", "preferredTerm": "FAQ-NACC Version - Prepare a Meal", "submissionValue": "FAQ02-Preparing a Balanced Meal", "synonyms": ["FAQ02-Preparing a Balanced Meal"]}, {"conceptId": "C111518", "definition": "Functional Activities Questionnaire-NACC - Remembering appointments, family occasions, holidays, medications.", "preferredTerm": "FAQ-NACC Version - Remember", "submissionValue": "FAQ02-Remembering", "synonyms": ["FAQ02-Remembering"]}, {"conceptId": "C111512", "definition": "Functional Activities Questionnaire-NACC - Shopping alone for clothes, household necessities, or groceries.", "preferredTerm": "FAQ-NACC Version - Shop Alone", "submissionValue": "FAQ02-Shopping Alone", "synonyms": ["FAQ02-Shopping Alone"]}, {"conceptId": "C111519", "definition": "Functional Activities Questionnaire-NACC - Traveling out of the neighborhood, driving, or arranging to take public transportation.", "preferredTerm": "FAQ-NACC Version - Travel", "submissionValue": "FAQ02-Traveling", "synonyms": ["FAQ02-Traveling"]}, {"conceptId": "C111510", "definition": "Functional Activities Questionnaire-NACC - Writing checks, paying bills, or balancing a checkbook.", "preferredTerm": "FAQ-NACC Version - Write checks, Pay bills, Balance checkbook", "submissionValue": "FAQ02-Write Checks/Pay Bills/Checkbook", "synonyms": ["FAQ02-Write Checks/Pay Bills/Checkbook"]}]}