{"_links": {"parentPackage": {"href": "/mdr/ct/packages/sdtmct-2018-12-21", "title": "SDTM Controlled Terminology Package 36 Effective 2018-12-21", "type": "Terminology"}, "priorVersion": {"href": "/mdr/ct/packages/sdtmct-2018-09-28/codelists/C115403", "title": "CDISC Questionnaire GOSE Test Name Terminology", "type": "Code List"}, "rootItem": {"href": "/mdr/root/ct/sdtmct/codelists/C115403", "title": "Version-agnostic anchor resource for codelist C115403", "type": "Root Value Domain"}, "self": {"href": "/mdr/ct/packages/sdtmct-2018-12-21/codelists/C115403", "title": "CDISC Questionnaire GOSE Test Name Terminology", "type": "Code List"}}, "conceptId": "C115403", "definition": "Extended Glasgow Outcome Scale test name.", "extensible": "false", "name": "Extended Glasgow Outcome Scale Questionnaire Test Name", "preferredTerm": "CDISC Questionnaire GOSE Test Name Terminology", "submissionValue": "GOSE1TN", "synonyms": ["Extended Glasgow Outcome Scale Questionnaire Test Name"], "terms": [{"conceptId": "C115836", "definition": "Extended Glasgow Outcome Scale - Are they currently able to work to their previous capacity?", "preferredTerm": "GOSE - Work: Able to Work to Previous Capacity", "submissionValue": "GOSE1-Able to Work to Previous Capacity", "synonyms": ["GOSE1-Able to Work to Previous Capacity"]}, {"conceptId": "C115831", "definition": "Extended Glasgow Outcome Scale - Was assistance at home essential before the injury?", "preferredTerm": "GOSE - Independence in the Home: Assistance at Home Before Injury", "submissionValue": "GOSE1-Assistance at Home Before Injury", "synonyms": ["GOSE1-Assistance at Home Before Injury"]}, {"conceptId": "C115848", "definition": "Extended Glasgow Outcome Scale - Have they been told that they are currently at risk of developing epilepsy?", "preferredTerm": "GOSE - Epilepsy: At Risk of Developing Epilepsy", "submissionValue": "GOSE1-At Risk of Developing Epilepsy", "synonyms": ["GOSE1-At Risk of Developing Epilepsy"]}, {"conceptId": "C115829", "definition": "Extended Glasgow Outcome Scale - Is the assistance of another person at home essential every day for some activities of daily living?", "preferredTerm": "GOSE - Independence in the Home: Assistance Essential for Daily Living", "submissionValue": "GOSE1-Daily Assistance at Home Essential", "synonyms": ["GOSE1-Daily Assistance at Home Essential"]}, {"conceptId": "C115842", "definition": "Extended Glasgow Outcome Scale - Have there been psychological problems which have resulted in ongoing family disruption or disruption to friendships?", "preferredTerm": "GOSE - Family and Friendships: Disruptive Psychological Problems", "submissionValue": "GOSE1-Disruptive Psychological Problems", "synonyms": ["GOSE1-Disruptive Psychological Problems"]}, {"conceptId": "C115841", "definition": "Extended Glasgow Outcome Scale - Did they engage in regular social and leisure activities outside home before the injury?", "preferredTerm": "GOSE - Social and Leisure Activities: Engage Regular Social and Leisure Activities Before Injury", "submissionValue": "GOSE1-Engage Social/Leisure Before Inj", "synonyms": ["GOSE1-Engage Social/Leisure Before Inj"]}, {"conceptId": "C115840", "definition": "Extended Glasgow Outcome Scale - What is the extent of restriction on their social and leisure activities?", "preferredTerm": "GOSE - Social and Leisure Activities: Extent of Restriction on Social and Leisure Activities", "submissionValue": "GOSE1-Extent Social/Leisure Restriction", "synonyms": ["GOSE1-Extent Social/Leisure Restriction"]}, {"conceptId": "C115843", "definition": "Extended Glasgow Outcome Scale - What has been the extent of disruption or strain?", "preferredTerm": "GOSE - Family and Friendships: Extent of Disruption or Strain", "submissionValue": "GOSE1-Extent of Disruption", "synonyms": ["GOSE1-Extent of Disruption"]}, {"conceptId": "C115844", "definition": "Extended Glasgow Outcome Scale - Were there problems with family or friends before the injury?", "preferredTerm": "GOSE - Family and Friendships: Problems with Family or Friends Before Injury", "submissionValue": "GOSE1-Family/Friends Probs Before Injury", "synonyms": ["GOSE1-Family/Friends Probs Before Injury"]}, {"conceptId": "C115850", "definition": "Extended Glasgow Outcome Scale - Scoring: The patient's overall rating is based on the lowest outcome category indicated on the scale.", "preferredTerm": "GOSE - GOSE Overall Score", "submissionValue": "GOSE1-GOSE Overall Score", "synonyms": ["GOSE1-GOSE Overall Score"]}, {"conceptId": "C115837", "definition": "Extended Glasgow Outcome Scale - How restricted are they?", "preferredTerm": "GOSE - Work: How Restricted Are They", "submissionValue": "GOSE1-How Restricted Are They", "synonyms": ["GOSE1-How Restricted Are They"]}, {"conceptId": "C115849", "definition": "Extended Glasgow Outcome Scale - What is the most important factor in outcome?", "preferredTerm": "GOSE - Epilepsy: Most Important Factor in Outcome", "submissionValue": "GOSE1-Most Important Factor in Outcome", "synonyms": ["GOSE1-Most Important Factor in Outcome"]}, {"conceptId": "C115830", "definition": "Extended Glasgow Outcome Scale - Do they need frequent help or someone to be around at home most of the time?", "preferredTerm": "GOSE - Independence in the Home: Need Frequent Help at Home", "submissionValue": "GOSE1-Need Frequent Help at Home", "synonyms": ["GOSE1-Need Frequent Help at Home"]}, {"conceptId": "C115828", "definition": "Extended Glasgow Outcome Scale - Is the head injured person able to obey simple commands, or say any words?", "preferredTerm": "GOSE - Consciousness: Obey Simple Commands", "submissionValue": "GOSE1-Obey Simple Commands or Say Words", "synonyms": ["GOSE1-Obey Simple Commands or Say Words"]}, {"conceptId": "C115845", "definition": "Extended Glasgow Outcome Scale - Are there any other current problems relating to the injury which affect daily life?", "preferredTerm": "GOSE - Return to Normal Life: Other Current Problems Relating to Injury", "submissionValue": "GOSE1-Other Problems Related to Injury", "synonyms": ["GOSE1-Other Problems Related to Injury"]}, {"conceptId": "C115839", "definition": "Extended Glasgow Outcome Scale - Are they able to resume regular social and leisure activities outside home?", "preferredTerm": "GOSE - Social and Leisure Activities: Resume Regular Social and Leisure Activities", "submissionValue": "GOSE1-Resume Social/Leisure Outside Home", "synonyms": ["GOSE1-Resume Social/Leisure Outside Home"]}, {"conceptId": "C115833", "definition": "Extended Glasgow Outcome Scale - Were they able to shop without assistance before the injury?", "preferredTerm": "GOSE - Independence Outside the Home: Able to Shop Without Assistance Before Injury", "submissionValue": "GOSE1-Shop Without Assist Before Injury", "synonyms": ["GOSE1-Shop Without Assist Before Injury"]}, {"conceptId": "C115832", "definition": "Extended Glasgow Outcome Scale - Are they able to shop without assistance?", "preferredTerm": "GOSE - Independence Outside the Home: Able to Shop Without Assistance", "submissionValue": "GOSE1-Shop Without Assistance", "synonyms": ["GOSE1-Shop Without Assistance"]}, {"conceptId": "C115846", "definition": "Extended Glasgow Outcome Scale - Were similar problems present before the injury?", "preferredTerm": "GOSE - Return to Normal Life: Similar Problems Before Injury", "submissionValue": "GOSE1-Similar Problems Before Injury", "synonyms": ["GOSE1-Similar Problems Before Injury"]}, {"conceptId": "C115847", "definition": "Extended Glasgow Outcome Scale - Since the injury has the head injured person had any epileptic fits?", "preferredTerm": "GOSE - Epilepsy: Since Injury Any Epileptic Fits", "submissionValue": "GOSE1-Since Injury Any Epileptic Fits", "synonyms": ["GOSE1-Since Injury Any Epileptic Fits"]}, {"conceptId": "C115834", "definition": "Extended Glasgow Outcome Scale - Are they able to travel locally without assistance?", "preferredTerm": "GOSE - Independence Outside the Home: Travel Locally Without Assistance", "submissionValue": "GOSE1-Travel Locally Without Assistance", "synonyms": ["GOSE1-Travel Locally Without Assistance"]}, {"conceptId": "C115835", "definition": "Extended Glasgow Outcome Scale - Were they able to travel without assistance before the injury?", "preferredTerm": "GOSE - Independence Outside the Home: Travel Locally Without Assistance Before Injury", "submissionValue": "GOSE1-Travel Without Assist Before Inj", "synonyms": ["GOSE1-Travel Without Assist Before Inj"]}, {"conceptId": "C115838", "definition": "Extended Glasgow Outcome Scale - Were they either working or seeking employment before the injury (answer 'yes') or were they doing neither (answer 'no')?", "preferredTerm": "GOSE - Work: Working or Seeking Employment Before the Injury", "submissionValue": "GOSE1-Working Before Injury", "synonyms": ["GOSE1-Working Before Injury"]}]}