{"_links": {"parentPackage": {"href": "/mdr/ct/packages/sdtmct-2018-12-21", "title": "SDTM Controlled Terminology Package 36 Effective 2018-12-21", "type": "Terminology"}, "priorVersion": {"href": "/mdr/ct/packages/sdtmct-2018-09-28/codelists/C115396", "title": "CDISC Functional Test SDMT Test Code Terminology", "type": "Code List"}, "rootItem": {"href": "/mdr/root/ct/sdtmct/codelists/C115396", "title": "Version-agnostic anchor resource for codelist C115396", "type": "Root Value Domain"}, "self": {"href": "/mdr/ct/packages/sdtmct-2018-12-21/codelists/C115396", "title": "CDISC Functional Test SDMT Test Code Terminology", "type": "Code List"}}, "conceptId": "C115396", "definition": "Symbol Digit Modalities Test test code.", "extensible": "false", "name": "Symbol Digit Modalities Test Functional Test Test Code", "preferredTerm": "CDISC Functional Test SDMT Test Code Terminology", "submissionValue": "SDMT01TC", "synonyms": ["Symbol Digit Modalities Test Functional Test Test Code"], "terms": [{"conceptId": "C115816", "definition": "Symbol Digit Modalities Test - Total score.", "preferredTerm": "SDMT - Total Score", "submissionValue": "SDMT0101", "synonyms": ["SDMT01-Total Score"]}]}