{"_links": {"parentPackage": {"href": "/mdr/ct/packages/sdtmct-2018-12-21", "title": "SDTM Controlled Terminology Package 36 Effective 2018-12-21", "type": "Terminology"}, "priorVersion": {"href": "/mdr/ct/packages/sdtmct-2018-09-28/codelists/C120528", "title": "CDISC SDTM Microbiology Test Name Terminology", "type": "Code List"}, "rootItem": {"href": "/mdr/root/ct/sdtmct/codelists/C120528", "title": "Version-agnostic anchor resource for codelist C120528", "type": "Root Value Domain"}, "self": {"href": "/mdr/ct/packages/sdtmct-2018-12-21/codelists/C120528", "title": "CDISC SDTM Microbiology Test Name Terminology", "type": "Code List"}}, "conceptId": "C120528", "definition": "Terminology relevant to the microbiology test names of the CDISC Study Data Tabulation Model.", "extensible": "true", "name": "Microbiology Test Name", "preferredTerm": "CDISC SDTM Microbiology Test Name Terminology", "submissionValue": "MBTEST", "synonyms": ["Microbiology Test Name"], "terms": [{"conceptId": "C128981", "definition": "A measurement of any rod-shaped bacteria that resist decolorizing by acid after accepting an aqueous stain solution, due to the mycolic acids in their cell walls.", "preferredTerm": "Acid-Fast Bacilli Measurement", "submissionValue": "Acid-Fast Bacilli", "synonyms": ["Acid-Fast Bacilli"]}, {"conceptId": "C154830", "definition": "A measurement of the Adenovirus antigen in a biological specimen.", "preferredTerm": "Adenovirus Antigen Measurement", "submissionValue": "Adenovirus Antigen", "synonyms": ["Adenovirus Antigen"]}, {"conceptId": "C154820", "definition": "A measurement of the bacterial sialidase enzyme in a biological specimen.", "preferredTerm": "Bacterial Sialidase Measurement", "submissionValue": "Bacterial Sialidase", "synonyms": ["Bacterial Sialidase"]}, {"conceptId": "C154832", "definition": "A measurement of the Bordetella pertussis antigen in a biological specimen.", "preferredTerm": "Bordetella pertussis Antigen Measurement", "submissionValue": "Bordetella pertussis Antigen", "synonyms": ["Bordetella pertussis Antigen"]}, {"conceptId": "C139113", "definition": "A measurement of the organisms that are not assigned to the species level but are assigned to the Burkholderia genus level in a biological specimen.", "preferredTerm": "Burkholderia Measurement", "submissionValue": "Burkholderia", "synonyms": ["Burkholderia"]}, {"conceptId": "C147456", "definition": "A measurement of the Burkholderia cepacia in a biological specimen.", "preferredTerm": "Burkholderia cepacia Measurement", "submissionValue": "Burkholderia cepacia", "synonyms": ["B. cepacia", "Burkholderia cepacia", "Pseudomonas cepacia"]}, {"conceptId": "C150857", "definition": "A measurement of the Clostridium difficile glutamate dehydrogenase in a biological specimen.", "preferredTerm": "C. difficile Glutamate Dehydrogenase Measurement", "submissionValue": "C. difficile Glutamate Dehydrogenase", "synonyms": ["C. difficile Glutamate Dehydrogenase", "Clostridium difficile Glutamate Dehydrogenase"]}, {"conceptId": "C154835", "definition": "A measurement of the Chlamydia trachomatis antigen in a biological specimen.", "preferredTerm": "Chlamydia trachomatis Antigen Measurement", "submissionValue": "Chlamydia trachomatis Antigen", "synonyms": ["Chlamydia trachomatis Antigen"]}, {"conceptId": "C150637", "definition": "A measurement of the Clostridium difficile in a biological specimen.", "preferredTerm": "Clostridium difficile Measurement", "submissionValue": "Clostridium difficile", "synonyms": ["Clostridium difficile"]}, {"conceptId": "C150639", "definition": "A measurement of the 027/NAP1/BI strain of Clostridium difficile in a biological specimen.", "preferredTerm": "Clostridium difficile 027/NAP1/BI Measurement", "submissionValue": "Clostridium difficile 027/NAP1/BI", "synonyms": ["Clostridium difficile 027/NAP1/BI"]}, {"conceptId": "C150863", "definition": "A measurement of the Clostridium difficile toxin A in a biological specimen.", "preferredTerm": "Clostridium difficile A Toxin Measurement", "submissionValue": "Clostridium difficile A Toxin", "synonyms": ["Clostridium difficile A Toxin"]}, {"conceptId": "C150858", "definition": "A measurement of the Clostridium difficile A and/or B toxin in a biological specimen.", "preferredTerm": "Clostridium difficile A and/or B Toxin Measurement", "submissionValue": "Clostridium difficile A/B Toxin", "synonyms": ["Clostridium difficile A/B Toxin"]}, {"conceptId": "C150864", "definition": "A measurement of the Clostridium difficile toxin B in a biological specimen.", "preferredTerm": "Clostridium difficile B Toxin Measurement", "submissionValue": "Clostridium difficile B Toxin", "synonyms": ["Clostridium difficile B Toxin"]}, {"conceptId": "C150866", "definition": "A measurement of the Clostridium difficile binary toxin (cdt) DNA in a biological specimen.", "preferredTerm": "Clostridium difficile cdt DNA Measurement", "submissionValue": "Clostridium difficile cdt DNA", "synonyms": ["Clostridium difficile cdt DNA"]}, {"conceptId": "C150859", "definition": "A measurement of the Clostridium difficile toxin A (tcdA) DNA in a biological specimen.", "preferredTerm": "Clostridium difficile tcdA DNA Measurement", "submissionValue": "Clostridium difficile tcdA DNA", "synonyms": ["Clostridium difficile tcdA DNA"]}, {"conceptId": "C150860", "definition": "A measurement of the Clostridium difficile toxin B (tcdB) DNA in a biological specimen.", "preferredTerm": "Clostridium difficile tcdB DNA Measurement", "submissionValue": "Clostridium difficile tcdB DNA", "synonyms": ["Clostridium difficile tcdB DNA"]}, {"conceptId": "C150861", "definition": "A measurement of the Clostridium difficile regulatory protein (tcdC) DNA in a biological specimen.", "preferredTerm": "Clostridium difficile tcdC DNA Measurement", "submissionValue": "Clostridium difficile tcdC DNA", "synonyms": ["Clostridium difficile tcdC DNA"]}, {"conceptId": "C154829", "definition": "A measurement of the antigen from any member of the genus Cryptococcus in a biological specimen.", "preferredTerm": "Cryptococcus Antigen Measurement", "submissionValue": "Cryptococcus Antigen", "synonyms": ["Cryptococcus Antigen"]}, {"conceptId": "C154831", "definition": "A measurement of the Cryptosporidium parvum antigen in a biological specimen.", "preferredTerm": "Cryptosporidium parvum Antigen Measurement", "submissionValue": "Cryptosporidium parvum Antigen", "synonyms": ["Cryptosporidium parvum Antigen"]}, {"conceptId": "C154828", "definition": "A measurement of the Cytomegalovirus antigen in a biological specimen.", "preferredTerm": "Cytomegalovirus Antigen Measurement", "submissionValue": "Cytomegalovirus Antigen", "synonyms": ["Cytomegalovirus Antigen"]}, {"conceptId": "C135409", "definition": "A measurement of a targeted deoxyribonucleic acid (DNA) in a biological specimen.", "preferredTerm": "Deoxyribonucleic Acid Measurement", "submissionValue": "Deoxyribonucleic Acid", "synonyms": ["Deoxyribonucleic Acid"]}, {"conceptId": "C135410", "definition": "A measurement of the Ebola virus IgM antibodies in a biological specimen.", "preferredTerm": "Ebola Virus IgM Antibody Measurement", "submissionValue": "Ebola Virus IgM Antibody", "synonyms": ["Ebola Virus IgM Antibody"]}, {"conceptId": "C154818", "definition": "A measurement of the total Escherichia coli shiga-like toxin in a biological specimen.", "preferredTerm": "Escherichia coli Shiga-like Toxin Measurement", "submissionValue": "Escherichia coli Shiga-like Toxin", "synonyms": ["Escherichia coli Shiga-like Toxin"]}, {"conceptId": "C154813", "definition": "A measurement of the fungi in a biological specimen.", "preferredTerm": "Fungi Measurement", "submissionValue": "Fungi", "synonyms": ["Fungi"]}, {"conceptId": "C154817", "definition": "A measurement of the galactomannan antigen in a biological specimen.", "preferredTerm": "Galactomannan Antigen Measurement", "submissionValue": "Galactomannan Antigen", "synonyms": ["Galactomannan Antigen"]}, {"conceptId": "C154822", "definition": "A measurement of the Giardia lamblia antigen in a biological specimen.", "preferredTerm": "Giardia lamblia Antigen Measurement", "submissionValue": "Giardia lamblia Antigen", "synonyms": ["Giardia lamblia Antigen"]}, {"conceptId": "C154812", "definition": "A measurement of the gram negative bacteria in a biological specimen.", "preferredTerm": "Gram Negative Bacteria Measurement", "submissionValue": "Gram Negative Bacteria", "synonyms": ["Gram Negative Bacteria"]}, {"conceptId": "C154811", "definition": "A measurement of the gram positive bacteria in a biological specimen.", "preferredTerm": "Gram Positive Bacteria Measurement", "submissionValue": "Gram Positive Bacteria", "synonyms": ["Gram Positive Bacteria"]}, {"conceptId": "C154821", "definition": "A measurement of the HIV-1 antigen in a biological specimen.", "preferredTerm": "HIV-1 Antigen Measurement", "submissionValue": "HIV-1 Antigen", "synonyms": ["HIV-1 Antigen"]}, {"conceptId": "C147458", "definition": "A measurement of the organisms that are not assigned to the species level but are assigned to the Haemophilus genus level in a biological specimen.", "preferredTerm": "Haemophilus Measurement", "submissionValue": "Haemophilus", "synonyms": ["Haemophilus"]}, {"conceptId": "C147457", "definition": "A measurement of the Haemophilus influenza virus in a biological specimen.", "preferredTerm": "Haemophilus influenzae Measurement", "submissionValue": "Haemophilus influenzae", "synonyms": ["H. influenzae", "Haemophilus influenzae"]}, {"conceptId": "C154819", "definition": "A measurement of the Helicobacter pylori antigen in a biological specimen.", "preferredTerm": "Helicobacter pylori Antigen Measurement", "submissionValue": "Helicobacter pylori Antigen", "synonyms": ["Helicobacter pylori Antigen"]}, {"conceptId": "C103404", "definition": "A measurement of the Hepatitis B virus DNA in a biological specimen.", "preferredTerm": "Hepatitis B DNA Measurement", "submissionValue": "Hepatitis B Virus DNA", "synonyms": ["Hepatitis B Virus DNA"]}, {"conceptId": "C142330", "definition": "A measurement of the Hepatitis C virus RNA in a biological specimen.", "preferredTerm": "Hepatitis C Virus RNA Measurement", "submissionValue": "Hepatitis C Virus RNA", "synonyms": ["Hepatitis C Virus RNA"]}, {"conceptId": "C142331", "definition": "A measurement of the Hepatitis E virus RNA in a biological specimen.", "preferredTerm": "Hepatitis E Virus RNA Measurement", "submissionValue": "Hepatitis E Virus RNA", "synonyms": ["Hepatitis E Virus RNA"]}, {"conceptId": "C154816", "definition": "A measurement of the Histoplasma capsulatum antigen in a biological specimen.", "preferredTerm": "Histoplasma capsulatum Antigen Measurement", "submissionValue": "Histoplasma capsulatum Antigen", "synonyms": ["Histoplasma capsulatum Antigen"]}, {"conceptId": "C154833", "definition": "A measurement of the Human Parainfluenza antigen in a biological specimen.", "preferredTerm": "Human Parainfluenza Antigen Measurement", "submissionValue": "Human Parainfluenza Antigen", "synonyms": ["Human Parainfluenza Antigen"]}, {"conceptId": "C154834", "definition": "A measurement of the Human Parainfluenza Type 1 antigen in a biological specimen.", "preferredTerm": "Human Parainfluenza Type 1 Antigen Measurement", "submissionValue": "Human Parainfluenza Type 1 Antigen", "synonyms": ["Human Parainfluenza Type 1 Antigen"]}, {"conceptId": "C156542", "definition": "A measurement of the Human Parvovirus B19 in a biological specimen.", "preferredTerm": "Human Parvovirus B19 Measurement", "submissionValue": "Human Parvovirus B19", "synonyms": ["Human Parvovirus B19"]}, {"conceptId": "C120677", "definition": "A measurement of the influenza A antigen in a biological specimen.", "preferredTerm": "Influenza A Antigen Measurement", "submissionValue": "Influenza A Antigen", "synonyms": ["Influenza A Antigen"]}, {"conceptId": "C120678", "definition": "A measurement of the influenza A and/or B antigen in a biological specimen.", "preferredTerm": "Influenza A/B Antigen Measurement", "submissionValue": "Influenza A/B Antigen", "synonyms": ["Influenza A/B Antigen"]}, {"conceptId": "C120679", "definition": "A measurement of the influenza B antigen in a biological specimen.", "preferredTerm": "Influenza B Antigen Measurement", "submissionValue": "Influenza B Antigen", "synonyms": ["Influenza B Antigen"]}, {"conceptId": "C154826", "definition": "A measurement of the Legionella pneumophila serogroup 1 antigen in a biological specimen.", "preferredTerm": "Legionella pneumophila Serogroup 1 Antigen Measurement", "submissionValue": "Legionella pneumophila Sg 1 Antigen", "synonyms": ["Legionella pneumophila Serogroup 1 Antigen", "Legionella pneumophila Sg 1 Antigen"]}, {"conceptId": "C132416", "definition": "The identification of the type of a microbial organism in a biological specimen.", "preferredTerm": "Microoganism Identification", "submissionValue": "Microbial Organism Identification", "synonyms": ["Microbial Organism Identification"]}, {"conceptId": "C128982", "definition": "A measurement of the organisms that are assigned to the Mycobacterium tuberculosis species in a biological specimen.", "preferredTerm": "Mycobacterium Tuberculosis Measurement", "submissionValue": "Mycobacterium tuberculosis", "synonyms": ["Mycobacterium tuberculosis"]}, {"conceptId": "C128983", "definition": "A measurement of the organisms assignable to the Mycobacterium tuberculosis complex in a biological specimen.", "preferredTerm": "Mycobacterium tuberculosis Complex Measurement", "submissionValue": "Mycobacterium tuberculosis Complex", "synonyms": ["Mycobacterium tuberculosis Complex"]}, {"conceptId": "C156543", "definition": "A measurement of the Mycoplasma pneumoniae in a biological specimen.", "preferredTerm": "Mycoplasma pneumoniae Measurement", "submissionValue": "Mycoplasma pneumoniae", "synonyms": ["Mycoplasma pneumoniae"]}, {"conceptId": "C147459", "definition": "A measurement of the organisms that are assigned to the Mycobacterium genus but are not tuberculosis or leprosy-causing in a biological specimen.", "preferredTerm": "Nontuberculous Mycobacteria Measurement", "submissionValue": "Nontuberculous Mycobacteria", "synonyms": ["NTM", "Non-tuberculous mycobacteria", "Nontuberculous Mycobacteria"]}, {"conceptId": "C139108", "definition": "A measurement of the mucoid strain of Pseudomonas aeruginosa in a biological specimen.", "preferredTerm": "Mucoid Pseudomonas aeruginosa Measurement", "submissionValue": "P. aeruginosa, Mucoid", "synonyms": ["P. aeruginosa, Mucoid", "Pseudomonas aeruginosa, Mucoid"]}, {"conceptId": "C139107", "definition": "A measurement of the non-mucoid strain of Pseudomonas aeruginosa in a biological specimen.", "preferredTerm": "Non-Mucoid Pseudomonas aeruginosa Measurement", "submissionValue": "P. aeruginosa, Non-mucoid", "synonyms": ["P. aeruginosa, Non-Mucoid", "Pseudomonas aeruginosa, Non-Mucoid"]}, {"conceptId": "C139109", "definition": "A measurement of the small-colony variant strain of Pseudomonas aeruginosa in a biological specimen.", "preferredTerm": "Small-Colony Variant Pseudomonas aeruginosa Measurement", "submissionValue": "P. aeruginosa, Small-colony Variant", "synonyms": ["P. aeruginosa, Small-colony Variant", "Pseudomonas aeruginosa, SCV", "Pseudomonas aeruginosa, Small-colony Variant"]}, {"conceptId": "C132417", "definition": "A measurement of the Plasmodium knowlesi in an asexual replication stage in a biological specimen.", "preferredTerm": "Asexual Plasmodium knowlesi Measurement", "submissionValue": "Plasmodium knowlesi, Asexual", "synonyms": ["Plasmodium knowlesi, Asexual"]}, {"conceptId": "C132418", "definition": "A measurement of the Plasmodium knowlesi in a sexual replication stage in a biological specimen.", "preferredTerm": "Sexual Plasmodium knowlesi Measurement", "submissionValue": "Plasmodium knowlesi, Sexual", "synonyms": ["Plasmodium knowlesi, Sexual"]}, {"conceptId": "C154823", "definition": "A measurement of the respiratory syncytial virus antigen in a biological specimen.", "preferredTerm": "Respiratory Syncytial Virus Antigen Measurement", "submissionValue": "Respiratory Syncytial Virus Antigen", "synonyms": ["RSV Antigen", "Respiratory Syncytial Virus Antigen"]}, {"conceptId": "C154827", "definition": "A measurement of the antigen from any member of the genus Rotavirus in a biological specimen.", "preferredTerm": "Rotavirus Antigen Measurement", "submissionValue": "Rotavirus Antigen", "synonyms": ["Rotavirus Antigen"]}, {"conceptId": "C154815", "definition": "A measurement of the Rubeola virus antigen in a biological specimen.", "preferredTerm": "Rubeola Antigen Measurement", "submissionValue": "Rubeola Antigen", "synonyms": ["Measles Virus Antigen"]}, {"conceptId": "C139110", "definition": "A measurement of the methicillin-resistant strain of Staphylococcus aureus in a biological specimen.", "preferredTerm": "Methicillin-resistant Staphylococcus aureus Measurement", "submissionValue": "S. aureus, Methicillin-resistant", "synonyms": ["S. aureus, Methicillin-Resistant", "Staphylococcus aureus, Methicillin-Resistant"]}, {"conceptId": "C139111", "definition": "A measurement of the methicillin-susceptible strain of Staphylococcus aureus in a biological specimen.", "preferredTerm": "Methicillin-susceptible Staphylococcus aureus Measurement", "submissionValue": "S. aureus, Methicillin-susceptible", "synonyms": ["S. aureus, Methicillin-Susceptible", "Staphylococcus aureus, Methicillin-Susceptible"]}, {"conceptId": "C147460", "definition": "A measurement of the Staphylococcus aureus in a biological specimen.", "preferredTerm": "Staphylococcus aureus Measurement", "submissionValue": "Staphylococcus aureus", "synonyms": ["S. aureus", "Staphylococcus aureus"]}, {"conceptId": "C139112", "definition": "A measurement of the organisms that are assigned to the Stenotrophomonas maltophilia species in a biological specimen.", "preferredTerm": "Stenotrophomonas maltophilia Measurement", "submissionValue": "Stenotrophomonas maltophilia", "synonyms": ["Stenotrophomonas maltophilia"]}, {"conceptId": "C154824", "definition": "A measurement of the Streptococcus agalactiae antigen in a biological specimen.", "preferredTerm": "Streptococcus agalactiae Antigen Measurement", "submissionValue": "Streptococcus agalactiae Antigen", "synonyms": ["Streptococcus Group B Antigen", "Streptococcus agalactiae Antigen"]}, {"conceptId": "C154814", "definition": "A measurement of the Streptococcus pyogenes antigen in a biological specimen.", "preferredTerm": "Streptococcus pyogenes Antigen Measurement", "submissionValue": "Streptococcus pyogenes Antigen", "synonyms": ["Streptococcus pyogenes Antigen"]}, {"conceptId": "C150862", "definition": "A measurement of the toxigenic strain of Clostridium difficile in a biological specimen.", "preferredTerm": "Toxigenic Clostridium difficile Measurement", "submissionValue": "Toxigenic Clostridium difficile", "synonyms": ["Toxigenic Clostridium difficile"]}, {"conceptId": "C150865", "definition": "A measurement of the toxin B-producing strain of Clostridium difficile in a biological specimen.", "preferredTerm": "Toxin B-Producing Clostridium difficile Measurement", "submissionValue": "Toxin B-Producing Clostridium difficile", "synonyms": ["Toxin B-Producing Clostridium difficile"]}, {"conceptId": "C154825", "definition": "A measurement of the microbial urease enzyme in a biological specimen.", "preferredTerm": "Urease Measurement", "submissionValue": "Urease", "synonyms": ["Urease"]}, {"conceptId": "C132420", "definition": "A measurement of the Zaire ebolavirus present in a biological specimen.", "preferredTerm": "Zaire Ebolavirus Measurement", "submissionValue": "Zaire Ebolavirus", "synonyms": ["Zaire Ebolavirus"]}]}