{"_links": {"parentPackage": {"href": "/mdr/ct/packages/sdtmct-2018-12-21", "title": "SDTM Controlled Terminology Package 36 Effective 2018-12-21", "type": "Terminology"}, "priorVersion": {"href": "/mdr/ct/packages/sdtmct-2018-09-28/codelists/C124669", "title": "CDISC Clinical Classification FHS CVD 10-Year Risk Score Test Name Terminology", "type": "Code List"}, "rootItem": {"href": "/mdr/root/ct/sdtmct/codelists/C124669", "title": "Version-agnostic anchor resource for codelist C124669", "type": "Root Value Domain"}, "self": {"href": "/mdr/ct/packages/sdtmct-2018-12-21/codelists/C124669", "title": "CDISC Clinical Classification FHS CVD 10-Year Risk Score Test Name Terminology", "type": "Code List"}}, "conceptId": "C124669", "definition": "Framingham Heart Study Cardiovascular Disease 10-Year Risk Score test name.", "extensible": "false", "name": "Framingham Heart Study Cardiovascular Disease 10-Year Risk Score Clinical Classification Test Name", "preferredTerm": "CDISC Clinical Classification FHS CVD 10-Year Risk Score Test Name Terminology", "submissionValue": "FCVD1TN", "synonyms": ["Framingham Heart Study Cardiovascular Disease 10-Year Risk Score Clinical Classification Test Name"], "terms": [{"conceptId": "C124722", "definition": "Framingham Heart Study Cardiovascular Disease 10-Year Risk Score - Cardiovascular disease 10-year risk score.", "preferredTerm": "FHS CVD 10-Year Risk Score - Risk Score", "submissionValue": "FCVD1-Framingham CVD 10-Year Risk Score", "synonyms": ["FCVD1-Framingham CVD 10-Year Risk Score"]}]}