{"_links": {"parentPackage": {"href": "/mdr/ct/packages/sdtmct-2018-12-21", "title": "SDTM Controlled Terminology Package 36 Effective 2018-12-21", "type": "Terminology"}, "priorVersion": {"href": "/mdr/ct/packages/sdtmct-2018-09-28/codelists/C124301", "title": "CDISC SDTM Medical History Event Date Type Terminology", "type": "Code List"}, "rootItem": {"href": "/mdr/root/ct/sdtmct/codelists/C124301", "title": "Version-agnostic anchor resource for codelist C124301", "type": "Root Value Domain"}, "self": {"href": "/mdr/ct/packages/sdtmct-2018-12-21/codelists/C124301", "title": "CDISC SDTM Medical History Event Date Type Terminology", "type": "Code List"}}, "conceptId": "C124301", "definition": "Terminology relevant to the classification of the medical condition or event by which MHSTDTC is defined.", "extensible": "true", "name": "Medical History Event Date Type", "preferredTerm": "CDISC SDTM Medical History Event Date Type Terminology", "submissionValue": "MHEDTTYP", "synonyms": ["Medical History Event Date Type"], "terms": [{"conceptId": "C15220", "definition": "The investigation, analysis and recognition of the presence and nature of disease, condition, or injury from expressed signs and symptoms; also, the scientific determination of any kind; the concise results or summary of such an investigation. (NCI)", "preferredTerm": "Diagnosis", "submissionValue": "DIAGNOSIS", "synonyms": ["Diagnostic"]}, {"conceptId": "C75539", "definition": "A noteworthy happening that is distinctive in a series of related events.", "preferredTerm": "Episode", "submissionValue": "EPISODE"}, {"conceptId": "C124138", "definition": "An increase in frequency and/or worsening of a symptom, condition, or disease.", "preferredTerm": "Exacerbation", "submissionValue": "EXACERBATION"}, {"conceptId": "C124353", "definition": "The point at which the symptoms began or were first noted.", "preferredTerm": "Symptom Onset", "submissionValue": "SYMPTOM ONSET"}]}