{"_links": {"parentPackage": {"href": "/mdr/ct/packages/sdtmct-2018-12-21", "title": "SDTM Controlled Terminology Package 36 Effective 2018-12-21", "type": "Terminology"}, "priorVersion": {"href": "/mdr/ct/packages/sdtmct-2018-09-28/codelists/C127265", "title": "CDISC SDTM Mode of Disease Transmission Terminology", "type": "Code List"}, "rootItem": {"href": "/mdr/root/ct/sdtmct/codelists/C127265", "title": "Version-agnostic anchor resource for codelist C127265", "type": "Root Value Domain"}, "self": {"href": "/mdr/ct/packages/sdtmct-2018-12-21/codelists/C127265", "title": "CDISC SDTM Mode of Disease Transmission Terminology", "type": "Code List"}}, "conceptId": "C127265", "definition": "The terminology relevant to the mechanism by which a disease is transmitted.", "extensible": "true", "name": "Mode of Disease Transmission", "preferredTerm": "CDISC SDTM Mode of Disease Transmission Terminology", "submissionValue": "MODTRN", "synonyms": ["Mode of Disease Transmission"], "terms": [{"conceptId": "C15192", "definition": "The infusion of whole blood or a blood component into the bloodstream.", "preferredTerm": "Blood Transfusion", "submissionValue": "BLOOD TRANSFUSION"}, {"conceptId": "C25596", "definition": "The nursing of an infant at the female's breast.", "preferredTerm": "Breast Feeding", "submissionValue": "BREASTFEEDING"}, {"conceptId": "C154862", "definition": "Sexual contact with a member of the opposite sex.", "preferredTerm": "Heterosexual Contact", "submissionValue": "HETEROSEXUAL CONTACT"}, {"conceptId": "C154863", "definition": "Sexual contact with a member of the same sex.", "preferredTerm": "Homosexual Contact", "submissionValue": "HOMOSEXUAL CONTACT"}, {"conceptId": "C127773", "definition": "The transmission of a disease from one individual to another within the same species.", "preferredTerm": "Horizontal Transmission", "submissionValue": "HORIZONTAL TRANSMISSION"}, {"conceptId": "C156549", "definition": "The use of injection needles that have been previously used.", "preferredTerm": "Injection Needle Reuse", "submissionValue": "INJECTION NEEDLE REUSE"}, {"conceptId": "C154864", "definition": "The exposure to agents that occurs as a result of in utero development.", "preferredTerm": "Intrauterine Exposure", "submissionValue": "INTRAUTERINE EXPOSURE"}, {"conceptId": "C92934", "definition": "The process by which a mammal gives birth.", "preferredTerm": "Labor and Delivery Process", "submissionValue": "LABOR AND DELIVERY"}, {"conceptId": "C16929", "definition": "The exposure to agents that occurs as a result of one's occupation.", "preferredTerm": "Occupational Exposure", "submissionValue": "OCCUPATIONAL EXPOSURE"}, {"conceptId": "C19942", "definition": "The exposure to agents that occurs transplacentally or during the labor and delivery process.", "preferredTerm": "Perinatal Exposure", "submissionValue": "PERINATAL EXPOSURE"}, {"conceptId": "C154689", "definition": "Sexual interaction between individuals.", "preferredTerm": "Sexual Contact", "submissionValue": "SEXUAL CONTACT"}, {"conceptId": "C17998", "definition": "Not known, not observed, not recorded, or refused. (NCI)", "preferredTerm": "Unknown", "submissionValue": "UNKNOWN", "synonyms": ["U", "UNK", "Unknown"]}, {"conceptId": "C98977", "definition": "The transmission of a disease from the mother to the fetus or newborn.", "preferredTerm": "Maternal Transmission", "submissionValue": "VERTICAL TRANSMISSION"}]}