{"_links": {"parentPackage": {"href": "/mdr/ct/packages/sdtmct-2018-12-21", "title": "SDTM Controlled Terminology Package 36 Effective 2018-12-21", "type": "Terminology"}, "priorVersion": {"href": "/mdr/ct/packages/sdtmct-2018-09-28/codelists/C132315", "title": "CDISC SDTM Ebola Virus Findings About Test Name Terminology", "type": "Code List"}, "rootItem": {"href": "/mdr/root/ct/sdtmct/codelists/C132315", "title": "Version-agnostic anchor resource for codelist C132315", "type": "Root Value Domain"}, "self": {"href": "/mdr/ct/packages/sdtmct-2018-12-21/codelists/C132315", "title": "CDISC SDTM Ebola Virus Findings About Test Name Terminology", "type": "Code List"}}, "conceptId": "C132315", "definition": "Terminology relevant to the test names that describe findings about an Ebola virus infection event or intervention.", "extensible": "true", "name": "Ebola Virus Findings About Test Name", "preferredTerm": "CDISC SDTM Ebola Virus Findings About Test Name Terminology", "submissionValue": "EBFATS", "synonyms": ["Ebola Virus Findings About Test Name"], "terms": [{"conceptId": "C25285", "definition": "The length of a straight line passing through the center of a circle or sphere and connecting two points on the circumference. (NCI)", "preferredTerm": "Diameter", "submissionValue": "Diameter", "synonyms": ["Diameter"]}, {"conceptId": "C127786", "definition": "An indication as to whether something has happened, such as an event or incident.", "preferredTerm": "Occurrence Indicator", "submissionValue": "Occurrence Indicator", "synonyms": ["Occurrence Indicator"]}, {"conceptId": "C25676", "definition": "The degree of something undesirable.", "preferredTerm": "Severity", "submissionValue": "Severity/Intensity", "synonyms": ["Severity/Intensity"]}]}