{"_links": {"parentPackage": {"href": "/mdr/ct/packages/sdtmct-2018-12-21", "title": "SDTM Controlled Terminology Package 36 Effective 2018-12-21", "type": "Terminology"}, "priorVersion": {"href": "/mdr/ct/packages/sdtmct-2018-09-28/codelists/C135691", "title": "CDISC Questionnaire PCL-5 Test Name Terminology", "type": "Code List"}, "rootItem": {"href": "/mdr/root/ct/sdtmct/codelists/C135691", "title": "Version-agnostic anchor resource for codelist C135691", "type": "Root Value Domain"}, "self": {"href": "/mdr/ct/packages/sdtmct-2018-12-21/codelists/C135691", "title": "CDISC Questionnaire PCL-5 Test Name Terminology", "type": "Code List"}}, "conceptId": "C135691", "definition": "The PTSD Checklist for DSM-5 test name.", "extensible": "false", "name": "The PTSD Checklist for DSM-5 Questionnaire Test Name", "preferredTerm": "CDISC Questionnaire PCL-5 Test Name Terminology", "submissionValue": "PCL01TN", "synonyms": ["The PTSD Checklist for DSM-5 Questionnaire Test Name"], "terms": [{"conceptId": "C135928", "definition": "The PTSD Checklist for DSM-5 - In the past month, how much were you bothered by: Avoiding external reminders of the stressful experience (for example, people, places, conversations, activities, objects, or situations)?", "preferredTerm": "PCL-5 - Avoid External Reminders", "submissionValue": "PCL01-Avoid External Reminders", "synonyms": ["PCL01-Avoid External Reminders"]}, {"conceptId": "C135927", "definition": "The PTSD Checklist for DSM-5 - In the past month, how much were you bothered by: Avoiding memories, thoughts, or feelings related to the stressful experience?", "preferredTerm": "PCL-5 - Avoid Memories, Thoughts or Feelings", "submissionValue": "PCL01-Avoid Memories/Thoughts/Feelings", "synonyms": ["PCL01-Avoid Memories/Thoughts/Feelings"]}, {"conceptId": "C135938", "definition": "The PTSD Checklist for DSM-5 - In the past month, how much were you bothered by: Being \"superalert\" or watchful or on guard?", "preferredTerm": "PCL-5 - Being Super Alert or Watchful", "submissionValue": "PCL01-Being Superalert/Watchful/on Guard", "synonyms": ["PCL01-Being Superalert/Watchful/on Guard"]}, {"conceptId": "C135931", "definition": "The PTSD Checklist for DSM-5 - In the past month, how much were you bothered by: Blaming yourself or someone else for the stressful experience or what happened after it?", "preferredTerm": "PCL-5 - Blaming Yourself or Someone Else", "submissionValue": "PCL01-Blaming Yourself/Someone Else", "synonyms": ["PCL01-Blaming Yourself/Someone Else"]}, {"conceptId": "C135925", "definition": "The PTSD Checklist for DSM-5 - In the past month, how much were you bothered by: Feeling very upset when something reminded you of the stressful experience?", "preferredTerm": "PCL-5 - Feel Upset When Reminded", "submissionValue": "PCL01-Feel Upset When Reminded", "synonyms": ["PCL01-Feel Upset When Reminded"]}, {"conceptId": "C135934", "definition": "The PTSD Checklist for DSM-5 - In the past month, how much were you bothered by: Feeling distant or cut off from other people?", "preferredTerm": "PCL-5 - Feeling Distant From People", "submissionValue": "PCL01-Feeling Distant From People", "synonyms": ["PCL01-Feeling Distant From People"]}, {"conceptId": "C135939", "definition": "The PTSD Checklist for DSM-5 - In the past month, how much were you bothered by: Feeling jumpy or easily startled?", "preferredTerm": "PCL-5 - Feeling Jumpy or Easily Startled", "submissionValue": "PCL01-Feeling Jumpy or Easily Startled", "synonyms": ["PCL01-Feeling Jumpy or Easily Startled"]}, {"conceptId": "C135940", "definition": "The PTSD Checklist for DSM-5 - In the past month, how much were you bothered by: Having difficulty concentrating?", "preferredTerm": "PCL-5 - Having Difficulty Concentrating", "submissionValue": "PCL01-Having Difficulty Concentrating", "synonyms": ["PCL01-Having Difficulty Concentrating"]}, {"conceptId": "C135936", "definition": "The PTSD Checklist for DSM-5 - In the past month, how much were you bothered by: Irritable behavior, angry outbursts, or acting aggressively?", "preferredTerm": "PCL-5 - Irritable Behavior or Angry Outbursts", "submissionValue": "PCL01-Irritable Behavior/Angry Outbursts", "synonyms": ["PCL01-Irritable Behavior/Angry Outbursts"]}, {"conceptId": "C135933", "definition": "The PTSD Checklist for DSM-5 - In the past month, how much were you bothered by: Loss of interest in activities that you used to enjoy?", "preferredTerm": "PCL-5 - Loss of Interest in Activities", "submissionValue": "PCL01-Loss of Interest in Activities", "synonyms": ["PCL01-Loss of Interest in Activities"]}, {"conceptId": "C135923", "definition": "The PTSD Checklist for DSM-5 - In the past month, how much were you bothered by: Repeated, disturbing dreams of the stressful experience?", "preferredTerm": "PCL-5 - Repeated Disturbing Dreams", "submissionValue": "PCL01-Repeated Disturbing Dreams", "synonyms": ["PCL01-Repeated Disturbing Dreams"]}, {"conceptId": "C135922", "definition": "The PTSD Checklist for DSM-5 - In the past month, how much were you bothered by: Repeated, disturbing, and unwanted memories of the stressful experience?", "preferredTerm": "PCL-5 - Repeated Disturbing Memories", "submissionValue": "PCL01-Repeated Disturbing Memories", "synonyms": ["PCL01-Repeated Disturbing Memories"]}, {"conceptId": "C135930", "definition": "The PTSD Checklist for DSM-5 - In the past month, how much were you bothered by: Having strong negative beliefs about yourself, other people, or the world (for example, having thoughts such as: I am bad, there is something seriously wrong with me, no one can be trusted, the world is completely dangerous)?", "preferredTerm": "PCL-5 - Strong Negative Beliefs", "submissionValue": "PCL01-Strong Negative Beliefs", "synonyms": ["PCL01-Strong Negative Beliefs"]}, {"conceptId": "C135932", "definition": "The PTSD Checklist for DSM-5 - In the past month, how much were you bothered by: Having strong negative feelings such as fear, horror, anger, guilt, or shame?", "preferredTerm": "PCL-5 - Strong Negative Feelings", "submissionValue": "PCL01-Strong Negative Feelings", "synonyms": ["PCL01-Strong Negative Feelings"]}, {"conceptId": "C135926", "definition": "The PTSD Checklist for DSM-5 - In the past month, how much were you bothered by: Having strong physical reactions when something reminded you of the stressful experience (for example, heart pounding, trouble breathing, sweating)?", "preferredTerm": "PCL-5 - Strong Physical Reactions", "submissionValue": "PCL01-Strong Physical Reactions", "synonyms": ["PCL01-Strong Physical Reactions"]}, {"conceptId": "C135924", "definition": "The PTSD Checklist for DSM-5 - In the past month, how much were you bothered by: Suddenly feeling or acting as if the stressful experience were actually happening again (as if you were actually back there reliving it)?", "preferredTerm": "PCL-5 - Suddenly Feeling Happening Again", "submissionValue": "PCL01-Suddenly Feeling Happening Again", "synonyms": ["PCL01-Suddenly Feeling Happening Again"]}, {"conceptId": "C135937", "definition": "The PTSD Checklist for DSM-5 - In the past month, how much were you bothered by: Taking too many risks or doing things that could cause you harm?", "preferredTerm": "PCL-5 - Taking Too Many Risks or Cause Harm", "submissionValue": "PCL01-Taking Too Many Risks/Cause Harm", "synonyms": ["PCL01-Taking Too Many Risks/Cause Harm"]}, {"conceptId": "C135935", "definition": "The PTSD Checklist for DSM-5 - In the past month, how much were you bothered by: Trouble experiencing positive feelings (for example, being unable to feel happiness or have loving feelings for people close to you)?", "preferredTerm": "PCL-5 - Trouble Experiencing Positive Feelings", "submissionValue": "PCL01-Trouble Experiencing Pos Feelings", "synonyms": ["PCL01-Trouble Experiencing Pos Feelings"]}, {"conceptId": "C135941", "definition": "The PTSD Checklist for DSM-5 - In the past month, how much were you bothered by: Trouble falling or staying asleep?", "preferredTerm": "PCL-5 - Trouble Falling or Staying Asleep", "submissionValue": "PCL01-Trouble Falling or Staying Asleep", "synonyms": ["PCL01-Trouble Falling or Staying Asleep"]}, {"conceptId": "C135929", "definition": "The PTSD Checklist for DSM-5 - In the past month, how much were you bothered by: Trouble remembering important parts of the stressful experience?", "preferredTerm": "PCL-5 - Trouble Remembering Important Parts", "submissionValue": "PCL01-Trouble Remembering Important Part", "synonyms": ["PCL01-Trouble Remembering Important Part"]}]}