{"_links": {"parentPackage": {"href": "/mdr/ct/packages/sdtmct-2018-12-21", "title": "SDTM Controlled Terminology Package 36 Effective 2018-12-21", "type": "Terminology"}, "priorVersion": {"href": "/mdr/ct/packages/sdtmct-2018-09-28/codelists/C141653", "title": "CDISC Clinical Classification VALG Test Code Terminology", "type": "Code List"}, "rootItem": {"href": "/mdr/root/ct/sdtmct/codelists/C141653", "title": "Version-agnostic anchor resource for codelist C141653", "type": "Root Value Domain"}, "self": {"href": "/mdr/ct/packages/sdtmct-2018-12-21/codelists/C141653", "title": "CDISC Clinical Classification VALG Test Code Terminology", "type": "Code List"}}, "conceptId": "C141653", "definition": "Veterans Administration Lung Study Group test code.", "extensible": "false", "name": "Veterans Administration Lung Study Group Clinical Classification Test Code", "preferredTerm": "CDISC Clinical Classification VALG Test Code Terminology", "submissionValue": "VALG01TC", "synonyms": ["Veterans Administration Lung Study Group Clinical Classification Test Code"], "terms": [{"conceptId": "C141695", "definition": "Veterans Administration Lung Study Group - Cancer stage.", "preferredTerm": "VALG - Cancer Stage", "submissionValue": "VALG0101", "synonyms": ["VALG01-Cancer Stage"]}]}