{"_links": {"parentPackage": {"href": "/mdr/ct/packages/sdtmct-2018-12-21", "title": "SDTM Controlled Terminology Package 36 Effective 2018-12-21", "type": "Terminology"}, "priorVersion": {"href": "/mdr/ct/packages/sdtmct-2018-09-28/codelists/C141657", "title": "CDISC Functional Test 10 Meter Walk/Run Test Code Terminology", "type": "Code List"}, "rootItem": {"href": "/mdr/root/ct/sdtmct/codelists/C141657", "title": "Version-agnostic anchor resource for codelist C141657", "type": "Root Value Domain"}, "self": {"href": "/mdr/ct/packages/sdtmct-2018-12-21/codelists/C141657", "title": "CDISC Functional Test 10 Meter Walk/Run Test Code Terminology", "type": "Code List"}}, "conceptId": "C141657", "definition": "Ten Meter Walk/Run test code.", "extensible": "false", "name": "Ten Meter Walk/Run Functional Test Test Code", "preferredTerm": "CDISC Functional Test 10 Meter Walk/Run Test Code Terminology", "submissionValue": "TENMW1TC", "synonyms": ["Ten Meter Walk/Run Functional Test Test Code"], "terms": [{"conceptId": "C141700", "definition": "Ten Meter Walk/Run - Time to walk or run 10 meters.", "preferredTerm": "10 Meter Walk/Run - Time to Walk/Run 10 Meters", "submissionValue": "TENMW101", "synonyms": ["TENMW1-Time to Walk/Run 10 Meters"]}, {"conceptId": "C141701", "definition": "Ten Meter Walk/Run - Test grade.", "preferredTerm": "10 Meter Walk/Run - Test Grade", "submissionValue": "TENMW102", "synonyms": ["TENMW1-Test Grade"]}, {"conceptId": "C147592", "definition": "Ten Meter Walk/Run - Did subject wear orthoses?", "preferredTerm": "10 Meter Walk/Run - Wear Orthoses", "submissionValue": "TENMW103", "synonyms": ["TENMW1-Wear Orthoses"]}]}