{"_links": {"parentPackage": {"href": "/mdr/ct/packages/sdtmct-2018-12-21", "title": "SDTM Controlled Terminology Package 36 Effective 2018-12-21", "type": "Terminology"}, "priorVersion": {"href": "/mdr/ct/packages/sdtmct-2018-09-28/codelists/C150773", "title": "CDISC Questionnaire FACT-C Version 4 Test Name Terminology", "type": "Code List"}, "rootItem": {"href": "/mdr/root/ct/sdtmct/codelists/C150773", "title": "Version-agnostic anchor resource for codelist C150773", "type": "Root Value Domain"}, "self": {"href": "/mdr/ct/packages/sdtmct-2018-12-21/codelists/C150773", "title": "CDISC Questionnaire FACT-C Version 4 Test Name Terminology", "type": "Code List"}}, "conceptId": "C150773", "definition": "Functional Assessment of Cancer Therapy-Colorectal Version 4 test name.", "extensible": "false", "name": "Functional Assessment of Cancer Therapy-Colorectal Version 4 Questionnaire Test Name", "preferredTerm": "CDISC Questionnaire FACT-C Version 4 Test Name Terminology", "submissionValue": "FAC008TN", "synonyms": ["Functional Assessment of Cancer Therapy-Colorectal Version 4 Questionnaire Test Name"], "terms": [{"conceptId": "C151080", "definition": "Functional Assessment of Cancer Therapy-Colorectal Version 4 - Physical Well-Being: I am bothered by side effects of treatment.", "preferredTerm": "FACT-C Version 4 - Bothered by Treatment Side Effect", "submissionValue": "FAC008-Bothered by Treatment Side Effect", "synonyms": ["FAC008-Bothered by Treatment Side Effect"]}, {"conceptId": "C151112", "definition": "Functional Assessment of Cancer Therapy-Colorectal Version 4 - Additional Concerns: Caring for my ostomy appliance is difficult.", "preferredTerm": "FACT-C Version 4 - Caring for Ostomy Is Difficult", "submissionValue": "FAC008-Caring for Ostomy Is Difficult", "synonyms": ["FAC008-Caring for Ostomy Is Difficult"]}, {"conceptId": "C151102", "definition": "Functional Assessment of Cancer Therapy-Colorectal Version 4 - Functional Well-Being: I am content with the quality of my life right now.", "preferredTerm": "FACT-C Version 4 - Content With Quality of My Life", "submissionValue": "FAC008-Content With Quality of My Life", "synonyms": ["FAC008-Content With Quality of My Life"]}, {"conceptId": "C151110", "definition": "Functional Assessment of Cancer Therapy-Colorectal Version 4 - Additional Concerns: Do you have an ostomy appliance?", "preferredTerm": "FACT-C Version 4 - Do You Have an Ostomy Appliance", "submissionValue": "FAC008-Do You Have an Ostomy Appliance", "synonyms": ["FAC008-Do You Have an Ostomy Appliance"]}, {"conceptId": "C151111", "definition": "Functional Assessment of Cancer Therapy-Colorectal Version 4 - Additional Concerns: I am embarrassed by my ostomy appliance.", "preferredTerm": "FACT-C Version 4 - Embarrassed by Ostomy Appliance", "submissionValue": "FAC008-Embarrassed by Ostomy Appliance", "synonyms": ["FAC008-Embarrassed by Ostomy Appliance"]}, {"conceptId": "C151101", "definition": "Functional Assessment of Cancer Therapy-Colorectal Version 4 - Functional Well-Being: I am enjoying the things I usually do for fun.", "preferredTerm": "FACT-C Version 4 - Enjoy Things I Usually Do for Fun", "submissionValue": "FAC008-Enjoy Things I Usually Do for Fun", "synonyms": ["FAC008-Enjoy Things I Usually Do for Fun"]}, {"conceptId": "C151084", "definition": "Functional Assessment of Cancer Therapy-Colorectal Version 4 - Social/Family Well-Being: I get emotional support from my family.", "preferredTerm": "FACT-C Version 4 - Get Emotional Support From Family", "submissionValue": "FAC008-Get Emotional Support From Family", "synonyms": ["FAC008-Get Emotional Support From Family"]}, {"conceptId": "C151098", "definition": "Functional Assessment of Cancer Therapy-Colorectal Version 4 - Functional Well-Being: I am able to enjoy life.", "preferredTerm": "FACT-C Version 4 - I Am Able to Enjoy Life", "submissionValue": "FAC008-I Am Able to Enjoy Life", "synonyms": ["FAC008-I Am Able to Enjoy Life"]}, {"conceptId": "C151096", "definition": "Functional Assessment of Cancer Therapy-Colorectal Version 4 - Functional Well-Being: I am able to work (include work at home).", "preferredTerm": "FACT-C Version 4 - I Am Able to Work", "submissionValue": "FAC008-I Am Able to Work", "synonyms": ["FAC008-I Am Able to Work"]}, {"conceptId": "C151082", "definition": "Functional Assessment of Cancer Therapy-Colorectal Version 4 - Physical Well-Being: I am forced to spend time in bed.", "preferredTerm": "FACT-C Version 4 - I Am Forced to Spend Time in Bed", "submissionValue": "FAC008-I Am Forced to Spend Time in Bed", "synonyms": ["FAC008-I Am Forced to Spend Time in Bed"]}, {"conceptId": "C151104", "definition": "Functional Assessment of Cancer Therapy-Colorectal Version 4 - Additional Concerns: I am losing weight.", "preferredTerm": "FACT-C Version 4 - I Am Losing Weight", "submissionValue": "FAC008-I Am Losing Weight", "synonyms": ["FAC008-I Am Losing Weight"]}, {"conceptId": "C151089", "definition": "Functional Assessment of Cancer Therapy-Colorectal Version 4 - Social/Family Well-Being: I am satisfied with my sex life.", "preferredTerm": "FACT-C Version 4 - I Am Satisfied With My Sex Life", "submissionValue": "FAC008-I Am Satisfied With My Sex Life", "synonyms": ["FAC008-I Am Satisfied With My Sex Life"]}, {"conceptId": "C151100", "definition": "Functional Assessment of Cancer Therapy-Colorectal Version 4 - Functional Well-Being: I am sleeping well.", "preferredTerm": "FACT-C Version 4 - I Am Sleeping Well", "submissionValue": "FAC008-I Am Sleeping Well", "synonyms": ["FAC008-I Am Sleeping Well"]}, {"conceptId": "C151106", "definition": "Functional Assessment of Cancer Therapy-Colorectal Version 4 - Additional Concerns: I can digest my food well.", "preferredTerm": "FACT-C Version 4 - I Can Digest My Food Well", "submissionValue": "FAC008-I Can Digest My Food Well", "synonyms": ["FAC008-I Can Digest My Food Well"]}, {"conceptId": "C151083", "definition": "Functional Assessment of Cancer Therapy-Colorectal Version 4 - Social/Family Well-Being: I feel close to my friends.", "preferredTerm": "FACT-C Version 4 - I Feel Close to My Friends", "submissionValue": "FAC008-I Feel Close to My Friends", "synonyms": ["FAC008-I Feel Close to My Friends"]}, {"conceptId": "C151088", "definition": "Functional Assessment of Cancer Therapy-Colorectal Version 4 - Social/Family Well-Being: I feel close to my partner (or the person who is my main support).", "preferredTerm": "FACT-C Version 4 - I Feel Close to My Partner", "submissionValue": "FAC008-I Feel Close to My Partner", "synonyms": ["FAC008-I Feel Close to My Partner"]}, {"conceptId": "C151081", "definition": "Functional Assessment of Cancer Therapy-Colorectal Version 4 - Physical Well-Being: I feel ill.", "preferredTerm": "FACT-C Version 4 - I Feel Ill", "submissionValue": "FAC008-I Feel Ill", "synonyms": ["FAC008-I Feel Ill"]}, {"conceptId": "C151093", "definition": "Functional Assessment of Cancer Therapy-Colorectal Version 4 - Emotional Well-Being: I feel nervous.", "preferredTerm": "FACT-C Version 4 - I Feel Nervous", "submissionValue": "FAC008-I Feel Nervous", "synonyms": ["FAC008-I Feel Nervous"]}, {"conceptId": "C151090", "definition": "Functional Assessment of Cancer Therapy-Colorectal Version 4 - Emotional Well-Being: I feel sad.", "preferredTerm": "FACT-C Version 4 - I Feel Sad", "submissionValue": "FAC008-I Feel Sad", "synonyms": ["FAC008-I Feel Sad"]}, {"conceptId": "C151085", "definition": "Functional Assessment of Cancer Therapy-Colorectal Version 4 - Social/Family Well-Being: I get support from my friends.", "preferredTerm": "FACT-C Version 4 - I Get Support From My Friends", "submissionValue": "FAC008-I Get Support From My Friends", "synonyms": ["FAC008-I Get Support From My Friends"]}, {"conceptId": "C151099", "definition": "Functional Assessment of Cancer Therapy-Colorectal Version 4 - Functional Well-Being: I have accepted my illness.", "preferredTerm": "FACT-C Version 4 - I Have Accepted My Illness", "submissionValue": "FAC008-I Have Accepted My Illness", "synonyms": ["FAC008-I Have Accepted My Illness"]}, {"conceptId": "C151105", "definition": "Functional Assessment of Cancer Therapy-Colorectal Version 4 - Additional Concerns: I have control of my bowels.", "preferredTerm": "FACT-C Version 4 - I Have Control of My Bowels", "submissionValue": "FAC008-I Have Control of My Bowels", "synonyms": ["FAC008-I Have Control of My Bowels"]}, {"conceptId": "C151107", "definition": "Functional Assessment of Cancer Therapy-Colorectal Version 4 - Additional Concerns: I have diarrhea (diarrhoea).", "preferredTerm": "FACT-C Version 4 - I Have Diarrhea", "submissionValue": "FAC008-I Have Diarrhea", "synonyms": ["FAC008-I Have Diarrhea"]}, {"conceptId": "C151077", "definition": "Functional Assessment of Cancer Therapy-Colorectal Version 4 - Physical Well-Being: I have nausea.", "preferredTerm": "FACT-C Version 4 - I Have Nausea", "submissionValue": "FAC008-I Have Nausea", "synonyms": ["FAC008-I Have Nausea"]}, {"conceptId": "C151079", "definition": "Functional Assessment of Cancer Therapy-Colorectal Version 4 - Physical Well-Being: I have pain.", "preferredTerm": "FACT-C Version 4 - I Have Pain", "submissionValue": "FAC008-I Have Pain", "synonyms": ["FAC008-I Have Pain"]}, {"conceptId": "C151108", "definition": "Functional Assessment of Cancer Therapy-Colorectal Version 4 - Additional Concerns: I have a good appetite.", "preferredTerm": "FACT-C Version 4 - I Have a Good Appetite", "submissionValue": "FAC008-I Have a Good Appetite", "synonyms": ["FAC008-I Have a Good Appetite"]}, {"conceptId": "C151076", "definition": "Functional Assessment of Cancer Therapy-Colorectal Version 4 - Physical Well-Being: I have a lack of energy.", "preferredTerm": "FACT-C Version 4 - I Have a Lack of Energy", "submissionValue": "FAC008-I Have a Lack of Energy", "synonyms": ["FAC008-I Have a Lack of Energy"]}, {"conceptId": "C151109", "definition": "Functional Assessment of Cancer Therapy-Colorectal Version 4 - Additional Concerns: I like the appearance of my body.", "preferredTerm": "FACT-C Version 4 - I Like the Appearance of My Body", "submissionValue": "FAC008-I Like the Appearance of My Body", "synonyms": ["FAC008-I Like the Appearance of My Body"]}, {"conceptId": "C151094", "definition": "Functional Assessment of Cancer Therapy-Colorectal Version 4 - Emotional Well-Being: I worry about dying.", "preferredTerm": "FACT-C Version 4 - I Worry About Dying", "submissionValue": "FAC008-I Worry About Dying", "synonyms": ["FAC008-I Worry About Dying"]}, {"conceptId": "C151092", "definition": "Functional Assessment of Cancer Therapy-Colorectal Version 4 - Emotional Well-Being: I am losing hope in the fight against my illness.", "preferredTerm": "FACT-C Version 4 - Losing Hope Against Illness", "submissionValue": "FAC008-Losing Hope Against Illness", "synonyms": ["FAC008-Losing Hope Against Illness"]}, {"conceptId": "C151086", "definition": "Functional Assessment of Cancer Therapy-Colorectal Version 4 - Social/Family Well-Being: My family has accepted my illness.", "preferredTerm": "FACT-C Version 4 - My Family Has Accepted My Illness", "submissionValue": "FAC008-My Family Has Accepted My Illness", "synonyms": ["FAC008-My Family Has Accepted My Illness"]}, {"conceptId": "C151097", "definition": "Functional Assessment of Cancer Therapy-Colorectal Version 4 - Functional Well-Being: My work (include work at home) is fulfilling.", "preferredTerm": "FACT-C Version 4 - My Work Is Fulfilling", "submissionValue": "FAC008-My Work Is Fulfilling", "synonyms": ["FAC008-My Work Is Fulfilling"]}, {"conceptId": "C151087", "definition": "Functional Assessment of Cancer Therapy-Colorectal Version 4 - Social/Family Well-Being: I am satisfied with family communication about my illness.", "preferredTerm": "FACT-C Version 4 - Satisfied Communication Illness", "submissionValue": "FAC008-Satisfied Communication Illness", "synonyms": ["FAC008-Satisfied Communication Illness"]}, {"conceptId": "C151091", "definition": "Functional Assessment of Cancer Therapy-Colorectal Version 4 - Emotional Well-Being: I am satisfied with how I am coping with my illness.", "preferredTerm": "FACT-C Version 4 - Satisfied With How I Am Coping", "submissionValue": "FAC008-Satisfied With How I Am Coping", "synonyms": ["FAC008-Satisfied With How I Am Coping"]}, {"conceptId": "C151103", "definition": "Functional Assessment of Cancer Therapy-Colorectal Version 4 - Additional Concerns: I have swelling or cramps in my stomach area.", "preferredTerm": "FACT-C Version 4 - Swelling/Cramps in Stomach Area", "submissionValue": "FAC008-Swelling/Cramps in Stomach Area", "synonyms": ["FAC008-Swelling/Cramps in Stomach Area"]}, {"conceptId": "C151078", "definition": "Functional Assessment of Cancer Therapy-Colorectal Version 4 - Physical Well-Being: Because of my physical condition, I have trouble meeting the needs of my family.", "preferredTerm": "FACT-C Version 4 - Trouble Meeting Needs of Family", "submissionValue": "FAC008-Trouble Meeting Needs of Family", "synonyms": ["FAC008-Trouble Meeting Needs of Family"]}, {"conceptId": "C151095", "definition": "Functional Assessment of Cancer Therapy-Colorectal Version 4 - Emotional Well-Being: I worry that my condition will get worse.", "preferredTerm": "FACT-C Version 4 - Worry My Condition Will Get Worse", "submissionValue": "FAC008-Worry My Condition Will Get Worse", "synonyms": ["FAC008-Worry My Condition Will Get Worse"]}]}