{"_links": {"parentPackage": {"href": "/mdr/ct/packages/sdtmct-2018-12-21", "title": "SDTM Controlled Terminology Package 36 Effective 2018-12-21", "type": "Terminology"}, "priorVersion": {"href": "/mdr/ct/packages/sdtmct-2018-09-28/codelists/C154449", "title": "CDISC Clinical Classification UHDRS 1999 Version Test Code Terminology", "type": "Code List"}, "rootItem": {"href": "/mdr/root/ct/sdtmct/codelists/C154449", "title": "Version-agnostic anchor resource for codelist C154449", "type": "Root Value Domain"}, "self": {"href": "/mdr/ct/packages/sdtmct-2018-12-21/codelists/C154449", "title": "CDISC Clinical Classification UHDRS 1999 Version Test Code Terminology", "type": "Code List"}}, "conceptId": "C154449", "definition": "Unified Huntington's Disease Rating Scale '99 test code.", "extensible": "false", "name": "Unified Huntington's Disease Rating Scale '99 Clinical Classification Test Code", "preferredTerm": "CDISC Clinical Classification UHDRS 1999 Version Test Code Terminology", "submissionValue": "UHDR1TC", "synonyms": ["Unified Huntington's Disease Rating Scale '99 Clinical Classification Test Code"], "terms": [{"conceptId": "C155370", "definition": "Unified Huntington's Disease Rating Scale '99 - Ocular pursuit, horizontal.", "preferredTerm": "UHDRS 1999 Version - Ocular Pursuit: Horizontal", "submissionValue": "UHDR101A", "synonyms": ["UHDR1-Ocular Pursuit: Horizontal"]}, {"conceptId": "C155371", "definition": "Unified Huntington's Disease Rating Scale '99 - Ocular pursuit, vertical.", "preferredTerm": "UHDRS 1999 Version - Ocular Pursuit: Vertical", "submissionValue": "UHDR101B", "synonyms": ["UHDR1-Ocular Pursuit: Vertical"]}, {"conceptId": "C155372", "definition": "Unified Huntington's Disease Rating Scale '99 - Saccade initiation, horizontal.", "preferredTerm": "UHDRS 1999 Version - Saccade Initiation: Horizontal", "submissionValue": "UHDR102A", "synonyms": ["UHDR1-Saccade Initiation: Horizontal"]}, {"conceptId": "C155373", "definition": "Unified Huntington's Disease Rating Scale '99 - Saccade initiation, vertical.", "preferredTerm": "UHDRS 1999 Version - Saccade Initiation: Vertical", "submissionValue": "UHDR102B", "synonyms": ["UHDR1-Saccade Initiation: Vertical"]}, {"conceptId": "C155374", "definition": "Unified Huntington's Disease Rating Scale '99 - Saccade velocity, horizontal.", "preferredTerm": "UHDRS 1999 Version - Saccade Velocity: Horizontal", "submissionValue": "UHDR103A", "synonyms": ["UHDR1-Saccade Velocity: Horizontal"]}, {"conceptId": "C155375", "definition": "Unified Huntington's Disease Rating Scale '99 - Saccade velocity, vertical.", "preferredTerm": "UHDRS 1999 Version - Saccade Velocity: Vertical", "submissionValue": "UHDR103B", "synonyms": ["UHDR1-Saccade Velocity: Vertical"]}, {"conceptId": "C155376", "definition": "Unified Huntington's Disease Rating Scale '99 - Dysarthria.", "preferredTerm": "UHDRS 1999 Version - Dysarthria", "submissionValue": "UHDR104", "synonyms": ["UHDR1-Dysarthria"]}, {"conceptId": "C155377", "definition": "Unified Huntington's Disease Rating Scale '99 - Tongue protrusion.", "preferredTerm": "UHDRS 1999 Version - Tongue Protrusion", "submissionValue": "UHDR105", "synonyms": ["UHDR1-Tongue Protrusion"]}, {"conceptId": "C155378", "definition": "Unified Huntington's Disease Rating Scale '99 - Finger taps, right.", "preferredTerm": "UHDRS 1999 Version - Finger Taps: Right", "submissionValue": "UHDR106A", "synonyms": ["UHDR1-Finger Taps: Right"]}, {"conceptId": "C155379", "definition": "Unified Huntington's Disease Rating Scale '99 - Finger taps, left.", "preferredTerm": "UHDRS 1999 Version - Finger Taps: Left", "submissionValue": "UHDR106B", "synonyms": ["UHDR1-Finger Taps: Left"]}, {"conceptId": "C155380", "definition": "Unified Huntington's Disease Rating Scale '99 - Pronate/supinate-hands, right.", "preferredTerm": "UHDRS 1999 Version - Pronate/Supinate: Hands: Right", "submissionValue": "UHDR107A", "synonyms": ["UHDR1-Pronate/Supinate: Hands: Right"]}, {"conceptId": "C155381", "definition": "Unified Huntington's Disease Rating Scale '99 - Pronate/supinate-hands, left.", "preferredTerm": "UHDRS 1999 Version - Pronate/Supinate: Hands: Left", "submissionValue": "UHDR107B", "synonyms": ["UHDR1-Pronate/Supinate: Hands: Left"]}, {"conceptId": "C155382", "definition": "Unified Huntington's Disease Rating Scale '99 - Luria (fist-hand palm test).", "preferredTerm": "UHDRS 1999 Version - Luria", "submissionValue": "UHDR108", "synonyms": ["UHDR1-Luria"]}, {"conceptId": "C155383", "definition": "Unified Huntington's Disease Rating Scale '99 - Rigidity-arms, right.", "preferredTerm": "UHDRS 1999 Version - Rigidity: Arms: Right", "submissionValue": "UHDR109A", "synonyms": ["UHDR1-Rigidity: Arms: Right"]}, {"conceptId": "C155384", "definition": "Unified Huntington's Disease Rating Scale '99 - Rigidity-arms, left.", "preferredTerm": "UHDRS 1999 Version - Rigidity: Arms: Left", "submissionValue": "UHDR109B", "synonyms": ["UHDR1-Rigidity: Arms: Left"]}, {"conceptId": "C155385", "definition": "Unified Huntington's Disease Rating Scale '99 - Bradykinesia-body.", "preferredTerm": "UHDRS 1999 Version - Bradykinesia: Body", "submissionValue": "UHDR110", "synonyms": ["UHDR1-Bradykinesia: Body"]}, {"conceptId": "C155386", "definition": "Unified Huntington's Disease Rating Scale '99 - Maximal dystonia-Trunk.", "preferredTerm": "UHDRS 1999 Version - Maximal Dystonia: Trunk", "submissionValue": "UHDR111A", "synonyms": ["UHDR1-Maximal Dystonia: Trunk"]}, {"conceptId": "C155387", "definition": "Unified Huntington's Disease Rating Scale '99 - Maximal dystonia-RUE.", "preferredTerm": "UHDRS 1999 Version - Maximal Dystonia: RUE", "submissionValue": "UHDR111B", "synonyms": ["UHDR1-Maximal Dystonia: RUE"]}, {"conceptId": "C155388", "definition": "Unified Huntington's Disease Rating Scale '99 - Maximal dystonia-LUE.", "preferredTerm": "UHDRS 1999 Version - Maximal Dystonia: LUE", "submissionValue": "UHDR111C", "synonyms": ["UHDR1-Maximal Dystonia: LUE"]}, {"conceptId": "C155389", "definition": "Unified Huntington's Disease Rating Scale '99 - Maximal dystonia-RLE.", "preferredTerm": "UHDRS 1999 Version - Maximal Dystonia: RLE", "submissionValue": "UHDR111D", "synonyms": ["UHDR1-Maximal Dystonia: RLE"]}, {"conceptId": "C155390", "definition": "Unified Huntington's Disease Rating Scale '99 - Maximal dystonia-LLE.", "preferredTerm": "UHDRS 1999 Version - Maximal Dystonia: LLE", "submissionValue": "UHDR111E", "synonyms": ["UHDR1-Maximal Dystonia: LLE"]}, {"conceptId": "C155391", "definition": "Unified Huntington's Disease Rating Scale '99 - Maximal chorea-Face.", "preferredTerm": "UHDRS 1999 Version - Maximal Chorea: Face", "submissionValue": "UHDR112A", "synonyms": ["UHDR1-Maximal Chorea: Face"]}, {"conceptId": "C155392", "definition": "Unified Huntington's Disease Rating Scale '99 - Maximal chorea-BOL.", "preferredTerm": "UHDRS 1999 Version - Maximal Chorea: BOL", "submissionValue": "UHDR112B", "synonyms": ["UHDR1-Maximal Chorea: BOL"]}, {"conceptId": "C155393", "definition": "Unified Huntington's Disease Rating Scale '99 - Maximal chorea-Trunk.", "preferredTerm": "UHDRS 1999 Version - Maximal Chorea: Trunk", "submissionValue": "UHDR112C", "synonyms": ["UHDR1-Maximal Chorea: Trunk"]}, {"conceptId": "C155394", "definition": "Unified Huntington's Disease Rating Scale '99 - Maximal chorea-RUE.", "preferredTerm": "UHDRS 1999 Version - Maximal Chorea: RUE", "submissionValue": "UHDR112D", "synonyms": ["UHDR1-Maximal Chorea: RUE"]}, {"conceptId": "C155395", "definition": "Unified Huntington's Disease Rating Scale '99 - Maximal chorea-LUE.", "preferredTerm": "UHDRS 1999 Version - Maximal Chorea: LUE", "submissionValue": "UHDR112E", "synonyms": ["UHDR1-Maximal Chorea: LUE"]}, {"conceptId": "C155396", "definition": "Unified Huntington's Disease Rating Scale '99 - Maximal chorea-RLE.", "preferredTerm": "UHDRS 1999 Version - Maximal Chorea: RLE", "submissionValue": "UHDR112F", "synonyms": ["UHDR1-Maximal Chorea: RLE"]}, {"conceptId": "C155397", "definition": "Unified Huntington's Disease Rating Scale '99 - Maximal chorea-LLE.", "preferredTerm": "UHDRS 1999 Version - Maximal Chorea: LLE", "submissionValue": "UHDR112G", "synonyms": ["UHDR1-Maximal Chorea: LLE"]}, {"conceptId": "C155398", "definition": "Unified Huntington's Disease Rating Scale '99 - Gait.", "preferredTerm": "UHDRS 1999 Version - Gait", "submissionValue": "UHDR113", "synonyms": ["UHDR1-Gait"]}, {"conceptId": "C155399", "definition": "Unified Huntington's Disease Rating Scale '99 - Tandem walking.", "preferredTerm": "UHDRS 1999 Version - Tandem Walking", "submissionValue": "UHDR114", "synonyms": ["UHDR1-Tandem Walking"]}, {"conceptId": "C155400", "definition": "Unified Huntington's Disease Rating Scale '99 - Retropulsion pull test.", "preferredTerm": "UHDRS 1999 Version - Retropulsion Pull Test", "submissionValue": "UHDR115", "synonyms": ["UHDR1-Retropulsion Pull Test"]}, {"conceptId": "C155401", "definition": "Unified Huntington's Disease Rating Scale '99 - Diagnosis confidence level: To what degree are you confident that this person meets the operational definition of the unequivocal presence of an otherwise unexplained extrapyramidal movement disorder (e.g., chorea, dystonia, bradykinesia, rigidity) in a subject at risk of HD?", "preferredTerm": "UHDRS 1999 Version - Diagnosis Confidence Level", "submissionValue": "UHDR117", "synonyms": ["UHDR1-Diagnosis Confidence Level"]}, {"conceptId": "C155402", "definition": "Unified Huntington's Disease Rating Scale '99 - Verbal fluency test (raw score).", "preferredTerm": "UHDRS 1999 Version - Verbal Fluency Test", "submissionValue": "UHDR119", "synonyms": ["UHDR1-Verbal Fluency Test"]}, {"conceptId": "C155403", "definition": "Unified Huntington's Disease Rating Scale '99 - Symbol digit modalities test (raw score).", "preferredTerm": "UHDRS 1999 Version - Symbol Digit Modalities Test", "submissionValue": "UHDR120", "synonyms": ["UHDR1-Symbol Digit Modalities Test"]}, {"conceptId": "C155404", "definition": "Unified Huntington's Disease Rating Scale '99 - Depressed mood: Frequency: Within the past month, how often have you been feeling sad, down or \"blue\"?", "preferredTerm": "UHDRS 1999 Version - Depressed Mood: Frequency", "submissionValue": "UHDR125A", "synonyms": ["UHDR1-Depressed Mood: Frequency"]}, {"conceptId": "C155405", "definition": "Unified Huntington's Disease Rating Scale '99 - Depressed mood: Severity: How has your mood affected your daily activities? [Evidence of sad mood from behavioral observation includes sad voice or expression, tearfulness.].", "preferredTerm": "UHDRS 1999 Version - Depressed Mood: Severity", "submissionValue": "UHDR125B", "synonyms": ["UHDR1-Depressed Mood: Severity"]}, {"conceptId": "C155406", "definition": "Unified Huntington's Disease Rating Scale '99 - Apathy: Frequency: Within the past month, how often have you found that you have lost interest in things that used to be important to you?", "preferredTerm": "UHDRS 1999 Version - Apathy: Frequency", "submissionValue": "UHDR126A", "synonyms": ["UHDR1-Apathy: Frequency"]}, {"conceptId": "C155407", "definition": "Unified Huntington's Disease Rating Scale '99 - Apathy: Severity: How has apathy impacted your ability to carry out daily activities?", "preferredTerm": "UHDRS 1999 Version - Apathy: Severity", "submissionValue": "UHDR126B", "synonyms": ["UHDR1-Apathy: Severity"]}, {"conceptId": "C155408", "definition": "Unified Huntington's Disease Rating Scale '99 - Self-esteem/guilt: Frequency: Within the past month, how often have you been feeling badly about yourself?", "preferredTerm": "UHDRS 1999 Version - Self-esteem/Guilt: Frequency", "submissionValue": "UHDR127A", "synonyms": ["UHDR1-Self-esteem/Guilt: Frequency"]}, {"conceptId": "C155409", "definition": "Unified Huntington's Disease Rating Scale '99 - Self-esteem/guilt: Severity: How have these feelings affected your daily activities?", "preferredTerm": "UHDRS 1999 Version - Self-esteem/Guilt: Severity", "submissionValue": "UHDR127B", "synonyms": ["UHDR1-Self-esteem/Guilt: Severity"]}, {"conceptId": "C155410", "definition": "Unified Huntington's Disease Rating Scale '99 - Suicidal thoughts: Frequency: Within the past month, how often have you thought about hurting yourself or ending it all?", "preferredTerm": "UHDRS 1999 Version - Suicidal Thoughts: Frequency", "submissionValue": "UHDR128A", "synonyms": ["UHDR1-Suicidal Thoughts: Frequency"]}, {"conceptId": "C155411", "definition": "Unified Huntington's Disease Rating Scale '99 - Suicidal thoughts: Severity: Do you have a plan in mind to end it all? Have you taken any steps toward carrying out your plan?", "preferredTerm": "UHDRS 1999 Version - Suicidal Thoughts: Severity", "submissionValue": "UHDR128B", "synonyms": ["UHDR1-Suicidal Thoughts: Severity"]}, {"conceptId": "C155412", "definition": "Unified Huntington's Disease Rating Scale '99 - Anxiety: Frequency: Within the past month, how often have you found yourself worrying about things?", "preferredTerm": "UHDRS 1999 Version - Anxiety: Frequency", "submissionValue": "UHDR129A", "synonyms": ["UHDR1-Anxiety: Frequency"]}, {"conceptId": "C155413", "definition": "Unified Huntington's Disease Rating Scale '99 - Anxiety: Severity: How much has nervousness or worry affected your daily activities?", "preferredTerm": "UHDRS 1999 Version - Anxiety: Severity", "submissionValue": "UHDR129B", "synonyms": ["UHDR1-Anxiety: Severity"]}, {"conceptId": "C155414", "definition": "Unified Huntington's Disease Rating Scale '99 - Irritable behavior: Frequency: In the past month, how often have you felt impatient, irritable, or \"cranky\"?", "preferredTerm": "UHDRS 1999 Version - Irritable Behavior: Frequency", "submissionValue": "UHDR130A", "synonyms": ["UHDR1-Irritable Behavior: Frequency"]}, {"conceptId": "C155415", "definition": "Unified Huntington's Disease Rating Scale '99 - Irritable behavior: Severity: How has irritability impacted your ability to get along with others?", "preferredTerm": "UHDRS 1999 Version - Irritable Behavior: Severity", "submissionValue": "UHDR130B", "synonyms": ["UHDR1-Irritable Behavior: Severity"]}, {"conceptId": "C155416", "definition": "Unified Huntington's Disease Rating Scale '99 - Disruptive or aggressive behavior: Frequency: Within the past month, how often have you had emotional or temper outbursts? How often have you had times when you lost control of yourself?", "preferredTerm": "UHDRS 1999 Version - Disruptive Behavior: Frequency", "submissionValue": "UHDR131A", "synonyms": ["UHDR1-Disruptive Behavior: Frequency"]}, {"conceptId": "C155417", "definition": "Unified Huntington's Disease Rating Scale '99 - Disruptive or aggressive behavior: Severity: Have you used threats or hostile words? Have you hit or shoved or thrown things or expressed your temper in a physical way?", "preferredTerm": "UHDRS 1999 Version - UDHR1-Disruptive Behavior: Severity", "submissionValue": "UHDR131B", "synonyms": ["UDHR1-Disruptive Behavior: Severity"]}, {"conceptId": "C155418", "definition": "Unified Huntington's Disease Rating Scale '99 - Perseverative/obsessional thinking: Frequency: Within the past month, how often have you found yourself getting stuck on certain ideas? How often have you been bothered by thoughts, images, or fears that keep coming back even if you try not to have them?", "preferredTerm": "UHDRS 1999 Version - Perseverative Thinking: Frequency", "submissionValue": "UHDR132A", "synonyms": ["UHDR1-Perseverative Thinking: Frequency"]}, {"conceptId": "C155419", "definition": "Unified Huntington's Disease Rating Scale '99 - Perseverative/obsessional thinking: Severity: Have do repeated thoughts impact your daily life?", "preferredTerm": "UHDRS 1999 Version - UDHR1-Perseverative Thinking: Severity", "submissionValue": "UHDR132B", "synonyms": ["UDHR1-Perseverative Thinking: Severity"]}, {"conceptId": "C155420", "definition": "Unified Huntington's Disease Rating Scale '99 - Compulsive behavior: Frequency: Within the past month, how often have you found yourself doing certain things over and over again (counting, washing, checking)?", "preferredTerm": "UHDRS 1999 Version - Compulsive Behavior: Frequency", "submissionValue": "UHDR133A", "synonyms": ["UHDR1-Compulsive Behavior: Frequency"]}, {"conceptId": "C155421", "definition": "Unified Huntington's Disease Rating Scale '99 - Compulsive behavior: Severity: Are you unable to resist doing some of these things?", "preferredTerm": "UHDRS 1999 Version - UDHR1-Compulsive Behavior: Severity", "submissionValue": "UHDR133B", "synonyms": ["UDHR1-Compulsive Behavior: Severity"]}, {"conceptId": "C155422", "definition": "Unified Huntington's Disease Rating Scale '99 - Delusions: Frequency: How often does it seem like people are out to get you, people are controlling you, or you are very suspicious of others? Do you have special powers or importance?", "preferredTerm": "UHDRS 1999 Version - Delusions: Frequency", "submissionValue": "UHDR134A", "synonyms": ["UHDR1-Delusions: Frequency"]}, {"conceptId": "C155423", "definition": "Unified Huntington's Disease Rating Scale '99 - Delusions: Severity: When you feel suspicious (insert delusion here), are you able to convince yourself that it is not rational? [Severity should reflect the behavior's impact on the individual's ability to carry out daily activities as indicated by response choices.].", "preferredTerm": "UHDRS 1999 Version - UDHR1-Delusions: Severity", "submissionValue": "UHDR134B", "synonyms": ["UDHR1-Delusions: Severity"]}, {"conceptId": "C155424", "definition": "Unified Huntington's Disease Rating Scale '99 - Hallucinations: Frequency: How often have you heard things that other people couldn't hear, or seen things that other people couldn't see?", "preferredTerm": "UHDRS 1999 Version - Hallucinations: Frequency", "submissionValue": "UHDR135A", "synonyms": ["UHDR1-Hallucinations: Frequency"]}, {"conceptId": "C155425", "definition": "Unified Huntington's Disease Rating Scale '99 - Hallucinations: Severity: When you see or hear things (insert hallucination here), are you able to convince yourself that it is not rational? [Severity should reflect the behavior's impact on the individual's ability to carry out daily activities as indicated by response choices.].", "preferredTerm": "UHDRS 1999 Version - UDHR1-Hallucinations: Severity", "submissionValue": "UHDR135B", "synonyms": ["UDHR1-Hallucinations: Severity"]}, {"conceptId": "C155426", "definition": "Unified Huntington's Disease Rating Scale '99 - Confusion is defined as intermittent or persistent disorganized thinking, perceptual disturbances or disorientation to time, place, or person. Does the examiner believe the subject is confused?", "preferredTerm": "UHDRS 1999 Version - UDHR1-Examiner Believe Subject Confused", "submissionValue": "UHDR136", "synonyms": ["UDHR1-Examiner Believe Subject Confused"]}, {"conceptId": "C155427", "definition": "Unified Huntington's Disease Rating Scale '99 - If yes: Does the examiner believe that this has altered the performance on the UHDRS?", "preferredTerm": "UHDRS 1999 Version - UDHR1-Confusion Altered Performance", "submissionValue": "UHDR136A", "synonyms": ["UDHR1-Confusion Altered Performance"]}, {"conceptId": "C155428", "definition": "Unified Huntington's Disease Rating Scale '99 - Dementia is defined as progressive impairment in memory, abstract thinking or judgment that interferes with work or usual social activities and relationships. Does the examiner believe that the participant is showing signs of dementia?", "preferredTerm": "UHDRS 1999 Version - UDHR1-Examiner Believe Signs of Dementia", "submissionValue": "UHDR137", "synonyms": ["UDHR1-Examiner Believe Signs of Dementia"]}, {"conceptId": "C155429", "definition": "Unified Huntington's Disease Rating Scale '99 - If yes: Does the examiner believe that this has altered the performance on the UHDRS?", "preferredTerm": "UHDRS 1999 Version - UDHR1-Dementia Altered Performance", "submissionValue": "UHDR137A", "synonyms": ["UDHR1-Dementia Altered Performance"]}, {"conceptId": "C155430", "definition": "Unified Huntington's Disease Rating Scale '99 - Depression is defined as persistent depressed mood, anhedonia, or vegetative signs sufficient to interfere with daily functioning. Does the examiner believe that the participant is showing signs of depression?", "preferredTerm": "UHDRS 1999 Version - UDHR1-Examiner Believe Signs Depression", "submissionValue": "UHDR138", "synonyms": ["UDHR1-Examiner Believe Signs Depression"]}, {"conceptId": "C155431", "definition": "Unified Huntington's Disease Rating Scale '99 - In the opinion of the examiner, is a clinical evaluation or follow up warranted for possible pharmacotherapy of depression?", "preferredTerm": "UHDRS 1999 Version - Pharmacotherapy of Depression", "submissionValue": "UHDR139", "synonyms": ["UHDR1-Pharmacotherapy of Depression"]}, {"conceptId": "C155432", "definition": "Unified Huntington's Disease Rating Scale '99 - In the opinion of the examiner, is a clinical evaluation or follow up warranted for possible pharmacotherapy of irritability?", "preferredTerm": "UHDRS 1999 Version - Pharmacotherapy of Irritability", "submissionValue": "UHDR140", "synonyms": ["UHDR1-Pharmacotherapy of Irritability"]}, {"conceptId": "C155433", "definition": "Unified Huntington's Disease Rating Scale '99 - Was the Behavioral Assessment information obtained from.", "preferredTerm": "UHDRS 1999 Version - Behavior Assessment Obtained From", "submissionValue": "UHDR141", "synonyms": ["UHDR1-Behavior Assessment Obtained From"]}, {"conceptId": "C155434", "definition": "Unified Huntington's Disease Rating Scale '99 - Could the subject engage in gainful employment in his/her accustomed work?", "preferredTerm": "UHDRS 1999 Version - Gainful Employment Accustomed Work", "submissionValue": "UHDR143", "synonyms": ["UHDR1-Gainful Employment Accustomed Work"]}, {"conceptId": "C155435", "definition": "Unified Huntington's Disease Rating Scale '99 - Could the subject engage in any kind of gainful employment?", "preferredTerm": "UHDRS 1999 Version - Any Gainful Employment", "submissionValue": "UHDR144", "synonyms": ["UHDR1-Any Gainful Employment"]}, {"conceptId": "C155436", "definition": "Unified Huntington's Disease Rating Scale '99 - Could the subject engage in any kind of volunteer or non gainful work?", "preferredTerm": "UHDRS 1999 Version - Volunteer or Non Gainful Work", "submissionValue": "UHDR145", "synonyms": ["UHDR1-Volunteer or Non Gainful Work"]}, {"conceptId": "C155437", "definition": "Unified Huntington's Disease Rating Scale '99 - Could the subject manage his/her finances (monthly) without any help?", "preferredTerm": "UHDRS 1999 Version - Manage Finances Without Help", "submissionValue": "UHDR146", "synonyms": ["UHDR1-Manage Finances Without Help"]}, {"conceptId": "C155438", "definition": "Unified Huntington's Disease Rating Scale '99 - Could the subject shop for groceries without help?", "preferredTerm": "UHDRS 1999 Version - Shop for Groceries Without Help", "submissionValue": "UHDR147", "synonyms": ["UHDR1-Shop for Groceries Without Help"]}, {"conceptId": "C155439", "definition": "Unified Huntington's Disease Rating Scale '99 - Could the subject handle money as a purchaser in a simple cash (store) transaction?", "preferredTerm": "UHDRS 1999 Version - Handle Money as Purchaser", "submissionValue": "UHDR148", "synonyms": ["UHDR1-Handle Money as Purchaser"]}, {"conceptId": "C155440", "definition": "Unified Huntington's Disease Rating Scale '99 - Could the subject supervise children without help?", "preferredTerm": "UHDRS 1999 Version - Supervise Children Without Help", "submissionValue": "UHDR149", "synonyms": ["UHDR1-Supervise Children Without Help"]}, {"conceptId": "C155441", "definition": "Unified Huntington's Disease Rating Scale '99 - Could the subject operate an automobile safely and independently?", "preferredTerm": "UHDRS 1999 Version - Operate Automobile Safely", "submissionValue": "UHDR150", "synonyms": ["UHDR1-Operate Automobile Safely"]}, {"conceptId": "C155442", "definition": "Unified Huntington's Disease Rating Scale '99 - Could the subject do his/her own housework without help?", "preferredTerm": "UHDRS 1999 Version - Do Housework Without Help", "submissionValue": "UHDR151", "synonyms": ["UHDR1-Do Housework Without Help"]}, {"conceptId": "C155443", "definition": "Unified Huntington's Disease Rating Scale '99 - Could the subject do his/her own laundry (wash/dry) without help?", "preferredTerm": "UHDRS 1999 Version - Do Laundry Without Help", "submissionValue": "UHDR152", "synonyms": ["UHDR1-Do Laundry Without Help"]}, {"conceptId": "C155444", "definition": "Unified Huntington's Disease Rating Scale '99 - Could the subject prepare his/her own meals without help?", "preferredTerm": "UHDRS 1999 Version - Prepare Own Meals Without Help", "submissionValue": "UHDR153", "synonyms": ["UHDR1-Prepare Own Meals Without Help"]}, {"conceptId": "C155445", "definition": "Unified Huntington's Disease Rating Scale '99 - Could the subject use the telephone without help?", "preferredTerm": "UHDRS 1999 Version - Use Telephone Without Help", "submissionValue": "UHDR154", "synonyms": ["UHDR1-Use Telephone Without Help"]}, {"conceptId": "C155446", "definition": "Unified Huntington's Disease Rating Scale '99 - Could the subject take his/her own medications without help?", "preferredTerm": "UHDRS 1999 Version - Take Medications Without Help", "submissionValue": "UHDR155", "synonyms": ["UHDR1-Take Medications Without Help"]}, {"conceptId": "C155447", "definition": "Unified Huntington's Disease Rating Scale '99 - Could the subject feed himself/herself without help?", "preferredTerm": "UHDRS 1999 Version - Feed Himself/Herself Without Help", "submissionValue": "UHDR156", "synonyms": ["UHDR1-Feed Himself/Herself Without Help"]}, {"conceptId": "C155448", "definition": "Unified Huntington's Disease Rating Scale '99 - Could the subject dress himself/herself without help?", "preferredTerm": "UHDRS 1999 Version - Dress Himself/Herself Without Help", "submissionValue": "UHDR157", "synonyms": ["UHDR1-Dress Himself/Herself Without Help"]}, {"conceptId": "C155449", "definition": "Unified Huntington's Disease Rating Scale '99 - Could the subject bathe himself/herself without help?", "preferredTerm": "UHDRS 1999 Version - Bathe Himself/Herself Without Help", "submissionValue": "UHDR158", "synonyms": ["UHDR1-Bathe Himself/Herself Without Help"]}, {"conceptId": "C155450", "definition": "Unified Huntington's Disease Rating Scale '99 - Could the subject use public transportation to get places without help?", "preferredTerm": "UHDRS 1999 Version - Public Transportation Without Help", "submissionValue": "UHDR159", "synonyms": ["UHDR1-Public Transportation Without Help"]}, {"conceptId": "C155451", "definition": "Unified Huntington's Disease Rating Scale '99 - Could the subject walk to places in his/her own neighborhood without help?", "preferredTerm": "UHDRS 1999 Version - Walk Own Neighborhood Without Help", "submissionValue": "UHDR160", "synonyms": ["UHDR1-Walk Own Neighborhood Without Help"]}, {"conceptId": "C155452", "definition": "Unified Huntington's Disease Rating Scale '99 - Could the subject walk without falling?", "preferredTerm": "UHDRS 1999 Version - Walk Without Falling", "submissionValue": "UHDR161", "synonyms": ["UHDR1-Walk Without Falling"]}, {"conceptId": "C155453", "definition": "Unified Huntington's Disease Rating Scale '99 - Could the subject walk without help?", "preferredTerm": "UHDRS 1999 Version - Walk Without Help", "submissionValue": "UHDR162", "synonyms": ["UHDR1-Walk Without Help"]}, {"conceptId": "C155454", "definition": "Unified Huntington's Disease Rating Scale '99 - Could the subject comb hair without help?", "preferredTerm": "UHDRS 1999 Version - Comb Hair Without Help", "submissionValue": "UHDR163", "synonyms": ["UHDR1-Comb Hair Without Help"]}, {"conceptId": "C155455", "definition": "Unified Huntington's Disease Rating Scale '99 - Could the subject transfer between chairs without help?", "preferredTerm": "UHDRS 1999 Version - Transfer Chair Without Help", "submissionValue": "UHDR164", "synonyms": ["UHDR1-Transfer Chair Without Help"]}, {"conceptId": "C155456", "definition": "Unified Huntington's Disease Rating Scale '99 - Could the subject get in and out of bed without help?", "preferredTerm": "UHDRS 1999 Version - Get in and Out of Bed Without Help", "submissionValue": "UHDR165", "synonyms": ["UHDR1-Get in and Out of Bed Without Help"]}, {"conceptId": "C155457", "definition": "Unified Huntington's Disease Rating Scale '99 - Could the subject use the toilet/commode without help?", "preferredTerm": "UHDRS 1999 Version - Use Toilet/Commode Without Help", "submissionValue": "UHDR166", "synonyms": ["UHDR1-Use Toilet/Commode Without Help"]}, {"conceptId": "C155458", "definition": "Unified Huntington's Disease Rating Scale '99 - Could the subject's care still be provided at home?", "preferredTerm": "UHDRS 1999 Version - Care Provided at Home", "submissionValue": "UHDR167", "synonyms": ["UHDR1-Care Provided at Home"]}, {"conceptId": "C155459", "definition": "Unified Huntington's Disease Rating Scale '99 - Was the Functional Assessment information obtained from.", "preferredTerm": "UHDRS 1999 Version - Functional Assess Obtained From", "submissionValue": "UHDR168", "synonyms": ["UHDR1-Functional Assess Obtained From"]}, {"conceptId": "C155460", "definition": "Unified Huntington's Disease Rating Scale '99 - Please indicate the most accurate current level of subject's independence (only increments of 5 are acceptable).", "preferredTerm": "UHDRS 1999 Version - Current Level Subject Independence", "submissionValue": "UHDR169", "synonyms": ["UHDR1-Current Level Subject Independence"]}, {"conceptId": "C155461", "definition": "Unified Huntington's Disease Rating Scale '99 - Occupation.", "preferredTerm": "UHDRS 1999 Version - Occupation", "submissionValue": "UHDR170", "synonyms": ["UHDR1-Occupation"]}, {"conceptId": "C155462", "definition": "Unified Huntington's Disease Rating Scale '99 - Finances.", "preferredTerm": "UHDRS 1999 Version - Finances", "submissionValue": "UHDR171", "synonyms": ["UHDR1-Finances"]}, {"conceptId": "C155463", "definition": "Unified Huntington's Disease Rating Scale '99 - Domestic Chores.", "preferredTerm": "UHDRS 1999 Version - Domestic Chores", "submissionValue": "UHDR172", "synonyms": ["UHDR1-Domestic Chores"]}, {"conceptId": "C155464", "definition": "Unified Huntington's Disease Rating Scale '99 - ADL.", "preferredTerm": "UHDRS 1999 Version - ADL", "submissionValue": "UHDR173", "synonyms": ["UHDR1-ADL"]}, {"conceptId": "C155465", "definition": "Unified Huntington's Disease Rating Scale '99 - Care Level.", "preferredTerm": "UHDRS 1999 Version - Care Level", "submissionValue": "UHDR174", "synonyms": ["UHDR1-Care Level"]}, {"conceptId": "C155466", "definition": "Unified Huntington's Disease Rating Scale '99 - Was the Functional Capacity information obtained from.", "preferredTerm": "UHDRS 1999 Version - Functional Capacity Obtained From", "submissionValue": "UHDR175", "synonyms": ["UHDR1-Functional Capacity Obtained From"]}, {"conceptId": "C155467", "definition": "Unified Huntington's Disease Rating Scale '99 - What was the purpose of this visit?", "preferredTerm": "UHDRS 1999 Version - Purpose of This Visit", "submissionValue": "UHDR177", "synonyms": ["UHDR1-Purpose of This Visit"]}, {"conceptId": "C155468", "definition": "Unified Huntington's Disease Rating Scale '99 - Since your last assessment of the subject, in your opinion, has the subject.", "preferredTerm": "UHDRS 1999 Version - Since Last Assessment Opinion", "submissionValue": "UHDR178", "synonyms": ["UHDR1-Since Last Assessment Opinion"]}, {"conceptId": "C155469", "definition": "Unified Huntington's Disease Rating Scale '99 - Since your last assessment does the subject feel.", "preferredTerm": "UHDRS 1999 Version - Since Last Assessment Feel", "submissionValue": "UHDR179", "synonyms": ["UHDR1-Since Last Assessment Feel"]}, {"conceptId": "C155470", "definition": "Unified Huntington's Disease Rating Scale '99 - Based on the entire UHDRS (Motor, Cognitive, Behavioral and Functional components) do you believe with a confidence level >= 99% that this subject has manifest HD?", "preferredTerm": "UHDRS 1999 Version - Believe Subject Has Manifest HD", "submissionValue": "UHDR180", "synonyms": ["UHDR1-Believe Subject Has Manifest HD"]}, {"conceptId": "C155471", "definition": "Unified Huntington's Disease Rating Scale '99 - Since the last visit, has the subject been permanently institutionalized?", "preferredTerm": "UHDRS 1999 Version - Permanently Institutionalized", "submissionValue": "UHDR183A", "synonyms": ["UHDR1-Permanently Institutionalized"]}, {"conceptId": "C155472", "definition": "Unified Huntington's Disease Rating Scale '99 - If the subject was institutionalized will the subject continue to be assessed for this study?", "preferredTerm": "UHDRS 1999 Version - Continue to Be Assessed for Study", "submissionValue": "UHDR183B", "synonyms": ["UHDR1-Continue to Be Assessed for Study"]}, {"conceptId": "C155473", "definition": "Unified Huntington's Disease Rating Scale '99 - Total Motor score.", "preferredTerm": "UHDRS 1999 Version - Total Motor Score", "submissionValue": "UHDR184", "synonyms": ["UHDR1-Total Motor Score"]}, {"conceptId": "C155474", "definition": "Unified Huntington's Disease Rating Scale '99 - Total Behavior score.", "preferredTerm": "UHDRS 1999 Version - Total Behavior Score", "submissionValue": "UHDR185", "synonyms": ["UHDR1-Total Behavior Score"]}, {"conceptId": "C155475", "definition": "Unified Huntington's Disease Rating Scale '99 - Mood subscale score of the total behavior score.", "preferredTerm": "UHDRS 1999 Version - Mood Subscale Score", "submissionValue": "UHDR186", "synonyms": ["UHDR1-Mood Subscale Score"]}, {"conceptId": "C155476", "definition": "Unified Huntington's Disease Rating Scale '99 - Behavior subscale score of the total behavior score.", "preferredTerm": "UHDRS 1999 Version - Behavior Subscale Score", "submissionValue": "UHDR187", "synonyms": ["UHDR1-Behavior Subscale Score"]}, {"conceptId": "C155477", "definition": "Unified Huntington's Disease Rating Scale '99 - Psychosis subscale score of the total behavior score.", "preferredTerm": "UHDRS 1999 Version - Psychosis Subscale Score", "submissionValue": "UHDR188", "synonyms": ["UHDR1-Psychosis Subscale Score"]}, {"conceptId": "C155478", "definition": "Unified Huntington's Disease Rating Scale '99 - Obsessive subscale score of the total behavior score.", "preferredTerm": "UHDRS 1999 Version - Obsessive Subscale Score", "submissionValue": "UHDR189", "synonyms": ["UHDR1-Obsessive Subscale Score"]}, {"conceptId": "C155479", "definition": "Unified Huntington's Disease Rating Scale '99 - Total functional capacity score.", "preferredTerm": "UHDRS 1999 Version - Total Functional Capacity Score", "submissionValue": "UHDR190", "synonyms": ["UHDR1-Total Functional Capacity Score"]}, {"conceptId": "C155480", "definition": "Unified Huntington's Disease Rating Scale '99 - Independence scale score.", "preferredTerm": "UHDRS 1999 Version - Independence Scale Score", "submissionValue": "UHDR191", "synonyms": ["UHDR1-Independence Scale Score"]}, {"conceptId": "C155481", "definition": "Unified Huntington's Disease Rating Scale '99 - Functional checklist score.", "preferredTerm": "UHDRS 1999 Version - Functional Checklist Score", "submissionValue": "UHDR192", "synonyms": ["UHDR1-Functional Checklist Score"]}]}