{"_links": {"parentPackage": {"href": "/mdr/ct/packages/sdtmct-2018-12-21", "title": "SDTM Controlled Terminology Package 36 Effective 2018-12-21", "type": "Terminology"}, "priorVersion": {"href": "/mdr/ct/packages/sdtmct-2018-09-28/codelists/C66734", "title": "CDISC SDTM Submission Domain Abbreviation Terminology", "type": "Code List"}, "rootItem": {"href": "/mdr/root/ct/sdtmct/codelists/C66734", "title": "Version-agnostic anchor resource for codelist C66734", "type": "Root Value Domain"}, "self": {"href": "/mdr/ct/packages/sdtmct-2018-12-21/codelists/C66734", "title": "CDISC SDTM Submission Domain Abbreviation Terminology", "type": "Code List"}}, "conceptId": "C66734", "definition": "A unique, 2-character domain code used in the regulatory submission process. The domain abbreviation is used consistently throughout the submission, i.e. in the dataset name, as the value of the domain variable within the dataset, and as a prefix for most variable names in the dataset. (CDISC Glossary)", "extensible": "true", "name": "SDTM Domain Abbreviation", "preferredTerm": "CDISC SDTM Submission Domain Abbreviation Terminology", "submissionValue": "DOMAIN", "synonyms": ["SDTM Domain Abbreviation"], "terms": [{"conceptId": "C49563", "definition": "A two-letter prefix used to denote ADaM-compliant analysis datasets used for statistical analysis and reporting by the sponsor. These are submitted in addition to the data tabulation datasets.", "preferredTerm": "Analysis Dataset Domain", "submissionValue": "AD", "synonyms": ["Analysis Dataset"]}, {"conceptId": "C49562", "definition": "An events domain that contains data describing untoward medical occurrences in a patient or subjects that are administered a pharmaceutical product and which may not necessarily have a causal relationship with the treatment.", "preferredTerm": "Adverse Event Domain", "submissionValue": "AE", "synonyms": ["Adverse Events"]}, {"conceptId": "C117755", "definition": "An interventions domain that contains the agents administered to the subject as part of a procedure or assessment, as opposed to drugs, medications and therapies administered with therapeutic intent.", "preferredTerm": "Procedure Agents Domain", "submissionValue": "AG", "synonyms": ["Procedure Agents"]}, {"conceptId": "C147168", "definition": "The adverse events domain for those persons associated with the study itself, a particular study subject, or a device used in the study.", "preferredTerm": "Associated Persons Adverse Events Domain", "submissionValue": "APAE", "synonyms": ["Associated Persons Adverse Events"]}, {"conceptId": "C147169", "definition": "The biospecimen domain for those persons associated with the study itself, a particular study subject, or a device used in the study.", "preferredTerm": "Associated Persons Biospecimen Domain", "submissionValue": "APBS", "synonyms": ["Associated Persons Biospecimen"]}, {"conceptId": "C147170", "definition": "The death details domain for those persons associated with the study itself, a particular study subject, or a device used in the study.", "preferredTerm": "Associated Persons Death Details Domain", "submissionValue": "APDD", "synonyms": ["Associated Persons Death Details"]}, {"conceptId": "C132354", "definition": "The demographics domain for those persons associated with the study itself, a particular study subject, or a device used in the study.", "preferredTerm": "Associated Persons Demographics Submission Domain", "submissionValue": "APDM", "synonyms": ["Associated Persons Demographics"]}, {"conceptId": "C147171", "definition": "The exposure domain for those persons associated with the study itself, a particular study subject, or a device used in the study.", "preferredTerm": "Associated Persons Exposure Domain", "submissionValue": "APEX", "synonyms": ["Associated Persons Exposure"]}, {"conceptId": "C147172", "definition": "The laboratory test results domain for those persons associated with the study itself, a particular study subject, or a device used in the study.", "preferredTerm": "Associated Persons Laboratory Test Results Domain", "submissionValue": "APLB", "synonyms": ["Associated Persons Laboratory Test Results"]}, {"conceptId": "C147173", "definition": "The medical history domain for those persons associated with the study itself, a particular study subject, or a device used in the study.", "preferredTerm": "Associated Persons Medical History Domain", "submissionValue": "APMH", "synonyms": ["Associated Persons Medical History"]}, {"conceptId": "C147174", "definition": "The questionnaires domain for those persons associated with the study itself, a particular study subject, or a device used in the study.", "preferredTerm": "Associated Persons Questionnaires Domain", "submissionValue": "APQS", "synonyms": ["Associated Persons Questionnaires"]}, {"conceptId": "C147175", "definition": "A dataset used to represent relationships between associated persons (individuals who are not study subjects, but about whom data is collected) and study subjects.", "preferredTerm": "Relationship between Associated Persons and Subjects Domain", "submissionValue": "APRELSUB", "synonyms": ["Relationship between Associated Persons and Subjects"]}, {"conceptId": "C147176", "definition": "The reproductive system findings domain for those persons associated with the study itself, a particular study subject, or a device used in the study.", "preferredTerm": "Associated Persons Reproductive System Findings Domain", "submissionValue": "APRP", "synonyms": ["Associated Persons Reproductive System Findings"]}, {"conceptId": "C147177", "definition": "The subject characteristics domain for those persons associated with the study itself, a particular study subject, or a device used in the study.", "preferredTerm": "Associated Persons Subject Characteristics Domain", "submissionValue": "APSC", "synonyms": ["Associated Persons Subject Characteristics"]}, {"conceptId": "C147178", "definition": "The subject status domain for those persons associated with the study itself, a particular study subject, or a device used in the study.", "preferredTerm": "Associated Persons Subject Status Domain", "submissionValue": "APSS", "synonyms": ["Associated Persons Subject Status"]}, {"conceptId": "C147179", "definition": "The substance use domain for those persons associated with the study itself, a particular study subject, or a device used in the study.", "preferredTerm": "Associated Persons Substance Use Domain", "submissionValue": "APSU", "synonyms": ["Associated Persons Substance Use"]}, {"conceptId": "C111282", "definition": "A two-letter prefix used to denote an analysis dataset that is not compliant with a defined ADaM structure.", "preferredTerm": "Non-Compliant ADaM Datasets Domain", "submissionValue": "AX", "synonyms": ["Non-Compliant ADaM Dataset"]}, {"conceptId": "C111138", "definition": "An events domain that documents biospecimen collection and storage information.", "preferredTerm": "Biospecimen Events Domain", "submissionValue": "BE", "synonyms": ["Biospecimen Events"]}, {"conceptId": "C111137", "definition": "A findings domain that documents biospecimen handling information.", "preferredTerm": "Biospecimen Domain", "submissionValue": "BS", "synonyms": ["Biospecimen Findings"]}, {"conceptId": "C85441", "definition": "An events domain that contains clinical events of interest that would not be classified as adverse events.", "preferredTerm": "Clinical Events Domain", "submissionValue": "CE", "synonyms": ["Clinical Events"]}, {"conceptId": "C49568", "definition": "An interventions domain that contains concomitant and prior medications used by the subject, such as those given on an as needed basis or condition-appropriate medications.", "preferredTerm": "Concomitant Medication Domain", "submissionValue": "CM", "synonyms": ["Concomitant/Prior Medications"]}, {"conceptId": "C49569", "definition": "A special-purpose domain that contains comments that may be collected alongside other data.", "preferredTerm": "Comment Domain", "submissionValue": "CO", "synonyms": ["Comments"]}, {"conceptId": "C102605", "definition": "A findings domain that contains physiological and morphological findings related to the cardiovascular system, including the heart, blood vessels and lymphatic vessels.", "preferredTerm": "Cardiovascular System Findings Domain", "submissionValue": "CV", "synonyms": ["Cardiovascular System Findings"]}, {"conceptId": "C49578", "definition": "A findings domain that contains the accountability of study drug, such as information on the receipt, dispensing, return, and packaging.", "preferredTerm": "Drug Accountability Domain", "submissionValue": "DA", "synonyms": ["Drug Accountability"]}, {"conceptId": "C95087", "definition": "A findings domain that contains the diagnosis of the cause of death for a subject.", "preferredTerm": "Death Diagnosis Domain", "submissionValue": "DD", "synonyms": ["Death Details", "Death Diagnosis and Details"]}, {"conceptId": "C102616", "definition": "An events domain that contains data for device-related events.", "preferredTerm": "Device Events Domain", "submissionValue": "DE", "synonyms": ["Device Events"]}, {"conceptId": "C102618", "definition": "A special-purpose domain containing information that identifies a specific device unit.", "preferredTerm": "Device Identifiers Domain", "submissionValue": "DI", "synonyms": ["Device Identifiers"]}, {"conceptId": "C49572", "definition": "A special-purpose domain that includes a set of essential standard variables that describe each subject in a clinical study. It is the parent domain for all other observations for human clinical subjects.", "preferredTerm": "Demographics Domain", "submissionValue": "DM", "synonyms": ["Demographics"]}, {"conceptId": "C102619", "definition": "A findings domain that contains the device characteristics that do not vary over the course of the study.", "preferredTerm": "Device Properties Domain", "submissionValue": "DO", "synonyms": ["Device Properties"]}, {"conceptId": "C102620", "definition": "A special-purpose domain that contains the linkage of each subject to the device(s) to which they may have been exposed during the study.", "preferredTerm": "Device to Subject Relationship Domain", "submissionValue": "DR", "synonyms": ["Device-Subject Relationships"]}, {"conceptId": "C49576", "definition": "An events domain that contains information encompassing and representing data related to subject disposition.", "preferredTerm": "Disposition Domain", "submissionValue": "DS", "synonyms": ["Disposition"]}, {"conceptId": "C102621", "definition": "A events domain that contains the logistics and disposition information specific to a given device.", "preferredTerm": "Device Tracking and Disposition Domain", "submissionValue": "DT", "synonyms": ["Device Tracking and Disposition"]}, {"conceptId": "C102622", "definition": "A findings domain that contains the measurements and settings that are intentionally set on a device when it is in use. These are characteristics that exist for the device, and have a specific setting for a use instance.", "preferredTerm": "Device-In-Use Domain", "submissionValue": "DU", "synonyms": ["Device In-Use"]}, {"conceptId": "C49585", "definition": "An events domain that contains protocol violations and deviations during the course of the study.", "preferredTerm": "Protocol Deviations Domain", "submissionValue": "DV", "synonyms": ["Protocol Deviations"]}, {"conceptId": "C102617", "definition": "An interventions domain that contains a subject's exposure to a medical device under study.", "preferredTerm": "Device Exposure Domain", "submissionValue": "DX", "synonyms": ["Device Exposure"]}, {"conceptId": "C117466", "definition": "An interventions domain that contains information about protocol-specified study treatment administrations, as collected.", "preferredTerm": "Exposure as Collected Domain", "submissionValue": "EC", "synonyms": ["Exposure as Collected"]}, {"conceptId": "C102630", "definition": "A findings domain that contains physiological and morphological findings related to the endocrine system, including the glands and cells that make hormones that are released directly into the blood and travel to tissues and organs all over the body.", "preferredTerm": "Endocrine System Findings Domain", "submissionValue": "ED", "synonyms": ["Endocrine System Findings"]}, {"conceptId": "C49626", "definition": "A findings domain that contains ECG data, including position of the subject, method of evaluation, all cycle measurements and all findings from the ECG including an overall interpretation if collected or derived.", "preferredTerm": "Electrocardiogram Domain", "submissionValue": "EG", "synonyms": ["ECG Test Results"]}, {"conceptId": "C49587", "definition": "An interventions domain that contains the details of a subject's exposure to protocol-specified study treatment. Study treatment may be any intervention that is prospectively defined as a test material within a study, and is typically but not always supplied to the subject.", "preferredTerm": "Exposure Domain", "submissionValue": "EX", "synonyms": ["Exposure"]}, {"conceptId": "C85442", "definition": "A findings domain that contains the findings about an event or intervention that cannot be represented within an events or interventions domain record or as a supplemental qualifier.", "preferredTerm": "Findings About Events or Interventions Domain", "submissionValue": "FA", "synonyms": ["Findings About Events or Interventions"]}, {"conceptId": "C117756", "definition": "A findings domain that contains data for named, stand-alone, task-based evaluations designed to provide an assessment of mobility, dexterity, or cognitive ability.", "preferredTerm": "Functional Tests Domain", "submissionValue": "FT", "synonyms": ["Functional Tests"]}, {"conceptId": "C102640", "definition": "A findings domain that contains physiological and morphological findings related to the gastrointestinal system, including the esophagus, stomach, small and large intestine, anus, liver, biliary tract and pancreas.", "preferredTerm": "Digestive System Findings Domain", "submissionValue": "GI", "synonyms": ["Gastrointestinal System Findings"]}, {"conceptId": "C102641", "definition": "A findings domain that contains physiological and morphological findings related to the hematopoietic system, including the bone marrow and lymph nodes involved in the production of blood.", "preferredTerm": "Hematopoietic System Findings Domain", "submissionValue": "HM", "synonyms": ["Hematopoietic System Findings"]}, {"conceptId": "C117757", "definition": "A events domain that contains data for inpatient and outpatient healthcare events (e.g., hospitalization, nursing home stay, rehabilitation facility stay, ambulatory surgery).", "preferredTerm": "Healthcare Encounters Domain", "submissionValue": "HO", "synonyms": ["Healthcare Encounters"]}, {"conceptId": "C61536", "definition": "A findings domain that contains those criteria that cause the subject to be in violation of the inclusion/exclusion criteria.", "preferredTerm": "Inclusion Exclusion Criteria Not Met Domain", "submissionValue": "IE", "synonyms": ["Inclusion/Exclusion Criteria Not Met"]}, {"conceptId": "C112320", "definition": "A findings domain for assessments that determine whether a therapy induced an immune response.", "preferredTerm": "Immunogenicity Specimen Assessments Domain", "submissionValue": "IS", "synonyms": ["Immunogenicity Specimen Assessments"]}, {"conceptId": "C49592", "definition": "A findings domain that contains laboratory test data such as hematology, clinical chemistry and urinalysis. This domain does not include microbiology or pharmacokinetic data, which are stored in separate domains.", "preferredTerm": "Laboratory Data Domain", "submissionValue": "LB", "synonyms": ["Laboratory Test Results"]}, {"conceptId": "C49602", "definition": "A findings domain that represents non-host organisms identified including bacteria, viruses, parasites, protozoa and fungi.", "preferredTerm": "Microbiology Specimen Domain", "submissionValue": "MB", "synonyms": ["Microbiology Specimen"]}, {"conceptId": "C49603", "definition": "An events domain that contains data that includes the subject's prior medical history at the start of the trial.", "preferredTerm": "Medical History Domain", "submissionValue": "MH", "synonyms": ["Medical History"]}, {"conceptId": "C95095", "definition": "A findings domain that contains histopathology findings and microscopic evaluations.", "preferredTerm": "Microscopic Findings Domain", "submissionValue": "MI", "synonyms": ["Microscopic Findings"]}, {"conceptId": "C102674", "definition": "A findings domain that contains physiological and morphological findings related to the system of muscles, tendons, ligaments, bones, joints, and associated tissues.", "preferredTerm": "Musculoskeletal Findings, Connective and Soft Tissue Findings Domain", "submissionValue": "MK", "synonyms": ["Musculoskeletal System Findings"]}, {"conceptId": "C49604", "definition": "An interventions domain that contains information describing a subject's food product consumption.", "preferredTerm": "Meal Data Domain", "submissionValue": "ML", "synonyms": ["Meal Data"]}, {"conceptId": "C102671", "definition": "A findings domain relevant to the science of the form and structure of an organism or of its parts.", "preferredTerm": "Morphology Findings Domain", "submissionValue": "MO", "synonyms": ["Morphology"]}, {"conceptId": "C61531", "definition": "A findings domain that represents drug susceptibility testing results only. This includes phenotypic testing (where drug is added directly to a culture of organisms) and genotypic tests that provide results in terms of susceptible or resistant. Drug susceptibility testing may occur on a wide variety of non-host organisms, including bacteria, viruses, fungi, protozoa and parasites.", "preferredTerm": "Microbiology Susceptibility Domain", "submissionValue": "MS", "synonyms": ["Microbiology Susceptibility"]}, {"conceptId": "C102677", "definition": "A findings domain that contains physiological and morphological findings related to the nervous system, including the brain, spinal cord, the cranial and spinal nerves, autonomic ganglia and plexuses.", "preferredTerm": "Nervous System Findings Domain", "submissionValue": "NV", "synonyms": ["Nervous System Findings"]}, {"conceptId": "C147180", "definition": "A findings domain that contains tests that measure a person's ocular health and visual status, to detect abnormalities in the components of the visual system, and to determine how well the person can see.", "preferredTerm": "Ophthalmic Examinations Domain", "submissionValue": "OE", "synonyms": ["Ophthalmic Examinations"]}, {"conceptId": "C106552", "definition": "A special-purpose domain that relates a set of genetic variations to an inference about the medical meaning of that set of genetic variations.", "preferredTerm": "Pharmacogenomics Biomarker Domain", "submissionValue": "PB", "synonyms": ["Pharmacogenomics Biomarker"]}, {"conceptId": "C49606", "definition": "A findings domain that contains concentrations of drugs or metabolites in fluids or tissues as a function of time.", "preferredTerm": "Pharmacokinetic Concentration Domain", "submissionValue": "PC", "synonyms": ["Pharmacokinetics Concentrations"]}, {"conceptId": "C49608", "definition": "A findings domain that contains findings observed during a physical examination where the body is evaluated by inspection, palpation, percussion, and auscultation.", "preferredTerm": "Physical Exam Domain", "submissionValue": "PE", "synonyms": ["Physical Examination"]}, {"conceptId": "C111289", "definition": "A findings domain for gene expression and genetic variation assessments.", "preferredTerm": "Pharmacogenomics Findings Domain", "submissionValue": "PF", "synonyms": ["Pharmacogenomics/Genetics Findings"]}, {"conceptId": "C61529", "definition": "A findings domain that contains supporting information for pharmacogenomics/genetics findings that applies to the entire test and not an individual findings result.", "preferredTerm": "Pharmacogenomics Domain", "submissionValue": "PG", "synonyms": ["Pharmacogenomics/Genetics Methods and Supporting Information"]}, {"conceptId": "C147181", "definition": "A dataset that identifies individual subjects included in a pool of subjects for which a single observation record (pool level) is captured.", "preferredTerm": "Pool Definition Dataset", "submissionValue": "POOLDEF", "synonyms": ["Pool Definition"]}, {"conceptId": "C49607", "definition": "A findings domain that contains pharmacokinetic parameters derived from pharmacokinetic concentration-time (PC) data.", "preferredTerm": "Pharmacokinetic Parameters Domain", "submissionValue": "PP", "synonyms": ["Pharmacokinetic Parameters"]}, {"conceptId": "C102700", "definition": "An interventions domain that contains interventional activity intended to have diagnostic, preventive, therapeutic, or palliative effects.", "preferredTerm": "Procedure Domain", "submissionValue": "PR", "synonyms": ["Procedures"]}, {"conceptId": "C49609", "definition": "A findings domain that contains data for named, stand-alone instruments designed to provide an assessment of a concept. Questionnaires have a defined standard structure, format, and content; consist of conceptually related items that are typically scored; and have documented methods for administration and analysis.", "preferredTerm": "Questionnaire Domain", "submissionValue": "QS", "synonyms": ["Questionnaires"]}, {"conceptId": "C95098", "definition": "A findings domain that contains physiological and morphological findings related to the respiratory system, including the organs that are involved in breathing such as the nose, throat, larynx, trachea, bronchi and lungs.", "preferredTerm": "Respiratory Domain", "submissionValue": "RE", "synonyms": ["Respiratory System Findings"]}, {"conceptId": "C147182", "definition": "A dataset used to describe relationships between records for a subject within or across domains, and relationships of records across datasets.", "preferredTerm": "Related Records Dataset", "submissionValue": "RELREC", "synonyms": ["Related Records"]}, {"conceptId": "C147183", "definition": "A dataset used to represent relationships between study subjects.", "preferredTerm": "Related Subjects Dataset", "submissionValue": "RELSUB", "synonyms": ["Related Subjects"]}, {"conceptId": "C102707", "definition": "A findings domain that contains physiological and morphological findings related to the male and female reproductive systems.", "preferredTerm": "Reproductive System Findings Domain", "submissionValue": "RP", "synonyms": ["Reproductive System Findings"]}, {"conceptId": "C107097", "definition": "A findings domain for the assessment of disease response to therapy, or clinical classification based on published criteria.", "preferredTerm": "Disease Response Domain", "submissionValue": "RS", "synonyms": ["Disease Response and Clin Classification"]}, {"conceptId": "C106571", "definition": "A special purpose domain that associates the subject with the medical conclusions contained in the pharmacogenomics biological state (PB) domain based on the observations reported in pharmacogenomics findings (PF) domain.", "preferredTerm": "Subject Biomarker Domain", "submissionValue": "SB", "synonyms": ["Subject Biomarker"]}, {"conceptId": "C49610", "definition": "A findings domain that contains subject-related data not collected in other domains.", "preferredTerm": "Subject Characteristics Domain", "submissionValue": "SC", "synonyms": ["Subject Characteristics"]}, {"conceptId": "C49616", "definition": "A special-purpose domain that contains the actual order of elements followed by the subject, together with the start date/time and end date/time for each element.", "preferredTerm": "Subject Element Domain", "submissionValue": "SE", "synonyms": ["Subject Elements"]}, {"conceptId": "C147184", "definition": "A special-purpose domain that is designed to record the timing, for each subject, of disease milestones that have been defined in the Trial Disease Milestones (TM) domain.", "preferredTerm": "Subject Disease Milestones Domain", "submissionValue": "SM", "synonyms": ["Subject Disease Milestones"]}, {"conceptId": "C112420", "definition": "A findings about domain for submitting dermal responses to antigens.", "preferredTerm": "Skin Response Domain", "submissionValue": "SR", "synonyms": ["Skin Response"]}, {"conceptId": "C117655", "definition": "A findings domain that contains general subject characteristics that are evaluated periodically to determine if they have changed.", "preferredTerm": "Subject Status Domain", "submissionValue": "SS", "synonyms": ["Subject Status"]}, {"conceptId": "C49615", "definition": "An interventions domain that contains substance use information that may be used to assess the efficacy and/or safety of therapies that look to mitigate the effects of chronic substance use.", "preferredTerm": "Substance Use Domain", "submissionValue": "SU", "synonyms": ["Substance Use"]}, {"conceptId": "C147185", "definition": "A dataset used to represent non-standard variables and their association to parent records in the Adverse Events domain.", "preferredTerm": "Adverse Events Supplemental Qualifiers Dataset", "submissionValue": "SUPPAE", "synonyms": ["Supplemental Qualifiers for Adverse Events"]}, {"conceptId": "C147186", "definition": "A dataset used to represent non-standard variables and their association to parent records in the Procedure Agents domain.", "preferredTerm": "Procedure Agents Supplemental Qualifiers Dataset", "submissionValue": "SUPPAG", "synonyms": ["Supplemental Qualifiers for Procedure Agents"]}, {"conceptId": "C147187", "definition": "A dataset used to represent non-standard variables and their association to parent records in the Biospecimen Events domain.", "preferredTerm": "Biospecimen Events Supplemental Qualifiers Dataset", "submissionValue": "SUPPBE", "synonyms": ["Supplemental Qualifiers for Biospecimen Events"]}, {"conceptId": "C147188", "definition": "A dataset used to represent non-standard variables and their association to parent records in the Body Weight Gain domain.", "preferredTerm": "Body Weight Gain Supplemental Qualifiers Dataset", "submissionValue": "SUPPBG", "synonyms": ["Supplemental Qualifiers for Body Weight Gain"]}, {"conceptId": "C147189", "definition": "A dataset used to represent non-standard variables and their association to parent records in the Biospecimen Findings domain.", "preferredTerm": "Biospecimen Findings Supplemental Qualifiers Dataset", "submissionValue": "SUPPBS", "synonyms": ["Supplemental Qualifiers for Biospecimen Findings"]}, {"conceptId": "C147191", "definition": "A dataset used to represent non-standard variables and their association to parent records in the Clinical Events domain.", "preferredTerm": "Clinical Events Supplemental Qualifiers Dataset", "submissionValue": "SUPPCE", "synonyms": ["Supplemental Qualifiers for Clinical Events"]}, {"conceptId": "C147192", "definition": "A dataset used to represent non-standard variables and their association to parent records in the Clinical Observations domain.", "preferredTerm": "Clinical Observations Supplemental Qualifiers Dataset", "submissionValue": "SUPPCL", "synonyms": ["Supplemental Qualifiers for Clinical Observations"]}, {"conceptId": "C147193", "definition": "A dataset used to represent non-standard variables and their association to parent records in the Concomitant/Prior Medications domain.", "preferredTerm": "Concomitant and Prior Medications Supplemental Qualifiers Dataset", "submissionValue": "SUPPCM", "synonyms": ["Supplemental Qualifiers for Concomitant/Prior Medications"]}, {"conceptId": "C147195", "definition": "A dataset used to represent non-standard variables and their association to parent records in the Cardiovascular System Findings (human clinical trials) domain.", "preferredTerm": "Cardiovascular System Findings Supplemental Qualifiers Dataset", "submissionValue": "SUPPCV", "synonyms": ["Supplemental Qualifiers for Cardiovascular System Findings"]}, {"conceptId": "C147196", "definition": "A dataset used to represent non-standard variables and their association to parent records in the Drug Accountability domain.", "preferredTerm": "Drug Accountability Supplemental Qualifiers Dataset", "submissionValue": "SUPPDA", "synonyms": ["Supplemental Qualifiers for Drug Accountability"]}, {"conceptId": "C147197", "definition": "A dataset used to represent non-standard variables and their association to parent records in the Death Details (human clinical trials) domain.", "preferredTerm": "Death Details (human clinical trials) Supplemental Qualifiers Dataset", "submissionValue": "SUPPDD", "synonyms": ["Supplemental Qualifiers for Death Details (human clinical trials)"]}, {"conceptId": "C147198", "definition": "A dataset used to represent non-standard variables and their association to parent records in the Device Events domain.", "preferredTerm": "Device Events Supplemental Qualifiers Dataset", "submissionValue": "SUPPDE", "synonyms": ["Supplemental Qualifiers for Device Events"]}, {"conceptId": "C147200", "definition": "A dataset used to represent non-standard variables and their association to parent records in the Demographics domain.", "preferredTerm": "Demographics Supplemental Qualifiers Dataset", "submissionValue": "SUPPDM", "synonyms": ["Supplemental Qualifiers for Demographics"]}, {"conceptId": "C147201", "definition": "A dataset used to represent non-standard variables and their association to parent records in the Device Properties domain.", "preferredTerm": "Device Properties Supplemental Qualifiers Dataset", "submissionValue": "SUPPDO", "synonyms": ["Supplemental Qualifiers for Device Properties"]}, {"conceptId": "C147203", "definition": "A dataset used to represent non-standard variables and their association to parent records in the Disposition domain.", "preferredTerm": "Disposition Supplemental Qualifiers Dataset", "submissionValue": "SUPPDS", "synonyms": ["Supplemental Qualifiers for Disposition"]}, {"conceptId": "C147204", "definition": "A dataset used to represent non-standard variables and their association to parent records in the Device Tracking and Disposition domain.", "preferredTerm": "Device Tracking and Disposition Supplemental Qualifiers Dataset", "submissionValue": "SUPPDT", "synonyms": ["Supplemental Qualifiers for Device Tracking and Disposition"]}, {"conceptId": "C147205", "definition": "A dataset used to represent non-standard variables and their association to parent records in the Device In-Use domain.", "preferredTerm": "Device In-Use Supplemental Qualifiers Dataset", "submissionValue": "SUPPDU", "synonyms": ["Supplemental Qualifiers for Device In-Use"]}, {"conceptId": "C147206", "definition": "A dataset used to represent non-standard variables and their association to parent records in the Protocol Deviations domain.", "preferredTerm": "Protocol Deviations Supplemental Qualifiers Dataset", "submissionValue": "SUPPDV", "synonyms": ["Supplemental Qualifiers for Protocol Deviations"]}, {"conceptId": "C147207", "definition": "A dataset used to represent non-standard variables and their association to parent records in the Device Exposure domain.", "preferredTerm": "Device Exposure Supplemental Qualifiers Dataset", "submissionValue": "SUPPDX", "synonyms": ["Supplemental Qualifiers for Device Exposure"]}, {"conceptId": "C147208", "definition": "A dataset used to represent non-standard variables and their association to parent records in the Exposure as Collected domain.", "preferredTerm": "Exposure as Collected Supplemental Qualifiers Dataset", "submissionValue": "SUPPEC", "synonyms": ["Supplemental Qualifiers for Exposure as Collected"]}, {"conceptId": "C147209", "definition": "A dataset used to represent non-standard variables and their association to parent records in the ECG Test Results domain.", "preferredTerm": "ECG Test Results Supplemental Qualifiers Dataset", "submissionValue": "SUPPEG", "synonyms": ["Supplemental Qualifiers for ECG Test Results"]}, {"conceptId": "C147210", "definition": "A dataset used to represent non-standard variables and their association to parent records in the Environmental and Social Factors domain.", "preferredTerm": "Environmental and Social Factors Supplemental Qualifiers Dataset", "submissionValue": "SUPPER", "synonyms": ["Supplemental Qualifiers for Environmental and Social Factors"]}, {"conceptId": "C147211", "definition": "A dataset used to represent non-standard variables and their association to parent records in the Exposure domain.", "preferredTerm": "Exposure Supplemental Qualifiers Dataset", "submissionValue": "SUPPEX", "synonyms": ["Supplemental Qualifiers for Exposure"]}, {"conceptId": "C147212", "definition": "A dataset used to represent non-standard variables and their association to parent records in the Findings About Events or Interventions domain.", "preferredTerm": "Findings About Events or Interventions Supplemental Qualifiers Dataset", "submissionValue": "SUPPFA", "synonyms": ["Supplemental Qualifiers for Findings About Events or Interventions"]}, {"conceptId": "C147213", "definition": "A dataset used to represent non-standard variables and their association to parent records in the Fetal Measurements domain.", "preferredTerm": "Fetal Measurements Supplemental Qualifiers Dataset", "submissionValue": "SUPPFM", "synonyms": ["Supplemental Qualifiers for Fetal Measurements"]}, {"conceptId": "C147214", "definition": "A dataset used to represent non-standard variables and their association to parent records in the Food and Water Consumption domain.", "preferredTerm": "Food and Water Consumption Supplemental Qualifiers Dataset", "submissionValue": "SUPPFW", "synonyms": ["Supplemental Qualifiers for Food and Water Consumption"]}, {"conceptId": "C147215", "definition": "A dataset used to represent non-standard variables and their association to parent records in the Fetal Pathology Findings domain.", "preferredTerm": "Fetal Pathology Findings Supplemental Qualifiers Dataset", "submissionValue": "SUPPFX", "synonyms": ["Supplemental Qualifiers for Fetal Pathology Findings"]}, {"conceptId": "C147216", "definition": "A dataset used to represent non-standard variables and their association to parent records in the Healthcare Encounters domain.", "preferredTerm": "Healthcare Encounters Supplemental Qualifiers Dataset", "submissionValue": "SUPPHO", "synonyms": ["Supplemental Qualifiers for Healthcare Encounters"]}, {"conceptId": "C147217", "definition": "A dataset used to represent non-standard variables and their association to parent records in the Implantation Classification domain.", "preferredTerm": "Implantation Classification Supplemental Qualifiers Dataset", "submissionValue": "SUPPIC", "synonyms": ["Supplemental Qualifiers for Implantation Classification"]}, {"conceptId": "C147218", "definition": "A dataset used to represent non-standard variables and their association to parent records in the Inclusion/Exclusion Criteria Not Met domain.", "preferredTerm": "Inclusion/Exclusion Criteria Not Met Supplemental Qualifiers Dataset", "submissionValue": "SUPPIE", "synonyms": ["Supplemental Qualifiers for Inclusion/Exclusion Criteria Not Met"]}, {"conceptId": "C147219", "definition": "A dataset used to represent non-standard variables and their association to parent records in the Immunogenicity Specimen Assessments domain.", "preferredTerm": "Immunogenicity Specimen Assessments Supplemental Qualifiers Dataset", "submissionValue": "SUPPIS", "synonyms": ["Supplemental Qualifiers for Immunogenicity Specimen Assessments"]}, {"conceptId": "C147220", "definition": "A dataset used to represent non-standard variables and their association to parent records in the Laboratory Test Results domain.", "preferredTerm": "Laboratory Test Results Supplemental Qualifiers Dataset", "submissionValue": "SUPPLB", "synonyms": ["Supplemental Qualifiers for Laboratory Test Results"]}, {"conceptId": "C147221", "definition": "A dataset used to represent non-standard variables and their association to parent records in the Macroscopic Findings domain.", "preferredTerm": "Macroscopic Findings Supplemental Qualifiers Dataset", "submissionValue": "SUPPMA", "synonyms": ["Supplemental Qualifiers for Macroscopic Findings"]}, {"conceptId": "C147222", "definition": "A dataset used to represent non-standard variables and their association to parent records in the Microbiology domain.", "preferredTerm": "Microbiology Specimen Supplemental Qualifiers Dataset", "submissionValue": "SUPPMB", "synonyms": ["Supplemental Qualifiers for Microbiology Specimen"]}, {"conceptId": "C147223", "definition": "A dataset used to represent non-standard variables and their association to parent records in the Medical History domain.", "preferredTerm": "Medical History Supplemental Qualifiers Dataset", "submissionValue": "SUPPMH", "synonyms": ["Supplemental Qualifiers for Medical History"]}, {"conceptId": "C147224", "definition": "A dataset used to represent non-standard variables and their association to parent records in the Microscopic Findings domain.", "preferredTerm": "Microscopic Findings Supplemental Qualifiers Dataset", "submissionValue": "SUPPMI", "synonyms": ["Supplemental Qualifiers for Microscopic Findings"]}, {"conceptId": "C147225", "definition": "A dataset used to represent non-standard variables and their association to parent records in the Musculoskeletal System Findings domain.", "preferredTerm": "Musculoskeletal System Findings Supplemental Qualifiers Dataset", "submissionValue": "SUPPMK", "synonyms": ["Supplemental Qualifiers for Musculoskeletal System Findings"]}, {"conceptId": "C147226", "definition": "A dataset used to represent non-standard variables and their association to parent records in the Meal Data domain.", "preferredTerm": "Meal Data Supplemental Qualifiers Dataset", "submissionValue": "SUPPML", "synonyms": ["Supplemental Qualifiers for Meal Data"]}, {"conceptId": "C147227", "definition": "A dataset used to represent non-standard variables and their association to parent records in the Microbiology Susceptibility domain.", "preferredTerm": "Microbiology Susceptibility Supplemental Qualifiers Dataset", "submissionValue": "SUPPMS", "synonyms": ["Supplemental Qualifiers for Microbiology Susceptibility"]}, {"conceptId": "C147228", "definition": "A dataset used to represent non-standard variables and their association to parent records in the Nervous System Findings domain.", "preferredTerm": "Nervous System Findings Supplemental Qualifiers Dataset", "submissionValue": "SUPPNV", "synonyms": ["Supplemental Qualifiers for Nervous System Findings"]}, {"conceptId": "C147229", "definition": "A dataset used to represent non-standard variables and their association to parent records in the Ophthalmic Examinations domain.", "preferredTerm": "Ophthalmic Examinations Supplemental Qualifiers Dataset", "submissionValue": "SUPPOE", "synonyms": ["Supplemental Qualifiers for Ophthalmic Examinations"]}, {"conceptId": "C147231", "definition": "A dataset used to represent non-standard variables and their association to parent records in the Organ Measurements domain.", "preferredTerm": "Organ Measurements Supplemental Qualifiers Dataset", "submissionValue": "SUPPOM", "synonyms": ["Supplemental Qualifiers for Organ Measurements"]}, {"conceptId": "C147232", "definition": "A dataset used to represent non-standard variables and their association to parent records in the Pharmacogenomics/Genetics Biomarker domain.", "preferredTerm": "Pharmacogenomics/Genetics Biomarker Supplemental Qualifiers Dataset", "submissionValue": "SUPPPB", "synonyms": ["Supplemental Qualifiers for Pharmacogenomics/Genetics Biomarker"]}, {"conceptId": "C147233", "definition": "A dataset used to represent non-standard variables and their association to parent records in the Pharmacokinetics Concentrations domain.", "preferredTerm": "Pharmacokinetics Concentrations Supplemental Qualifiers Dataset", "submissionValue": "SUPPPC", "synonyms": ["Supplemental Qualifiers for Pharmacokinetics Concentrations"]}, {"conceptId": "C147234", "definition": "A dataset used to represent non-standard variables and their association to parent records in the Physical Examination domain.", "preferredTerm": "Physical Examination Supplemental Qualifiers Dataset", "submissionValue": "SUPPPE", "synonyms": ["Supplemental Qualifiers for Physical Examination"]}, {"conceptId": "C147235", "definition": "A dataset used to represent non-standard variables and their association to parent records in the Pharmacogenomics/Genetics Findings domain.", "preferredTerm": "Pharmacogenomics/Genetics Findings Supplemental Qualifiers Dataset", "submissionValue": "SUPPPF", "synonyms": ["Supplemental Qualifiers for Pharmacogenomics/Genetics Findings"]}, {"conceptId": "C147236", "definition": "A dataset used to represent non-standard variables and their association to parent records in the Pharmacogenomics/Genetics Methods and Supporting Information domain.", "preferredTerm": "Pharmacogenomics/Genetics Methods and Supporting Information Supplemental Qualifiers Dataset", "submissionValue": "SUPPPG", "synonyms": ["Supplemental Qualifiers for Pharmacogenomics/Genetics Methods and Supporting Information"]}, {"conceptId": "C147237", "definition": "A dataset used to represent non-standard variables and their association to parent records in the Palpable Masses domain.", "preferredTerm": "Palpable Masses Supplemental Qualifiers Dataset", "submissionValue": "SUPPPM", "synonyms": ["Supplemental Qualifiers for Palpable Masses"]}, {"conceptId": "C147238", "definition": "A dataset used to represent non-standard variables and their association to parent records in the Pharmacokinetic Parameters domain.", "preferredTerm": "Pharmacokinetic Parameters Supplemental Qualifiers Dataset", "submissionValue": "SUPPPP", "synonyms": ["Supplemental Qualifiers for Pharmacokinetic Parameters"]}, {"conceptId": "C147239", "definition": "A dataset used to represent non-standard variables and their association to parent records in the Procedures domain.", "preferredTerm": "Procedures Supplemental Qualifiers Dataset", "submissionValue": "SUPPPR", "synonyms": ["Supplemental Qualifiers for Procedures"]}, {"conceptId": "C147240", "definition": "A dataset used to represent non-standard variables and their association to parent records in the Questionnaires domain.", "preferredTerm": "Questionnaires Supplemental Qualifiers Dataset", "submissionValue": "SUPPQS", "synonyms": ["Supplemental Qualifiers for Questionnaires"]}, {"conceptId": "C147241", "definition": "A dataset used to represent non-standard variables and their association to parent records in the ECG QT Correction Model Data domain.", "preferredTerm": "ECG QT Correction Model Data Supplemental Qualifiers Dataset", "submissionValue": "SUPPQT", "synonyms": ["Supplemental Qualifiers for ECG QT Correction Model Data"]}, {"conceptId": "C147242", "definition": "A dataset used to represent non-standard variables and their association to parent records in the Respiratory Test Results domain.", "preferredTerm": "Respiratory Test Results Supplemental Qualifiers Dataset", "submissionValue": "SUPPRE", "synonyms": ["Supplemental Qualifiers for Respiratory Test Results"]}, {"conceptId": "C147243", "definition": "A dataset used to represent non-standard variables and their association to parent records in the Reproductive System Findings domain.", "preferredTerm": "Reproductive System Findings Supplemental Qualifiers Dataset", "submissionValue": "SUPPRP", "synonyms": ["Supplemental Qualifiers for Reproductive System Findings"]}, {"conceptId": "C147244", "definition": "A dataset used to represent non-standard variables and their association to parent records in the Disease Response domain.", "preferredTerm": "Disease Response Supplemental Qualifiers Dataset", "submissionValue": "SUPPRS", "synonyms": ["Supplemental Qualifiers for Disease Response"]}, {"conceptId": "C147245", "definition": "A dataset used to represent non-standard variables and their association to parent records in the Subject Biomarker domain.", "preferredTerm": "Subject Biomarker Supplemental Qualifiers Dataset", "submissionValue": "SUPPSB", "synonyms": ["Supplemental Qualifiers for Subject Biomarker"]}, {"conceptId": "C147246", "definition": "A dataset used to represent non-standard variables and their association to parent records in the Subject Characteristics domain.", "preferredTerm": "Subject Characteristics Supplemental Qualifiers Dataset", "submissionValue": "SUPPSC", "synonyms": ["Supplemental Qualifiers for Subject Characteristics"]}, {"conceptId": "C147248", "definition": "A dataset used to represent non-standard variables and their association to parent records in the Subject Stages domain.", "preferredTerm": "Subject Stages Supplemental Qualifiers Dataset", "submissionValue": "SUPPSJ", "synonyms": ["Supplemental Qualifiers for Subject Stages"]}, {"conceptId": "C147249", "definition": "A dataset used to represent non-standard variables and their association to parent records in the Subject Disease Milestones domain.", "preferredTerm": "Subject Disease Milestones Supplemental Qualifiers Dataset", "submissionValue": "SUPPSM", "synonyms": ["Supplemental Qualifiers for Subject Disease Milestones"]}, {"conceptId": "C147250", "definition": "A dataset used to represent non-standard variables and their association to parent records in the Skin Response domain.", "preferredTerm": "Skin Response Supplemental Qualifiers Dataset", "submissionValue": "SUPPSR", "synonyms": ["Supplemental Qualifiers for Skin Response"]}, {"conceptId": "C147251", "definition": "A dataset used to represent non-standard variables and their association to parent records in the Subject Status domain.", "preferredTerm": "Subject Status Supplemental Qualifiers Dataset", "submissionValue": "SUPPSS", "synonyms": ["Supplemental Qualifiers for Subject Status"]}, {"conceptId": "C147252", "definition": "A dataset used to represent non-standard variables and their association to parent records in the Substance Use domain.", "preferredTerm": "Substance Use Supplemental Qualifiers Dataset", "submissionValue": "SUPPSU", "synonyms": ["Supplemental Qualifiers for Substance Use"]}, {"conceptId": "C147257", "definition": "A dataset used to represent non-standard variables and their association to parent records in the Tumor Findings domain.", "preferredTerm": "Tumor Findings Supplemental Qualifiers Dataset", "submissionValue": "SUPPTF", "synonyms": ["Supplemental Qualifiers for Tumor Findings"]}, {"conceptId": "C147261", "definition": "A dataset used to represent non-standard variables and their association to parent records in the Tumor Response domain.", "preferredTerm": "Tumor Response Supplemental Qualifiers Dataset", "submissionValue": "SUPPTR", "synonyms": ["Supplemental Qualifiers for Tumor Response"]}, {"conceptId": "C147264", "definition": "A dataset used to represent non-standard variables and their association to parent records in the Tumor/Lesion Identification domain.", "preferredTerm": "Tumor/Lesion Identification Supplemental Qualifiers Dataset", "submissionValue": "SUPPTU", "synonyms": ["Supplemental Qualifiers for Tumor/Lesion Identification"]}, {"conceptId": "C147267", "definition": "A dataset used to represent non-standard variables and their association to parent records in the Urinary System Findings domain.", "preferredTerm": "Urinary System Findings Supplemental Qualifiers Dataset", "submissionValue": "SUPPUR", "synonyms": ["Supplemental Qualifiers for Urinary System Findings"]}, {"conceptId": "C147268", "definition": "A dataset used to represent non-standard variables and their association to parent records in the Vital Signs domain.", "preferredTerm": "Vital Signs Supplemental Qualifiers Dataset", "submissionValue": "SUPPVS", "synonyms": ["Supplemental Qualifiers for Vital Signs"]}, {"conceptId": "C147269", "definition": "A dataset used to represent non-standard variables and their association to parent records in the Whole Body Findings domain.", "preferredTerm": "Whole Body Findings Supplemental Qualifiers Dataset", "submissionValue": "SUPPWB", "synonyms": ["Supplemental Qualifiers for Whole Body Findings"]}, {"conceptId": "C49617", "definition": "A special-purpose domain that contains the actual start and end data/time for each visit of each individual subject.", "preferredTerm": "Subject Visits Domain", "submissionValue": "SV", "synonyms": ["Subject Visits"]}, {"conceptId": "C49618", "definition": "A trial design domain that contains each planned arm in the trial.", "preferredTerm": "Trial Arms Domain", "submissionValue": "TA", "synonyms": ["Trial Arms"]}, {"conceptId": "C117699", "definition": "A trial design domain that provides information on the protocol-specified disease assessment schedule, to be used for comparison with the actual occurrence of the efficacy assessments in order to determine whether there was good compliance with the schedule.", "preferredTerm": "Trial Disease Assessments Domain", "submissionValue": "TD", "synonyms": ["Trial Disease Assessments"]}, {"conceptId": "C49619", "definition": "A trial design domain that contains the element code that is unique for each element, the element description, and the rules for starting and ending an element.", "preferredTerm": "Trial Elements Domain", "submissionValue": "TE", "synonyms": ["Trial Elements"]}, {"conceptId": "C49620", "definition": "A trial design domain that contains one record for each of the inclusion and exclusion criteria for the trial. This domain is not subject oriented.", "preferredTerm": "Trial Inclusion and Exclusion Criteria Domain", "submissionValue": "TI", "synonyms": ["Trial Inclusion/Exclusion Criteria"]}, {"conceptId": "C147270", "definition": "A trial design domain that is used to describe disease milestones, which are observations or activities anticipated to occur in the course of the disease under study, and which trigger the collection of data.", "preferredTerm": "Trial Disease Milestones Domain", "submissionValue": "TM", "synonyms": ["Trial Disease Milestones"]}, {"conceptId": "C106578", "definition": "A findings domain that represents quantitative measurements and/or qualitative assessments of the tumors or lesions identified in the tumor/lesion identification (TU) domain.", "preferredTerm": "Tumor Results Domain", "submissionValue": "TR", "synonyms": ["Tumor/Lesion Results"]}, {"conceptId": "C53483", "definition": "A trial design domain that contains one record for each trial summary characteristic. This domain is not subject oriented.", "preferredTerm": "Trial Summary Domain", "submissionValue": "TS", "synonyms": ["Trial Summary"]}, {"conceptId": "C106577", "definition": "A findings domain that represents data that uniquely identifies tumors or lesions under study.", "preferredTerm": "Tumor Identifier Domain", "submissionValue": "TU", "synonyms": ["Tumor/Lesion Identification"]}, {"conceptId": "C49621", "definition": "A trial design domain that contains the planned order and number of visits in the study within each arm.", "preferredTerm": "Trial Visits Domain", "submissionValue": "TV", "synonyms": ["Trial Visits"]}, {"conceptId": "C95103", "definition": "A trial design domain that contains one record for each trial set characteristic including experimental factors, treatment factors, inherent characteristics, or distinct sponsor designations. This domain is not subject oriented.", "preferredTerm": "Trial Sets Domain", "submissionValue": "TX", "synonyms": ["Trial Sets"]}, {"conceptId": "C102726", "definition": "A findings domain that contains physiological and morphological findings related to the urinary tract, including the organs involved in the creation and excretion of urine such as the kidneys, ureters, bladder and urethra.", "preferredTerm": "Urinary System Findings Domain", "submissionValue": "UR", "synonyms": ["Urinary System Findings"]}, {"conceptId": "C49622", "definition": "A findings domain that contains measurements including but not limited to blood pressure, temperature, respiration, body surface area, body mass index, height and weight.", "preferredTerm": "Vital Signs Domain", "submissionValue": "VS", "synonyms": ["Vital Signs"]}]}