{"_links": {"parentPackage": {"href": "/mdr/ct/packages/sdtmct-2018-12-21", "title": "SDTM Controlled Terminology Package 36 Effective 2018-12-21", "type": "Terminology"}, "priorVersion": {"href": "/mdr/ct/packages/sdtmct-2018-09-28/codelists/C78731", "title": "CDISC SDTM Drug Accountability Test Name Terminology", "type": "Code List"}, "rootItem": {"href": "/mdr/root/ct/sdtmct/codelists/C78731", "title": "Version-agnostic anchor resource for codelist C78731", "type": "Root Value Domain"}, "self": {"href": "/mdr/ct/packages/sdtmct-2018-12-21/codelists/C78731", "title": "CDISC SDTM Drug Accountability Test Name Terminology", "type": "Code List"}}, "conceptId": "C78731", "definition": "The name of the test for the drug accountability assessment.", "extensible": "true", "name": "Drug Accountability Test Name", "preferredTerm": "CDISC SDTM Drug Accountability Test Name Terminology", "submissionValue": "DATEST", "synonyms": ["Drug Accountability Test Name"], "terms": [{"conceptId": "C78721", "definition": "The quantity of a product that has been dispensed. (NCI)", "preferredTerm": "Dispensed Amount", "submissionValue": "Dispensed Amount", "synonyms": ["Dispensed Amount"]}, {"conceptId": "C78722", "definition": "The quantity of a product that has been returned. (NCI)", "preferredTerm": "Returned Amount", "submissionValue": "Returned Amount", "synonyms": ["Returned Amount"]}]}