{"_links": {"parentPackage": {"href": "/mdr/ct/packages/sdtmct-2018-12-21", "title": "SDTM Controlled Terminology Package 36 Effective 2018-12-21", "type": "Terminology"}, "priorVersion": {"href": "/mdr/ct/packages/sdtmct-2018-09-28/codelists/C85492", "title": "CDISC SDTM Method Terminology", "type": "Code List"}, "rootItem": {"href": "/mdr/root/ct/sdtmct/codelists/C85492", "title": "Version-agnostic anchor resource for codelist C85492", "type": "Root Value Domain"}, "self": {"href": "/mdr/ct/packages/sdtmct-2018-12-21/codelists/C85492", "title": "CDISC SDTM Method Terminology", "type": "Code List"}}, "conceptId": "C85492", "definition": "Method is any technique or procedure (an action) that determines how an observation or clinical finding was made.", "extensible": "true", "name": "Method", "preferredTerm": "CDISC SDTM Method Terminology", "submissionValue": "METHOD", "synonyms": ["Method"], "terms": [{"conceptId": "C135452", "definition": "A type of mass spectrometry in which ions in the sample are accelerated to very high kinetic energies, thus allowing for the separation of rare isotopes from more abundant isotopes. (NCI)", "preferredTerm": "Accelerator Mass Spectrometry", "submissionValue": "ACCELERATOR MASS SPECTROMETRY", "synonyms": ["AMS"]}, {"conceptId": "C23015", "definition": "A microscopy staining method used to examine a specimen for the presence of acid-fast microorganisms, specifically mycobacteria.", "preferredTerm": "Acid Fast Bacillae Staining Method", "submissionValue": "ACID FAST STAIN"}, {"conceptId": "C85554", "definition": "A microscopy staining method that utilizes acridine orange, a fluorescent cationic dye that is selective for nucleic acids, to determine the presence of viable cells or microorganisms in a sample. Acridine orange interacts with RNA and DNA and the lysosomal compartment of cells.", "preferredTerm": "Acridine Orange Staining Method", "submissionValue": "ACRIDINE ORANGE STAIN"}, {"conceptId": "C85555", "definition": "A method to determine microbial susceptibility to antibiotics in which test bacteria is inoculated onto agar plates with serial dilutions of know quantities of antibiotics. The minimum inhibitory concentration of antibiotic is assessed.", "preferredTerm": "Agar Dilution Method", "submissionValue": "AGAR DILUTION"}, {"conceptId": "C130170", "definition": "A form of complement-dependent lymphocytotoxicity assay with the addition of anti-human globulin (AHG) which is a complement fixing antibody to human immunoglobulin. AHG binds to both complement proteins and non-complement-fixing antibodies.", "preferredTerm": "AHG-enhanced Complement-dependent Lymphocytotoxicity Assay", "submissionValue": "AHG-ENHANCED COMPLEMENT-DEPENDENT LYMPHOCYTOTOXICITY ASSAY"}, {"conceptId": "C92304", "definition": "A microscopy staining method that utilizes periodic acid, an oxoacid of iodine, Schiff reagent, the reaction product of fuchsine and sodium bisulfite, and Alcian blue, a water soluble copper phthalocyanine dye. This staining method is used to differentially stain glycoproteins.", "preferredTerm": "Alcian Blue and Periodic Acid Schiff Staining Method", "submissionValue": "ALCIAN BLUE AND PERIODIC ACID SCHIFF STAIN"}, {"conceptId": "C92299", "definition": "A microscopy staining method that utilizes alcian blue, a cationic, water soluble copper-containing phthalocyanine dye to determine the presence of acid mucopolysaccharides and glycosaminoglycans.", "preferredTerm": "Alcian Blue Staining Method", "submissionValue": "ALCIAN BLUE STAIN"}, {"conceptId": "C123464", "definition": "A diagrammatic method to test visual acuity and presence of macular degeneration, which uses a uniform square grid of lines with a dot in the center.", "preferredTerm": "Amsler Grid", "submissionValue": "AMSLER GRID"}, {"conceptId": "C120681", "definition": "A high-speed centrifugation-based method that uses an optical detection system to monitor and record data during the centrifugation process.", "preferredTerm": "Analytical Ultracentrifugation", "submissionValue": "ANALYTICAL ULTRACENTRIFUGATION"}, {"conceptId": "C20080", "definition": "A method used to create an image of blood vessels.", "preferredTerm": "Angiography", "submissionValue": "ANGIOGRAPHY"}, {"conceptId": "C85557", "definition": "A method used to detect organisms that have resistance to a single concentration of antibiotics in an agar matrix.", "preferredTerm": "Antibiotic Agar Screening Method", "submissionValue": "ANTIBIOTIC AGAR SCREEN"}, {"conceptId": "C85558", "definition": "A method to determine the microbial susceptibility to two or more antibiotics. Numerical result translated into indifference, antagonism, synergism, or additive.", "preferredTerm": "Antimicrobial Combination Testing Method", "submissionValue": "ANTIMICROBIAL COMBINATION TESTING"}, {"conceptId": "C120682", "definition": "A method in which a constant pressure is applied to the surface of the cornea in order to flatten a prespecified area of the membrane, which is used to calculate intraocular pressure.", "preferredTerm": "Applanation Tonometry", "submissionValue": "APPLANATION TONOMETRY"}, {"conceptId": "C116450", "definition": "A noninvasive fMRI technique that uses arterial water as an endogenous tracer to measure cerebral blood flow by magnetically labeling the proton spins of the arterial water prior to reaching the imaged volume.", "preferredTerm": "Arterial Spin Labeling Magnetic Resonance Imaging", "submissionValue": "ARTERIAL SPIN LABELING FUNCTIONAL MRI", "synonyms": ["ASL fMRI"]}, {"conceptId": "C85574", "definition": "A spectrometric method that determines the type and concentration of metal elements in a sample, based upon the principle that each elemental metal absorbs a particular wavelength of ultraviolet light when exposed to heat.", "preferredTerm": "Atomic Absorption Spectroscopy", "submissionValue": "ATOMIC ABSORPTION SPECTROMETRY"}, {"conceptId": "C38036", "definition": "Testing conducted utilizing a manual or microprocessor audiometer to test for hearing loss.", "preferredTerm": "Audiometric Test", "submissionValue": "AUDIOMETRY"}, {"conceptId": "C102599", "definition": "A microscopy acid fast staining method that utilizes auramine O, a bright yellow ketonimine dye, which binds to the mycolic acid in the cell walls of acid fast microorganisms.", "preferredTerm": "Auramine Staining Method", "submissionValue": "AURAMINE STAIN", "synonyms": ["Auramine O"]}, {"conceptId": "C85573", "definition": "Listening with a device, such as a stethoscope, to anatomical locations that produce audible sounds like the heart, lungs and abdomen.", "preferredTerm": "Auscultation", "submissionValue": "AUSCULTATION"}, {"conceptId": "C154794", "definition": "A technique to determine the number of entities, which is performed by a device.", "preferredTerm": "Automated Count", "submissionValue": "AUTOMATED COUNT"}, {"conceptId": "C116157", "definition": "A molecular cytogenetic method combining chromosomal comparative genomic hybridization technique and microarray to detect chromosomal aberrations and changes in DNA copy numbers, using bacterial artificial chromosome clones containing target DNA fragments for hybridization.", "preferredTerm": "Bacterial Artificial Chromosome Array-based Comparative Genomic Hybridization", "submissionValue": "BAC ACGH", "synonyms": ["BAC Array-based CGH", "Bacterial Artificial Chromosome Array-based CGH", "Bacterial Artificial Chromosome Array-based Comparative Genomic Hybridization"]}, {"conceptId": "C150875", "definition": "A technique used to measure the skin induration diameter of intradermal tuberculin tests based on resistance to the movement of a ballpoint pen across the skin.", "preferredTerm": "Ballpoint Pen Technique", "submissionValue": "BALLPOINT PEN TECHNIQUE"}, {"conceptId": "C85576", "definition": "A test that detects beta lactamase produced by Staphylococcus species, Haemophilus species, Moraxella catarrhalis, and Neisseria gonorrhoeae.", "preferredTerm": "Beta Lactamase Screening Method", "submissionValue": "BETA LACTAMASE"}, {"conceptId": "C15189", "definition": "The removal of tissue specimens or fluid from the living body for microscopic examination, performed to establish a diagnosis.", "preferredTerm": "Biopsy", "submissionValue": "BIOPSY"}, {"conceptId": "C85577", "definition": "A microscopy staining method that utilizes calcofluor, a fluorescent dye that preferentially stains chitin and cellulose on the cell walls of fungi, parasites, and some cysts of the Pneumocystis genus.", "preferredTerm": "Calcofluor White Staining Method", "submissionValue": "CALCOFLUOR WHITE STAIN"}, {"conceptId": "C54125", "definition": "The procedure or activity of determining a result by mathematical or logical methods. (NCI)", "preferredTerm": "Calculation", "submissionValue": "CALCULATION"}, {"conceptId": "C17637", "definition": "An electrophoresis procedure, in which a sample is introduced into a capillary tube and the components are separated by the application of high voltage. (NCI)", "preferredTerm": "Capillary Electrophoresis", "submissionValue": "CAPILLARY ELECTROPHORESIS"}, {"conceptId": "C150870", "definition": "A technique for calculating cardiac output in which a catheter (e.g., Swan-Ganz) is inserted into the pulmonary artery through a peripheral vein to measure the change in right ventricular outflow blood temperature after a cold saline solution is injected into the right atrium from a proximal catheter port.", "preferredTerm": "Cardiac Output Thermodilution Method", "submissionValue": "CARDIAC THERMODILUTION"}, {"conceptId": "C150876", "definition": "An in vitro assay that utilizes live cells to measure the biological activity or potency of a drug, substance, or organism.", "preferredTerm": "Cell Based Bioassay", "submissionValue": "CELL BASED BIOASSAY"}, {"conceptId": "C85578", "definition": "A microbiological technique for specimen collection and mounting for microscopic examination that utilizes a cellulose-based adhesive ribbon.", "preferredTerm": "Cellulose Tape Method", "submissionValue": "CELLULOSE TAPE"}, {"conceptId": "C16410", "definition": "A separation technique used to isolate substances of different densities based on centrifugal force.", "preferredTerm": "Centrifugation", "submissionValue": "CENTRIFUGATION"}, {"conceptId": "C16431", "definition": "A technique for the separation of complex mixtures that relies on the differential affinities of substances for a gas or liquid mobile medium and for a stationary adsorbing medium through which they pass.", "preferredTerm": "Chromatography", "submissionValue": "CHROMATOGRAPHY"}, {"conceptId": "C127679", "definition": "A type of angiography in which motion picture camera technology is used to record the passage of dye (usually fluorescent) through blood vessels and the heart.", "preferredTerm": "Cineangiography", "submissionValue": "CINEANGIOGRAPHY"}, {"conceptId": "C40960", "definition": "A laboratory procedure that combines the sequence-specific detection aspects of FISH with the simple detection methods of immunohistochemistry. Briefly, sequence-specific probes are hybridized to cells fixed on slides and the sequestered probe is visualized by a peroxidase reaction. It has the advantage of being a less costly assay that does not require fluorescence microscopy with results that are stable over time.", "preferredTerm": "Chromogenic In Situ Hybridization", "submissionValue": "CISH", "synonyms": ["Chromogenic in Situ Hybridization"]}, {"conceptId": "C142334", "definition": "An in vitro method to determine the plasma concentration of fibrin, based on the correlation of fibrinogen concentration with the clotting time of diluted plasma mixed with excess thrombin. The method is calibrated using a standard curve based on plasma with decreasing fibrinogen concentrations.", "preferredTerm": "Clauss Method", "submissionValue": "CLAUSS METHOD"}, {"conceptId": "C124351", "definition": "An appraisal of a patient's condition by a clinician that is based on a physical exam, medical history, patient's account of symptoms, laboratory assessments, and/or imaging analysis.", "preferredTerm": "Clinical Evaluation", "submissionValue": "CLINICAL EVALUATION"}, {"conceptId": "C111163", "definition": "A type of immunoprecipitation protocol that employs UV-light induced covalent cross-linking of molecules (for instance protein and RNA) prior to the immunoprecipitation and purification steps.", "preferredTerm": "Cross-Linking and Immunoprecipitation", "submissionValue": "CLIP", "synonyms": ["Cross-Linking and Immunoprecipitation"]}, {"conceptId": "C116152", "definition": "A molecular biology method combining crosslinking-immunoprecipitation and high-throughput sequencing techniques to detect and map RNA-protein interactions.", "preferredTerm": "Cross-linking Immunoprecipitation High-throughput Sequencing", "submissionValue": "CLIP SEQUENCING", "synonyms": ["CLIP-Seq", "Cross-linking Immunoprecipitation High-throughput Sequencing", "HITS-CLIP"]}, {"conceptId": "C111095", "definition": "Any of several methods used to detect the presence of or quantify the formation of a thrombus in a specimen. (NCI)", "preferredTerm": "Clot Detection", "submissionValue": "CLOT DETECTION"}, {"conceptId": "C111096", "definition": "A method to measure the absorbance of visible wavelengths of light using a colorimeter.", "preferredTerm": "Colorimetry", "submissionValue": "COLORIMETRY"}, {"conceptId": "C154799", "definition": "An in vitro immunoassay that detects the presence of a specific antibody utilizing complement-hemolytic activity. The complement binds to the antigen-antibody complexes in a biological specimen, leading to the reduction of hemolytic activity.", "preferredTerm": "Complement Fixation Assay", "submissionValue": "COMPLEMENT FIXATION"}, {"conceptId": "C130171", "definition": "A method that detects the presence and reaction of complement-fixing alloantibodies to donor lymphocytes, via the addition of complement proteins and lysis of the lymphocytes.", "preferredTerm": "Complement-dependent Lymphocytotoxicity Assay", "submissionValue": "COMPLEMENT-DEPENDENT LYMPHOCYTOTOXICITY ASSAY"}, {"conceptId": "C154782", "definition": "A microscopy staining method that utilizes the Congo red stain, a benzidine derivative dye that stains amyloid and may also be used as a pH indicator.", "preferredTerm": "Congo Red Staining Method", "submissionValue": "CONGO RED STAIN"}, {"conceptId": "C120683", "definition": "A type of specular microscopy in which the specular microscope makes contact with the cornea of the eye.", "preferredTerm": "Contact Specular Microscopy", "submissionValue": "CONTACT SPECULAR MICROSCOPY"}, {"conceptId": "C137805", "definition": "A type of CT scan in which images are enhanced by the addition of contrast agents into the body.", "preferredTerm": "Computed Tomography with Contrast", "submissionValue": "CONTRAST ENHANCED CT SCAN"}, {"conceptId": "C46087", "definition": "A technique that uses radiofrequency waves and a magnet to image the body. The images are enhanced by the addition of contrast agents which selectively intensify anatomical regions to intensify the clarity of the image for diagnostic purposes. (NCI)", "preferredTerm": "Contrast-enhanced Magnetic Resonance Imaging", "submissionValue": "CONTRAST ENHANCED MRI"}, {"conceptId": "C142335", "definition": "An imaging technique that utilizes positron emission tomography and computed tomography in a single machine, in which images are enhanced by the addition of contrast agents into the body.", "preferredTerm": "Contrast Enhanced PET-CT Scan", "submissionValue": "CONTRAST ENHANCED PET/CT SCAN"}, {"conceptId": "C147464", "definition": "A type of transesophageal echocardiography in which images are enhanced by the addition of contrast agents into the body.", "preferredTerm": "Transesophageal Echocardiography With Contrast", "submissionValue": "CONTRAST ENHANCED TRANSESOPHAGEAL ECHOCARDIOGRAPHY"}, {"conceptId": "C147465", "definition": "A type of transthoracic echocardiography in which images are enhanced by the addition of contrast agents into the body.", "preferredTerm": "Transthoracic Echocardiography With Contrast", "submissionValue": "CONTRAST ENHANCED TRANSTHORACIC ECHOCARDIOGRAPHY"}, {"conceptId": "C154783", "definition": "A type of X-ray in which images are enhanced by the addition of contrast agents into the body.", "preferredTerm": "Contrast Enhanced X-ray", "submissionValue": "CONTRAST ENHANCED X-RAY"}, {"conceptId": "C100085", "definition": "A procedure in which the catheter is passed into the aortic root or other great vessels for the purpose of angiography of the native coronary arteries or bypass grafts supplying native coronary arteries.", "preferredTerm": "Coronary Angiography", "submissionValue": "CORONARY ANGIOGRAPHY"}, {"conceptId": "C122162", "definition": "A method for measuring the molar concentration of a substance in solution by determining the freezing point of the solution.", "preferredTerm": "Cryoscopy", "submissionValue": "CRYOSCOPY"}, {"conceptId": "C17204", "definition": "An imaging technique for examining structures within the body by scanning them with X rays and using a computer to construct a series of cross-sectional scans along a single axis.", "preferredTerm": "Computed Tomography", "submissionValue": "CT SCAN", "synonyms": ["CT", "Computed Tomography"]}, {"conceptId": "C137806", "definition": "A type of CT scan in which the images are not enhanced by the addition of contrast agents into the body.", "preferredTerm": "Computed Tomography without Contrast", "submissionValue": "CT SCAN WITHOUT CONTRAST"}, {"conceptId": "C16482", "definition": "Endoscopic examination of the urinary bladder or urethra.", "preferredTerm": "Cystoscopy", "submissionValue": "CYSTOSCOPY"}, {"conceptId": "C85837", "definition": "A microscopic technique in which the light that does not come into contact with the structure or details of interest is subtracted from the ocular image. This yields an image in which the structure or details are alight while the areas where the structures or details are absent are dark.", "preferredTerm": "Dark Field Microscopy", "submissionValue": "DARK FIELD MICROSCOPY"}, {"conceptId": "C64862", "definition": "A type of MRI technique that maps the diffusion of water in three dimensions.", "preferredTerm": "Diffusion Tensor Imaging", "submissionValue": "DIFFUSION TENSOR MRI", "synonyms": ["DT-MRI", "DTI", "Diffusion Tensor Imaging"]}, {"conceptId": "C111116", "definition": "A type of MRI technique in which diffusion-sensitizing gradients are applied to the imaging sequence.", "preferredTerm": "Diffusion Weighted Imaging", "submissionValue": "DIFFUSION WEIGHTED MRI", "synonyms": ["DW-MRI", "DWI", "Diffusion Weighted Imaging"]}, {"conceptId": "C116158", "definition": "A technique used to deliver high-throughput digital PCR. The digital array partitions a sample premixed with PCR reagents into hundreds of individual PCR reactions, which allows the absolute quantification of target sequences and rare allele detection, as compared to conventional real-time quantitative PCR.", "preferredTerm": "Digital Array", "submissionValue": "DIGITAL PCR ARRAY", "synonyms": ["Digital PCR", "Digital Polymerase Chain Reaction", "dPCR"]}, {"conceptId": "C106516", "definition": "A strip of composite material that is coated or impregnated with reagents designed to detect the presence of an analyte in a liquid by producing a color change.", "preferredTerm": "Dipstick", "submissionValue": "DIPSTICK"}, {"conceptId": "C116154", "definition": "A technique used to identify the sequence of individual nucleotides in a single strand of DNA fragment template which does not require subcloning and can be a plasmid insert, genomic DNA or a PCR product.", "preferredTerm": "Direct Sequencing", "submissionValue": "DIRECT SEQUENCING"}, {"conceptId": "C85595", "definition": "A method to determine microbial susceptibility to antibiotics in which filter paper disks containing known concentrations of antibiotics are placed on the agar surface that has been previously inoculated with the bacteria of interest. Microbial susceptibility is assessed by measuring the area around the disk that is free of microbial growth.", "preferredTerm": "Disk Diffusion Method", "submissionValue": "DISK DIFFUSION"}, {"conceptId": "C18158", "definition": "An orderly array of DNA samples affixed to a support. The chip is used in various types of hybridization experiments. Used when a more specific microarray methodology is not specified.", "preferredTerm": "DNA Microarray Chip", "submissionValue": "DNA MICROARRAY", "synonyms": ["DNA Chip", "Gene Chip", "Gene Expression Array"]}, {"conceptId": "C62781", "definition": "Diagnostic imaging that uses sound waves (ultrasound) applying the Doppler effect, with frequency-shifted ultrasound reflections produced by moving targets (usually red blood cells) in the bloodstream along the ultrasound axis in direct proportion to the velocity of movement of the targets, to determine both direction and velocity of blood flow.", "preferredTerm": "Doppler Ultrasound", "submissionValue": "DOPPLER ULTRASOUND"}, {"conceptId": "C123465", "definition": "A type of mammography that uses contrast medium to visualize the ducts of the breast.", "preferredTerm": "Ductography", "submissionValue": "DUCTOGRAPHY", "synonyms": ["Galactography"]}, {"conceptId": "C122163", "definition": "A method for assessing bleeding time in which a controlled incision is made on the ear or fingertip.", "preferredTerm": "Duke Incision Method", "submissionValue": "DUKE INCISION METHOD"}, {"conceptId": "C48789", "definition": "A technique for measuring anatomical densities in which two X-ray beams at different energy levels are aimed at the anatomical location of interest and x-ray absorption is assessed.", "preferredTerm": "Dual X-ray Absorptiometry", "submissionValue": "DXA SCAN", "synonyms": ["DEXA Scan"]}, {"conceptId": "C62665", "definition": "A type of contrast-enhanced MRI that allows observation of functional properties in addition to structural properties.", "preferredTerm": "Dynamic Contrast-Enhanced Magnetic Resonance Imaging", "submissionValue": "DYNAMIC CONTRAST ENHANCED MRI"}, {"conceptId": "C62329", "definition": "A type of spectroscopy that utilizes a laser beam to irradiate a sample containing particles in suspension, resulting in light scattering.", "preferredTerm": "Photon Correlation Spectroscopy", "submissionValue": "DYNAMIC LIGHT SCATTERING", "synonyms": ["Photon Correlation Spectroscopy", "Quasi-elastic Light Scattering"]}, {"conceptId": "C116453", "definition": "A type of MRI that uses the transient signal reduction induced by the first pass of gadolinium chelate through the brain vessels to calculate cerebral blood flow maps, and to determine the ratio between the cerebral blood volume in the lesion and the cerebral blood volume in normal tissue.", "preferredTerm": "Dynamic Susceptibility Contrast-Enhanced Magnetic Resonance Imaging", "submissionValue": "DYNAMIC SUSCEPTIBILITY-CONTRAST MRI", "synonyms": ["DSC-MRI"]}, {"conceptId": "C16525", "definition": "A procedure that uses high-frequency sound waves (ultrasound) to create an image of the heart.", "preferredTerm": "Echocardiography", "submissionValue": "ECHOCARDIOGRAPHY"}, {"conceptId": "C38054", "definition": "A technique used to capture and record spontaneous electrical activity of the brain by the application of electrodes to the scalp.", "preferredTerm": "Electroencephalography", "submissionValue": "EEG", "synonyms": ["ELECTROENCEPHALOGRAPHY"]}, {"conceptId": "C17455", "definition": "Any of several immunoassay methods that use an enzyme covalently linked to an antigen or antibody as a label; the most common types are enzyme-linked immunosorbent assay (ELISA) and enzyme-multiplied immunoassay technique (EMIT).", "preferredTerm": "Enzyme Immunoassay", "submissionValue": "EIA", "synonyms": ["Enzyme Immunoassay"]}, {"conceptId": "C106517", "definition": "An ultrasound-based imaging technique used to examine the stiffness or elasticity of a tissue by applying mechanical compression or vibration to the tissue being imaged. (NCI)", "preferredTerm": "Elastography", "submissionValue": "ELASTOGRAPHY"}, {"conceptId": "C111193", "definition": "A method in which electromagnetic radiation, in the form of light emission, is generated from an electrochemical reaction in a solution. (NCI)", "preferredTerm": "Electrochemiluminescence", "submissionValue": "ELECTROCHEMILUMINESCENCE"}, {"conceptId": "C111194", "definition": "A method in which electromagnetic radiation, in the form of light emission, is generated from an electrochemical reaction in a solution due to the formation of antigen-antibody complexes.", "preferredTerm": "Electrochemiluminescence Immunoassay", "submissionValue": "ELECTROCHEMILUMINESCENCE IMMUNOASSAY"}, {"conceptId": "C150871", "definition": "A non-invasive technique that utilizes abdominal skin electrodes and computerized spectral analysis to assess gastric myoelectrical activity.", "preferredTerm": "Electrogastrography", "submissionValue": "ELECTROGASTROGRAPHY"}, {"conceptId": "C38056", "definition": "A method to assess skeletal muscle function and nerve control, obtained by recording and studying the intrinsic electrical properties of the muscles.", "preferredTerm": "Electromyography", "submissionValue": "ELECTROMYOGRAPHY"}, {"conceptId": "C154784", "definition": "A nerve conduction study technique where a brief electrical stimulation is delivered under the skin, and the resulting electrical activity is recorded to assess the conductivity of peripheral nerve impulses.", "preferredTerm": "Electroneurography", "submissionValue": "ELECTRONEUROGRAPHY"}, {"conceptId": "C16536", "definition": "The motion of charged particles in a colloid under the influence of an electric field; particles with a positive charge go to the cathode and negative to the anode.", "preferredTerm": "Electrophoresis", "submissionValue": "ELECTROPHORESIS"}, {"conceptId": "C16553", "definition": "An immunoassay for detecting and measuring antigens or antibodies in a solution; the solution is run over a surface to which immobilized antibodies specific to the substance have been attached, and if the substance is present, it will bind to the antibody layer, and its presence is verified and visualized with an application of antibodies that have been tagged in some way.", "preferredTerm": "ELISA", "submissionValue": "ELISA", "synonyms": ["Enzyme-linked Immunosorbent Assay"]}, {"conceptId": "C102632", "definition": "A highly sensitive immunoassay capable of detecting secreted materials from individuals cells upon activation. If the material of interest is secreted in response to a particular stimulus, then the material will bind to a specific immobilized antibody. Binding is then verified and visualized by applying other antibodies that have been tagged in some way.", "preferredTerm": "Enzyme-linked Immunosorbent Spot Assay", "submissionValue": "ELISPOT", "synonyms": ["Enzyme-linked Immunosorbent Spot Assay"]}, {"conceptId": "C147466", "definition": "An enzyme immunoassay that utilizes enzyme-lectin conjugates to detect specific carbohydrate end groups on immobilized glycoproteins on microtiter plates.", "preferredTerm": "Enzyme-Linked Lectin Assay", "submissionValue": "ELLA", "synonyms": ["Enzyme-Linked Lectin Assay"]}, {"conceptId": "C16546", "definition": "An examination of the body using an endoscope.", "preferredTerm": "Endoscopic Procedure", "submissionValue": "ENDOSCOPY"}, {"conceptId": "C120684", "definition": "An in vitro cell based assay in which plated host cells are inoculated with serial dilutions of an infective agent and observed for cytotoxic effects in order to calculate the titer.", "preferredTerm": "Endpoint Dilution Assay", "submissionValue": "ENDPOINT DILUTION ASSAY"}, {"conceptId": "C111195", "definition": "A type of colorimetry that makes use of an enzymatic reaction to induce a color change. (NCI)", "preferredTerm": "Enzymatic Colorimetry", "submissionValue": "ENZYMATIC COLORIMETRY"}, {"conceptId": "C154785", "definition": "A spectrophotometry technique that measures the changes in the intensity of the light absorbed or scattered in response to an enzymatic reaction.", "preferredTerm": "Enzymatic Spectrophotometry", "submissionValue": "ENZYMATIC SPECTROPHOTOMETRY"}, {"conceptId": "C122164", "definition": "A high-speed centrifugation-based method that uses enzymatic catalytic reaction to quantify a substance.", "preferredTerm": "Enzymatic Ultracentrifugation", "submissionValue": "ENZYMATIC ULTRACENTRIFUGATION"}, {"conceptId": "C111196", "definition": "A type of homogenous immunoassay in which sample is applied to a reagent mixture of enzyme-labeled ligand, antibody, and substrate. Substrate binding to enzyme leads to inactivation and unlabeled-ligand in the sample can be quantified by colorimetric analysis.", "preferredTerm": "Enzyme Multiplied Immunoassay Technique", "submissionValue": "ENZYME MULTIPLIED IMMUNOASSAY TECHNIQUE", "synonyms": ["EMIT"]}, {"conceptId": "C85596", "definition": "A method to determine microbial susceptibility to antibiotics in which a plastic strip impregnated with the antibiotic of interest is placed on an agar plate that has been inoculated with bacteria. The antibiotic diffuses from the strip producing a concentration gradient of drug on the agar. The point at which the elliptical shaped area of growth inhibition meets the strip is the minimum inhibitory concentration of the drug of interest.", "preferredTerm": "Epsilometry", "submissionValue": "EPSILOMETER"}, {"conceptId": "C117877", "definition": "A diagrammatic method to test visual acuity which incorporates the Bailey-Lovie layout in conjunction with Sloan optotypes.", "preferredTerm": "Early Treatment of Diabetic Retinopathy Study Eye Chart", "submissionValue": "ETDRS EYE CHART"}, {"conceptId": "C130172", "definition": "A diagrammatic method to test color blindness or deficiencies, which uses 100 colors from the Munsell color system arranged in rows of four color families and containing 25 hues for each color. The subject must put the hues in order based on the anchor colors on the ends of each row.", "preferredTerm": "Farnsworth-Munsell 100 Hue Test", "submissionValue": "FARNSWORTH-MUNSELL 100 HUE TEST"}, {"conceptId": "C17563", "definition": "A physical mapping approach that uses fluorescent tags to detect hybridization of probes within metaphase chromosomes or less condensed somatic interphase chromatin. This technique can be used for identification of chromosomal abnormalities and for gene mapping.", "preferredTerm": "Fluorescence In Situ Hybridization", "submissionValue": "FISH", "synonyms": ["Fluorescence in Situ Hybridization"]}, {"conceptId": "C106523", "definition": "A type of atomic spectroscopy that qualitatively or quantitatively measures select cations (particularly Na, K, Rb, Cs, Ca, Ba, Cu) by utilizing a low temperature flame capable of exciting a valence electron to an upper energy state which emits light at a wavelength unique to each cation as the electron returns to its ground state. (NCI)", "preferredTerm": "Flame Photometry", "submissionValue": "FLAME PHOTOMETRY"}, {"conceptId": "C154798", "definition": "A process in which microscopic particles in suspension aggregate to form loosely clumped masses that are often macroscopically observable.", "preferredTerm": "Flocculation Assay", "submissionValue": "FLOCCULATION"}, {"conceptId": "C16585", "definition": "A technique for counting, examining or sorting microscopic particles suspended in a stream of fluid. The cells are placed in a fluid (with or without light-sensitive dye) and passed in a stream before a laser or other type of light.", "preferredTerm": "Flow Cytometry", "submissionValue": "FLOW CYTOMETRY"}, {"conceptId": "C112284", "definition": "A method of measuring the number of cells in a sample by placing the cells in a fluid and passing them, in a stream, through a special light microscope that can record and analyze images of the cells to determine the presence of foreign particles, cell counts, protein aggregates and morphology information.", "preferredTerm": "Flow Microscopy", "submissionValue": "FLOW MICROSCOPY"}, {"conceptId": "C116569", "definition": "An examination technique that uses fluorescent dye and a specialized camera to inspect blood flow within vessels.", "preferredTerm": "Fluorescence Angiography", "submissionValue": "FLUORESCENCE ANGIOGRAPHY"}, {"conceptId": "C142336", "definition": "An assay technique that uses one or more antibodies to detect an analyte, where either the analyte or antibody is labelled with an enzyme. The binding of antibody to analyte is detected by the enzyme converting a substrate to a fluorescent product.", "preferredTerm": "Fluorescent Enzyme Immunoassay", "submissionValue": "FLUORESCENT ENZYME IMMUNOASSAY", "synonyms": ["FEIA"]}, {"conceptId": "C17370", "definition": "A bioassay in which fluorescent-coupled antibodies or antigens are used to quantify or qualify a biological response to a stimulus.", "preferredTerm": "Fluorescent Antibody Procedure", "submissionValue": "FLUORESCENT IMMUNOASSAY", "synonyms": ["Fluorescent Antibody Assay", "Immunofluorescence Assay"]}, {"conceptId": "C154786", "definition": "An imaging technique that produces spatially resolved images based on the differences in the excited state decay rates of fluorescent compounds in a sample.", "preferredTerm": "Fluorescence Lifetime Imaging Microscopy", "submissionValue": "FLUORESCENT LIFETIME IMAGING MICROSCOPY"}, {"conceptId": "C16856", "definition": "Microscopy of specimens stained with fluorescent dye (usually fluorescein isothiocyanate) or of naturally fluorescent materials, which emit light when exposed to ultraviolet or blue light.", "preferredTerm": "Fluorescence Microscopy", "submissionValue": "FLUORESCENT MICROSCOPY"}, {"conceptId": "C132427", "definition": "A method to assess enzymatic activity in which a substrate reagent is incubated with a biological specimen and spotted on filter paper. The spots are then examined for fluorescence, which correlates with enzyme activity.", "preferredTerm": "Fluorescent Spot Test", "submissionValue": "FLUORESCENT SPOT TEST"}, {"conceptId": "C62322", "definition": "An analytical method that utilizes ultraviolet light to excite the sample and detects the fluorescence emitted during the return of the sample to its ground state. (NCI)", "preferredTerm": "Fluorimetry", "submissionValue": "FLUORIMETRY"}, {"conceptId": "C16588", "definition": "An imaging technique that produces real-time, moving images of tissues and deep structures of the body using the fluoroscope, a device that produces an image when X-rays strike a fluorescent screen.", "preferredTerm": "Fluoroscopy", "submissionValue": "FLUOROSCOPY"}, {"conceptId": "C122165", "definition": "A non-invasive method to evaluate respiratory mechanical properties of the lung and airways using small-amplitude pressure oscillations superimposed on the normal, tidal breathing of a subject.", "preferredTerm": "Forced Oscillation Technique", "submissionValue": "FORCED OSCILLATION TECHNIQUE", "synonyms": ["FOT"]}, {"conceptId": "C135453", "definition": "The addition of a solute to a solvent that results in a decrease in the temperature at which the solute-solvent mixture (solution) freezes.", "preferredTerm": "Freezing Point Depression", "submissionValue": "FREEZING POINT DEPRESSION"}, {"conceptId": "C17958", "definition": "A type of MRI that takes a series of images of an organ in quick succession and statistically analyzes the differences between the images.", "preferredTerm": "Functional Magnetic Resonance Imaging", "submissionValue": "FUNCTIONAL MRI", "synonyms": ["fMRI"]}, {"conceptId": "C147467", "definition": "A method of capturing images of the vitreous, retina, choroid, and optic nerve using a fundus camera, a specialized low power microscope with an attached camera.", "preferredTerm": "Eye Fundus Photography", "submissionValue": "FUNDUS PHOTOGRAPHY"}, {"conceptId": "C135454", "definition": "An analytical technique where gas chromatography is coupled with flame ionization detection in order to separate, identify, and quantify substances in a sample.", "preferredTerm": "Gas Chromatography and Flame Ionization Detection", "submissionValue": "GC/FID", "synonyms": ["Gas Chromatography/Flame Ionization Detector"]}, {"conceptId": "C111203", "definition": "An analytical technique where gas chromatography is coupled with mass spectrometry in order to separate, identify, and quantify substances in a sample. (NCI)", "preferredTerm": "Gas Chromatography Mass Spectrometry", "submissionValue": "GC/MS", "synonyms": ["Gas Chromatography/Mass Spectrometry"]}, {"conceptId": "C120686", "definition": "An analytical technique where gas chromatography is coupled with chemical ionization mass spectrometry in order to separate, identify, and quantify substances in a sample.", "preferredTerm": "Gas Chromatography/Chemical Ionization Mass Spectrometry", "submissionValue": "GC/MS-CI"}, {"conceptId": "C120687", "definition": "An analytical technique where gas chromatography is coupled with electron ionization mass spectrometry in order to separate, identify, and quantify substances in a sample.", "preferredTerm": "Gas Chromatography/Electron Ionization Mass Spectrometry", "submissionValue": "GC/MS-EI"}, {"conceptId": "C120685", "definition": "An analytical technique where gas chromatography is coupled to tandem mass spectrometry in order to separate, identify, and quantify substances in a sample.", "preferredTerm": "Gas Chromatography/Tandem Mass Spectrometry", "submissionValue": "GC/MS/MS"}, {"conceptId": "C18091", "definition": "A method of separating large molecules (such as DNA fragments or proteins) from a mixture of similar molecules by electrophoretic filtration through a gelatinous matrix.", "preferredTerm": "Gel Electrophoresis", "submissionValue": "GEL ELECTROPHORESIS"}, {"conceptId": "C85598", "definition": "A microscopy staining method that utilizes Giemsa, a mixture of ethylene blue and eosin, which forms purplish-black crystals when dried. This stain preferentially binds to the phosphate groups of DNA and aggregates at areas with an increase in adenine-thymine binding, thus leading to chromosomal staining patterns that lend themselves to g-banding analysis. Additionally Giemsa can be used as a differential stain to determine microbial cell adherence to human cells as well as in the diagnosis of malaria, spirochete, and protozoal infections.", "preferredTerm": "Giemsa Staining Method", "submissionValue": "GIEMSA STAIN"}, {"conceptId": "C85599", "definition": "A method to determine microbial susceptibility to antibiotics in which an agar plate, which has a concentration gradient of the drug within the agar, is streaked with the microorganism of interest. Microbial susceptibility as well as minimum inhibitory concentration of antibiotic is assessed.", "preferredTerm": "Gradient Diffusion Method", "submissionValue": "GRADIENT DIFFUSION"}, {"conceptId": "C23014", "definition": "A microscopy staining method for staining and identifying bacteria, based on the differential retention of a crystal violet-iodine complex within the cell membrane. Gram-positive organisms will appear blue-black or purple while Gram-negative organisms will appear red.", "preferredTerm": "Gram Staining Method", "submissionValue": "GRAM STAIN"}, {"conceptId": "C111205", "definition": "A microscopy staining method that uses Hansel reagent to differentiate eosinophils and neutrophils in a specimen. (NCI)", "preferredTerm": "Hansel Staining Method", "submissionValue": "HANSEL STAIN"}, {"conceptId": "C130173", "definition": "An in vitro assay that is used to determine the relative concentration of viruses, bacteria, or antibodies in which serial dilutions of solution containing virus, bacteria, or antibody are applied to red blood cells in culture to look for the presence of hemagglutination.", "preferredTerm": "Hemagglutination Assay", "submissionValue": "HEMAGGLUTINATION ASSAY"}, {"conceptId": "C120688", "definition": "An in vitro assay that is used to determine whether antibodies present in serum samples will inhibit hemagglutination in a cell culture plate containing red blood cells and a hemagglutinating agent.", "preferredTerm": "Hemagglutination Inhibition Assay", "submissionValue": "HEMAGGLUTINATION INHIBITION ASSAY"}, {"conceptId": "C23011", "definition": "A microscopy staining method that utilizes two separate dyes, one staining the nucleus and the other staining the cytoplasm and connective tissue. Hematoxylin is a dark purplish dye that stains the chromatin (nuclear material) within the nucleus. Eosin is an orangish-pink to red dye that stains the cytoplasmic material including connective tissue and collagen.", "preferredTerm": "Hematoxylin and Eosin Staining Method", "submissionValue": "HEMATOXYLIN AND EOSIN STAIN", "synonyms": ["H&E Stain"]}, {"conceptId": "C120689", "definition": "A method that uses a thick glass slide containing a chamber with a defined volume, which is etched with a precisely ruled grid and is used to quantify cells or cell-sized particles in suspension.", "preferredTerm": "Hemocytometry", "submissionValue": "HEMOCYTOMETRY"}, {"conceptId": "C95525", "definition": "An assay used to verify the presence of anti-HCV antibodies in a blood sample. Serum is incubated with a membrane strip on which four recombinant viral proteins are attached. The immunoblot is considered positive if two or more proteins react, and indeterminate if only one positive band is detected. (NCI)", "preferredTerm": "Hepatitis C Virus Recombinant Immunoblot Assay", "submissionValue": "HEPATITIS C VIRUS RECOMBINANT IMMUNOBLOT ASSAY"}, {"conceptId": "C85556", "definition": "A method to determine microbial susceptibility to high concentrations of aminoglycoside antibiotics.", "preferredTerm": "Aminoglycoside Screening Method", "submissionValue": "HIGH LEVEL AMINOGLYCOSIDE SCREEN"}, {"conceptId": "C130174", "definition": "A reverse real-time polymerase chain reaction technique in which fluorescently labeled double-stranded DNA is slowly melted apart by increasing temperature.", "preferredTerm": "High Resolution Melt Analysis", "submissionValue": "HIGH RESOLUTION MELT ANALYSIS"}, {"conceptId": "C132428", "definition": "A visual color scale created by Hillman et al in 2004 to enable standardization of urine color in the assessment of hemoglobinuria.", "preferredTerm": "Hillmen Color Chart", "submissionValue": "HILLMEN COLOR CHART"}, {"conceptId": "C16434", "definition": "Frequently referred to simply as HPLC, this form of column chromatography is used frequently in biochemistry. The analyte is forced through a column by liquid at high pressure, which decreases the time the separated components remain on the stationary phase. Less time on the column then translates to narrower peaks in the resulting chromatogram and thence to better selectivity and sensitivity.", "preferredTerm": "High Performance Liquid Chromatography", "submissionValue": "HPLC", "synonyms": ["High Performance Liquid Chromatography"]}, {"conceptId": "C120692", "definition": "An analytical technique where high performance liquid chromatography with a fluorescence detector is used to separate, identify, and quantify substances in a sample.", "preferredTerm": "High-performance Liquid Chromatography-Fluorescence", "submissionValue": "HPLC-FL"}, {"conceptId": "C120693", "definition": "An analytical technique where high performance liquid chromatography with an ultraviolet light detector is used to separate, identify, and quantify substances in a sample.", "preferredTerm": "High-performance Liquid Chromatography-UV", "submissionValue": "HPLC-UV"}, {"conceptId": "C120690", "definition": "An analytical technique where high performance liquid chromatography is coupled to ion exchange chromatography in order to separate proteins based on net charge.", "preferredTerm": "High-performance Liquid Chromatography/Ion-Exchange Chromatography", "submissionValue": "HPLC/IEX"}, {"conceptId": "C103513", "definition": "An analytical technique wherein high performance liquid chromatography is coupled to mass spectrometry in order to separate, identify, and quantify substances in a sample.", "preferredTerm": "High Performance Liquid Chromatography Mass Spectrometry", "submissionValue": "HPLC/MS", "synonyms": ["High Performance Liquid Chromatography/Mass Spectrometry"]}, {"conceptId": "C120691", "definition": "An analytical technique where high performance liquid chromatography is coupled to tandem mass spectrometry in order to separate, identify, and quantify substances in a sample.", "preferredTerm": "High-performance Liquid Chromatography/Tandem Mass Spectrometry", "submissionValue": "HPLC/MS/MS"}, {"conceptId": "C62328", "definition": "A mass spectrometry technique that uses inductively-coupled plasma generated from argon gas to atomize and ionize a sample. The resulting ions are separated and analyzed using a mass spectrometer.", "preferredTerm": "Inductively-Coupled Plasma Mass Spectrometry", "submissionValue": "ICP-MS"}, {"conceptId": "C23020", "definition": "Immunohistochemical staining techniques allow for the visualization of antigens via the sequential application of a specific antibody to the antigen (primary antibody), a secondary antibody to the primary antibody and an enzyme complex with a chromogenic substrate. The enzymatic activation of the chromogen results in a visible reaction product at the antigen site. The specimen may then be counterstained and coverslipped. Results are interpreted using a light microscope and aid in the differential diagnosis of pathophysiological processes, which may or may not be associated with a particular antigen.", "preferredTerm": "Immunohistochemistry Staining Method", "submissionValue": "IHC", "synonyms": ["Immunohistochemistry"]}, {"conceptId": "C16714", "definition": "An immunological procedure involving the usage of enzyme-antibody or enzyme-antigen conjugates, antienzyme antibodies, or enzyme-antienzyme complexes.", "preferredTerm": "Immunoenzyme Procedure", "submissionValue": "IMMUNOASSAY"}, {"conceptId": "C17638", "definition": "A technique for analyzing or identifying proteins immobilized on a filter by complementary reaction with specific antibodies. (NCI)", "preferredTerm": "Immunoblot Analysis", "submissionValue": "IMMUNOBLOT"}, {"conceptId": "C111235", "definition": "An immunoassay in which the antigen-antibody complex is quantified using light emission, which is generated from a chemical reaction.", "preferredTerm": "Immunochemiluminometric Assay", "submissionValue": "IMMUNOCHEMILUMINOMETRIC ASSAY", "synonyms": ["Chemiluminesence Immunoassay", "ICMA"]}, {"conceptId": "C154792", "definition": "A type of chromatography assay in which an antibody-conjugate is passed over an immobilized antigen, or an antigen-conjugate is passed over an immobilized antibody, giving a visual indication of positive or negative result.", "preferredTerm": "Immunochromatography", "submissionValue": "IMMUNOCHROMATOGRAPHY", "synonyms": ["ICA", "Immunochromatography Assay"]}, {"conceptId": "C54536", "definition": "An enhancement of immunoelectrophoresis in which a series of post-electrophoretic gel slabs are layered with cellulose-acetate gels saturated with specific antibodies. The resulting antigen-antibody complexes fixed on the second gel may then be stained, allowing sensitive and specific qualitative visual identification of proteins by electrophoretic position.", "preferredTerm": "Immunofixation", "submissionValue": "IMMUNOFIXATION ELECTROPHORESIS", "synonyms": ["IFE"]}, {"conceptId": "C142337", "definition": "A microscopy staining method that utilizes immunofluorescent markers for use with histological applications of preserved cells.", "preferredTerm": "Immunofluorescent Staining Method", "submissionValue": "IMMUNOFLUORESCENT STAIN"}, {"conceptId": "C142338", "definition": "An imaging technique in which fluorescently labeled cells are immunomagnetically selected and imaged by fluorescent microscopy.", "preferredTerm": "Immunomagnetic Fluorescence Microscopy", "submissionValue": "IMMUNOMAGNETIC FLUORESCENCE MICROSCOPY"}, {"conceptId": "C16724", "definition": "Antigen aggregation with antibody, in the right ratios, to cause precipitation. (NCI)", "preferredTerm": "Immunoprecipitation", "submissionValue": "IMMUNOPRECIPITATION"}, {"conceptId": "C111236", "definition": "An antibody-excess, non-competition radioimmunometric assay in which ligand is sandwiched between an immobilized antibody on a solid phase and a radiolabeled antibody raised against a different epitope of the ligand.", "preferredTerm": "Immunoradiometric Assay", "submissionValue": "IMMUNORADIOMETRIC ASSAY", "synonyms": ["IRMA"]}, {"conceptId": "C106536", "definition": "A method that measures the absorbance of light from a sample which is used for quantifying an amount of analyte based on the level of turbidity produced by the formation and precipitation of an immune complex containing the analyte. (NCI)", "preferredTerm": "Immunoturbidimetry", "submissionValue": "IMMUNOTURBIDIMETRY"}, {"conceptId": "C154797", "definition": "A method that measures impedance of conductivity which corrects for the concentrations of conducting ions in the sample.", "preferredTerm": "Impedance Conductivity", "submissionValue": "IMPEDANCE CONDUCTIVITY"}, {"conceptId": "C122166", "definition": "A non-invasive method to measure pulmonary resistance and reactance, and the impedance of the respiratory system, using small pressure oscillation of a regular square wave of pressure 5 times per second.", "preferredTerm": "Impulse Oscillometry", "submissionValue": "IMPULSE OSCILLOMETRY", "synonyms": ["IOS"]}, {"conceptId": "C17562", "definition": "Use of a DNA or RNA probe to detect the presence of complementary sequences in chromosomes, cells, or tissues. (NCI)", "preferredTerm": "In Situ Hybridization", "submissionValue": "IN SITU HYBRIDIZATION"}, {"conceptId": "C122039", "definition": "A method for assessing bleeding time in which a controlled incision is made in the dermis and the time to bleeding cessation is measured.", "preferredTerm": "Incision-induced Bleeding Method", "submissionValue": "INCISION-INDUCED BLEEDING METHOD"}, {"conceptId": "C85642", "definition": "A microscopy staining method that utilizes India Ink, a water soluble carbon-based black ink, to determine the presence of microorganisms that are surrounded by a gelatinous capsule. This is a negative staining method in which background is stained in black and the microbes and microscopic structures of interest remain white.", "preferredTerm": "India Ink Staining Method", "submissionValue": "INDIA INK STAIN"}, {"conceptId": "C85643", "definition": "A spectrometric method that determines the type and concentration of elements or chemicals in a sample, based upon the principle that the atoms in a sample will vibrate or rotate at a specific frequency when exposed to infrared light.", "preferredTerm": "Infrared Spectrometry", "submissionValue": "INFRARED SPECTROMETRY"}, {"conceptId": "C124352", "definition": "A non-invasive method of measuring airway resistance during which the subject breathes normally while airflow is interrupted at a predetermined rate and volume during the early exhalation phase.", "preferredTerm": "Interrupter Technique", "submissionValue": "INTERRUPTER TECHNIQUE", "synonyms": ["RINT"]}, {"conceptId": "C99535", "definition": "An invasive procedure in which sound waves (called ultrasound) are bounced off of vascular tissues from within the vessel and the echoes produce a picture (sonogram).", "preferredTerm": "Intravascular Ultrasound", "submissionValue": "INTRAVASCULAR ULTRASOUND", "synonyms": ["IVUS"]}, {"conceptId": "C85649", "definition": "A microscopy staining method that utilizes Iodine, an element belonging to the halogen group, which specifically stains polysaccharides such as cellulose, chitin, glycogen, and starch a blue color.", "preferredTerm": "Iodine Staining Method", "submissionValue": "IODINE STAIN"}, {"conceptId": "C85650", "definition": "A microscopy staining method that utilizes a mixture of iron and hematoxylin to visualize intracellular structures in a microscopic sample. In this dye system, iron acts as a mordant to hematoxylin rendering it insoluble, thereby allowing irreversible blue-black colored dyeing to the cell nucleus.", "preferredTerm": "Iron Hematoxylin Staining Method", "submissionValue": "IRON HEMATOXYLIN STAIN"}, {"conceptId": "C123466", "definition": "A diagrammatic method to test color blindness or deficiencies, which uses a circular form composed of multiple size circles in varying colors. A number or symbol is present in the middle and is composed of similar sized circles, which are a different color from those of the outer circular form.", "preferredTerm": "Ishihara Color Plates", "submissionValue": "ISHIHARA COLOR PLATES"}, {"conceptId": "C122167", "definition": "A method for assessing bleeding time in which a controlled incision is made on the underside of the arm and blood is drawn off of the incision site with blotting paper every 30 seconds until bleeding stops.", "preferredTerm": "Ivy Incision Method", "submissionValue": "IVY INCISION METHOD"}, {"conceptId": "C130175", "definition": "A diagrammatic method to test visual acuity that uses paragraphs of text in differing font sizes to assess near vision.", "preferredTerm": "Jaeger Eye Chart", "submissionValue": "JAEGER EYE CHART"}, {"conceptId": "C120694", "definition": "A colorimetric method used to measure creatinine, in which color change is directly related to the amount of creatinine in an alkaline solution containing picric acid.", "preferredTerm": "Jaffe Reaction", "submissionValue": "JAFFE REACTION"}, {"conceptId": "C16768", "definition": "The preparation, analysis, and interpretation of a karyotype, the representation of the chromosome set of a cell sample.", "preferredTerm": "Karyotyping", "submissionValue": "KARYOTYPING"}, {"conceptId": "C142339", "definition": "A bioassay in which a biological specimen is incubated with a kinetic substrate, followed by optical assessment of color change.", "preferredTerm": "Kinetic Chromogenic Assay", "submissionValue": "KINETIC CHROMOGENIC ASSAY"}, {"conceptId": "C111240", "definition": "A type of immunoassay in which the antigen of interest found in a biological specimen competes with a lattice of antigen-antibody complexes. Competing antigen inhibits lattice formation and decreases absorbance in proportion to the amount of antigen present in a biological specimen. (NCI)", "preferredTerm": "Kinetic Microparticle Immunoassay", "submissionValue": "KINETIC MICROPARTICLE IMMUNOASSAY"}, {"conceptId": "C85651", "definition": "A microscopy acid fast staining method that utilizes kinyoun carbol fuchsin, a dye containing basic fuchsin in solution with ethyl alcohol and aqueous phenol. This acid fast staining technique does not require heating during the primary staining step involving the carbol fuchsin.", "preferredTerm": "Kinyoun Staining Method", "submissionValue": "KINYOUN STAIN"}, {"conceptId": "C154787", "definition": "A technique which measures lower limb length using a knemometer, for the assessment of short-term growth and development in childhood.", "preferredTerm": "Knemometry", "submissionValue": "KNEMOMETRY"}, {"conceptId": "C142340", "definition": "A diagrammatic method to test visual acuity in which a symbol, in the shape of the letter C, is presented to the patient who must identify on which side of the symbol the gap is present. Both the size of the gap and the size of the symbol are reduced until the subject makes a predetermined rate of errors, thus ending the test. (NCI)", "preferredTerm": "Landolt Ring", "submissionValue": "LANDOLT RING"}, {"conceptId": "C16969", "definition": "A technique used to examine the abdominopelvic region with a laparoscope.", "preferredTerm": "Laparoscopy", "submissionValue": "LAPAROSCOPY"}, {"conceptId": "C19263", "definition": "A technique used for the highly specific and selective capture and isolation of a cell population from a heterogeneous tissue section, cytological preparation, or live cell culture. This technique uses direct visualization of the cells via microscopy as well as a laser energy source for cutting and extraction of the cells.", "preferredTerm": "Laser Capture Microdissection", "submissionValue": "LASER CAPTURE MICRODISSECTION", "synonyms": ["LCM", "LMD", "Laser Microdissection"]}, {"conceptId": "C122169", "definition": "An analytical technique where liquid chromatography with a fluorescence detector is used to separate, identify, and quantify substances in a sample.", "preferredTerm": "Liquid Chromatography-Fluorescence", "submissionValue": "LC-FL"}, {"conceptId": "C18475", "definition": "An analytical technique wherein liquid chromatography is coupled to mass spectrometry in order to separate, identify, and quantify substances in a sample.", "preferredTerm": "Liquid Chromatography Mass Spectrometry", "submissionValue": "LC/MS", "synonyms": ["Liquid Chromatography/Mass Spectrometry"]}, {"conceptId": "C122168", "definition": "An analytical technique where liquid chromatography is coupled to tandem mass spectrometry in order to separate, identify, and quantify substances in a sample.", "preferredTerm": "Liquid Chromatography/Tandem Mass Spectrometry", "submissionValue": "LC/MS/MS"}, {"conceptId": "C92301", "definition": "A microscopy staining method that utilizes lead citrate, a mixture of lead nitrate and sodium citrate, and has applications for electron microscopy staining.", "preferredTerm": "Lead Citrate Staining Method", "submissionValue": "LEAD CITRATE STAIN"}, {"conceptId": "C17995", "definition": "Light microscopy is a technique for producing visible images of structures or details which are too small to be otherwise seen by the human eye. It involves passing light transmitted through or reflected from the subject through a series of lenses to be detected directly by the eye, imaged on a photographic plate, or captured digitally.", "preferredTerm": "Light Microscopy", "submissionValue": "LIGHT MICROSCOPY"}, {"conceptId": "C20059", "definition": "A type of spectroscopy that measures power spectral density of surface morphology by exploiting the tendency of light to disperse into a range of directions as a result of physical interaction.", "preferredTerm": "Light-Scattering Spectroscopy", "submissionValue": "LIGHT SCATTERING SPECTROSCOPY", "synonyms": ["LiSSP"]}, {"conceptId": "C102656", "definition": "A microbial identification technique in which polymerase chain reaction is used to amplify specific nucleic acid sequences in a biospecimen. The product of this reaction is then applied to a nitrocellulose test strip containing complementary DNA probes.", "preferredTerm": "Line Probe Assay", "submissionValue": "LINE PROBE ASSAY", "synonyms": ["LPA", "LiPA"]}, {"conceptId": "C122170", "definition": "A method for measuring the amount of ionizing radiation in a liquid substance. Samples are mixed with a mixture of solvent, surfactant and scintillators that can convert beta particles into light energy, which can be measured.", "preferredTerm": "Liquid Scintillation Counting", "submissionValue": "LIQUID SCINTILLATION COUNTING"}, {"conceptId": "C102661", "definition": "A type of nucleic acid amplification test in which sample DNA is exposed to a single temperature in the presence of multiple sets of primers and a polymerase with replication and high strand displacement activity. This test negates the need for thermal cyclers and may be a low cost alternative to PCR.", "preferredTerm": "Loop-mediated Isothermal Amplification", "submissionValue": "LOOP-MEDIATED ISOTHERMAL AMPLIFICATION", "synonyms": ["LAMP"]}, {"conceptId": "C92300", "definition": "A microscopy staining method that utilizes luxol fast blue, an alcohol soluble copper phthalocyanine dye, and cresyl violet, an organic compound that is commonly used as a counter stain, to determine the presence of myelin as well as helicobacter and campylobacter bacterial species.", "preferredTerm": "Luxol Fast Blue and Cresyl Violet Staining Method", "submissionValue": "LUXOL FAST BLUE AND CRESYL VIOLET STAIN"}, {"conceptId": "C85697", "definition": "A method to determine the minimum inhibitory concentration (MIC) of antibiotics in which growth media is pipetted into a test tube. Each tube contains a known concentration of drug and is inoculated with a known quantity of bacteria. The tubes are incubated for a specified period of time and each is assessed for bacterial cell growth. The drug concentration in the first tube showing no growth is known as the MIC for that antibiotic.", "preferredTerm": "Macro Broth Dilution Method", "submissionValue": "MACRO BROTH DILUTION"}, {"conceptId": "C114867", "definition": "A type of magnetic resonance imaging that is used to construct images of blood vessels.", "preferredTerm": "MRI-Based Angiogram", "submissionValue": "MAGNETIC RESONANCE ANGIOGRAPHY", "synonyms": ["MRA"]}, {"conceptId": "C113775", "definition": "A type of magnetic resonance imaging that is used to construct images of the intrahepatic and extrahepatic bile ducts, the pancreatic duct, and the surrounding parenchyma.", "preferredTerm": "Magnetic Resonance Cholangiopancreatography", "submissionValue": "MAGNETIC RESONANCE CHOLANGIOPANCREATOGRAPHY", "synonyms": ["MRCP"]}, {"conceptId": "C19338", "definition": "An imaging technique that combines MRI with ultrasound to assess the mechanical properties of tissues. An MRI machine captures a cross sectional image of the sound waves, produced by ultrasound techniques, which are then processed by computer to produce an image showing the hardness or elasticity of tissues within the cross section.", "preferredTerm": "Magnetic Resonance Elastography", "submissionValue": "MAGNETIC RESONANCE ELASTOGRAPHY", "synonyms": ["MRE"]}, {"conceptId": "C48040", "definition": "A mass spectrometric technique that is used for the analysis of large biomolecules. Analyte molecules are embedded in an excess matrix of small organic molecules that show a high resonant absorption at the laser wavelength used. The matrix absorbs the laser energy, thus inducing a soft disintegration of the sample- matrix mixture into free (gas phase) matrix and analyte molecules and molecular ions. In general, only molecular ions of the analyte molecules are produced and almost no fragmentation occurs. This makes the method well suited for molecular weight determinations and mixture analysis. (CHI)", "preferredTerm": "Matrix-Assisted Laser Desorption Ionization Mass Spectrometry", "submissionValue": "MALDI", "synonyms": ["Matrix-Assisted Laser Desorption Ionization Mass Spectrometry"]}, {"conceptId": "C19935", "definition": "In MALDI-TOF, a laser pulse is fired into a protein or peptide sample contained in a light-absorbing matrix. A small explosion vaporizes and ionizes the sample. In the presence of a high electric field, peptide ions are accelerated down an evacuated flight tube. Because large particles travel more slowly than small ones, the masses of the ionized particles are determined by measuring their arrival time at the end of the tube.", "preferredTerm": "Matrix-Assisted Laser Desorption/Ionization-Time of Flight Mass Spectrometry", "submissionValue": "MALDI-TOF", "synonyms": ["Matrix-Assisted Laser Desorption/Ionization-Time of Flight Mass Spectrometry"]}, {"conceptId": "C16818", "definition": "A type of radiography used specifically to examine breast tissue. The procedure utilizes a low-dose of x-rays or radiation to generate an image.", "preferredTerm": "Mammography", "submissionValue": "MAMMOGRAPHY"}, {"conceptId": "C111245", "definition": "A clot detection method that uses a manual means (visual discernment) to detect the presence and/or quantify the formation of a thrombus in a specimen. (NCI)", "preferredTerm": "Manual Clot Detection", "submissionValue": "MANUAL CLOT DETECTION"}, {"conceptId": "C154795", "definition": "A technique to determine the number of entities, which is performed by visual inspection.", "preferredTerm": "Manual Count", "submissionValue": "MANUAL COUNT"}, {"conceptId": "C116159", "definition": "A screening method used to determine changes in complex genomes. This method uses unique short probes which are quantitatively recovered and amplified after hybridization to genomic DNA.", "preferredTerm": "Multiplex Amplifiable Probe Hybridization", "submissionValue": "MAPH", "synonyms": ["Multiplex Amplifiable Probe Hybridization"]}, {"conceptId": "C17156", "definition": "An analytical technique wherein ions are separated according to their ratio of charge to mass. From the mass spectrum produced, the atomic weight of the particle can be deduced.", "preferredTerm": "Mass Spectrometry", "submissionValue": "MASS SPECTROMETRY", "synonyms": ["MassSpec"]}, {"conceptId": "C111249", "definition": "A clot detection method that uses a mechanical means (electromagnetic mechanical or electromechanical) to detect the presence of or quantify the formation of a thrombus in a specimen. (NCI)", "preferredTerm": "Mechanical Clot Detection", "submissionValue": "MECHANICAL CLOT DETECTION"}, {"conceptId": "C16829", "definition": "A technique used to examine the thorax with a mediastinoscope.", "preferredTerm": "Mediastinoscopy", "submissionValue": "MEDIASTINOSCOPY"}, {"conceptId": "C85701", "definition": "A method to determine the minimum inhibitory concentration (MIC) of antibiotics in which growth media is pipetted into a multi-well plate. Each well contains a known concentration of drug which is inoculated with a known quantity of bacteria. The plate is incubated for a specified period of time and each well is assessed for bacterial cell growth. The drug concentration in the first well showing no growth is known as the MIC for that antibiotic.", "preferredTerm": "Micro Broth Dilution Method", "submissionValue": "MICRO BROTH DILUTION"}, {"conceptId": "C142341", "definition": "An immunoassay that involves coating microbeads of latex with antigens or antibodies, mixing them with a fluid specimen, and then observing for any agglutination.", "preferredTerm": "Micro-Latex Particle-Mediated Immunoassay", "submissionValue": "MICRO-LATEX PARTICLE-MEDIATED IMMUNOASSAY", "synonyms": ["Latex Agglutination", "Latex Fixation"]}, {"conceptId": "C44282", "definition": "A piece of glass or plastic on which different samples have been affixed at separate locations in an ordered manner thus forming a microscopic array. The samples are usually DNA fragments but may also be antibodies, other proteins, or tissues.", "preferredTerm": "Microarray", "submissionValue": "MICROARRAY"}, {"conceptId": "C51955", "definition": "Any of a number of biochemical tests performed to identify the genus and/or species of a microorganism. These may include the assessment of gram reaction or metabolic characteristics.", "preferredTerm": "Bacterial Typing Procedure", "submissionValue": "MICROBIAL BIOCHEMICAL IDENTIFICATION"}, {"conceptId": "C85702", "definition": "Any technique in which a sample is condensed in order to afford greater sensitivity for the detection of microorganisms.", "preferredTerm": "Microbial Concentration Method", "submissionValue": "MICROBIAL CONCENTRATION"}, {"conceptId": "C25300", "definition": "Any method for growing microorganisms.", "preferredTerm": "Microbial Culture Procedure", "submissionValue": "MICROBIAL CULTURE", "synonyms": ["Culture Procedure"]}, {"conceptId": "C102668", "definition": "A method for growing microorganisms in liquid culture media.", "preferredTerm": "Microbial Liquid Culture", "submissionValue": "MICROBIAL CULTURE, LIQUID"}, {"conceptId": "C102669", "definition": "A method for growing microorganisms in solid culture media.", "preferredTerm": "Microbial Solid Culture", "submissionValue": "MICROBIAL CULTURE, SOLID"}, {"conceptId": "C150872", "definition": "A technique for measuring microscopic optical density on exposed film or photographic images through the detection of faint spectral lines.", "preferredTerm": "Microdensitometry", "submissionValue": "MICRODENSITOMETRY"}, {"conceptId": "C120695", "definition": "An in vitro assay that is used to determine whether antibodies that can block viral infection are present in a biological specimen.", "preferredTerm": "Microneutralization Assay", "submissionValue": "MICRONEUTRALIZATION ASSAY"}, {"conceptId": "C111252", "definition": "An enzyme immunoassay that uses antigen-coated microparticles as a substrate for antibody binding.", "preferredTerm": "Microparticle Enzyme Immunoassay", "submissionValue": "MICROPARTICLE ENZYME IMMUNOASSAY", "synonyms": ["MEIA"]}, {"conceptId": "C16853", "definition": "The application of microscope magnification to the study of materials that cannot be properly seen by the unaided eye. (NCI)", "preferredTerm": "Microscopy", "submissionValue": "MICROSCOPY"}, {"conceptId": "C85736", "definition": "A microscopy staining method, that does not utilize heat in the slide preparation, used to examine a specimen for the presence of acid-fast microorganisms, specifically nocardia.", "preferredTerm": "Modified Acid Fast Staining Method", "submissionValue": "MODIFIED ACID FAST STAIN"}, {"conceptId": "C16809", "definition": "Imaging that uses radiofrequency waves and a strong magnetic field rather than x-rays to provide amazingly clear and detailed pictures of internal organs and tissues. The technique is valuable for the diagnosis of many pathologic conditions, including cancer, heart and vascular disease, stroke, and joint and musculoskeletal disorders.", "preferredTerm": "Magnetic Resonance Imaging", "submissionValue": "MRI", "synonyms": ["Magnetic Resonance Imaging"]}, {"conceptId": "C114184", "definition": "A technique that uses radiofrequency waves and a magnet to image the body, in which the images are not enhanced by the addition of contrast agents.", "preferredTerm": "MRI Without Contrast", "submissionValue": "MRI WITHOUT CONTRAST"}, {"conceptId": "C29934", "definition": "Magnetic resonance spectroscopy is a noninvasive imaging technique that operates by exciting and recording signals from a range of magnetic resonance frequencies, allowing the identification and quantification of several biologically significant molecules containing proton groups that resonate in the appropriate frequency range. The technique facilitates observation of the spatial distribution of metabolic patterns over a region of interest and surrounding tissue at a high spatial resolution. (NCI)", "preferredTerm": "Magnetic Resonance Spectroscopic Imaging", "submissionValue": "MRS", "synonyms": ["Magnetic Resonance Spectroscopy"]}, {"conceptId": "C38073", "definition": "A multi-gated acquisition (MUGA) scan and a form of radionuclide imaging that provides a comprehensive look at blood flow and the function of the lower chambers of the heart ventricles. (NCI)", "preferredTerm": "Radionuclide Ventriculogram Scan", "submissionValue": "MUGA", "synonyms": ["Radionuclide Ventriculogram Scan"]}, {"conceptId": "C106545", "definition": "A type of spiral computed tomography that employs multiple rows of detectors, each capable of producing a simultaneous image (slice). (NCI)", "preferredTerm": "Multi-slice Spiral Computed Tomography", "submissionValue": "MULTI-SLICE SPIRAL CT"}, {"conceptId": "C130176", "definition": "A test of lung function in which changes in exhaled tracer gas concentration is analyzed for a specified number of tidal expirations, a defined period of time, or a defined index of expired gas volume.", "preferredTerm": "Multiple Breath Washout", "submissionValue": "MULTIPLE BREATH WASHOUT"}, {"conceptId": "C116160", "definition": "A DNA mapping technique based on complete restriction enzyme digestion of a set of overlapping clones that provides highly redundant coverage of the mapping target.", "preferredTerm": "Multiple Complete Digest Restriction Fragment Mapping", "submissionValue": "MULTIPLE-COMPLETE-DIGEST RESTRICTION FRAGMENT MAPPING", "synonyms": ["Multiple Complete Digestion"]}, {"conceptId": "C116161", "definition": "A type of high-throughput, multiplex PCR method that uses a single pair of PCR primers to amplify multiple targets and to determine changes in complex genomes.", "preferredTerm": "Multiplex Ligation-dependent Probe Amplification", "submissionValue": "MULTIPLEX LIGATION-DEPENDENT PROBE AMPLIFICATION", "synonyms": ["MLPA"]}, {"conceptId": "C135455", "definition": "A type of solid-phase immunoassay that uses distinctly colored microbeads coated with one or more reagents, which may be antigens, antibodies, oligonucleotides, enzyme substrates, or receptors, for the simultaneous detection and measurement of one or many analytes within a single sample.", "preferredTerm": "Multiplexed Bead Based Immunoassay", "submissionValue": "MULTIPLEXED BEAD BASED IMMUNOASSAY"}, {"conceptId": "C147468", "definition": "An assay technique that measures the opsonophagocytic killing activity of antibodies against multiple serotypes in a single serum assay.", "preferredTerm": "Multiplexed Opsonophagocytic Killing Assay", "submissionValue": "MULTIPLEXED OPSONOPHAGOCYTIC KILLING ASSAY", "synonyms": ["MOPA"]}, {"conceptId": "C111281", "definition": "A method to quantify the concentration of particulate matter suspended in a liquid or gas using a nephelometer.", "preferredTerm": "Nephelometry", "submissionValue": "NEPHELOMETRY"}, {"conceptId": "C120696", "definition": "A type of enzyme-based assay that assesses neuraminidase activity in the presence of an enzyme inhibitor.", "preferredTerm": "Neuraminidase Inhibition Assay", "submissionValue": "NEURAMINIDASE INHIBITION ASSAY"}, {"conceptId": "C101293", "definition": "Technologies that facilitate the rapid determination of the DNA sequence of large numbers of strands or segments of DNA, using spatially separated, clonally amplified DNA templates or molecules in a flow cell.", "preferredTerm": "Next Generation Sequencing", "submissionValue": "NEXT GENERATION SEQUENCING", "synonyms": ["Massively Parallel Sequencing"]}, {"conceptId": "C130177", "definition": "A type of next generation sequencing in which specific genes or portions of genes are targeted for sequencing using amplicon-based workflow.", "preferredTerm": "Next Generation Targeted Sequencing", "submissionValue": "NEXT GENERATION TARGETED SEQUENCING"}, {"conceptId": "C120697", "definition": "A type of specular microscopy in which the specular microscope does not make contact with the cornea of the eye.", "preferredTerm": "Non-Contact Specular Microscopy", "submissionValue": "NON-CONTACT SPECULAR MICROSCOPY"}, {"conceptId": "C16810", "definition": "A type of spectroscopy that detects and measures the resonant spectra of molecular species in a tissue or sample.", "preferredTerm": "Magnetic Resonance Spectroscopy", "submissionValue": "NUCLEAR MAGNETIC RESONANCE SPECTROSCOPY"}, {"conceptId": "C127514", "definition": "Any type of imaging method that uses radioactive materials.", "preferredTerm": "Nuclear Radiology Imaging Procedure", "submissionValue": "NUCLEAR RADIOLOGY"}, {"conceptId": "C20055", "definition": "Any of a number of molecular biological techniques that are used to copy nucleic acid sequences within a specimen, leading to an increase in the number of copies of that sequence of interest. These techniques may be used for detection of a particular gene or microorganism of interest.", "preferredTerm": "Nucleic Acid Amplification Test", "submissionValue": "NUCLEIC ACID AMPLIFICATION TEST", "synonyms": ["NAAT"]}, {"conceptId": "C16924", "definition": "A method in which single stranded nucleic acids are allowed to interact so that complexes, or hybrids, are formed by molecules with sufficiently similar, complementary sequences. By this means the degree of sequence identity can be assessed and specific sequences detected. (From Biology-online)", "preferredTerm": "Nucleic Acid Hybridization", "submissionValue": "NUCLEIC ACID HYBRIDIZATION"}, {"conceptId": "C18881", "definition": "The process of determining the sequence of purines and pyrimidines in nucleic acids and polynucleotides.", "preferredTerm": "Nucleic Acid Sequencing", "submissionValue": "NUCLEIC ACID SEQUENCING"}, {"conceptId": "C25598", "definition": "Observing a subject or material to gain information.", "preferredTerm": "Observation", "submissionValue": "OBSERVATION", "synonyms": ["Inspection"]}, {"conceptId": "C116156", "definition": "A molecular cytogenetic method combining chromosomal comparative genomic hybridization technique and microarray to detect chromosomal aberrations and changes in DNA copy numbers in the genome, using oligonucleotides as targets for hybridization.", "preferredTerm": "Oligonucleotide Array-based Comparative Genomic Hybridization", "submissionValue": "OLIGO ACGH", "synonyms": ["Oligonucleotide Array-based CGH", "Oligonucleotide Array-based Comparative Genomic Hybridization"]}, {"conceptId": "C120698", "definition": "A technique used to examine the fundus and other anatomical structures of the eye with a magnifying instrument.", "preferredTerm": "Ophthalmoscopy", "submissionValue": "OPHTHALMOSCOPY", "synonyms": ["Fundoscopy"]}, {"conceptId": "C20828", "definition": "Optical Coherence Tomography (OCT) combines the principles of ultrasound with the imaging performance of a microscope. OCT uses infrared light waves that reflect off the internal microstructure within the biological tissues. The frequencies and bandwidths of infrared light are orders of magnitude higher than medical ultrasound signals, resulting in greatly increased image resolution, 8-25 times greater than any existing modality. In addition to providing high-level resolutions for the evaluation of microanatomic structures OCT is also able to provide information regarding tissue composition. (NCI)", "preferredTerm": "Optical Coherence Tomography", "submissionValue": "OPTICAL COHERENCE TOMOGRAPHY"}, {"conceptId": "C85776", "definition": "A quantification of the amount of light that is absorbed by or transmitted through a substance.", "preferredTerm": "Optical Density Measurement", "submissionValue": "OPTICAL DENSITY MEASUREMENT"}, {"conceptId": "C116162", "definition": "A technique used for constructing the ordered and high-resolution genome or chromosome sized restriction enzyme map of an organism from a single, stained DNA molecule, digested by the restriction enzyme and imaged by an optical microscope.", "preferredTerm": "Optical Mapping", "submissionValue": "OPTICAL MAPPING", "synonyms": ["Optical Map"]}, {"conceptId": "C154788", "definition": "A technique to measure a motion that repeats itself in a regular cycle around an equilibrium point or mean value.", "preferredTerm": "Oscillometry", "submissionValue": "OSCILLOMETRY"}, {"conceptId": "C154793", "definition": "A method for estimating body surface area, in which the individual's hand, with or without digits, accounts for a small proportion of the total body surface. An individual's palm (not including fingers and wrist) accounts for about 0.5% of the individual's total body surface area. The entire palmar surface (including digits) accounts for about 1% of the individuals total body surface area.", "preferredTerm": "Palm Method", "submissionValue": "PALM METHOD"}, {"conceptId": "C16950", "definition": "A method of feeling with the hands during a physical examination. The health care provider touches and feels the patient's body to examine the size, consistency, texture, location and tenderness of an organ or body part.", "preferredTerm": "Palpation", "submissionValue": "PALPATION"}, {"conceptId": "C94528", "definition": "An endoscopic examination of the pharynx, larynx, trachea and esophagus.", "preferredTerm": "Panendoscopy", "submissionValue": "PANENDOSCOPY"}, {"conceptId": "C128984", "definition": "A microscopy staining method that utilizes a mixture of dyes including hematoxylin, orange G (OG), and eosin azure, which contains variable portions of Eosin Y, light green SF yellowish, and Bismarck brown Y. This multichromatic staining method is used to differentially stain samples containing mixed cell populations.", "preferredTerm": "Papanicolaou Staining Method", "submissionValue": "PAP STAIN", "synonyms": ["Papanicolau Stain"]}, {"conceptId": "C125952", "definition": "A method to quantify the concentration of immunoaggregates suspended in a liquid or gas using a nephelometer. The immunoaggregates are target antigens agglutinated to antigen-specific antibody-coated polystyrene latex-enhanced particles.", "preferredTerm": "Particle-Enhanced Nephelometric Immunoassay", "submissionValue": "PARTICLE-ENHANCED NEPHELOMETRIC IMMUNOASSAY", "synonyms": ["PENIA"]}, {"conceptId": "C125953", "definition": "A method to quantify the opaqueness of a liquid using a turbidimeter, by measuring the decrease in light intensity due to the scattering effect of suspended immunoaggregates in a liquid sample. The immunoaggregates are target antigens agglutinated to antigen-specific antibody-coated polystyrene latex-enhanced particles.", "preferredTerm": "Particle-Enhanced Turbidimetric Immunoassay", "submissionValue": "PARTICLE-ENHANCED TURBIDIMETRIC IMMUNOASSAY", "synonyms": ["PETIA"]}, {"conceptId": "C125006", "definition": "An appraisal by a pathologist that is based on microscopic and macroscopic structural and functional changes that result from disease processes.", "preferredTerm": "Pathologic Examination", "submissionValue": "PATHOLOGICAL EVALUATION"}, {"conceptId": "C122171", "definition": "A method for measuring the flow of air through the bronchi upon expiration.", "preferredTerm": "Peak Flowmetry", "submissionValue": "PEAK FLOWMETRY"}, {"conceptId": "C117878", "definition": "A diagrammatic method to test visual acuity and contrast sensitivity, which uses large letters (at a 20/60 acuity) that decrease in contrast from right to left and top to bottom.", "preferredTerm": "Pelli-Robson Contrast Sensitivity Eye Chart", "submissionValue": "PELLI-ROBSON EYE CHART"}, {"conceptId": "C62298", "definition": "A diagnostic test performed on a tooth by tapping on the crown with a dental instrument.", "preferredTerm": "Dental Percussion", "submissionValue": "PERCUSSION"}, {"conceptId": "C23019", "definition": "A microscopy staining method that utilizes Schiff's reagent, a solution composed of pararosanilin treated with sulfurous acid, which selectively reacts with and stains aldehydes pink to determine the presence of glycogen, mucin, mucoprotein, glycoprotein, as well as fungi. Periodic Acid Schiff staining is useful for outlining tissue structures such as basement membranes, capsules and blood vessels.", "preferredTerm": "Periodic Acid Schiff Staining Method", "submissionValue": "PERIODIC ACID SCHIFF STAIN"}, {"conceptId": "C117879", "definition": "A procedure in which the catheter is passed into a peripheral vessel (usually in the groin) for the purpose of angiography of the abdomen, hands, arms, feet and legs.", "preferredTerm": "Peripheral Angiography", "submissionValue": "PERIPHERAL ANGIOGRAPHY"}, {"conceptId": "C17007", "definition": "An imaging technique for measuring the gamma radiation produced by collisions of electrons and positrons (anti-electrons) within living tissue. In positron emission tomography (PET), a subject is given a dose of a positron-emitting radionuclide attached to a metabolically active substance. A scanner reveals the tissue location of the metabolically-active substance administered.", "preferredTerm": "Positron Emission Tomography", "submissionValue": "PET SCAN"}, {"conceptId": "C103512", "definition": "An imaging technique that utilizes positron emission tomography and computed tomography in a single machine.", "preferredTerm": "Positron Emission Tomography and Computed Tomography Scan", "submissionValue": "PET/CT SCAN"}, {"conceptId": "C142342", "definition": "An imaging technique that utilizes positron emission tomography and computed tomography in a single machine, in which the images are not enhanced by the addition of contrast agents into the body.", "preferredTerm": "PET-CT Scan Without Contrast", "submissionValue": "PET/CT SCAN WITHOUT CONTRAST"}, {"conceptId": "C103514", "definition": "An imaging technique that utilizes positron emission tomography and magnetic resonance imaging in a single machine.", "preferredTerm": "Positron Emission Tomography and Magnetic Resonance Imaging", "submissionValue": "PET/MRI SCAN"}, {"conceptId": "C111297", "definition": "An imaging technique that utilizes positron emission tomography and single-photon emission computed tomography in a single machine.", "preferredTerm": "Positron Emission Tomography and Single Photon Emission Computed Tomography Scan", "submissionValue": "PET/SPECT SCAN"}, {"conceptId": "C122172", "definition": "An electronic device used to measure the alkalinity or acidity of a liquid or semi-solid substance.", "preferredTerm": "pH Meter", "submissionValue": "PH METER"}, {"conceptId": "C16857", "definition": "A microscopic technique in which the amplitude shift that occurs when light passes through a specimen highlights structures or details within the specimen.", "preferredTerm": "Phase-Contrast Microscopy", "submissionValue": "PHASE CONTRAST MICROSCOPY"}, {"conceptId": "C135456", "definition": "A type of MRI in which a phase shift between flowing tissue and static tissue is generated in order to determine the quantity and velocity of body fluid.", "preferredTerm": "Phase-Contrast Magnetic Resonance Imaging", "submissionValue": "PHASE-CONTRAST MRI", "synonyms": ["PCMR"]}, {"conceptId": "C130178", "definition": "A type of solid-phase multiplex assay that uses microbeads coated with recombinant or purified antigens that will identify multiple antibodies.", "preferredTerm": "Phenotypic Multiple Antigen Bead-based Multiplex Assay", "submissionValue": "PHENOTYPIC MULTIPLE ANTIGEN BEAD-BASED MULTIPLEX ASSAY"}, {"conceptId": "C120699", "definition": "An instrument composed of multiple lenses that refract the light going into the subject's eye, allowing the examiner to determine the refractive error of the eye.", "preferredTerm": "Phoropter", "submissionValue": "PHOROPTER"}, {"conceptId": "C94527", "definition": "The process by which an image is acquired by recording light emissions.", "preferredTerm": "Photography", "submissionValue": "PHOTOGRAPHY"}, {"conceptId": "C111291", "definition": "A clot detection method that uses a photometric means (measuring the absorbancy of monochromatic light) to detect the presence and/or quantify the formation of a thrombus in a specimen. (NCI)", "preferredTerm": "Photometric Clot Detection", "submissionValue": "PHOTOMETRIC CLOT DETECTION"}, {"conceptId": "C65109", "definition": "Measurement of the properties of light, especially luminous intensity. (NCI)", "preferredTerm": "Photometry", "submissionValue": "PHOTOMETRY"}, {"conceptId": "C20989", "definition": "A systemic evaluation of the body and its functions using visual inspection, palpation, percussion and auscultation. The purpose is to determine the presence or absence of physical signs of disease or abnormality for an individual's health assessment.", "preferredTerm": "Physical Examination", "submissionValue": "PHYSICAL EXAMINATION", "synonyms": ["Physical Exam"]}, {"conceptId": "C122173", "definition": "A method used to measure changes in volume, pressure and resistance within an organ or whole body by means of a plethysmograph.", "preferredTerm": "Plethysmography", "submissionValue": "PLETHYSMOGRAPHY", "synonyms": ["Body Box"]}, {"conceptId": "C17003", "definition": "A method for amplifying a DNA base sequence using multiple rounds of heat denaturation of the DNA and annealing of oligonucleotide primers complementary to flanking regions in the presence of a heat-stable polymerase. This results in duplication of the targeted DNA region. Newly synthesized DNA strands can subsequently serve as additional templates for the same primer sequences, so that successive rounds of primer annealing, strand elongation, and dissociation produce rapid and highly specific amplification of the desired sequence. PCR also can be used to detect the existence of the defined sequence in a DNA sample.", "preferredTerm": "Polymerase Chain Reaction", "submissionValue": "POLYMERASE CHAIN REACTION", "synonyms": ["PCR"]}, {"conceptId": "C114185", "definition": "A group of tests taken during sleep to capture and record brain wave changes, eye movements, breathing rate, blood pressure, heart rate, and the electrical activity of the heart and other muscles.", "preferredTerm": "Polysomnography", "submissionValue": "POLYSOMNOGRAPHY", "synonyms": ["PSG"]}, {"conceptId": "C135457", "definition": "A process by which the individual genomes of most or all of an entire population of a species undergoes a large-scale comparison of the DNA sequences within that population, using probabilistic matching tools.", "preferredTerm": "Population Sequencing", "submissionValue": "POPULATION SEQUENCING"}, {"conceptId": "C142343", "definition": "An electroanalytical technique in which the electrical potential of a solution is measured to determine the composition of the sample, by comparing the constant potential of the reference electrode with the actual potential of the indicator electrode.", "preferredTerm": "Potentiometry", "submissionValue": "POTENTIOMETRY", "synonyms": ["ISE Method", "Ion Selective Electrode Method"]}, {"conceptId": "C154789", "definition": "An x-ray imaging technique that involves visualization of the pulmonary vasculature after fluoroscopy-guided catheter placement and injection of an iodinated contrast medium into the pulmonary circulation.", "preferredTerm": "Pulmonary Angiography", "submissionValue": "PULMONARY ANGIOGRAPHY"}, {"conceptId": "C38085", "definition": "A non-invasive method that provides estimates of arterial hemoglobin oxygen saturation by utilizing selected wavelengths of light.", "preferredTerm": "Pulse Oximetry", "submissionValue": "PULSE OXIMETRY"}, {"conceptId": "C120700", "definition": "A technique used to measure the diameter of a single pupil in response to stimuli.", "preferredTerm": "Monocular Pupillometry", "submissionValue": "PUPILLOMETRY"}, {"conceptId": "C99481", "definition": "A DNA sequencing technique that is based on the detection of released pyrophosphate during DNA synthesis.", "preferredTerm": "Pyrosequencing", "submissionValue": "PYROSEQUENCING"}, {"conceptId": "C120701", "definition": "A type of angiographic procedure that allows for direct quantitative assessment of the native coronary arteries or bypass grafts supplying native coronary arteries.", "preferredTerm": "Quantitative Coronary Angiography", "submissionValue": "QUANTITATIVE CORONARY ANGIOGRAPHY"}, {"conceptId": "C120702", "definition": "A type of angiographic procedure that allows for direct quantitative assessment of the vessels of the hands, arms, feet and legs.", "preferredTerm": "Quantitative Peripheral Angiography", "submissionValue": "QUANTITATIVE PERIPHERAL ANGIOGRAPHY"}, {"conceptId": "C28408", "definition": "A modified polymerase chain reaction (PCR) technique in which RNA sequences are reverse transcribed into complementary DNA (cDNA) transcripts by the enzyme reverse transcriptase. The cDNA is then amplified by a PCR reaction and quantified by comparing to a standard, using fluorescent probes.", "preferredTerm": "Quantitative Reverse Transcriptase PCR", "submissionValue": "QUANTITATIVE REVERSE TRANSCRIPTASE POLYMERASE CHAIN REACTION", "synonyms": ["qRT-PCR"]}, {"conceptId": "C150873", "definition": "A type of ultrasound method in which the velocity and attenuation of ultrasonic sound waves are measured as they pass through tissue.", "preferredTerm": "Quantitative Ultrasound", "submissionValue": "QUANTITATIVE ULTRASOUND"}, {"conceptId": "C119296", "definition": "A quantitative technique used to detect and estimate the concentration of an antigen by measuring the diameter of the ring of precipitation (precipitin ring) which is formed as a result of the interaction of the antigen and an antibody at optimal concentration. (NCI)", "preferredTerm": "Radial Immunodiffusion", "submissionValue": "RADIAL IMMUNODIFFUSION"}, {"conceptId": "C128940", "definition": "A radiographic procedure using the emission of penetrating energy waves to form an image of the structure.", "preferredTerm": "Radiographic Examination", "submissionValue": "RADIOGRAPHY", "synonyms": ["Radiographic Exam"]}, {"conceptId": "C135458", "definition": "A type of complement receptor-dependent immune complex assay that uses Raji cells washed with anti-IgA, anti-IgG, anti-IgM, and anti-Ig (A+G+M) conjugated with an enzyme to detect the presence of circulating immune complexes in biologic fluids. (NCI)", "preferredTerm": "Raji Cell Enzyme Immunoassay", "submissionValue": "RAJI CELL EIA", "synonyms": ["Raji Cell Enzyme Immunoassay"]}, {"conceptId": "C135459", "definition": "A type of complement receptor-dependent immune complex assay that uses radiolabeled anti-IgA, anti-IgG, or anti-IgM Raji cells to detect the presence of soluble immune complexes in biologic fluids. (NCI)", "preferredTerm": "Raji Cell Radioimmunoassay", "submissionValue": "RAJI CELL RIA", "synonyms": ["Raji Cell Radioimmunoassay"]}, {"conceptId": "C51962", "definition": "A modified polymerase chain reaction (PCR) technique in which DNA amplification is detected and quantified as the PCR reaction progresses, through the use of fluorescent DNA probes in the reaction mixture.", "preferredTerm": "Real Time PCR", "submissionValue": "REAL-TIME POLYMERASE CHAIN REACTION ASSAY", "synonyms": ["Quantitative PCR", "Real Time-PCR", "qPCR"]}, {"conceptId": "C120703", "definition": "A method in which a probe is bounced off of the surface of the cornea, creating an induction current that is used to calculate intraocular pressure.", "preferredTerm": "Rebound Tonometry", "submissionValue": "REBOUND TONOMETRY"}, {"conceptId": "C19340", "definition": "The spectroscopic analysis of light reflected from a polished sample.", "preferredTerm": "Reflectance or Transmission Spectroscopy", "submissionValue": "REFLECTANCE SPECTROSCOPY"}, {"conceptId": "C111304", "definition": "A method to measure the refractive index (propensity for light to bend) of a sample. (NCI)", "preferredTerm": "Refractometry", "submissionValue": "REFRACTOMETRY"}, {"conceptId": "C40211", "definition": "A genomic microarray-based method that analyzes two restriction enzyme digested full genomes to identify regions in the genome that have undergone large scale variation.", "preferredTerm": "Representational Oligonucleotide Microarray Analysis", "submissionValue": "REPRESENTATIONAL OLIGONUCLEOTIDE MICROARRAY ANALYSIS", "synonyms": ["ROMA"]}, {"conceptId": "C18136", "definition": "A molecular biology technique used to recreate and amplify complimentary DNA (cDNA) from total RNA or messenger RNA (mRNA).", "preferredTerm": "Reverse Transcriptase-Polymerase Chain Reaction", "submissionValue": "REVERSE TRANSCRIPTASE PCR", "synonyms": ["RT-PCR", "Reverse Transcription Polymerase Chain Reaction"]}, {"conceptId": "C17057", "definition": "Radioimmunoassay (RIA) is an immunological technique, which quantitatively determines antigen and antibody concentrations, using a radioactively labeled substance (radioligand), either directly or indirectly.", "preferredTerm": "Radioimmunoassay", "submissionValue": "RIA", "synonyms": ["Radioimmunoassay"]}, {"conceptId": "C85801", "definition": "A microscopy staining method that utilizes a modified trichrome stain to determine the presence of microspordial, sporulating species. This staining technique substitutes aniline blue for the fast green counterstain of the original trichrome staining method and decreased levels of phosphotungstic acid in the reagent.", "preferredTerm": "Ryan Blue Staining Method", "submissionValue": "RYAN BLUE STAIN"}, {"conceptId": "C19641", "definition": "A DNA sequencing technique in which a mixture of deoxynucleosidetriphosphates (dNTPs) and chain-terminating dNTPs (which are radioactively or fluorescently labeled) are combined within the reaction mixture. Once the polymerase chain reaction is complete the DNA strands are separated by size and the labeled chain terminating dNTPs can be read in sequence by the investigator or a machine.", "preferredTerm": "Dideoxy Chain Termination DNA Sequencing", "submissionValue": "SANGER SEQUENCING"}, {"conceptId": "C16855", "definition": "An electron microscopy imaging technique that is utilized to examine structural components of a sample by passing electrons through a specimen that has been coated with a heavy metal.", "preferredTerm": "Scanning Electron Microscopy", "submissionValue": "SCANNING ELECTRON MICROSCOPY"}, {"conceptId": "C62667", "definition": "An imaging technique that uses a small dose of a radioactive chemical (isotope) called a tracer that can detect sites of cancer growth, trauma, infection or degenerative disorders. The tracer, which is either injected into a vein or swallowed, travels through the bloodstream to the target organ, and emits gamma rays, which are detected by a gamma camera and analyzed by a computer to form an image of the target organ. (NCI)", "preferredTerm": "Radionuclide Imaging", "submissionValue": "SCINTIGRAPHY"}, {"conceptId": "C154790", "definition": "An analytical technique in which a mass spectrometer is used to measure the atomic weight of sputtered ionized atoms (secondary ions) that are ejected from a solid surface after application of a beam of high energy primary ions.", "preferredTerm": "Secondary Ion Mass Spectrometry", "submissionValue": "SECONDARY ION MASS SPECTOMETRY"}, {"conceptId": "C130179", "definition": "A modified polymerase chain reaction (PCR) technique in which primer pair(s) are used to select a highly specific nucleotide sequence of interest, which will be the only sequence amplified.", "preferredTerm": "Allele Specific Primer Polymerase Chain Reaction", "submissionValue": "SEQUENCE SPECIFIC PRIMER POLYMERASE CHAIN REACTION", "synonyms": ["PCR-SSP"]}, {"conceptId": "C130180", "definition": "A method that uses PCR amplification of specific nucleotides to produce templates and primers that are used to provide the entirety of the nucleotide sequence of a specific DNA strand, allowing for reliable and thorough genotyping of the allele in question.", "preferredTerm": "Sequence-based Typing", "submissionValue": "SEQUENCE-BASED TYPING POLYMERASE CHAIN REACTION", "synonyms": ["SBT"]}, {"conceptId": "C130181", "definition": "A modified polymerase chain reaction (PCR) technique that uses distinct probes, specifically synthesized according to the polymorphic region of the gene of interest, to detect nucleotide differences during genotype testing.", "preferredTerm": "Sequence-specific Oligonucleotide Probe Polymerase Chain Reaction", "submissionValue": "SEQUENCE-SPECIFIC OLIGONUCLEOTIDE PROBE POLYMERASE CHAIN REACTION", "synonyms": ["PCR-SSOP"]}, {"conceptId": "C116155", "definition": "A process to identify and determine the primary structure of, and the order of constituents in a biopolymer. Used when a more specific sequencing methodology is not specified.", "preferredTerm": "Biopolymer Sequencing", "submissionValue": "SEQUENCING"}, {"conceptId": "C130182", "definition": "A type of solid-phase multiplex assay that uses microbeads coated with a recombinant or purified antigen that will identify a single antibody.", "preferredTerm": "Single Antigen Bead-based Multiplex Assay", "submissionValue": "SINGLE ANTIGEN BEAD-BASED MULTIPLEX ASSAY"}, {"conceptId": "C106567", "definition": "A type of spiral computed tomography that employs only one detector and produces one image (slice). (NCI)", "preferredTerm": "Single-slice Spiral Computed Tomography", "submissionValue": "SINGLE-SLICE SPIRAL CT"}, {"conceptId": "C130183", "definition": "A modified polymerase chain reaction (PCR) technique followed by electrophoresis such that DNA molecular weights and three-dimensional structures are used to identify mutations.", "preferredTerm": "Single-strand Conformation Polymerase Chain Reaction", "submissionValue": "SINGLE-STRAND CONFORMATION POLYMERASE CHAIN REACTION", "synonyms": ["PCR-SSCP"]}, {"conceptId": "C142344", "definition": "A type of in situ hybridization that uses a hybridization probe linked to an enzyme that elicits neutralization and deposition of silver onto the probe target site.", "preferredTerm": "Silver-Enhanced in Situ Hybridization", "submissionValue": "SISH", "synonyms": ["Silver-Enhanced in Situ Hybridization"]}, {"conceptId": "C16433", "definition": "Gel permeation or sieve chromatography that is performed on porous gels that separate solutes on the basis of size.", "preferredTerm": "Gel Filtration Chromatography", "submissionValue": "SIZE EXCLUSION CHROMATOGRAPHY"}, {"conceptId": "C75583", "definition": "Examination of the anterior segment of the eye using a medical instrument called a slit lamp.", "preferredTerm": "Slit-lamp Examination", "submissionValue": "SLIT LAMP"}, {"conceptId": "C117880", "definition": "A diagrammatic method to test visual acuity that uses the Sloan optotypes and a 1.25% contrast level.", "preferredTerm": "Sloan Letter Eye Chart 1.25 Percent", "submissionValue": "SLOAN LETTER EYE CHART 1.25%"}, {"conceptId": "C117881", "definition": "A diagrammatic method to test visual acuity that uses the Sloan optotypes and a 2.5% contrast level.", "preferredTerm": "Sloan Letter Eye Chart 2.5 Percent", "submissionValue": "SLOAN LETTER EYE CHART 2.5%"}, {"conceptId": "C65126", "definition": "The action of spreading a thin layer of material across a surface.", "preferredTerm": "Smear", "submissionValue": "SMEAR"}, {"conceptId": "C123467", "definition": "A diagrammatic method to test visual acuity, which uses a chart containing 11 lines of Sloan optotypes in varying sizes with the largest located at the top of the chart and decreasing in size toward the bottom of the chart.", "preferredTerm": "Snellen Eye Chart", "submissionValue": "SNELLEN EYE CHART"}, {"conceptId": "C116151", "definition": "A genomic microarray-based method able to detect single nucleotide polymorphisms.", "preferredTerm": "Single Nucleotide Polymorphism Array", "submissionValue": "SNP ARRAY", "synonyms": ["Genotype Chip", "SNP Genotyping", "SNP Probe", "Single Nucleotide Polymorphism Array"]}, {"conceptId": "C17203", "definition": "A type of tomography in which gamma photon-emitting radionuclides are administered to the patient and then detected by one or more gamma cameras rotated around the patient. From the series of two-dimensional images produced, a three-dimensional image can be created by computer reconstruction.", "preferredTerm": "Single Photon Emission Computed Tomography", "submissionValue": "SPECT SCAN"}, {"conceptId": "C154791", "definition": "A dual-modality imaging technique that merges data from single-photon emission computed tomography (SPECT) and computed tomography (CT) to provide structural and functional information.", "preferredTerm": "Single Photon Tomography and Computed Tomography Scan", "submissionValue": "SPECT/CT SCAN"}, {"conceptId": "C116701", "definition": "A technique used to calculate the transmittance of light through a material.", "preferredTerm": "Spectrophotometry", "submissionValue": "SPECTROPHOTOMETRY"}, {"conceptId": "C120542", "definition": "A noninvasive photographic technique used to visualize and examine the corneal endothelium, in which a source of light is projected onto the cornea and the subsequent image reflected from the optical interface between the corneal endothelium and the aqueous humor is captured.", "preferredTerm": "Specular Microscopy", "submissionValue": "SPECULAR MICROSCOPY"}, {"conceptId": "C20645", "definition": "A method of examining body organs by scanning them with X rays and using a computer to construct a series of cross-sectional scans along a single axis.", "preferredTerm": "Spiral CT", "submissionValue": "SPIRAL CT", "synonyms": ["Spiral Computed Tomography"]}, {"conceptId": "C85397", "definition": "A method used to measure the breathing capacity of the lung by means of a spirometer.", "preferredTerm": "Spirometry", "submissionValue": "SPIROMETRY"}, {"conceptId": "C80407", "definition": "An echocardiographic technique in which an image of the heart is produced by ultrasonography under conditions (e.g., exercise, pharmacologic agents or pacing) intended to elicit signs and symptoms of myocardial ischemia.", "preferredTerm": "Stress Echocardiography", "submissionValue": "STRESS ECHOCARDIOGRAPHY"}, {"conceptId": "C150874", "definition": "A technique for measuring anatomical densities in which a single X-ray beam, whose low and high energy is separated, is aimed at the anatomical location of interest and x-ray absorption is assessed.", "preferredTerm": "Single Energy X-Ray Absorptiometry", "submissionValue": "SXA SCAN", "synonyms": ["Single Energy X-Ray Absorptiometry"]}, {"conceptId": "C142345", "definition": "A diagrammatic method to test visual acuity that uses a set of cards with parallel lines, used for those individuals who are unable to provide a verbal response to questions, including infants, toddlers, and other non verbal individuals.", "preferredTerm": "Teller Acuity Cards", "submissionValue": "TELLER ACUITY CARDS"}, {"conceptId": "C122174", "definition": "A method for assessing bleeding time in which two controlled incisions are made on the forearm using a template to guide placement of the scalpel or blade.", "preferredTerm": "Template Incision Method", "submissionValue": "TEMPLATE INCISION METHOD"}, {"conceptId": "C50322", "definition": "A piece of chemically treated medium designed to react in the presence of specific amounts of a trigger substance.", "preferredTerm": "Test Strip Device", "submissionValue": "TEST STRIP"}, {"conceptId": "C85819", "definition": "A blood smear technique used to make a thick blood smear on a microscope slide which is generally used to look for blood parasites such as those causing malaria.", "preferredTerm": "Thick Smear Technique", "submissionValue": "THICK SMEAR"}, {"conceptId": "C85820", "definition": "A blood smear technique used to make a thin blood smear on a microscope slide which is generally used to look for blood parasites such as those causing malaria.", "preferredTerm": "Thin Smear Technique", "submissionValue": "THIN SMEAR"}, {"conceptId": "C92302", "definition": "A microscopy staining method that utilizes toluidine blue, a solution composed of tolonium chloride, to determine the presence of mast cells, lignin, proteoglycans and glycosaminoglycans.", "preferredTerm": "Toluidine Blue Staining Method", "submissionValue": "TOLUIDINE BLUE STAIN"}, {"conceptId": "C120543", "definition": "A method in which pressure is applied to the surface of the cornea in order to flatten a prespecified area of the membrane.", "preferredTerm": "Tonometry", "submissionValue": "TONOMETRY"}, {"conceptId": "C15350", "definition": "A therapeutic procedure that involves the irradiation of the whole body with ionizing or non-ionizing radiation. (NCI)", "preferredTerm": "Total-Body Irradiation", "submissionValue": "TOTAL BODY IRRADIATION"}, {"conceptId": "C96640", "definition": "A diagnostic radiologic test that involves the examination of the entire body in a single procedure.", "preferredTerm": "Total Body Radiography", "submissionValue": "TOTAL BODY RADIOGRAPHY"}, {"conceptId": "C122175", "definition": "A technique used to selectively replicate nucleic acid sequences from RNA templates using reverse transcriptase and RNA polymerase.", "preferredTerm": "Transcription-mediated Amplification", "submissionValue": "TRANSCRIPTION-MEDIATED AMPLIFICATION"}, {"conceptId": "C80405", "definition": "A cardiac ultrasound performed by passing a specialized probe containing a transducer into the patient's esophagus.", "preferredTerm": "Transesophageal Echocardiography", "submissionValue": "TRANSESOPHAGEAL ECHOCARDIOGRAPHY", "synonyms": ["TEE"]}, {"conceptId": "C18216", "definition": "An electron microscopy imaging technique that is utilized to examine structural components of a sample by passing electrons through the specimen.", "preferredTerm": "Transmission Electron Microscopy", "submissionValue": "TRANSMISSION ELECTRON MICROSCOPY"}, {"conceptId": "C80404", "definition": "A non-invasive cardiac ultrasound performed by placing the transducer on the chest.", "preferredTerm": "Transthoracic Echocardiography", "submissionValue": "TRANSTHORACIC ECHOCARDIOGRAPHY", "synonyms": ["TTE"]}, {"conceptId": "C17644", "definition": "A technique in which sound waves are sent out by an ultrasound probe that has been inserted in the vagina and a computer uses the ultrasound echoes to create an image of the female reproductive organs.", "preferredTerm": "Transvaginal Ultrasound", "submissionValue": "TRANSVAGINAL ULTRASOUND"}, {"conceptId": "C23012", "definition": "A microscopy staining method that utilizes two or more colored, acidic dyes of contrasting colors. Masson trichrome is a mixture of three dyes including aniline blue, Beibrich scarlet and Weigert's iron hematoxylin. Other related, modified trichrome staining methods include Lillie's trichrome, Gomori's trichrome and Mallory's trichrome.", "preferredTerm": "Trichrome Staining Method", "submissionValue": "TRICHROME STAIN"}, {"conceptId": "C130184", "definition": "A type of magnetic resonance imaging (MRI) in which images are taken during three distinct timing points (phases) following the injection of contrast material: arterial, venous, and delayed.", "preferredTerm": "Triple Phase MRI", "submissionValue": "TRIPLE-PHASE MRI SCAN"}, {"conceptId": "C19907", "definition": "A type of computed tomography (CT) in which images are taken during three distinct timing points (phases) following the injection of contrast material: arterial, venous, and delayed.", "preferredTerm": "Triple-Phase Spiral CT", "submissionValue": "TRIPLE-PHASE SPIRAL CT SCAN"}, {"conceptId": "C111328", "definition": "A method to quantify the opaqueness of a liquid using a turbidimeter, by measuring the decrease in light intensity due to the scattering effect of suspended particles in the liquid sample.", "preferredTerm": "Turbidimetry", "submissionValue": "TURBIDIMETRY"}, {"conceptId": "C116153", "definition": "A genomic microarray-based method using cDNA from two samples, labeled with two separate fluorophores/dyes at different emission wavelengths, and hybridized to a single microarray. The relative fluorescence intensity of each dye is being measured.", "preferredTerm": "Two Color Microarray", "submissionValue": "TWO-COLOR MICROARRAY", "synonyms": ["Dual-channel Microarray", "Two-channel Expression Array", "Two-channel Microarray", "Two-color Microarray-based Gene Expression"]}, {"conceptId": "C122176", "definition": "An analytical technique where ultra-high performance liquid chromatography is coupled to tandem mass spectrometry in order to separate, identify, and quantify substances in a sample.", "preferredTerm": "Ultra High-performance Liquid Chromatography/Tandem Mass Spectrometry", "submissionValue": "U-HPLC/MS/MS"}, {"conceptId": "C17230", "definition": "A technique in which high-frequency sound waves are bounced off internal organs and the echo pattern is converted into a 2 dimensional picture of the structures beneath the transducer.", "preferredTerm": "Ultrasonography", "submissionValue": "ULTRASOUND"}, {"conceptId": "C92303", "definition": "A microscopy staining method that utilizes uranyl acetate, a water insoluble yellow crystalline solid, which is used as a negative stain in electron microscopy.", "preferredTerm": "Uranyl Acetate Staining Method", "submissionValue": "URANYL ACETATE STAIN"}, {"conceptId": "C38100", "definition": "A nuclear imaging test that uses radiopharmaceuticals to produce an image of the blood flow to the lungs.", "preferredTerm": "Ventilation Perfusion Scanning", "submissionValue": "VENTILATION PERFUSION LUNG SCAN", "synonyms": ["VQ SCAN"]}, {"conceptId": "C85828", "definition": "A microscopy staining method that utilizes a modified trichrome stain to determine the presence of microspordial, sporulating species. The staining method utilizes chromotrope 2R, a red acidic dye, the counterstain fast green, and phosphotungstic acid.", "preferredTerm": "Weber Green Staining Method", "submissionValue": "WEBER GREEN STAIN"}, {"conceptId": "C154796", "definition": "A method that measures the sedimentation rate of an entity in an aqueous solution using a Westergren tube.", "preferredTerm": "Westergren Tube Method", "submissionValue": "WESTERGREN"}, {"conceptId": "C16357", "definition": "A method for the detection or identification of proteins or peptides that have been separated by gel electrophoresis and transferred onto nitrocellulose or other type of paper or nylon membrane. The proteins are then detected by reaction with enzymatically labeled or radiolabeled antibody probes.", "preferredTerm": "Western Blotting", "submissionValue": "WESTERN BLOT"}, {"conceptId": "C85829", "definition": "A microscopy staining method that utilizes the Romanowsky stains, eosin and methylene blue, solubilized in methanol. In this staining protocol, methanol is also utilized as a fixative agent prior to staining.", "preferredTerm": "Wright Staining Method", "submissionValue": "WRIGHT STAIN"}, {"conceptId": "C23041", "definition": "A microscopy staining method that is a combination of the Wright and Giemsa staining protocols and utilizes the Romanowsky stains, which are mixtures of eosin and thiazine dyes such as methylene blue. It produces darker blue and magenta shades than the giemsa stain alone, which may provide better contrast in microscopy.", "preferredTerm": "Wright-Giemsa Staining Method", "submissionValue": "WRIGHT-GIEMSA STAIN"}, {"conceptId": "C38101", "definition": "A radiographic procedure using the emission of x-rays, a type of penetrating energy wave.", "preferredTerm": "X-Ray Imaging", "submissionValue": "X-RAY", "synonyms": ["Static X-Ray"]}, {"conceptId": "C85830", "definition": "A spectrometric method that determines the type and concentration of elements or chemicals in a sample, based upon the principle that each element emits fluorescent light of a particular wavelength when exposed to an X-ray.", "preferredTerm": "X-Ray Fluorescence Spectrometry", "submissionValue": "X-RAY FLUORESCENCE SPECTROMETRY"}, {"conceptId": "C85831", "definition": "A microscopy acid fast staining method that utilizes Ziehl-Neelsen carbol fuchsin, acid alcohol and methylene blue, to determine the presence of acid fast microorganisms. This acid fast staining technique requires heating during the primary staining step involving the carbol fuchsin.", "preferredTerm": "Ziehl Neelsen Acid Fast Staining Method", "submissionValue": "ZIEHL NEELSEN ACID FAST STAIN"}]}