{"_links": {"parentPackage": {"href": "/mdr/ct/packages/sdtmct-2018-12-21", "title": "SDTM Controlled Terminology Package 36 Effective 2018-12-21", "type": "Terminology"}, "priorVersion": {"href": "/mdr/ct/packages/sdtmct-2018-09-28/codelists/C96784", "title": "CDISC SDTM Tumor Identification Test Code Terminology", "type": "Code List"}, "rootItem": {"href": "/mdr/root/ct/sdtmct/codelists/C96784", "title": "Version-agnostic anchor resource for codelist C96784", "type": "Root Value Domain"}, "self": {"href": "/mdr/ct/packages/sdtmct-2018-12-21/codelists/C96784", "title": "CDISC SDTM Tumor Identification Test Code Terminology", "type": "Code List"}}, "conceptId": "C96784", "definition": "Terminology relevant to the test codes that describe tumor or lesion assessments for identification purposes.", "extensible": "true", "name": "Tumor or Lesion Identification Test Code", "preferredTerm": "CDISC SDTM Tumor Identification Test Code Terminology", "submissionValue": "TUTESTCD", "synonyms": ["Tumor or Lesion Identification Test Code"], "terms": [{"conceptId": "C123633", "definition": "A description of the region or relative location for the disease recurrence.", "preferredTerm": "Disease Recurrence Relative Location", "submissionValue": "DRCRLTLC", "synonyms": ["Disease Recurrence Relative Location"]}, {"conceptId": "C119567", "definition": "An indication that a graft with a lesion has been located and characterized.", "preferredTerm": "Graft Lesion Identification", "submissionValue": "GRLIDENT", "synonyms": ["Graft Lesion Identification"]}, {"conceptId": "C94189", "definition": "An indication that a lesion has been located and characterized.", "preferredTerm": "Lesion Identification", "submissionValue": "LESIDENT", "synonyms": ["Lesion Identification"]}, {"conceptId": "C119568", "definition": "An indication that a limb containing a lesion has been selected and characterized.", "preferredTerm": "Limb Associated Lesion Identification", "submissionValue": "LMLIDENT", "synonyms": ["Limb Lesion Identification"]}, {"conceptId": "C154853", "definition": "An indication as to whether an anatomical location contains metastases.", "preferredTerm": "Metastatic Tumor Site Indicator", "submissionValue": "METIND", "synonyms": ["Metastatic Tumor Site Indicator"]}, {"conceptId": "C94525", "definition": "An indication that multiple tumors have coalesced into one tumor.", "preferredTerm": "Matted Tumor Mass Present", "submissionValue": "TUMERGE", "synonyms": ["Tumor Merged"]}, {"conceptId": "C94523", "definition": "A classification of malignant disease manifestation as part of the response assessment.", "preferredTerm": "Tumor Identification", "submissionValue": "TUMIDENT", "synonyms": ["Tumor Identification"]}, {"conceptId": "C96642", "definition": "An indication that a single tumor has divided into two or more tumors.", "preferredTerm": "Tumor Split", "submissionValue": "TUSPLIT", "synonyms": ["Tumor Split"]}, {"conceptId": "C119569", "definition": "An indication that a vessel with a lesion has been located and characterized.", "preferredTerm": "Vessel Lesion Identification", "submissionValue": "VSLIDENT", "synonyms": ["Vessel Lesion Identification"]}]}