{"_links": {"parentPackage": {"href": "/mdr/ct/packages/adamct-2017-09-29", "title": "ADaM Controlled Terminology Package 31 Effective 2017-09-29", "type": "Terminology"}, "priorVersion": {"href": "/mdr/ct/packages/adamct-2017-03-31/codelists/C117745", "title": "CDISC ADaM Analysis Purpose Terminology", "type": "Code List"}, "rootItem": {"href": "/mdr/root/ct/adamct/codelists/C117745", "title": "Version-agnostic anchor resource for codelist C117745", "type": "Root Value Domain"}, "self": {"href": "/mdr/ct/packages/adamct-2017-09-29/codelists/C117745", "title": "CDISC ADaM Analysis Purpose Terminology", "type": "Code List"}}, "conceptId": "C117745", "definition": "Purpose of a specific analysis result described in ADaM analysis results metadata.", "extensible": "true", "name": "Analysis Purpose", "preferredTerm": "CDISC ADaM Analysis Purpose Terminology", "submissionValue": "ANLPURP", "synonyms": ["Analysis Purpose"], "terms": [{"conceptId": "C98724", "definition": "Exploratory measures that will be used to evaluate the intervention(s) or, for observational studies, that are exploratory of the study.", "preferredTerm": "Exploratory Outcome Measure", "submissionValue": "EXPLORATORY OUTCOME MEASURE", "synonyms": ["Exploratory Outcome Measure"]}, {"conceptId": "C98772", "definition": "The primary measurement(s) or observation(s) used to measure the effect of experimental variables in a study, or for observational studies, to describe patterns of diseases or traits or associations with exposures, risk factors or treatment. These are the outcome measures used to assess the primary objective(s).", "preferredTerm": "Primary Outcome Measure", "submissionValue": "PRIMARY OUTCOME MEASURE", "synonyms": ["Primary Outcome Measure"]}, {"conceptId": "C98781", "definition": "Other key measures that will be used to evaluate the intervention(s) or, for observational studies, that are a focus of the study. These are the outcome measures used to assess the secondary objective(s).", "preferredTerm": "Secondary Outcome Measure", "submissionValue": "SECONDARY OUTCOME MEASURE", "synonyms": ["Secondary Outcome Measure"]}]}