{"_links": {"parentPackage": {"href": "/mdr/ct/packages/adamct-2017-09-29", "title": "ADaM Controlled Terminology Package 31 Effective 2017-09-29", "type": "Terminology"}, "priorVersion": {"href": "/mdr/ct/packages/adamct-2017-03-31/codelists/C81223", "title": "CDISC ADaM Date Imputation Flag Terminology", "type": "Code List"}, "rootItem": {"href": "/mdr/root/ct/adamct/codelists/C81223", "title": "Version-agnostic anchor resource for codelist C81223", "type": "Root Value Domain"}, "self": {"href": "/mdr/ct/packages/adamct-2017-09-29/codelists/C81223", "title": "CDISC ADaM Date Imputation Flag Terminology", "type": "Code List"}}, "conceptId": "C81223", "definition": "Date Imputation Flag: Indicates the level of imputation reflected in a date value.", "extensible": "false", "name": "Date Imputation Flag", "preferredTerm": "CDISC ADaM Date Imputation Flag Terminology", "submissionValue": "DATEFL", "synonyms": ["Date Imputation Flag"], "terms": [{"conceptId": "C81212", "definition": "Day Imputed: Day is imputed.", "preferredTerm": "Day Imputed", "submissionValue": "D"}, {"conceptId": "C81211", "definition": "Month Imputed: Month and day are imputed.", "preferredTerm": "Month Day Imputed", "submissionValue": "M"}, {"conceptId": "C81210", "definition": "Year Imputed: Entire date (year, month and day) is imputed.", "preferredTerm": "Year Month Day Imputed", "submissionValue": "Y"}]}