{"_links": {"parentPackage": {"href": "/mdr/ct/packages/sendct-2016-12-16", "title": "SEND Controlled Terminology Package 28 Effective 2016-12-16", "type": "Terminology"}, "priorVersion": {"href": "/mdr/ct/packages/sendct-2016-09-30/codelists/C89982", "title": "CDISC SEND Version Terminology", "type": "Code List"}, "rootItem": {"href": "/mdr/root/ct/sendct/codelists/C89982", "title": "Version-agnostic anchor resource for codelist C89982", "type": "Root Value Domain"}, "self": {"href": "/mdr/ct/packages/sendct-2016-12-16/codelists/C89982", "title": "CDISC SEND Version Terminology", "type": "Code List"}}, "conceptId": "C89982", "definition": "Terminology related to the version of the SEND implementation guide that is in use for the study.", "extensible": "true", "name": "SEND Implementation Guide Version", "preferredTerm": "CDISC SEND Version Terminology", "submissionValue": "SNDIGVER", "synonyms": ["SEND Implementation Guide Version"], "terms": [{"conceptId": "C124638", "definition": "The 1.0 version of the standard for exchange of nonclinical data (SEND) developmental and reproductive toxicology implementation guide.", "preferredTerm": "SEND Developmental and Reproductive Toxicology Implementation Guide Version 1.0", "submissionValue": "SEND DEVELOPMENTAL AND REPRODUCTIVE TOXICOLOGY IMPLEMENTATION GUIDE VERSION 1.0", "synonyms": ["SEND IG DART Version 1.0"]}, {"conceptId": "C96371", "definition": "The 3.0 version of the standard for exchange of nonclinical data (SEND) implementation guide. (NCI)", "preferredTerm": "Standard for the Exchange of Nonclinical Data Implementation Guide Version 3.0", "submissionValue": "SEND IMPLEMENTATION GUIDE VERSION 3.0", "synonyms": ["SEND IG Version 3.0"]}, {"conceptId": "C120925", "definition": "The 3.1 version of the standard for exchange of nonclinical data (SEND) implementation guide. (NCI)", "preferredTerm": "Standard for the Exchange of Nonclinical Data Implementation Guide Version 3.1", "submissionValue": "SEND IMPLEMENTATION GUIDE VERSION 3.1", "synonyms": ["SEND IG Version 3.1"]}]}