{"_links": {"parentPackage": {"href": "/mdr/ct/packages/sendct-2016-06-24", "title": "SEND Controlled Terminology Package 26 Effective 2016-06-24", "type": "Terminology"}, "priorVersion": {"href": "/mdr/ct/packages/sendct-2016-03-25/codelists/C66741", "title": "CDISC SDTM Vital Sign Test Code Terminology", "type": "Code List"}, "rootItem": {"href": "/mdr/root/ct/sendct/codelists/C66741", "title": "Version-agnostic anchor resource for codelist C66741", "type": "Root Value Domain"}, "self": {"href": "/mdr/ct/packages/sendct-2016-06-24/codelists/C66741", "title": "CDISC SDTM Vital Sign Test Code Terminology", "type": "Code List"}}, "conceptId": "C66741", "definition": "The test code given to the test that analyzes a particular set of vital signs including temperature, respiratory rate, heart rate, and blood pressure.", "extensible": "true", "name": "Vital Signs Test Code", "preferredTerm": "CDISC SDTM Vital Sign Test Code Terminology", "submissionValue": "VSTESTCD", "synonyms": ["Vital Signs Test Code"], "terms": [{"conceptId": "C103346", "definition": "A measurement for determining the subcutaneous fat layer thickness whereby a pinch of skin approximately five centimeters to the right of the umbilicus is measured using calipers. (NCI)", "preferredTerm": "Abdominal Skinfold Thickness", "submissionValue": "ABSKNF", "synonyms": ["Abdominal Skinfold Thickness"]}, {"conceptId": "C16358", "definition": "A general indicator of the body fat an individual is carrying based upon the ratio of weight to height. (NCI)", "preferredTerm": "Body Mass Index", "submissionValue": "BMI", "synonyms": ["Body Mass Index"]}, {"conceptId": "C126083", "definition": "The measurement of a subject's energy expenditure when at rest.", "preferredTerm": "Basal Metabolic Rate", "submissionValue": "BMR", "synonyms": ["Basal Metabolic Rate"]}, {"conceptId": "C81298", "definition": "The linear extent in space from one end of the body to the other end, or the extent of the body from beginning to end.", "preferredTerm": "Total Body Length", "submissionValue": "BODLNGTH", "synonyms": ["Body Length"]}, {"conceptId": "C122232", "definition": "A measurement of the total fat mass within the subject's body. (NCI)", "preferredTerm": "Body Fat Measurement", "submissionValue": "BODYFATM", "synonyms": ["Body Fat Measurement"]}, {"conceptId": "C25157", "definition": "A measure of the 2-dimensional extent of the body surface (i.e., the skin). Body surface area (BSA) can be calculated by mathematical formula or from a chart that relates height to weight. BSA is often an important factor in dosing. (NCI)", "preferredTerm": "Body Surface Area", "submissionValue": "BSA", "synonyms": ["Body Surface Area"]}, {"conceptId": "C25299", "definition": "The blood pressure after the contraction of the heart while the chambers of the heart refill with blood. (NCI)", "preferredTerm": "Diastolic Blood Pressure", "submissionValue": "DIABP", "synonyms": ["Diastolic Blood Pressure"]}, {"conceptId": "C100946", "definition": "The distance around an individual's forearm.", "preferredTerm": "Forearm Circumference", "submissionValue": "FARMCIR", "synonyms": ["Forearm Circumference"]}, {"conceptId": "C49680", "definition": "The categorization of a person's body frame into small, medium and large based on the measurement of wrist circumference or the breadth of the elbow. (NCI)", "preferredTerm": "Body Frame Size", "submissionValue": "FRMSIZE", "synonyms": ["Body Frame Size"]}, {"conceptId": "C81255", "definition": "A circumferential measurement of the head at the widest point.", "preferredTerm": "Head Circumference", "submissionValue": "HDCIRC", "synonyms": ["Head Circumference"]}, {"conceptId": "C25347", "definition": "The vertical measurement or distance from the base to the top of an object; the vertical dimension of extension. (NCI)", "preferredTerm": "Height", "submissionValue": "HEIGHT", "synonyms": ["Height"]}, {"conceptId": "C100947", "definition": "The distance around an individual's pelvic area or hips.", "preferredTerm": "Hip Circumference", "submissionValue": "HIPCIR", "synonyms": ["Hip Circumference"]}, {"conceptId": "C49677", "definition": "The number of heartbeats per unit of time, usually expressed as beats per minute. (NCI)", "preferredTerm": "Heart Rate", "submissionValue": "HR", "synonyms": ["Heart Rate"]}, {"conceptId": "C117976", "definition": "A person's optimum weight as calculated by a standard methodology.", "preferredTerm": "Ideal Body Weight", "submissionValue": "IDEALWT", "synonyms": ["Ideal Body Weight"]}, {"conceptId": "C84372", "definition": "A measurement of the length of the lower leg from the top of the knee to the bottom of the heel. This measurement may be taken with a knemometer or calipers. (NCI)", "preferredTerm": "Knee to Heel Length Measurement", "submissionValue": "KNEEHEEL", "synonyms": ["Knee to Heel Length"]}, {"conceptId": "C71258", "definition": "The weight of all organs and tissue in an individual less the weight of the individual's body fat.", "preferredTerm": "Lean Body Mass", "submissionValue": "LBM", "synonyms": ["Lean Body Mass"]}, {"conceptId": "C49679", "definition": "The mean pressure of the blood within the arterial circulation. The arterial pressure may be directly measured by insertion of an intra-arterial catheter connected to a transducer. The mean arterial pressure (MAP) can be calculated by subsequent analysis of the waveform. MAP can be approximated without an invasive procedure using the following formula: diastolic pressure plus 1/3 of the pulse pressure, where pulse pressure is systolic pressure - diastolic pressure. (NCI)", "preferredTerm": "Mean Arterial Pressure", "submissionValue": "MAP", "synonyms": ["Mean Arterial Pressure"]}, {"conceptId": "C124475", "definition": "The distance around an individual's upper arm, at the widest point.", "preferredTerm": "Mid-Upper Arm Circumference", "submissionValue": "MUARMCIR", "synonyms": ["Mid-Upper Arm Circumference"]}, {"conceptId": "C60832", "definition": "A measurement of the oxygen-hemoglobin saturation of a volume of blood.", "preferredTerm": "Oxygen Saturation Measurement", "submissionValue": "OXYSAT", "synonyms": ["Oxygen Saturation"]}, {"conceptId": "C49676", "definition": "The rate of the pulse as observed in an artery, expressed as beats per minute. It can be measured at several anatomical sites, including the wrist, neck, temple, groin, behind the knees, or on top of the foot. (NCI)", "preferredTerm": "Pulse Rate", "submissionValue": "PULSE", "synonyms": ["Pulse Rate"]}, {"conceptId": "C100945", "definition": "The change in systolic to diastolic pressure which produces a pulse.", "preferredTerm": "Pulse Pressure", "submissionValue": "PULSEPR", "synonyms": ["Pulse Pressure"]}, {"conceptId": "C49678", "definition": "The rate of breathing (inhalation and exhalation) measured within in a unit time, usually expressed as breaths per minute. (NCI)", "preferredTerm": "Respiratory Rate", "submissionValue": "RESP", "synonyms": ["Respiratory Rate"]}, {"conceptId": "C87054", "definition": "A standard measure of visceral obesity, or abdominal fat, which is measured from the patient's back to upper abdomen between the bottom of the rib cage and the top of the pelvic area. This measurement may be taken with the patient standing or in the supine position. (NCI)", "preferredTerm": "Sagittal Abdominal Diameter", "submissionValue": "SAD", "synonyms": ["Sagittal Abdominal Diameter"]}, {"conceptId": "C98785", "definition": "A measurement of the thickness of a pinch of skin situated below or on the underside of the scapula. (NCI)", "preferredTerm": "Subscapular Skinfold Thickness", "submissionValue": "SSSKNF", "synonyms": ["Subscapular Skinfold Thickness"]}, {"conceptId": "C25298", "definition": "The blood pressure during the contraction of the left ventricle of the heart. (NCI)", "preferredTerm": "Systolic Blood Pressure", "submissionValue": "SYSBP", "synonyms": ["Systolic Blood Pressure"]}, {"conceptId": "C104622", "definition": "A measurement of the quantity of water within the body, including both the intracellular and extracellular compartments.", "preferredTerm": "Total Body Water Measurement", "submissionValue": "TBW", "synonyms": ["Total Body Water"]}, {"conceptId": "C25206", "definition": "The property of a body or region of space that determines whether or not there will be a net flow of heat into it or out of it from a neighboring body or region and in which direction (if any) the heat will flow, perceptible by living organism as a somatic sensation of cold or heat. It is a measure of the average translational kinetic energy associated with the disordered microscopic motion of atoms and molecules. Temperature is measured in one of the three standard temperature scales: Celsius, Kelvin, and Fahrenheit. (NCI)", "preferredTerm": "Temperature", "submissionValue": "TEMP", "synonyms": ["Temperature"]}, {"conceptId": "C98793", "definition": "A measurement of the thickness of a pinch of skin on the triceps. (NCI)", "preferredTerm": "Triceps Skinfold Thickness", "submissionValue": "TRSKNF", "synonyms": ["Triceps Skinfold Thickness"]}, {"conceptId": "C25208", "definition": "The vertical force exerted by a mass as a result of gravity. (NCI)", "preferredTerm": "Weight", "submissionValue": "WEIGHT", "synonyms": ["Weight"]}, {"conceptId": "C100948", "definition": "The distance around an individual's midsection or waist.", "preferredTerm": "Waist Circumference", "submissionValue": "WSTCIR", "synonyms": ["Waist Circumference"]}]}