{"_links": {"parentPackage": {"href": "/mdr/ct/packages/sendct-2016-06-24", "title": "SEND Controlled Terminology Package 26 Effective 2016-06-24", "type": "Terminology"}, "priorVersion": {"href": "/mdr/ct/packages/sendct-2016-03-25/codelists/C89973", "title": "CDISC SEND Microscopic Findings Test Name Terminology", "type": "Code List"}, "rootItem": {"href": "/mdr/root/ct/sendct/codelists/C89973", "title": "Version-agnostic anchor resource for codelist C89973", "type": "Root Value Domain"}, "self": {"href": "/mdr/ct/packages/sendct-2016-06-24/codelists/C89973", "title": "CDISC SEND Microscopic Findings Test Name Terminology", "type": "Code List"}}, "conceptId": "C89973", "definition": "Terminology for the test names concerned with the findings from a specimen that are visible by microscopic analysis.", "extensible": "true", "name": "Microscopic Findings Test Name", "preferredTerm": "CDISC SEND Microscopic Findings Test Name Terminology", "submissionValue": "MITEST", "synonyms": ["Microscopic Findings Test Name"], "terms": [{"conceptId": "C111124", "definition": "A measurement of the abnormal cells in a biological specimen.", "preferredTerm": "Abnormal Cell Count", "submissionValue": "Abnormal Cells", "synonyms": ["Abnormal Cells"]}, {"conceptId": "C122102", "definition": "A measurement of the beta-defensin 2 in a biological specimen.", "preferredTerm": "Beta-defensin 2 Measurement", "submissionValue": "Beta-defensin 2", "synonyms": ["Beta-defensin 2"]}, {"conceptId": "C123555", "definition": "A measurement of BRCA1 protein in a biological specimen.", "preferredTerm": "Breast Cancer Type 1 Susceptibility Protein Measurement", "submissionValue": "Breast Cancer Type 1 Susceptibility Prot", "synonyms": ["Breast Cancer Type 1 Susceptibility Prot"]}, {"conceptId": "C123556", "definition": "A relative measurement (ratio or percentage) of the neoplastic cells to total cells in a biological specimen.", "preferredTerm": "Cancer Cellularity Measurement", "submissionValue": "Cancer Cellularity", "synonyms": ["Cancer Cellularity"]}, {"conceptId": "C127763", "definition": "A measurement of the cytokeratin 16 in a biological specimen.", "preferredTerm": "Cytokeratin 16 Measurement", "submissionValue": "Cytokeratin 16", "synonyms": ["Cytokeratin 16"]}, {"conceptId": "C127764", "definition": "A measurement of the dendritic cell-lysosomal-associated membrane protein in a biological specimen.", "preferredTerm": "Dendritic Cell Lysosomal-Associated Membrane Protein Measurement", "submissionValue": "Dendritic Cell-Lysosomal-Assoc Memb Prot", "synonyms": ["Dendritic Cell-Lysosomal-Assoc Memb Prot"]}, {"conceptId": "C112274", "definition": "A measurement of estrogen receptor protein in a biological specimen.", "preferredTerm": "Estrogen Receptor Measurement", "submissionValue": "Estrogen Receptor", "synonyms": ["ER", "ESR", "Estrogen Receptor", "Oestrogen Receptor"]}, {"conceptId": "C127765", "definition": "An evaluation of fibrosis in a biological specimen.", "preferredTerm": "Fibrosis Assessment", "submissionValue": "Fibrosis", "synonyms": ["Fibrosis"]}, {"conceptId": "C112312", "definition": "A measurement of HER2 protein in a biological specimen.", "preferredTerm": "Human Epidermal Growth Factor Receptor 2 Measurement", "submissionValue": "Human Epidermal Growth Factor Receptor 2", "synonyms": ["ERBB2", "HER2/NEU", "Human Epidermal Growth Factor Receptor 2"]}, {"conceptId": "C123557", "definition": "A measurement of the Ki-67 protein in a biological specimen.", "preferredTerm": "Ki67 Measurement", "submissionValue": "Ki-67", "synonyms": ["Ki-67"]}, {"conceptId": "C106539", "definition": "A measurement of lipocalin-2 in a biological specimen.", "preferredTerm": "Lipocalin-2 Measurement", "submissionValue": "Lipocalin-2", "synonyms": ["Lipocalin-2"]}, {"conceptId": "C127766", "definition": "An evaluation of lymphatic invasion in a biological specimen.", "preferredTerm": "Lymphatic Invasion Assessment", "submissionValue": "Lymphatic Invasion", "synonyms": ["Lymphatic Invasion"]}, {"conceptId": "C90424", "definition": "An assessment by microscope (e.g., light, electron, confocal, etc.).", "preferredTerm": "Microscopic Examination", "submissionValue": "Microscopic Examination", "synonyms": ["Microscopic Examination"]}, {"conceptId": "C123558", "definition": "A measurement of NK2 homeobox 1 protein in a biological specimen.", "preferredTerm": "NK2 Homeobox 1 Measurement", "submissionValue": "NK2 Homeobox 1", "synonyms": ["NK2 Homeobox 1", "TEBP", "TTF1", "Thyroid Transcription Factor 1"]}, {"conceptId": "C127767", "definition": "A relative measurement (ratio or percentage) of the normal cells to total cells in a biological specimen.", "preferredTerm": "Normal Cell to Total Cell Ratio Measurement", "submissionValue": "Normal Cells/Total Cells", "synonyms": ["Normal Cells/Total Cells"]}, {"conceptId": "C123559", "definition": "A relative measurement (percentage) of in situ component present in a carcinoma compared to the entire malignant cellular proliferation. (NCI)", "preferredTerm": "Percentage of in situ Carcinoma", "submissionValue": "Percentage of In situ Carcinoma", "synonyms": ["Percentage of In situ Carcinoma"]}, {"conceptId": "C127768", "definition": "An evaluation of perineural invasion in a biological specimen.", "preferredTerm": "Perineural Invasion Assessment", "submissionValue": "Perineural Invasion", "synonyms": ["Perineural Invasion"]}, {"conceptId": "C117846", "definition": "A measurement of the progesterone receptor protein in a biological specimen.", "preferredTerm": "Progesterone Receptor Measurement", "submissionValue": "Progesterone Receptor", "synonyms": ["NR3C3", "PR", "Progesterone Receptor"]}, {"conceptId": "C127769", "definition": "A measurement of the S100 calcium binding protein A7 in a biological specimen.", "preferredTerm": "S100 Calcium Binding Protein A7 Measurement", "submissionValue": "S100 Calcium Binding Protein A7", "synonyms": ["S100 Calcium Binding Protein A7"]}, {"conceptId": "C127770", "definition": "A relative measurement (ratio or percentage) of the stromal cells to total cells in a biological specimen.", "preferredTerm": "Stromal Cell to Total Cell Ratio Measurement", "submissionValue": "Stromal Cells/Total Cells", "synonyms": ["Stromal Cells/Total Cells"]}, {"conceptId": "C123560", "definition": "The determination of the presence of actual or potential neoplastic tissue which has been left outside the boundary of a resected specimen within the patient. (NCI)", "preferredTerm": "Surgical Margins Status", "submissionValue": "Surgical Margins Status", "synonyms": ["Surgical Margins Status"]}, {"conceptId": "C41145", "definition": "The dimension between two surfaces of an object, usually the smallest dimension as opposed to the width or the length.", "preferredTerm": "Thickness", "submissionValue": "Thickness", "synonyms": ["Thickness"]}, {"conceptId": "C127771", "definition": "A relative measurement (ratio or percentage) of the tumor cells to total cells in a biological specimen.", "preferredTerm": "Tumor Cell to Total Cell Ratio Measurement", "submissionValue": "Tumor Cells/Total Cells", "synonyms": ["Tumor Cells/Total Cells"]}, {"conceptId": "C127772", "definition": "An evaluation of vascular invasion in a biological specimen.", "preferredTerm": "Vascular Invasion Assessment", "submissionValue": "Vascular Invasion", "synonyms": ["Vascular Invasion"]}]}