{"_links": {"parentPackage": {"href": "/mdr/ct/packages/sdtmct-2023-03-31", "title": "SDTM Controlled Terminology Package 53 Effective 2023-03-31", "type": "Terminology"}, "priorVersion": {"href": "/mdr/ct/packages/sdtmct-2022-12-16/codelists/C100175", "title": "CDISC Questionnaire WPAI:SHP v2.0 Test Name Terminology", "type": "Code List"}, "rootItem": {"href": "/mdr/root/ct/sdtmct/codelists/C100175", "title": "Version-agnostic anchor resource for codelist C100175", "type": "Root Value Domain"}, "self": {"href": "/mdr/ct/packages/sdtmct-2023-03-31/codelists/C100175", "title": "CDISC Questionnaire WPAI:SHP v2.0 Test Name Terminology", "type": "Code List"}}, "conceptId": "C100175", "definition": "Work Productivity and Activity Impairment Questionnaire - Specific Health Problem V2.0 test name.", "extensible": "false", "name": "Work Productivity and Activity Impairment Questionnaire - Specific Health Problem V2.0 Questionnaire Test Name", "preferredTerm": "CDISC Questionnaire WPAI:SHP v2.0 Test Name Terminology", "submissionValue": "WPAI01TN", "synonyms": ["Work Productivity and Activity Impairment Questionnaire - Specific Health Problem V2.0 Questionnaire Test Name"], "terms": [{"conceptId": "C166349", "definition": "Work Productivity and Activity Impairment Questionnaire - Specific Health Problem V2.0 - Absenteeism score.", "preferredTerm": "WPAI:SHP v2.0 - Absenteeism Score", "submissionValue": "WPAI01-Absenteeism Score", "synonyms": ["WPAI01-Absenteeism Score"]}, {"conceptId": "C166352", "definition": "Work Productivity and Activity Impairment Questionnaire - Specific Health Problem V2.0 - Activity impairment score.", "preferredTerm": "WPAI:SHP v2.0 - Activity Impairment Score", "submissionValue": "WPAI01-Activity Impairment Score", "synonyms": ["WPAI01-Activity Impairment Score"]}, {"conceptId": "C100949", "definition": "Work Productivity and Activity Impairment Questionnaire - Specific Health Problem V2.0 - Are you currently employed (working for pay)?", "preferredTerm": "WPAI:SHP v2.0 - Currently Employed", "submissionValue": "WPAI01-Currently Employed", "synonyms": ["WPAI01-Currently Employed"]}, {"conceptId": "C100952", "definition": "Work Productivity and Activity Impairment Questionnaire - Specific Health Problem V2.0 - During the past seven days, how many hours did you actually work?", "preferredTerm": "WPAI:SHP v2.0 - Hours Actually Worked", "submissionValue": "WPAI01-Hours Actually Worked", "synonyms": ["WPAI01-Hours Actually Worked"]}, {"conceptId": "C100951", "definition": "Work Productivity and Activity Impairment Questionnaire - Specific Health Problem V2.0 - During the past seven days, how many hours did you miss from work because of any other reason, such as vacation, holidays, time off to participate in this study?", "preferredTerm": "WPAI:SHP v2.0 - Missed Work Hours Due to Other Reasons", "submissionValue": "WPAI01-Missed Work Hours Due to Other", "synonyms": ["WPAI01-Missed Work Hours Due to Other"]}, {"conceptId": "C100950", "definition": "Work Productivity and Activity Impairment Questionnaire - Specific Health Problem V2.0 - During the past seven days, how many hours did you miss from work because of problems associated with your problem?", "preferredTerm": "WPAI:SHP v2.0 - Missed Work Hours Due to Problem", "submissionValue": "WPAI01-Missed Work Hours Due to Problem", "synonyms": ["WPAI01-Missed Work Hours Due to Problem"]}, {"conceptId": "C166350", "definition": "Work Productivity and Activity Impairment Questionnaire - Specific Health Problem V2.0 - Presenteeism score.", "preferredTerm": "WPAI:SHP v2.0 - Presenteeism Score", "submissionValue": "WPAI01-Presenteeism Score", "synonyms": ["WPAI01-Presenteeism Score"]}, {"conceptId": "C100953", "definition": "Work Productivity and Activity Impairment Questionnaire - Specific Health Problem V2.0 - During the past seven days, how much did your problem affect your productivity while you were working?", "preferredTerm": "WPAI:SHP v2.0 - Problem Affects Productivity", "submissionValue": "WPAI01-Problem Affect Productivity", "synonyms": ["WPAI01-Problem Affect Productivity"]}, {"conceptId": "C100954", "definition": "Work Productivity and Activity Impairment Questionnaire - Specific Health Problem V2.0 - During the past seven days, how much did your problem affect your ability to do your regular daily activities, other than work at a job?", "preferredTerm": "WPAI:SHP v2.0 - Problem Affects Regular Daily Activity", "submissionValue": "WPAI01-Problem Affect Reg Daily Activity", "synonyms": ["WPAI01-Problem Affect Reg Daily Activity"]}, {"conceptId": "C166351", "definition": "Work Productivity and Activity Impairment Questionnaire - Specific Health Problem V2.0 - Work productivity loss score.", "preferredTerm": "WPAI:SHP v2.0 - Work Productivity Loss Score", "submissionValue": "WPAI01-Work Productivity Loss Score", "synonyms": ["WPAI01-Work Productivity Loss Score"]}]}