{"_links": {"parentPackage": {"href": "/mdr/ct/packages/sdtmct-2023-03-31", "title": "SDTM Controlled Terminology Package 53 Effective 2023-03-31", "type": "Terminology"}, "priorVersion": {"href": "/mdr/ct/packages/sdtmct-2022-12-16/codelists/C100133", "title": "CDISC Clinical Classification BPRS-Anchored Test Name Terminology", "type": "Code List"}, "rootItem": {"href": "/mdr/root/ct/sdtmct/codelists/C100133", "title": "Version-agnostic anchor resource for codelist C100133", "type": "Root Value Domain"}, "self": {"href": "/mdr/ct/packages/sdtmct-2023-03-31/codelists/C100133", "title": "CDISC Clinical Classification BPRS-Anchored Test Name Terminology", "type": "Code List"}}, "conceptId": "C100133", "definition": "The Brief Psychiatric Rating Scale-Anchored test name.", "extensible": "false", "name": "Brief Psychiatric Rating Scale-Anchored Clinical Classification Test Name", "preferredTerm": "CDISC Clinical Classification BPRS-Anchored Test Name Terminology", "submissionValue": "BPRSA1TN", "synonyms": ["Brief Psychiatric Rating Scale-Anchored Clinical Classification Test Name"], "terms": [{"conceptId": "C100373", "definition": "Brief Psychiatric Rating Scale-Anchored - Anxiety.", "preferredTerm": "BPRS-Anchored - Anxiety", "submissionValue": "BPRSA1-Anxiety", "synonyms": ["BPRSA1-Anxiety"]}, {"conceptId": "C100387", "definition": "Brief Psychiatric Rating Scale-Anchored - Blunted Affect.", "preferredTerm": "BPRS-Anchored - Blunted Affect", "submissionValue": "BPRSA1-Blunted Affect", "synonyms": ["BPRSA1-Blunted Affect"]}, {"conceptId": "C100375", "definition": "Brief Psychiatric Rating Scale-Anchored - Conceptual Disorganization.", "preferredTerm": "BPRS-Anchored - Conceptual Disorganization", "submissionValue": "BPRSA1-Conceptual Disorganization", "synonyms": ["BPRSA1-Conceptual Disorganization"]}, {"conceptId": "C100380", "definition": "Brief Psychiatric Rating Scale-Anchored - Depressive Mood.", "preferredTerm": "BPRS-Anchored - Depressive Mood", "submissionValue": "BPRSA1-Depressive Mood", "synonyms": ["BPRSA1-Depressive Mood"]}, {"conceptId": "C100389", "definition": "Brief Psychiatric Rating Scale-Anchored - Disorientation.", "preferredTerm": "BPRS-Anchored - Disorientation", "submissionValue": "BPRSA1-Disorientation", "synonyms": ["BPRSA1-Disorientation"]}, {"conceptId": "C100374", "definition": "Brief Psychiatric Rating Scale-Anchored - Emotional Withdrawal.", "preferredTerm": "BPRS-Anchored - Emotional Withdrawal", "submissionValue": "BPRSA1-Emotional Withdrawal", "synonyms": ["BPRSA1-Emotional Withdrawal"]}, {"conceptId": "C100388", "definition": "Brief Psychiatric Rating Scale-Anchored - Excitement.", "preferredTerm": "BPRS-Anchored - Excitement", "submissionValue": "BPRSA1-Excitement", "synonyms": ["BPRSA1-Excitement"]}, {"conceptId": "C100379", "definition": "Brief Psychiatric Rating Scale-Anchored - Grandiosity.", "preferredTerm": "BPRS-Anchored - Grandiosity", "submissionValue": "BPRSA1-Grandiosity", "synonyms": ["BPRSA1-Grandiosity"]}, {"conceptId": "C100376", "definition": "Brief Psychiatric Rating Scale-Anchored - Guilt Feelings.", "preferredTerm": "BPRS-Anchored - Guilt Feelings", "submissionValue": "BPRSA1-Guilt Feelings", "synonyms": ["BPRSA1-Guilt Feelings"]}, {"conceptId": "C100383", "definition": "Brief Psychiatric Rating Scale-Anchored - Hallucinatory Behavior.", "preferredTerm": "BPRS-Anchored - Hallucinatory Behavior", "submissionValue": "BPRSA1-Hallucinatory Behavior", "synonyms": ["BPRSA1-Hallucinatory Behavior"]}, {"conceptId": "C100381", "definition": "Brief Psychiatric Rating Scale-Anchored - Hostility.", "preferredTerm": "BPRS-Anchored - Hostility", "submissionValue": "BPRSA1-Hostility", "synonyms": ["BPRSA1-Hostility"]}, {"conceptId": "C100378", "definition": "Brief Psychiatric Rating Scale-Anchored - Mannerisms and Posturing.", "preferredTerm": "BPRS-Anchored - Mannerisms and Posturing", "submissionValue": "BPRSA1-Mannerisms and Posturing", "synonyms": ["BPRSA1-Mannerisms and Posturing"]}, {"conceptId": "C100384", "definition": "Brief Psychiatric Rating Scale-Anchored - Motor Retardation.", "preferredTerm": "BPRS-Anchored - Motor Retardation", "submissionValue": "BPRSA1-Motor Retardation", "synonyms": ["BPRSA1-Motor Retardation"]}, {"conceptId": "C100372", "definition": "Brief Psychiatric Rating Scale-Anchored - Somatic Concern.", "preferredTerm": "BPRS-Anchored - Somatic Concern", "submissionValue": "BPRSA1-Somatic Concern", "synonyms": ["BPRSA1-Somatic Concern"]}, {"conceptId": "C100382", "definition": "Brief Psychiatric Rating Scale-Anchored - Suspiciousness.", "preferredTerm": "BPRS-Anchored - Suspiciousness", "submissionValue": "BPRSA1-Suspiciousness", "synonyms": ["BPRSA1-Suspiciousness"]}, {"conceptId": "C100377", "definition": "Brief Psychiatric Rating Scale-Anchored - Tension.", "preferredTerm": "BPRS-Anchored - Tension", "submissionValue": "BPRSA1-Tension", "synonyms": ["BPRSA1-Tension"]}, {"conceptId": "C100385", "definition": "Brief Psychiatric Rating Scale-Anchored - Uncooperativeness.", "preferredTerm": "BPRS-Anchored - Uncooperativeness", "submissionValue": "BPRSA1-Uncooperativeness", "synonyms": ["BPRSA1-Uncooperativeness"]}, {"conceptId": "C100386", "definition": "Brief Psychiatric Rating Scale-Anchored - Unusual Thought Content.", "preferredTerm": "BPRS-Anchored - Unusual Thought Content", "submissionValue": "BPRSA1-Unusual Thought Content", "synonyms": ["BPRSA1-Unusual Thought Content"]}]}