{"_links": {"parentPackage": {"href": "/mdr/ct/packages/sdtmct-2023-03-31", "title": "SDTM Controlled Terminology Package 53 Effective 2023-03-31", "type": "Terminology"}, "priorVersion": {"href": "/mdr/ct/packages/sdtmct-2022-12-16/codelists/C100174", "title": "CDISC Questionnaire SF36 v1.0 Standard Test Code Terminology", "type": "Code List"}, "rootItem": {"href": "/mdr/root/ct/sdtmct/codelists/C100174", "title": "Version-agnostic anchor resource for codelist C100174", "type": "Root Value Domain"}, "self": {"href": "/mdr/ct/packages/sdtmct-2023-03-31/codelists/C100174", "title": "CDISC Questionnaire SF36 v1.0 Standard Test Code Terminology", "type": "Code List"}}, "conceptId": "C100174", "definition": "The Short Form 36 Health Survey Standard, US Version 1.0 test code.", "extensible": "false", "name": "The Short Form 36 Health Survey Standard, US Version 1.0 Questionnaire Test Code", "preferredTerm": "CDISC Questionnaire SF36 v1.0 Standard Test Code Terminology", "submissionValue": "SF361TC", "synonyms": ["The Short Form 36 Health Survey Standard, US Version 1.0 Questionnaire Test Code"], "terms": [{"conceptId": "C100813", "definition": "The Short Form 36 Health Survey Standard, US Version 1.0 - In general, would you say your health is.", "preferredTerm": "SF36 v1.0 Standard - In General You Say Your Health Is", "submissionValue": "SF36101", "synonyms": ["SF361-In General You Say Your Health Is"]}, {"conceptId": "C100814", "definition": "The Short Form 36 Health Survey Standard, US Version 1.0 - Compared to one year ago, how would you rate your health in general now?", "preferredTerm": "SF36 v1.0 Standard - Comp Year Ago Rate Gen Health Now", "submissionValue": "SF36102", "synonyms": ["SF361-Comp Year Ago Rate Gen Health Now"]}, {"conceptId": "C100815", "definition": "The Short Form 36 Health Survey Standard, US Version 1.0 - How much does your health now limit you in - vigorous activities, such as running, lifting heavy objects, participating in strenuous sports.", "preferredTerm": "SF36 v1.0 Standard - Limit Vigorous Activities", "submissionValue": "SF36103A", "synonyms": ["SF361-Limit Vigorous Activities"]}, {"conceptId": "C100816", "definition": "The Short Form 36 Health Survey Standard, US Version 1.0 - How much does your health now limit you in - moderate activities, such as moving a table, pushing a vacuum cleaner, bowling, or playing golf.", "preferredTerm": "SF36 v1.0 Standard - Limit Moderate Activities", "submissionValue": "SF36103B", "synonyms": ["SF361-Limit Moderate Activities"]}, {"conceptId": "C100817", "definition": "The Short Form 36 Health Survey Standard, US Version 1.0 - How much does your health now limit you in - lifting or carrying groceries.", "preferredTerm": "SF36 v1.0 Standard - Limit Lifting or Carrying", "submissionValue": "SF36103C", "synonyms": ["SF361-Limit Lifting or Carrying"]}, {"conceptId": "C100818", "definition": "The Short Form 36 Health Survey Standard, US Version 1.0 - How much does your health now limit you in - climbing several flights of stairs.", "preferredTerm": "SF36 v1.0 Standard - Limit Climbing Several Flights", "submissionValue": "SF36103D", "synonyms": ["SF361-Limit Climbing Several Flights"]}, {"conceptId": "C100819", "definition": "The Short Form 36 Health Survey Standard, US Version 1.0 - How much does your health now limit you in - climbing one flight of stairs.", "preferredTerm": "SF36 v1.0 Standard - Limit Climbing One Flight Stairs", "submissionValue": "SF36103E", "synonyms": ["SF361-Limit Climbing One Flight Stairs"]}, {"conceptId": "C100820", "definition": "The Short Form 36 Health Survey Standard, US Version 1.0 - How much does your health now limit you in - bending, kneeling, or stooping.", "preferredTerm": "SF36 v1.0 Standard - Limit Bending/Kneeling/Stooping", "submissionValue": "SF36103F", "synonyms": ["SF361-Limit Bending/Kneeling/Stooping"]}, {"conceptId": "C100821", "definition": "The Short Form 36 Health Survey Standard, US Version 1.0 - How much does your health now limit you in - walking more than a mile.", "preferredTerm": "SF36 v1.0 Standard - Limit Walking More Than a Mile", "submissionValue": "SF36103G", "synonyms": ["SF361-Limit Walking More Than a Mile"]}, {"conceptId": "C100822", "definition": "The Short Form 36 Health Survey Standard, US Version 1.0 - How much does your health now limit you in - walking several blocks.", "preferredTerm": "SF36 v1.0 Standard - Limit Walking Several Blocks", "submissionValue": "SF36103H", "synonyms": ["SF361-Limit Walking Several Blocks"]}, {"conceptId": "C100823", "definition": "The Short Form 36 Health Survey Standard, US Version 1.0 - How much does your health now limit you in - walking one block.", "preferredTerm": "SF36 v1.0 Standard - Limit Walking One Block", "submissionValue": "SF36103I", "synonyms": ["SF361-Limit Walking One Block"]}, {"conceptId": "C100824", "definition": "The Short Form 36 Health Survey Standard, US Version 1.0 - How much does your health now limit you in - bathing or dressing yourself.", "preferredTerm": "SF36 v1.0 Standard - Limit Bathing or Dressing Yourself", "submissionValue": "SF36103J", "synonyms": ["SF361-Limit Bathing or Dressing Yourself"]}, {"conceptId": "C100825", "definition": "The Short Form 36 Health Survey Standard, US Version 1.0 - During the past 4 weeks, how much of the time have you had any problems with your work or other regular daily activities as a result of your physical health - cut down on the amount of time you spent on work or other activities.", "preferredTerm": "SF36 v1.0 Standard - Physical: Cut Down Time on Work", "submissionValue": "SF36104A", "synonyms": ["SF361-Physical: Cut Down Time on Work"]}, {"conceptId": "C100826", "definition": "The Short Form 36 Health Survey Standard, US Version 1.0 - During the past 4 weeks, how much of the time have you had any problems with your work or other regular daily activities as a result of your physical health - accomplished less than you would like.", "preferredTerm": "SF36 v1.0 Standard - Physical: Accomplished Less", "submissionValue": "SF36104B", "synonyms": ["SF361-Physical: Accomplished Less"]}, {"conceptId": "C100827", "definition": "The Short Form 36 Health Survey Standard, US Version 1.0 - During the past 4 weeks, how much of the time have you had any problems with your work or other regular daily activities as a result of your physical health - were limited in the kind of work or other activities.", "preferredTerm": "SF36 v1.0 Standard - Physical: Limited Kind of Work", "submissionValue": "SF36104C", "synonyms": ["SF361-Physical: Limited Kind of Work"]}, {"conceptId": "C100828", "definition": "The Short Form 36 Health Survey Standard, US Version 1.0 - During the past 4 weeks, how much of the time have you had any problems with your work or other regular daily activities as a result of your physical health - had difficulty performing the work or other activities (for example, it took extra effort).", "preferredTerm": "SF36 v1.0 Standard - Physical: Difficulty Perform Work", "submissionValue": "SF36104D", "synonyms": ["SF361-Physical: Difficulty Perform Work"]}, {"conceptId": "C100829", "definition": "The Short Form 36 Health Survey Standard, US Version 1.0 - During the past 4 weeks, how much of the time have you had problems with your work or other regular daily activities as a result of any emotional problems (such as feeling depressed or anxious) - cut down on the amount of time you spent on work or other activities.", "preferredTerm": "SF36 v1.0 Standard - Emotional: Cut Down Time on Work", "submissionValue": "SF36105A", "synonyms": ["SF361-Emotional: Cut Down Time on Work"]}, {"conceptId": "C100830", "definition": "The Short Form 36 Health Survey Standard, US Version 1.0 - During the past 4 weeks, how much of the time have you had problems with your work or other regular daily activities as a result of any emotional problems (such as feeling depressed or anxious) - accomplished less than you would like.", "preferredTerm": "SF36 v1.0 Standard - Emotional: Accomplished Less", "submissionValue": "SF36105B", "synonyms": ["SF361-Emotional: Accomplished Less"]}, {"conceptId": "C100831", "definition": "The Short Form 36 Health Survey Standard, US Version 1.0 - During the past 4 weeks, how much of the time have you had problems with your work or other regular daily activities as a result of any emotional problems (such as feeling depressed or anxious) - did work or other activities less carefully than usual.", "preferredTerm": "SF36 v1.0 Standard - Emotional: Did Work Less Carefully", "submissionValue": "SF36105C", "synonyms": ["SF361-Emotional: Did Work Less Carefully"]}, {"conceptId": "C100832", "definition": "The Short Form 36 Health Survey Standard, US Version 1.0 - During the past 4 weeks, to what extent has your physical health or emotional problems interfered with your normal social activities with family, friends, neighbors, or groups?", "preferredTerm": "SF36 v1.0 Standard - Extent Phys/Emotional Interfered", "submissionValue": "SF36106", "synonyms": ["SF361-Extent Phys/Emotional Interfered"]}, {"conceptId": "C100833", "definition": "The Short Form 36 Health Survey Standard, US Version 1.0 - How much bodily pain have you had during the past 4 weeks?", "preferredTerm": "SF36 v1.0 Standard - How Much Bodily Pain Have You Had", "submissionValue": "SF36107", "synonyms": ["SF361-How Much Bodily Pain Have You Had"]}, {"conceptId": "C100834", "definition": "The Short Form 36 Health Survey Standard, US Version 1.0 - During the past 4 weeks, how much did pain interfere with your normal work (including both work outside the home and housework)?", "preferredTerm": "SF36 v1.0 Standard - Pain Interfere With Normal Work", "submissionValue": "SF36108", "synonyms": ["SF361-Pain Interfere With Normal Work"]}, {"conceptId": "C100835", "definition": "The Short Form 36 Health Survey Standard, US Version 1.0 - Please give the one answer that comes closest to the way you have been feeling. How much of the time during the past 4 weeks - did you feel full of pep.", "preferredTerm": "SF36 v1.0 Standard - Did You Feel Full of Pep", "submissionValue": "SF36109A", "synonyms": ["SF361-Did You Feel Full of Pep"]}, {"conceptId": "C100836", "definition": "The Short Form 36 Health Survey Standard, US Version 1.0 - Please give the one answer that comes closest to the way you have been feeling. How much of the time during the past 4 weeks - have you been a very nervous person.", "preferredTerm": "SF36 v1.0 Standard - Have You Been Very Nervous Person", "submissionValue": "SF36109B", "synonyms": ["SF361-Have You Been Very Nervous Person"]}, {"conceptId": "C100837", "definition": "The Short Form 36 Health Survey Standard, US Version 1.0 - Please give the one answer that comes closest to the way you have been feeling. How much of the time during the past 4 weeks - have you felt so down in the dumps that nothing could cheer you up.", "preferredTerm": "SF36 v1.0 Standard - Felt Down Nothing Cheer You Up", "submissionValue": "SF36109C", "synonyms": ["SF361-Felt Down Nothing Cheer You Up"]}, {"conceptId": "C100838", "definition": "The Short Form 36 Health Survey Standard, US Version 1.0 - Please give the one answer that comes closest to the way you have been feeling. How much of the time during the past 4 weeks - have you felt calm and peaceful.", "preferredTerm": "SF36 v1.0 Standard - Have You Felt Calm and Peaceful", "submissionValue": "SF36109D", "synonyms": ["SF361-Have You Felt Calm and Peaceful"]}, {"conceptId": "C100839", "definition": "The Short Form 36 Health Survey Standard, US Version 1.0 - Please give the one answer that comes closest to the way you have been feeling. How much of the time during the past 4 weeks - did you have a lot of energy.", "preferredTerm": "SF36 v1.0 Standard - Did You Have a Lot of Energy", "submissionValue": "SF36109E", "synonyms": ["SF361-Did You Have a Lot of Energy"]}, {"conceptId": "C100840", "definition": "The Short Form 36 Health Survey Standard, US Version 1.0 - Please give the one answer that comes closest to the way you have been feeling. How much of the time during the past 4 weeks - have you felt downhearted and blue.", "preferredTerm": "SF36 v1.0 Standard - You Felt Downhearted and Blue", "submissionValue": "SF36109F", "synonyms": ["SF361-You Felt Downhearted and Blue"]}, {"conceptId": "C100841", "definition": "The Short Form 36 Health Survey Standard, US Version 1.0 - Please give the one answer that comes closest to the way you have been feeling. How much of the time during the past 4 weeks - did you feel worn out.", "preferredTerm": "SF36 v1.0 Standard - Did You Feel Worn Out", "submissionValue": "SF36109G", "synonyms": ["SF361-Did You Feel Worn Out"]}, {"conceptId": "C100842", "definition": "The Short Form 36 Health Survey Standard, US Version 1.0 - Please give the one answer that comes closest to the way you have been feeling. How much of the time during the past 4 weeks - have you been a happy person.", "preferredTerm": "SF36 v1.0 Standard - Have You Been Happy Person", "submissionValue": "SF36109H", "synonyms": ["SF361-Have You Been Happy Person"]}, {"conceptId": "C100843", "definition": "The Short Form 36 Health Survey Standard, US Version 1.0 - Please give the one answer that comes closest to the way you have been feeling. How much of the time during the past 4 weeks - did you feel tired.", "preferredTerm": "SF36 v1.0 Standard - Did You Feel Tired", "submissionValue": "SF36109I", "synonyms": ["SF361-Did You Feel Tired"]}, {"conceptId": "C100844", "definition": "The Short Form 36 Health Survey Standard, US Version 1.0 - During the past 4 weeks, how much of the time has your physical health or emotional problems interfered with your social activities (like visiting friends, relatives, etc.)?", "preferredTerm": "SF36 v1.0 Standard - Time Phys/Emotional Interfered", "submissionValue": "SF36110", "synonyms": ["SF361-Time Phys/Emotional Interfered"]}, {"conceptId": "C100845", "definition": "The Short Form 36 Health Survey Standard, US Version 1.0 - How TRUE or FALSE is the following statement for you - I seem to get sick a little easier than other people.", "preferredTerm": "SF36 v1.0 Standard - Get Sick Little Easier Than Other", "submissionValue": "SF36111A", "synonyms": ["SF361-Get Sick Little Easier Than Other"]}, {"conceptId": "C100846", "definition": "The Short Form 36 Health Survey Standard, US Version 1.0 - How TRUE or FALSE is the following statement for you - I am as healthy as anybody I know.", "preferredTerm": "SF36 v1.0 Standard - I Am as Healthy as Anybody I Know", "submissionValue": "SF36111B", "synonyms": ["SF361-I Am as Healthy as Anybody I Know"]}, {"conceptId": "C100847", "definition": "The Short Form 36 Health Survey Standard, US Version 1.0 - How TRUE or FALSE is the following statement for you - I expect my health to get worse.", "preferredTerm": "SF36 v1.0 Standard - I Expect My Health to Get Worse", "submissionValue": "SF36111C", "synonyms": ["SF361-I Expect My Health to Get Worse"]}, {"conceptId": "C100848", "definition": "The Short Form 36 Health Survey Standard, US Version 1.0 - How TRUE or FALSE is the following statement for you - my health is excellent", "preferredTerm": "SF36 v1.0 Standard - My Health is Excellent", "submissionValue": "SF36111D", "synonyms": ["SF361-My Health is Excellent"]}, {"conceptId": "C176142", "definition": "The Short Form 36 Health Survey Standard, US Version 1.0 - Physical functioning 0-100 score.", "preferredTerm": "SF36 v1.0 Standard - Physical Functioning 0-100 Score", "submissionValue": "SF36112", "synonyms": ["SF361-Physical Functioning 0-100 Score"]}, {"conceptId": "C176143", "definition": "The Short Form 36 Health Survey Standard, US Version 1.0 - Role physical 0-100 score.", "preferredTerm": "SF36 v1.0 Standard - Role Physical 0-100 Score", "submissionValue": "SF36113", "synonyms": ["SF361-Role Physical 0-100 Score"]}, {"conceptId": "C176144", "definition": "The Short Form 36 Health Survey Standard, US Version 1.0 - Bodily pain 0-100 score.", "preferredTerm": "SF36 v1.0 Standard - Bodily Pain 0-100 Score", "submissionValue": "SF36114", "synonyms": ["SF361-Bodily Pain 0-100 Score"]}, {"conceptId": "C176145", "definition": "The Short Form 36 Health Survey Standard, US Version 1.0 - General health 0-100 score.", "preferredTerm": "SF36 v1.0 Standard - General Health 0-100 Score", "submissionValue": "SF36115", "synonyms": ["SF361-General Health 0-100 Score"]}, {"conceptId": "C176146", "definition": "The Short Form 36 Health Survey Standard, US Version 1.0 - Vitality 0-100 score.", "preferredTerm": "SF36 v1.0 Standard - Vitality 0-100 Score", "submissionValue": "SF36116", "synonyms": ["SF361-Vitality 0-100 Score"]}, {"conceptId": "C176147", "definition": "The Short Form 36 Health Survey Standard, US Version 1.0 - Social functioning 0-100 score.", "preferredTerm": "SF36 v1.0 Standard - Social Functioning 0-100 Score", "submissionValue": "SF36117", "synonyms": ["SF361-Social Functioning 0-100 Score"]}, {"conceptId": "C176148", "definition": "The Short Form 36 Health Survey Standard, US Version 1.0 - Role emotional 0-100 score.", "preferredTerm": "SF36 v1.0 Standard - Role Emotional 0-100 Score", "submissionValue": "SF36118", "synonyms": ["SF361-Role Emotional 0-100 Score"]}, {"conceptId": "C176149", "definition": "The Short Form 36 Health Survey Standard, US Version 1.0 - Mental health 0-100 score.", "preferredTerm": "SF36 v1.0 Standard - Mental Health 0-100 Score", "submissionValue": "SF36119", "synonyms": ["SF361-Mental Health 0-100 Score"]}, {"conceptId": "C176150", "definition": "The Short Form 36 Health Survey Standard, US Version 1.0 - Phys functioning norm-based score.", "preferredTerm": "SF36 v1.0 Standard - Phys Functioning Norm-Based Score", "submissionValue": "SF36120", "synonyms": ["SF361-Phys Functioning Norm-Based Score"]}, {"conceptId": "C176151", "definition": "The Short Form 36 Health Survey Standard, US Version 1.0 - Role physical norm-based score.", "preferredTerm": "SF36 v1.0 Standard - Role Physical Norm-Based Score", "submissionValue": "SF36121", "synonyms": ["SF361-Role Physical Norm-Based Score"]}, {"conceptId": "C176152", "definition": "The Short Form 36 Health Survey Standard, US Version 1.0 - Bodily pain norm-based score.", "preferredTerm": "SF36 v1.0 Standard - Bodily Pain Norm-Based Score", "submissionValue": "SF36122", "synonyms": ["SF361-Bodily Pain Norm-Based Score"]}, {"conceptId": "C176153", "definition": "The Short Form 36 Health Survey Standard, US Version 1.0 - General health norm-based score.", "preferredTerm": "SF36 v1.0 Standard - General Health Norm-Based Score", "submissionValue": "SF36123", "synonyms": ["SF361-General Health Norm-Based Score"]}, {"conceptId": "C176154", "definition": "The Short Form 36 Health Survey Standard, US Version 1.0 - Vitality norm-based score.", "preferredTerm": "SF36 v1.0 Standard - Vitality Norm-Based Score", "submissionValue": "SF36124", "synonyms": ["SF361-Vitality Norm-Based Score"]}, {"conceptId": "C176155", "definition": "The Short Form 36 Health Survey Standard, US Version 1.0 - Social function norm-based score.", "preferredTerm": "SF36 v1.0 Standard - Social Function Norm-Based Score", "submissionValue": "SF36125", "synonyms": ["SF361-Social Function Norm-Based Score"]}, {"conceptId": "C176156", "definition": "The Short Form 36 Health Survey Standard, US Version 1.0 - Role emotional norm-based score.", "preferredTerm": "SF36 v1.0 Standard - Role Emotional Norm-Based Score", "submissionValue": "SF36126", "synonyms": ["SF361-Role Emotional Norm-Based Score"]}, {"conceptId": "C176157", "definition": "The Short Form 36 Health Survey Standard, US Version 1.0 - Mental health norm-based score.", "preferredTerm": "SF36 v1.0 Standard - Mental Health Norm-Based Score", "submissionValue": "SF36127", "synonyms": ["SF361-Mental Health Norm-Based Score"]}, {"conceptId": "C176158", "definition": "The Short Form 36 Health Survey Standard, US Version 1.0 - Physical component score.", "preferredTerm": "SF36 v1.0 Standard - Physical Component Score", "submissionValue": "SF36128", "synonyms": ["SF361-Physical Component Score"]}, {"conceptId": "C176159", "definition": "The Short Form 36 Health Survey Standard, US Version 1.0 - Mental component score.", "preferredTerm": "SF36 v1.0 Standard - Mental Component Score", "submissionValue": "SF36129", "synonyms": ["SF361-Mental Component Score"]}, {"conceptId": "C176160", "definition": "The Short Form 36 Health Survey Standard, US Version 1.0 - 6D (utility index) score.", "preferredTerm": "SF36 v1.0 Standard - SF-6D (Utility Index) Score", "submissionValue": "SF36130", "synonyms": ["SF361-SF-6D (Utility Index) Score"]}, {"conceptId": "C176161", "definition": "The Short Form 36 Health Survey Standard, US Version 1.0 - 6D_R2 (util index rel 2) score.", "preferredTerm": "SF36 v1.0 Standard - SF-6D_R2 (Util Index Rel 2) Score", "submissionValue": "SF36131", "synonyms": ["SF361-SF-6D_R2 (Util Index Rel 2) Score"]}, {"conceptId": "C176162", "definition": "The Short Form 36 Health Survey Standard, US Version 1.0 - Response consistency score.", "preferredTerm": "SF36 v1.0 Standard - Response Consistency Score", "submissionValue": "SF36132", "synonyms": ["SF361-Response Consistency Score"]}]}