{"_links": {"parentPackage": {"href": "/mdr/ct/packages/sdtmct-2023-03-31", "title": "SDTM Controlled Terminology Package 53 Effective 2023-03-31", "type": "Terminology"}, "priorVersion": {"href": "/mdr/ct/packages/sdtmct-2022-12-16/codelists/C101829", "title": "CDISC Questionnaire SOWS Subjective Test Name Terminology", "type": "Code List"}, "rootItem": {"href": "/mdr/root/ct/sdtmct/codelists/C101829", "title": "Version-agnostic anchor resource for codelist C101829", "type": "Root Value Domain"}, "self": {"href": "/mdr/ct/packages/sdtmct-2023-03-31/codelists/C101829", "title": "CDISC Questionnaire SOWS Subjective Test Name Terminology", "type": "Code List"}}, "conceptId": "C101829", "definition": "Subjective Opiate Withdrawal Scale test name.", "extensible": "false", "name": "Subjective Opiate Withdrawal Scale Questionnaire Test Name", "preferredTerm": "CDISC Questionnaire SOWS Subjective Test Name Terminology", "submissionValue": "SOWSA1TN", "synonyms": ["Subjective Opiate Withdrawal Scale Questionnaire Test Name"], "terms": [{"conceptId": "C102415", "definition": "Subjective Opiate Withdrawal Scale - I am shaking.", "preferredTerm": "SOWS Subjective (Handelsman) - I Am Shaking", "submissionValue": "SOWSA1-I Am Shaking", "synonyms": ["SOWSA1-I Am Shaking"]}, {"conceptId": "C102409", "definition": "Subjective Opiate Withdrawal Scale - I feel anxious.", "preferredTerm": "SOWS Subjective (Handelsman) - I Feel Anxious", "submissionValue": "SOWSA1-I Feel Anxious", "synonyms": ["SOWSA1-I Feel Anxious"]}, {"conceptId": "C102424", "definition": "Subjective Opiate Withdrawal Scale - I feel like shooting up now.", "preferredTerm": "SOWS Subjective (Handelsman) - I Feel Like Shooting Up Now", "submissionValue": "SOWSA1-I Feel Like Shooting Up Now", "synonyms": ["SOWSA1-I Feel Like Shooting Up Now"]}, {"conceptId": "C102421", "definition": "Subjective Opiate Withdrawal Scale - I feel like vomiting.", "preferredTerm": "SOWS Subjective (Handelsman) - I Feel Like Vomiting", "submissionValue": "SOWSA1-I Feel Like Vomiting", "synonyms": ["SOWSA1-I Feel Like Vomiting"]}, {"conceptId": "C102410", "definition": "Subjective Opiate Withdrawal Scale - I feel like yawning.", "preferredTerm": "SOWS Subjective (Handelsman) - I Feel Like Yawning", "submissionValue": "SOWSA1-I Feel Like Yawning", "synonyms": ["SOWSA1-I Feel Like Yawning"]}, {"conceptId": "C102420", "definition": "Subjective Opiate Withdrawal Scale - I feel nauseous.", "preferredTerm": "SOWS Subjective (Handelsman) - I Feel Nauseous", "submissionValue": "SOWSA1-I Feel Nauseous", "synonyms": ["SOWSA1-I Feel Nauseous"]}, {"conceptId": "C102419", "definition": "Subjective Opiate Withdrawal Scale - I feel restless.", "preferredTerm": "SOWS Subjective (Handelsman) - I Feel Restless", "submissionValue": "SOWSA1-I Feel Restless", "synonyms": ["SOWSA1-I Feel Restless"]}, {"conceptId": "C102417", "definition": "Subjective Opiate Withdrawal Scale - I have cold flashes.", "preferredTerm": "SOWS Subjective (Handelsman) - I Have Cold Flashes", "submissionValue": "SOWSA1-I Have Cold Flashes", "synonyms": ["SOWSA1-I Have Cold Flashes"]}, {"conceptId": "C102423", "definition": "Subjective Opiate Withdrawal Scale - I have cramps in my stomach.", "preferredTerm": "SOWS Subjective (Handelsman) - I Have Cramps in My Stomach", "submissionValue": "SOWSA1-I Have Cramps in My Stomach", "synonyms": ["SOWSA1-I Have Cramps in My Stomach"]}, {"conceptId": "C102414", "definition": "Subjective Opiate Withdrawal Scale - I have goose flesh.", "preferredTerm": "SOWS Subjective (Handelsman) - I Have Goose Flesh", "submissionValue": "SOWSA1-I Have Goose Flesh", "synonyms": ["SOWSA1-I Have Goose Flesh"]}, {"conceptId": "C102416", "definition": "Subjective Opiate Withdrawal Scale - I have hot flashes.", "preferredTerm": "SOWS Subjective (Handelsman) - I Have Hot Flashes", "submissionValue": "SOWSA1-I Have Hot Flashes", "synonyms": ["SOWSA1-I Have Hot Flashes"]}, {"conceptId": "C102411", "definition": "Subjective Opiate Withdrawal Scale - I'm perspiring.", "preferredTerm": "SOWS Subjective (Handelsman) - I'm Perspiring", "submissionValue": "SOWSA1-I'm Perspiring", "synonyms": ["SOWSA1-I'm Perspiring"]}, {"conceptId": "C102418", "definition": "Subjective Opiate Withdrawal Scale - My bones and muscles ache.", "preferredTerm": "SOWS Subjective (Handelsman) - My Bones and Muscles Ache", "submissionValue": "SOWSA1-My Bones and Muscles Ache", "synonyms": ["SOWSA1-My Bones and Muscles Ache"]}, {"conceptId": "C102412", "definition": "Subjective Opiate Withdrawal Scale - My eyes are tearing.", "preferredTerm": "SOWS Subjective (Handelsman) - My Eyes Are Tearing", "submissionValue": "SOWSA1-My Eyes Are Tearing", "synonyms": ["SOWSA1-My Eyes Are Tearing"]}, {"conceptId": "C102422", "definition": "Subjective Opiate Withdrawal Scale - My muscles twitch.", "preferredTerm": "SOWS Subjective (Handelsman) - My Muscles Twitch", "submissionValue": "SOWSA1-My Muscles Twitch", "synonyms": ["SOWSA1-My Muscles Twitch"]}, {"conceptId": "C102413", "definition": "Subjective Opiate Withdrawal Scale - My nose is running.", "preferredTerm": "SOWS Subjective (Handelsman) - My Nose is Running", "submissionValue": "SOWSA1-My Nose is Running", "synonyms": ["SOWSA1-My Nose is Running"]}]}