{"_links": {"parentPackage": {"href": "/mdr/ct/packages/sdtmct-2023-03-31", "title": "SDTM Controlled Terminology Package 53 Effective 2023-03-31", "type": "Terminology"}, "priorVersion": {"href": "/mdr/ct/packages/sdtmct-2022-12-16/codelists/C101850", "title": "CDISC SDTM Coronary Vessel Disease Extent Terminology", "type": "Code List"}, "rootItem": {"href": "/mdr/root/ct/sdtmct/codelists/C101850", "title": "Version-agnostic anchor resource for codelist C101850", "type": "Root Value Domain"}, "self": {"href": "/mdr/ct/packages/sdtmct-2023-03-31/codelists/C101850", "title": "CDISC SDTM Coronary Vessel Disease Extent Terminology", "type": "Code List"}}, "conceptId": "C101850", "definition": "A terminology codelist to describe the extent of coronary artery disease.", "extensible": "false", "name": "Coronary Vessel Disease Extent", "preferredTerm": "CDISC SDTM Coronary Vessel Disease Extent Terminology", "submissionValue": "CVSLDEXT", "synonyms": ["Coronary Vessel Disease Extent"], "terms": [{"conceptId": "C48658", "definition": "Cannot distinguish between two or more possible values in the current context. (NCI)", "preferredTerm": "Indeterminate", "submissionValue": "INDETERMINATE", "synonyms": ["Inconclusive"]}, {"conceptId": "C119244", "definition": "A finding of stenosis of less than 70 percent reduction in diameter (or 50 percent reduction in cross-sectional area) in a major epicardial vessel, without stenosis of greater than or equal to 70 percent reduction in diameter (or 50 percent reduction in cross-sectional area) in any major epicardial vessel. (NCI)", "preferredTerm": "Insignificant Disease by ECG Finding", "submissionValue": "INSIGNIFICANT DISEASE"}, {"conceptId": "C99993", "definition": "There was no stenosis in any coronary artery or branch vessel.", "preferredTerm": "No Evidence of Coronary Artery Disease", "submissionValue": "NO DISEASE"}, {"conceptId": "C99997", "definition": "There was stenosis of greater than or equal to 70 percent reduction in diameter (or 50 percent reduction in cross-sectional area) in one major epicardial vessel or its major branches.", "preferredTerm": "One Vessel Coronary Disease", "submissionValue": "ONE VESSEL DISEASE"}, {"conceptId": "C100020", "definition": "There was one of the following: Stenosis of greater than or equal to 70 percent reduction in diameter (or 50 percent reduction in cross-sectional area) in all three major epicardial vessels (anterior descending, posterior descending, circumflex) or their major branches; Stenosis of greater than or equal to 50 percent reduction in diameter of the left main and greater than or equal to 70 percent reduction in diameter, or 50 percent reduction in cross-sectional area of the right coronary artery with a right dominant or co-dominant circulation; Stenosis of greater than or equal to 50 percent reduction in diameter of the left main with a left dominant circulation.", "preferredTerm": "Three Vessel Coronary Disease", "submissionValue": "THREE VESSEL DISEASE"}, {"conceptId": "C100023", "definition": "There was one of the following: Stenosis of greater than or equal to 70 percent reduction in diameter (or 50 percent reduction in cross-sectional area) in two major epicardial vessels or their major branches; Stenosis of greater than or equal to 50 percent reduction in diameter of the left main with a right dominant or co-dominant circulation, and no stenosis of greater than or equal to 70 percent reduction in diameter, or 50 percent reduction in cross-sectional area in the right coronary artery.", "preferredTerm": "Two Vessel Coronary Disease", "submissionValue": "TWO VESSEL DISEASE"}, {"conceptId": "C17998", "definition": "Not known, not observed, not recorded, or refused. (NCI)", "preferredTerm": "Unknown", "submissionValue": "UNKNOWN", "synonyms": ["U", "UNK", "Unknown"]}]}