{"_links": {"parentPackage": {"href": "/mdr/ct/packages/sdtmct-2023-03-31", "title": "SDTM Controlled Terminology Package 53 Effective 2023-03-31", "type": "Terminology"}, "priorVersion": {"href": "/mdr/ct/packages/sdtmct-2022-12-16/codelists/C101857", "title": "CDISC SDTM Diabetes Therapy Terminology", "type": "Code List"}, "rootItem": {"href": "/mdr/root/ct/sdtmct/codelists/C101857", "title": "Version-agnostic anchor resource for codelist C101857", "type": "Root Value Domain"}, "self": {"href": "/mdr/ct/packages/sdtmct-2023-03-31/codelists/C101857", "title": "CDISC SDTM Diabetes Therapy Terminology", "type": "Code List"}}, "conceptId": "C101857", "definition": "A terminology codelist that describes the treatment method for diabetes.", "extensible": "true", "name": "Diabetes Therapy", "preferredTerm": "CDISC SDTM Diabetes Therapy Terminology", "submissionValue": "DIABTHPY", "synonyms": ["Diabetes Therapy"], "terms": [{"conceptId": "C15383", "definition": "A form of therapy which includes dietary approaches and special diets.", "preferredTerm": "Special Diet Therapy", "submissionValue": "DIET"}, {"conceptId": "C581", "definition": "A synthetic or animal-derived form of insulin used in the treatment of diabetes mellitus.", "preferredTerm": "Therapeutic Insulin", "submissionValue": "INSULIN"}, {"conceptId": "C99994", "definition": "No treatment for diabetes.", "preferredTerm": "No Treatment for Diabetes", "submissionValue": "NO TREATMENT"}, {"conceptId": "C102246", "definition": "A pharmacological medication intended for administration through the mouth.", "preferredTerm": "Oral Medication", "submissionValue": "ORAL MEDICATION"}]}