{"_links": {"parentPackage": {"href": "/mdr/ct/packages/sdtmct-2023-03-31", "title": "SDTM Controlled Terminology Package 53 Effective 2023-03-31", "type": "Terminology"}, "priorVersion": {"href": "/mdr/ct/packages/sdtmct-2022-12-16/codelists/C101865", "title": "CDISC SDTM Acute Coronary Syndrome Presentation Category Terminology", "type": "Code List"}, "rootItem": {"href": "/mdr/root/ct/sdtmct/codelists/C101865", "title": "Version-agnostic anchor resource for codelist C101865", "type": "Root Value Domain"}, "self": {"href": "/mdr/ct/packages/sdtmct-2023-03-31/codelists/C101865", "title": "CDISC SDTM Acute Coronary Syndrome Presentation Category Terminology", "type": "Code List"}}, "conceptId": "C101865", "definition": "A classification of the presentation of acute coronary syndrome.", "extensible": "false", "name": "Acute Coronary Syndrome Presentation Category", "preferredTerm": "CDISC SDTM Acute Coronary Syndrome Presentation Category Terminology", "submissionValue": "ACSPCAT", "synonyms": ["Acute Coronary Syndrome Presentation Category"], "terms": [{"conceptId": "C80383", "definition": "A myocardial infarction that does not produce elevation in the ST segments of the ECG.", "preferredTerm": "Non-ST Elevation Myocardial Infarction by ECG Finding", "submissionValue": "NON-ST ELEVATION MYOCARDIAL INFARCTION", "synonyms": ["NON-STEMI", "NSTEMI"]}, {"conceptId": "C17649", "definition": "Different than the one(s) previously specified or mentioned. (NCI)", "preferredTerm": "Other", "submissionValue": "OTHER", "synonyms": ["Other"]}, {"conceptId": "C101888", "definition": "A myocardial infarction that produces elevation in the ST segments of the ECG.", "preferredTerm": "ST Elevation Myocardial Infarction by ECG Finding", "submissionValue": "ST ELEVATION MYOCARDIAL INFARCTION", "synonyms": ["STEMI"]}, {"conceptId": "C66914", "definition": "Angina pectoris which has not recently changed in frequency, duration or intensity. Stable angina pectoris is relieved by rest or administration of oral, sublingual or transdermal antianginal medications.", "preferredTerm": "Stable Angina", "submissionValue": "STABLE ANGINA"}, {"conceptId": "C66911", "definition": "Angina pectoris (or equivalent type of ischemic discomfort) which has recently changed in frequency, duration, intensity, or occurs at rest.", "preferredTerm": "Unstable Angina", "submissionValue": "UNSTABLE ANGINA"}]}