{"_links": {"parentPackage": {"href": "/mdr/ct/packages/sdtmct-2023-03-31", "title": "SDTM Controlled Terminology Package 53 Effective 2023-03-31", "type": "Terminology"}, "priorVersion": {"href": "/mdr/ct/packages/sdtmct-2022-12-16/codelists/C101841", "title": "CDISC SDTM Thrombolysis in Myocardial Infarction Flow Responses Terminology", "type": "Code List"}, "rootItem": {"href": "/mdr/root/ct/sdtmct/codelists/C101841", "title": "Version-agnostic anchor resource for codelist C101841", "type": "Root Value Domain"}, "self": {"href": "/mdr/ct/packages/sdtmct-2023-03-31/codelists/C101841", "title": "CDISC SDTM Thrombolysis in Myocardial Infarction Flow Responses Terminology", "type": "Code List"}}, "conceptId": "C101841", "definition": "A terminology codelist of acceptable values to describe TIMI Flow.", "extensible": "false", "name": "TIMI Flow Responses", "preferredTerm": "CDISC SDTM Thrombolysis in Myocardial Infarction Flow Responses Terminology", "submissionValue": "TIMIFLRS", "synonyms": ["TIMI Flow Responses"], "terms": [{"conceptId": "C100040", "definition": "No perfusion. There is no antegrade flow beyond the point of occlusion. (Chesebro JH, Knatterud GL, Roberts R, et al, Thrombolysis in Myocardial Infarction (TIMI) Trial, Phase I: a comparison between intravenous tissue plasminogen activator and intravenous streptokinase: Clinical findings through hospital discharge, Circulation 76, No. 1, 142-154, 1987)", "preferredTerm": "Thrombolysis in Myocardial Infarction Flow-0", "submissionValue": "TIMI GRADE 0", "synonyms": ["Thrombolysis in Myocardial Infarction Flow - 0"]}, {"conceptId": "C100041", "definition": "Penetration without perfusion. Contrast material passes beyond the area of obstruction but \"hangs up\" and fails to opacify the entire coronary bed distal to the obstruction for the duration of the cineangiographic filming sequence. (Chesebro JH, Knatterud GL, Roberts R, et al, Thrombolysis in Myocardial Infarction (TIMI) Trial, Phase I: a comparison between intravenous tissue plasminogen activator and intravenous streptokinase: Clinical findings through hospital discharge, Circulation 76, No. 1, 142-154, 1987)", "preferredTerm": "Thrombolysis in Myocardial Infarction Flow-1", "submissionValue": "TIMI GRADE 1", "synonyms": ["Thrombolysis in Myocardial Infarction Flow - 1"]}, {"conceptId": "C100042", "definition": "Partial perfusion. The contrast material passes across the obstruction and opacifies the coronary bed distal to the obstruction. However, the rate of entry of contrast material into the vessel distal to the obstruction or its rate of clearance from the distal bed (or both) is perceptibly slower than its entry into or clearance from comparable areas not perfused by the previously occluded vessel (e.g., the opposite coronary artery or the coronary bed proximal to the obstruction). (Chesebro JH, Knatterud GL, Roberts R, et al, Thrombolysis in Myocardial Infarction (TIMI) Trial, Phase I: a comparison between intravenous tissue plasminogen activator and intravenous streptokinase: Clinical findings through hospital discharge, Circulation 76, No. 1, 142-154, 1987)", "preferredTerm": "Thrombolysis in Myocardial Infarction Flow-2", "submissionValue": "TIMI GRADE 2", "synonyms": ["Thrombolysis in Myocardial Infarction Flow - 2"]}, {"conceptId": "C100043", "definition": "Complete perfusion. Antegrade flow into the bed distal to the obstruction occurs as promptly as into the bed from the involved bed and is as rapid as clearance from an uninvolved bed in the same vessel or the opposite artery. (Chesebro JH, Knatterud GL, Roberts R, et al, Thrombolysis in Myocardial Infarction (TIMI) Trial, Phase I: a comparison between intravenous tissue plasminogen activator and intravenous streptokinase: Clinical findings through hospital discharge, Circulation 76, No. 1, 142-154, 1987)", "preferredTerm": "Thrombolysis in Myocardial Infarction Flow-3", "submissionValue": "TIMI GRADE 3", "synonyms": ["Thrombolysis in Myocardial Infarction Flow - 3"]}]}