{"_links": {"parentPackage": {"href": "/mdr/ct/packages/sdtmct-2023-03-31", "title": "SDTM Controlled Terminology Package 53 Effective 2023-03-31", "type": "Terminology"}, "priorVersion": {"href": "/mdr/ct/packages/sdtmct-2022-12-16/codelists/C102587", "title": "CDISC SDTM Social Risk Factor Terminology", "type": "Code List"}, "rootItem": {"href": "/mdr/root/ct/sdtmct/codelists/C102587", "title": "Version-agnostic anchor resource for codelist C102587", "type": "Root Value Domain"}, "self": {"href": "/mdr/ct/packages/sdtmct-2023-03-31/codelists/C102587", "title": "CDISC SDTM Social Risk Factor Terminology", "type": "Code List"}}, "conceptId": "C102587", "definition": "Terminology relevant to the social factors such as personal behavior, lifestyle, or environment belonging to the subject which are known to increase the likelihood of infection and disease.", "extensible": "true", "name": "Social Risk Factor", "preferredTerm": "CDISC SDTM Social Risk Factor Terminology", "submissionValue": "RISKSOC", "synonyms": ["Social Risk Factor"], "terms": [{"conceptId": "C102714", "definition": "An individual that came into contact with a source of Tuberculosis.", "preferredTerm": "Subject in Contact With Tuberculosis Source", "submissionValue": "CONTACT WITH TUBERCULOSIS SOURCE"}, {"conceptId": "C102613", "definition": "An individual who is presently or not long ago worked or offered to assist without pay at a temporary housing facility for persons without a stable or permanent residence.", "preferredTerm": "Current or Recent Employee or Volunteer in Homeless Shelter", "submissionValue": "CURRENT OR RECENT EMPLOYEE OR VOLUNTEER IN HOMELESS SHELTER"}, {"conceptId": "C102614", "definition": "An individual who is presently or not long ago worked or offered to assist without pay at an institution where persons are confined for punishment and to protect the public.", "preferredTerm": "Current or Recent Employee or Volunteer in Jail or Prison", "submissionValue": "CURRENT OR RECENT EMPLOYEE OR VOLUNTEER IN JAIL OR PRISON"}, {"conceptId": "C102615", "definition": "An individual who is presently or not long ago worked or offered to assist without pay at a residential health care facility for persons with chronic illness or disability.", "preferredTerm": "Current or Recent Employee or Volunteer in Nursing Home", "submissionValue": "CURRENT OR RECENT EMPLOYEE OR VOLUNTEER IN NURSING HOME"}, {"conceptId": "C102645", "definition": "An individual without a stable or permanent residence within the last 365 days.", "preferredTerm": "Homeless During Past Year", "submissionValue": "HOMELESS DURING PAST YEAR"}, {"conceptId": "C102648", "definition": "An individual that has migrated from a country with a high occurrence of tuberculosis.", "preferredTerm": "Immigrant From High Tuberculosis Prevalent Area", "submissionValue": "IMMIGRANT FROM HIGH TUBERCULOSIS PREVALENT AREA"}, {"conceptId": "C85521", "definition": "The state of being confined to jail or prison.", "preferredTerm": "Incarceration", "submissionValue": "INCARCERATION"}, {"conceptId": "C102657", "definition": "An individual that resided in a camp for those displaced from their homeland.", "preferredTerm": "Lived in Refugee Camp", "submissionValue": "LIVED IN REFUGEE CAMP"}, {"conceptId": "C102660", "definition": "An individual that lives at a healthcare facility that provides rehabilitative, restorative, and/or ongoing skilled nursing care to patients or residents in need of assistance with activities of daily living.", "preferredTerm": "Long-term Facility Resident", "submissionValue": "LONG-TERM FACILITY RESIDENT"}, {"conceptId": "C102670", "definition": "An individual who moves from one location to another location within or outside of their homeland for work.", "preferredTerm": "Migratory Worker", "submissionValue": "MIGRATORY WORKER"}, {"conceptId": "C102705", "definition": "An individual that has fled a country for their own safety which has a high occurrence of tuberculosis.", "preferredTerm": "Refugee From High Tuberculosis Prevalent Area", "submissionValue": "REFUGEE FROM HIGH TUBERCULOSIS PREVALENT AREA"}, {"conceptId": "C102719", "definition": "Entry into one or more of the 22 countries that have a relatively high prevalence of tuberculosis cases.", "preferredTerm": "Travel To High Burden Tuberculosis Country", "submissionValue": "TRAVEL TO HIGH BURDEN COUNTRY"}, {"conceptId": "C75563", "definition": "The state of not having a job.", "preferredTerm": "Unemployed", "submissionValue": "UNEMPLOYMENT"}]}