{"_links": {"parentPackage": {"href": "/mdr/ct/packages/sdtmct-2023-03-31", "title": "SDTM Controlled Terminology Package 53 Effective 2023-03-31", "type": "Terminology"}, "priorVersion": {"href": "/mdr/ct/packages/sdtmct-2022-12-16/codelists/C102580", "title": "CDISC SDTM Laboratory Test Standard Character Result Terminology", "type": "Code List"}, "rootItem": {"href": "/mdr/root/ct/sdtmct/codelists/C102580", "title": "Version-agnostic anchor resource for codelist C102580", "type": "Root Value Domain"}, "self": {"href": "/mdr/ct/packages/sdtmct-2023-03-31/codelists/C102580", "title": "CDISC SDTM Laboratory Test Standard Character Result Terminology", "type": "Code List"}}, "conceptId": "C102580", "definition": "Terminology relevant to the standardized results, in character format, for laboratory tests.", "extensible": "true", "name": "Laboratory Test Standard Character Result", "preferredTerm": "CDISC SDTM Laboratory Test Standard Character Result Terminology", "submissionValue": "LBSTRESC", "synonyms": ["Laboratory Test Standard Character Result"], "terms": [{"conceptId": "C25401", "definition": "Deviating in any way from the state, position, structure, condition, behavior, or rule which is considered a norm. (NCI)", "preferredTerm": "Abnormal", "submissionValue": "ABNORMAL"}, {"conceptId": "C48190", "definition": "Not existing in a specified place at a specified time. (NCI)", "preferredTerm": "Absent", "submissionValue": "ABSENT"}, {"conceptId": "C14157", "definition": "Straddling the dividing line between two categories.", "preferredTerm": "Borderline", "submissionValue": "BORDERLINE"}, {"conceptId": "C191719", "definition": "A finding indicating that an entity or characteristic is perceived, discerned, or discovered.", "preferredTerm": "Detected Finding", "submissionValue": "DETECTED"}, {"conceptId": "C48658", "definition": "Cannot distinguish between two or more possible values in the current context. (NCI)", "preferredTerm": "Indeterminate", "submissionValue": "INDETERMINATE", "synonyms": ["Inconclusive"]}, {"conceptId": "C38757", "definition": "An indication of a negative finding for a test or assessment, such as for a disease, condition, analyte, or microorganism.", "preferredTerm": "Negative Finding", "submissionValue": "NEGATIVE"}, {"conceptId": "C14165", "definition": "Being approximately average or within certain limits; conforming with or constituting a norm or standard or level or type or social norm. (NCI)", "preferredTerm": "Normal", "submissionValue": "NORMAL"}, {"conceptId": "C191300", "definition": "A finding indicating that an entity or characteristic is not perceived, discerned, or discovered.", "preferredTerm": "Not Detected", "submissionValue": "NOT DETECTED"}, {"conceptId": "C38758", "definition": "An indication of an affirmative finding for a test or assessment, such as for a disease, condition, analyte, or microorganism.", "preferredTerm": "Positive Finding", "submissionValue": "POSITIVE"}, {"conceptId": "C25626", "definition": "Being or existing in a specified place or at the specified time. (NCI)", "preferredTerm": "Present", "submissionValue": "PRESENT"}, {"conceptId": "C191301", "definition": "A positive finding that is strong in intensity, power, or magnitude.", "preferredTerm": "Strongly Positive", "submissionValue": "STRONGLY POSITIVE"}, {"conceptId": "C191303", "definition": "A subjective finding indicating the presence of entities that are deemed too numerous to accurately quantify.", "preferredTerm": "Too Numerous to Count", "submissionValue": "TOO NUMEROUS TO COUNT", "synonyms": ["TNTC"]}, {"conceptId": "C80218", "definition": "A barely detectable amount.", "preferredTerm": "Trace", "submissionValue": "TRACE"}, {"conceptId": "C191302", "definition": "A positive finding that is weak in intensity, power, or magnitude.", "preferredTerm": "Weakly Positive", "submissionValue": "WEAKLY POSITIVE"}]}