{"_links": {"parentPackage": {"href": "/mdr/ct/packages/sdtmct-2023-03-31", "title": "SDTM Controlled Terminology Package 53 Effective 2023-03-31", "type": "Terminology"}, "priorVersion": {"href": "/mdr/ct/packages/sdtmct-2022-12-16/codelists/C111114", "title": "CDISC SDTM Genetic Sample Type Terminology", "type": "Code List"}, "rootItem": {"href": "/mdr/root/ct/sdtmct/codelists/C111114", "title": "Version-agnostic anchor resource for codelist C111114", "type": "Root Value Domain"}, "self": {"href": "/mdr/ct/packages/sdtmct-2023-03-31/codelists/C111114", "title": "CDISC SDTM Genetic Sample Type Terminology", "type": "Code List"}}, "conceptId": "C111114", "definition": "Terminology relevant to the type of nucleic acid which was derived from the collected sample.", "extensible": "true", "name": "Genetic Sample Type", "preferredTerm": "CDISC SDTM Genetic Sample Type Terminology", "submissionValue": "GENSMP", "synonyms": ["Genetic Sample Type"], "terms": [{"conceptId": "C95951", "definition": "7SK small nuclear RNA is encoded by the human RN7SK gene. This oligoribonucleotide may play a role in the regulation of the enzymatic activity of RNA polymerase II.", "preferredTerm": "7SK Small Nuclear RNA", "submissionValue": "7SK RNA", "synonyms": ["7SK Small Nuclear RNA", "7SK snRNA"]}, {"conceptId": "C324", "definition": "Single-stranded DNA that is complementary to messenger RNA or DNA that has been synthesized from messenger RNA by reverse transcriptase.", "preferredTerm": "cDNA", "submissionValue": "cDNA", "synonyms": ["Complementary DNA"]}, {"conceptId": "C128274", "definition": "DNA in blood plasma and other body fluids that has been released from a cell due to a biological process.", "preferredTerm": "Circulating Cell-Free DNA", "submissionValue": "cfDNA", "synonyms": ["Cell Free Circulating DNA", "Cell Free DNA", "Circulating Cell Free DNA"]}, {"conceptId": "C111158", "definition": "The DNA that is located in the photosynthetic, chlorophyll-containing organelle in the cells of young leaves and stems of higher plants. (NCI)", "preferredTerm": "Chloroplast DNA", "submissionValue": "cpDNA", "synonyms": ["Chloroplast DNA"]}, {"conceptId": "C113243", "definition": "A type of cell-free DNA composed of small fragments of tumor DNA that are released by tumor cells into the bloodstream of the host.", "preferredTerm": "Circulating Tumor-Derived DNA", "submissionValue": "ctDNA", "synonyms": ["Cell-Free Circulating Tumor DNA", "Circulating Tumor DNA"]}, {"conceptId": "C449", "definition": "A long linear double-stranded polymer formed from nucleotides attached to a deoxyribose backbone; associated with the transmission of genetic information.", "preferredTerm": "DNA", "submissionValue": "DNA", "synonyms": ["Deoxyribonucleic Acid", "Double-stranded DNA", "dsDNA"]}, {"conceptId": "C95938", "definition": "An RNA complex consisting of two base-paired strands of complementary RNA.", "preferredTerm": "Double-Stranded RNA", "submissionValue": "dsRNA", "synonyms": ["Double-stranded RNA"]}, {"conceptId": "C95940", "definition": "The DNA that is part of the normal chromosomal complement of an organism.", "preferredTerm": "Genomic DNA", "submissionValue": "gDNA", "synonyms": ["Genomic DNA"]}, {"conceptId": "C95952", "definition": "A small RNA involved in post-transcriptional mitochondrial RNA modification (RNA editing) in kinetoplastids.", "preferredTerm": "Guide RNA", "submissionValue": "gRNA", "synonyms": ["Guide RNA"]}, {"conceptId": "C28454", "definition": "A diverse assortment of nascent, immature, unprocessed RNA transcripts synthesized from DNA templates that are found in eukaryotic nuclei before post-transcriptional modifications.", "preferredTerm": "hnRNA", "submissionValue": "hnRNA", "synonyms": ["Heterogeneous Nuclear RNA"]}, {"conceptId": "C25966", "definition": "A sequence of single-stranded RNA which is typically 20-25 nucleotides in length and may regulate the expression of other genes. miRNAs are transcribed from DNA, but are not translated into proteins.", "preferredTerm": "MicroRNA", "submissionValue": "miRNA", "synonyms": ["MicroRNA", "miRNA"]}, {"conceptId": "C813", "definition": "A class of RNA molecule containing protein-coding information in its nucleotide sequence that can be translated into the amino acid sequence of a protein.", "preferredTerm": "Messenger RNA", "submissionValue": "mRNA", "synonyms": ["Messenger RNA"]}, {"conceptId": "C111279", "definition": "A DNA/RNA chimera comprised of a single-stranded DNA molecule covalently bound to an internal guanosine of a RNA molecule. (NCI)", "preferredTerm": "Multicopy Single-stranded DNA", "submissionValue": "msDNA", "synonyms": ["Multicopy Single-stranded DNA"]}, {"conceptId": "C111278", "definition": "The RNA portion of the msDNA molecule, which contains two stem-loop structures and varies widely in length across bacterial species. (NCI)", "preferredTerm": "msdRNA", "submissionValue": "msdRNA", "synonyms": ["MSR"]}, {"conceptId": "C28512", "definition": "Typically small, circular, intronless, and maternally inherited, mitochondrial DNA (mtDNA) is the multicopy deoxyribonucleic acid genome of mitochondria, intracellular organelles responsible for vital respiratory chain and oxidative phosphorylation reactions in higher eukaryotes. Replicated and transcribed by a separate enzymatic machinery from that of nuclear DNA, mtDNA encodes only a subset of mitochondrial functions.", "preferredTerm": "Mitochondrial DNA", "submissionValue": "mtDNA", "synonyms": ["mDNA", "Mitochondrial DNA"]}, {"conceptId": "C95941", "definition": "The DNA that is normally located in the nucleus of a eukaryotic cell.", "preferredTerm": "Nuclear DNA", "submissionValue": "nDNA", "synonyms": ["Nuclear DNA"]}, {"conceptId": "C754", "definition": "A small cellular inclusion consisting of a ring of DNA that is not in a chromosome but is capable of autonomous replication.", "preferredTerm": "Plasmid", "submissionValue": "pDNA", "synonyms": ["Plasmid", "Plasmid DNA"]}, {"conceptId": "C95953", "definition": "Single-stranded RNA molecules that are expressed in animal cells and form complexes with Piwi proteins. They are involved in transcriptional gene silencing.", "preferredTerm": "Piwi-Interacting RNA", "submissionValue": "piRNA", "synonyms": ["piRNA", "Piwi-Interacting RNA"]}, {"conceptId": "C111298", "definition": "A primary RNA transcript synthesized from a DNA template in eukaryotic nuclei which is post-transcriptionally modified and spliced to produce a mature mRNA. (NCI)", "preferredTerm": "Precursor mRNA", "submissionValue": "pre-mRNA", "synonyms": ["Precursor mRNA"]}, {"conceptId": "C25967", "definition": "The pri-miRNA is a primary transcript derived from a gene whose sole products are miRNA(s). A unique pathway involving the nuclear microprocessor complex participates in the cleavage of such transcripts, which can be substantially longer than the 65-110 nt pre-miRNA.", "preferredTerm": "Pri-miRNA", "submissionValue": "pri-miRNA", "synonyms": ["Pri-microRNA", "Pri-MIR", "Pri-miRNA", "Primary MicroRNA"]}, {"conceptId": "C95943", "definition": "The genomic sequences that code for ribosomal RNA molecules.", "preferredTerm": "Ribosomal RNA Gene", "submissionValue": "rDNA", "synonyms": ["Ribosomal DNA", "Ribosomal RNA Genes"]}, {"conceptId": "C1292", "definition": "RNA that contains an intron sequence which has an enzyme-like catalytic activity. This intron sequence can function like an enzyme in reactions with other RNA molecules and thus synthesize new molecules even in the absence of protein.", "preferredTerm": "Ribozyme", "submissionValue": "RIBOZYME", "synonyms": ["Catalytic RNA", "Ribonucleic Enzyme"]}, {"conceptId": "C812", "definition": "Single-stranded long chain of nucleotides containing ribose. It is the end product of DNA transcription by the enzyme RNA polymerase. It is essential in protein synthesis.", "preferredTerm": "Ribonucleic Acid", "submissionValue": "RNA", "synonyms": ["Ribonucleic Acid"]}, {"conceptId": "C814", "definition": "An RNA molecule that associates with multiple proteins to form ribosomes.", "preferredTerm": "Ribosomal RNA", "submissionValue": "rRNA", "synonyms": ["Ribosomal RNA", "rRNA"]}, {"conceptId": "C2191", "definition": "A 20 to 25-nucleotide double-stranded RNA which is involved in a sequence-specific messenger RNA degradation process known as RNA interference.", "preferredTerm": "Small Interfering RNA", "submissionValue": "siRNA", "synonyms": ["siRNA", "Small Interfering RNA"]}, {"conceptId": "C111316", "definition": "A small RNA molecule located in the cell nucleolus that associates with proteins to form small nucleolar ribonucleoprotein particles that are involved in modification of other RNAs.", "preferredTerm": "Small Nucleolar RNA", "submissionValue": "snoRNA", "synonyms": ["Small Nucleolar RNA", "snoRNA"]}, {"conceptId": "C815", "definition": "A small RNA molecule (100-300 nucleotides) located in the cell nucleus that is involved in RNA splicing, transcriptional regulation, telomere maintenance and rRNA modification.", "preferredTerm": "Small Nuclear RNA", "submissionValue": "snRNA", "synonyms": ["Small Nuclear Ribonucleic Acid", "Small Nuclear RNA", "snRNA", "U-RNA"]}, {"conceptId": "C95950", "definition": "A non-coding RNA that is part of the signal recognition particle. It is involved in the co-translational targeting of proteins to membranes.", "preferredTerm": "Signal Recognition Particle RNA", "submissionValue": "SRP RNA", "synonyms": ["7SL RNA", "Signal Recognition Particle RNA", "SRP RNA", "srpRNA"]}, {"conceptId": "C111311", "definition": "A long linear single-stranded polymer formed from nucleotides attached to a deoxyribose backbone. (NCI)", "preferredTerm": "Single-stranded DNA", "submissionValue": "ssDNA", "synonyms": ["Single-stranded DNA"]}, {"conceptId": "C95954", "definition": "An RNA encoded by the bacterial ssrA gene. It is involved in the recycling of stalled ribosomes and the targeting of both defective mRNA molecules and incomplete nascent proteins for degradation.", "preferredTerm": "Transfer-Messenger RNA", "submissionValue": "tmRNA", "synonyms": ["10Sa RNA", "SsrA", "Transfer-Messenger RNA"]}, {"conceptId": "C95942", "definition": "A class of mobile genetic elements that can move from one genomic position to another.", "preferredTerm": "Transposon", "submissionValue": "TRANSPOSON", "synonyms": ["Jumping Gene", "Jumping Genes", "Transposable Element"]}, {"conceptId": "C816", "definition": "A class of short adaptor RNAs that transfers a specific amino acid to a growing polypeptide chain at the ribosomal site of protein synthesis during translation.", "preferredTerm": "Transfer RNA", "submissionValue": "tRNA", "synonyms": ["Transfer RNA", "Triplet Codon-Amino Acid Adaptor", "tRNA"]}]}