{"_links": {"parentPackage": {"href": "/mdr/ct/packages/sdtmct-2023-03-31", "title": "SDTM Controlled Terminology Package 53 Effective 2023-03-31", "type": "Terminology"}, "priorVersion": {"href": "/mdr/ct/packages/sdtmct-2022-12-16/codelists/C120981", "title": "CDISC Questionnaire CRQ-SAS Follow-Up Administration Version Test Code Terminology", "type": "Code List"}, "rootItem": {"href": "/mdr/root/ct/sdtmct/codelists/C120981", "title": "Version-agnostic anchor resource for codelist C120981", "type": "Root Value Domain"}, "self": {"href": "/mdr/ct/packages/sdtmct-2023-03-31/codelists/C120981", "title": "CDISC Questionnaire CRQ-SAS Follow-Up Administration Version Test Code Terminology", "type": "Code List"}}, "conceptId": "C120981", "definition": "Chronic Respiratory Questionnaire Self-Administered Standardized Format Follow-Up Administration Version test code.", "extensible": "false", "name": "Chronic Respiratory Questionnaire Self-Administered Standardized Format Follow-Up Administration Version Questionnaire Test Code", "preferredTerm": "CDISC Questionnaire CRQ-SAS Follow-Up Administration Version Test Code Terminology", "submissionValue": "CRQ02TC", "synonyms": ["Chronic Respiratory Questionnaire Self-Administered Standardized Format Follow-Up Administration Version Questionnaire Test Code"], "terms": [{"conceptId": "C121030", "definition": "Chronic Respiratory Questionnaire Self-Administered Standardized Format (CRQ-SAS) Follow-up Administration Version - Feeling emotional such as angry or upset.", "preferredTerm": "CRQ-SAS Follow-Up Administration Version - Feeling Emotional", "submissionValue": "CRQ0201", "synonyms": ["CRQ02-Feeling Emotional"]}, {"conceptId": "C121031", "definition": "Chronic Respiratory Questionnaire Self-Administered Standardized Format (CRQ-SAS) Follow-up Administration Version - Taking care of your basic needs.", "preferredTerm": "CRQ-SAS Follow-Up Administration Version - Take Care of Basic Needs", "submissionValue": "CRQ0202", "synonyms": ["CRQ02-Take Care of Basic Needs"]}, {"conceptId": "C121032", "definition": "Chronic Respiratory Questionnaire Self-Administered Standardized Format (CRQ-SAS) Follow-up Administration Version - Walking.", "preferredTerm": "CRQ-SAS Follow-Up Administration Version - Walking", "submissionValue": "CRQ0203", "synonyms": ["CRQ02-Walking"]}, {"conceptId": "C121033", "definition": "Chronic Respiratory Questionnaire Self-Administered Standardized Format (CRQ-SAS) Follow-up Administration Version - Performing chores.", "preferredTerm": "CRQ-SAS Follow-Up Administration Version - Performing Chores", "submissionValue": "CRQ0204", "synonyms": ["CRQ02-Performing Chores"]}, {"conceptId": "C121034", "definition": "Chronic Respiratory Questionnaire Self-Administered Standardized Format (CRQ-SAS) Follow-up Administration Version - Participating in social activities.", "preferredTerm": "CRQ-SAS Follow-Up Administration Version - Participate in Social Activities", "submissionValue": "CRQ0205", "synonyms": ["CRQ02-Participate in Social Activities"]}, {"conceptId": "C121035", "definition": "Chronic Respiratory Questionnaire Self-Administered Standardized Format (CRQ-SAS) Follow-up Administration Version - In general, how much of the time during the last 2 weeks have you felt frustrated or impatient?", "preferredTerm": "CRQ-SAS Follow-Up Administration Version - Felt Frustrated or Impatient", "submissionValue": "CRQ0206", "synonyms": ["CRQ02-Felt Frustrated or Impatient"]}, {"conceptId": "C121036", "definition": "Chronic Respiratory Questionnaire Self-Administered Standardized Format (CRQ-SAS) Follow-up Administration Version - How often during the last 2 weeks did you have a feeling of fear or panic when you had difficulty getting your breath?", "preferredTerm": "CRQ-SAS Follow-Up Administration Version - Feeling of Fear or Panic", "submissionValue": "CRQ0207", "synonyms": ["CRQ02-Feeling of Fear or Panic"]}, {"conceptId": "C121037", "definition": "Chronic Respiratory Questionnaire Self-Administered Standardized Format (CRQ-SAS) Follow-up Administration Version - How about fatigue? How tired have you felt over the last 2 weeks?", "preferredTerm": "CRQ-SAS Follow-Up Administration Version - Fatigue", "submissionValue": "CRQ0208", "synonyms": ["CRQ02-Fatigue"]}, {"conceptId": "C121038", "definition": "Chronic Respiratory Questionnaire Self-Administered Standardized Format (CRQ-SAS) Follow-up Administration Version - How often during the last 2 weeks have you felt embarrassed by your coughing or heavy breathing?", "preferredTerm": "CRQ-SAS Follow-Up Administration Version - Embarrassed by Coughing", "submissionValue": "CRQ0209", "synonyms": ["CRQ02-Embarrassed by Coughing"]}, {"conceptId": "C121039", "definition": "Chronic Respiratory Questionnaire Self-Administered Standardized Format (CRQ-SAS) Follow-up Administration Version - In the last 2 weeks, how much of the time did you feel very confident and sure that you could deal with your illness?", "preferredTerm": "CRQ-SAS Follow-Up Administration Version - Feel Confident to Deal With Illness", "submissionValue": "CRQ0210", "synonyms": ["CRQ02-Confident to Deal With Illness"]}, {"conceptId": "C121040", "definition": "Chronic Respiratory Questionnaire Self-Administered Standardized Format (CRQ-SAS) Follow-up Administration Version - How much energy have you had in the last 2 weeks?", "preferredTerm": "CRQ-SAS Follow-Up Administration Version - Energy", "submissionValue": "CRQ0211", "synonyms": ["CRQ02-Energy"]}, {"conceptId": "C121041", "definition": "Chronic Respiratory Questionnaire Self-Administered Standardized Format (CRQ-SAS) Follow-up Administration Version - In general, how much of the time did you feel upset, worried, or depressed during the last 2 weeks?", "preferredTerm": "CRQ-SAS Follow-Up Administration Version - Feel Upset, Worried or Depressed", "submissionValue": "CRQ0212", "synonyms": ["CRQ02-Feel Upset, Worried or Depressed"]}, {"conceptId": "C121042", "definition": "Chronic Respiratory Questionnaire Self-Administered Standardized Format (CRQ-SAS) Follow-up Administration Version - How often during the last 2 weeks did you feel you had complete control of your breathing problems?", "preferredTerm": "CRQ-SAS Follow-Up Administration Version - Had Control of Breathing Problems", "submissionValue": "CRQ0213", "synonyms": ["CRQ02-Control of Breathing Problems"]}, {"conceptId": "C121043", "definition": "Chronic Respiratory Questionnaire Self-Administered Standardized Format (CRQ-SAS) Follow-up Administration Version - How much of the time during the last 2 weeks did you feel relaxed and free of tension?", "preferredTerm": "CRQ-SAS Follow-Up Administration Version - Feel Relaxed and Free of Tension", "submissionValue": "CRQ0214", "synonyms": ["CRQ02-Feel Relaxed and Free of Tension"]}, {"conceptId": "C121044", "definition": "Chronic Respiratory Questionnaire Self-Administered Standardized Format (CRQ-SAS) Follow-up Administration Version - How often during the last 2 weeks have you felt low in energy?", "preferredTerm": "CRQ-SAS Follow-Up Administration Version - Felt Low in Energy", "submissionValue": "CRQ0215", "synonyms": ["CRQ02-Felt Low in Energy"]}, {"conceptId": "C121045", "definition": "Chronic Respiratory Questionnaire Self-Administered Standardized Format (CRQ-SAS) Follow-up Administration Version - In general, how often during the last 2 weeks have you felt discouraged or down in the dumps?", "preferredTerm": "CRQ-SAS Follow-Up Administration Version - Felt Discouraged or Down", "submissionValue": "CRQ0216", "synonyms": ["CRQ02-Felt Discouraged or Down"]}, {"conceptId": "C121046", "definition": "Chronic Respiratory Questionnaire Self-Administered Standardized Format (CRQ-SAS) Follow-up Administration Version - How often during the last 2 weeks have you felt worn out or sluggish?", "preferredTerm": "CRQ-SAS Follow-Up Administration Version - Felt Worn Out or Sluggish", "submissionValue": "CRQ0217", "synonyms": ["CRQ02-Felt Worn Out or Sluggish"]}, {"conceptId": "C121047", "definition": "Chronic Respiratory Questionnaire Self-Administered Standardized Format (CRQ-SAS) Follow-up Administration Version - How happy, satisfied, or pleased have you been with your personal life during the last 2 weeks?", "preferredTerm": "CRQ-SAS Follow-Up Administration Version - Happy, Satisfied or Pleased With Life", "submissionValue": "CRQ0218", "synonyms": ["CRQ02-Happy, Satisfied or Pleased"]}, {"conceptId": "C121048", "definition": "Chronic Respiratory Questionnaire Self-Administered Standardized Format (CRQ-SAS) Follow-up Administration Version - How often during the last 2 weeks did you feel upset or scared when you had difficulty getting your breath?", "preferredTerm": "CRQ-SAS Follow-Up Administration Version - Feel Upset When Had Difficulty Getting Breath", "submissionValue": "CRQ0219", "synonyms": ["CRQ02-Feel Upset Diff Getting Breath"]}, {"conceptId": "C121049", "definition": "Chronic Respiratory Questionnaire Self-Administered Standardized Format (CRQ-SAS) Follow-up Administration Version - In general, how often during the last 2 weeks have you felt restless, tense, or uptight?", "preferredTerm": "CRQ-SAS Follow-Up Administration Version - Felt Restless, Tense or Uptight", "submissionValue": "CRQ0220", "synonyms": ["CRQ02-Felt Restless, Tense or Uptight"]}]}