{"_links": {"parentPackage": {"href": "/mdr/ct/packages/sdtmct-2023-03-31", "title": "SDTM Controlled Terminology Package 53 Effective 2023-03-31", "type": "Terminology"}, "priorVersion": {"href": "/mdr/ct/packages/sdtmct-2022-12-16/codelists/C124306", "title": "CDISC SDTM Subject Status Test Name Terminology", "type": "Code List"}, "rootItem": {"href": "/mdr/root/ct/sdtmct/codelists/C124306", "title": "Version-agnostic anchor resource for codelist C124306", "type": "Root Value Domain"}, "self": {"href": "/mdr/ct/packages/sdtmct-2023-03-31/codelists/C124306", "title": "CDISC SDTM Subject Status Test Name Terminology", "type": "Code List"}}, "conceptId": "C124306", "definition": "Terminology relevant to test names for the subject's status, which is evaluated periodically to determine if it has changed.", "extensible": "true", "name": "Subject Status Test Name", "preferredTerm": "CDISC SDTM Subject Status Test Name Terminology", "submissionValue": "SSTEST", "synonyms": ["Subject Status Test Name"], "terms": [{"conceptId": "C186215", "definition": "The state or condition of the subject's availability to provide information about their health status after they are no longer receiving study treatment.", "preferredTerm": "Follow-Up Availability Status", "submissionValue": "Follow-Up Availability Status", "synonyms": ["Follow-Up Availability Status"]}, {"conceptId": "C25717", "definition": "The state or condition of being living or deceased; also includes the case where the vital status is unknown.", "preferredTerm": "Vital Status", "submissionValue": "Survival Status", "synonyms": ["Survival Status"]}]}