{"_links": {"parentPackage": {"href": "/mdr/ct/packages/sdtmct-2023-03-31", "title": "SDTM Controlled Terminology Package 53 Effective 2023-03-31", "type": "Terminology"}, "priorVersion": {"href": "/mdr/ct/packages/sdtmct-2022-12-16/codelists/C124666", "title": "CDISC Clinical Classification Atherosclerotic Cardiovascular Disease 10-Year Risk Estimator Test Code Terminology", "type": "Code List"}, "rootItem": {"href": "/mdr/root/ct/sdtmct/codelists/C124666", "title": "Version-agnostic anchor resource for codelist C124666", "type": "Root Value Domain"}, "self": {"href": "/mdr/ct/packages/sdtmct-2023-03-31/codelists/C124666", "title": "CDISC Clinical Classification Atherosclerotic Cardiovascular Disease 10-Year Risk Estimator Test Code Terminology", "type": "Code List"}}, "conceptId": "C124666", "definition": "Atherosclerotic Cardiovascular Disease 10-Year Risk Estimator test code.", "extensible": "false", "name": "Atherosclerotic Cardiovascular Disease 10-Year Risk Estimator Clinical Classification Test Code", "preferredTerm": "CDISC Clinical Classification Atherosclerotic Cardiovascular Disease 10-Year Risk Estimator Test Code Terminology", "submissionValue": "ASCVD1TC", "synonyms": ["Atherosclerotic Cardiovascular Disease 10-Year Risk Estimator Clinical Classification Test Code"], "terms": [{"conceptId": "C124720", "definition": "Atherosclerotic Cardiovascular Disease 10-Year Risk Estimator - Risk score.", "preferredTerm": "ASCVD 10-Year Risk Estimator - Risk Score", "submissionValue": "ASCVD101", "synonyms": ["ASCVD1-ASCVD 10-Year Risk Score"]}]}