{"_links": {"parentPackage": {"href": "/mdr/ct/packages/sdtmct-2023-03-31", "title": "SDTM Controlled Terminology Package 53 Effective 2023-03-31", "type": "Terminology"}, "priorVersion": {"href": "/mdr/ct/packages/sdtmct-2022-12-16/codelists/C127258", "title": "CDISC SDTM Observational Study Biospecimen Retention Terminology", "type": "Code List"}, "rootItem": {"href": "/mdr/root/ct/sdtmct/codelists/C127258", "title": "Version-agnostic anchor resource for codelist C127258", "type": "Root Value Domain"}, "self": {"href": "/mdr/ct/packages/sdtmct-2023-03-31/codelists/C127258", "title": "CDISC SDTM Observational Study Biospecimen Retention Terminology", "type": "Code List"}}, "conceptId": "C127258", "definition": "The terminology relevant to whether biospecimens were retained and contain DNA within an observational study.", "extensible": "true", "name": "Observational Study Biospecimen Retention", "preferredTerm": "CDISC SDTM Observational Study Biospecimen Retention Terminology", "submissionValue": "OBSSBSR", "synonyms": ["Observational Study Biospecimen Retention"], "terms": [{"conceptId": "C127776", "definition": "An indication that no biospecimen samples were retained.", "preferredTerm": "Biospecimens Not Retained", "submissionValue": "SAMPLES NOT RETAINED"}, {"conceptId": "C127777", "definition": "An indication that the retained biospecimens contain DNA.", "preferredTerm": "Retained Specimens Contain DNA", "submissionValue": "SAMPLES WITH DNA RETAINED"}, {"conceptId": "C127778", "definition": "An indication that the retained biospecimens do not contain DNA.", "preferredTerm": "Retained Specimens Do Not Contain DNA", "submissionValue": "SAMPLES WITHOUT DNA RETAINED"}]}