{"_links": {"parentPackage": {"href": "/mdr/ct/packages/sdtmct-2023-03-31", "title": "SDTM Controlled Terminology Package 53 Effective 2023-03-31", "type": "Terminology"}, "priorVersion": {"href": "/mdr/ct/packages/sdtmct-2022-12-16/codelists/C128690", "title": "CDISC SDTM Collected Ethnicity Terminology", "type": "Code List"}, "rootItem": {"href": "/mdr/root/ct/sdtmct/codelists/C128690", "title": "Version-agnostic anchor resource for codelist C128690", "type": "Root Value Domain"}, "self": {"href": "/mdr/ct/packages/sdtmct-2023-03-31/codelists/C128690", "title": "CDISC SDTM Collected Ethnicity Terminology", "type": "Code List"}}, "conceptId": "C128690", "definition": "A terminology codelist relevant to the ethnicity of an individual as collected on the case report form.", "extensible": "true", "name": "Ethnicity As Collected", "preferredTerm": "CDISC SDTM Collected Ethnicity Terminology", "submissionValue": "ETHNICC", "synonyms": ["Ethnicity As Collected"], "terms": [{"conceptId": "C158197", "definition": "A Chinese person from the Achang ethnic group.", "preferredTerm": "Achang Chinese", "submissionValue": "ACHANG", "synonyms": ["AC"]}, {"conceptId": "C17950", "definition": "A person of Ashkenazi Jewish descent.", "preferredTerm": "Ashkenazi Jew", "submissionValue": "ASHKENAZI JEW"}, {"conceptId": "C158171", "definition": "A Chinese person from the Bai ethnic group.", "preferredTerm": "Bai Chinese", "submissionValue": "BAI", "synonyms": ["BA"]}, {"conceptId": "C158193", "definition": "A Chinese person from the Blang ethnic group.", "preferredTerm": "Blang Chinese", "submissionValue": "BLANG", "synonyms": ["BL"]}, {"conceptId": "C158203", "definition": "A Chinese person from the Bonan ethnic group.", "preferredTerm": "Bonan Chinese", "submissionValue": "BONAN", "synonyms": ["BN"]}, {"conceptId": "C158169", "definition": "A Chinese person from the Buyei ethnic group.", "preferredTerm": "Buyei Chinese", "submissionValue": "BUYEI", "synonyms": ["BY"]}, {"conceptId": "C67118", "definition": "A person of Central American descent.", "preferredTerm": "Central American", "submissionValue": "CENTRAL AMERICAN"}, {"conceptId": "C158172", "definition": "A Chinese person from the Chosen ethnic group.", "preferredTerm": "Chosen Chinese", "submissionValue": "CHOSEN", "synonyms": ["CS"]}, {"conceptId": "C67115", "definition": "A person of Cuban and American descent.", "preferredTerm": "Cuban or Cuban American", "submissionValue": "CUBAN AMERICAN"}, {"conceptId": "C107608", "definition": "A person of Cuban descent.", "preferredTerm": "Cuban", "submissionValue": "CUBAN"}, {"conceptId": "C158176", "definition": "A Chinese person from the Dai (including several different Tai-speaking groups historically referred to as Bai-yi) ethnic group.", "preferredTerm": "Dai Chinese", "submissionValue": "DAI", "synonyms": ["DA"]}, {"conceptId": "C158191", "definition": "A Chinese person from the Daur ethnic group.", "preferredTerm": "Daur Chinese", "submissionValue": "DAUR", "synonyms": ["DU"]}, {"conceptId": "C158202", "definition": "A Chinese person from the Deang ethnic group.", "preferredTerm": "Deang Chinese", "submissionValue": "DEANG", "synonyms": ["DE"]}, {"conceptId": "C158209", "definition": "A Chinese person from the Derung ethnic group.", "preferredTerm": "Derung Chinese", "submissionValue": "DERUNG", "synonyms": ["DR"]}, {"conceptId": "C158168", "definition": "A Chinese person from the Dong ethnic group.", "preferredTerm": "Dong Chinese", "submissionValue": "DONG", "synonyms": ["DO"]}, {"conceptId": "C158179", "definition": "A Chinese person from the Dongxiang ethnic group.", "preferredTerm": "Dongxiang Chinese", "submissionValue": "DONGXIANG", "synonyms": ["DX"]}, {"conceptId": "C158199", "definition": "A Chinese person from the Ewenki ethnic group.", "preferredTerm": "Ewenki Chinese", "submissionValue": "EWENKI", "synonyms": ["EW"]}, {"conceptId": "C158211", "definition": "A Chinese person from the Gaoshan ethnic group.", "preferredTerm": "Gaoshan Chinese", "submissionValue": "GAOSHAN", "synonyms": ["GS"]}, {"conceptId": "C158180", "definition": "A Chinese person from the Gelao ethnic group.", "preferredTerm": "Gelao Chinese", "submissionValue": "GELAO", "synonyms": ["GL"]}, {"conceptId": "C158200", "definition": "A Chinese person from the Gin ethnic group.", "preferredTerm": "Gin Chinese", "submissionValue": "GIN", "synonyms": ["GI"]}, {"conceptId": "C158158", "definition": "A Chinese person from the Han ethnic group (including Chuanqing).", "preferredTerm": "Han Chinese", "submissionValue": "HAN", "synonyms": ["HA"]}, {"conceptId": "C158173", "definition": "A Chinese person from the Hani (including Sangkong) ethnic group.", "preferredTerm": "Hani Chinese", "submissionValue": "HANI", "synonyms": ["HN"]}, {"conceptId": "C158210", "definition": "A Chinese person from the Hezhen ethnic group.", "preferredTerm": "Hezhen Chinese", "submissionValue": "HEZHEN", "synonyms": ["HZ"]}, {"conceptId": "C17459", "definition": "A person of Mexican, Puerto Rican, Cuban, Central or South American or other Spanish culture or origin, regardless of race. (NCI)", "preferredTerm": "Hispanic or Latino", "submissionValue": "HISPANIC OR LATINO"}, {"conceptId": "C158160", "definition": "A Chinese person from the Hui (including Utsuls of Hainan, descended from Cham refugees) ethnic group.", "preferredTerm": "Hui Chinese", "submissionValue": "HUI", "synonyms": ["HU"]}, {"conceptId": "C158190", "definition": "A Chinese person from the Jingpo ethnic group.", "preferredTerm": "Jingpo Chinese", "submissionValue": "JINGPO", "synonyms": ["JP"]}, {"conceptId": "C158201", "definition": "A Chinese person from the Jino ethnic group.", "preferredTerm": "Jino Chinese", "submissionValue": "JINO", "synonyms": ["JN"]}, {"conceptId": "C158175", "definition": "A Chinese person from the Kazak ethnic group.", "preferredTerm": "Kazak Chinese", "submissionValue": "KAZAK", "synonyms": ["KZ"]}, {"conceptId": "C158189", "definition": "A Chinese person from the Kirgiz ethnic group.", "preferredTerm": "Kirgiz Chinese", "submissionValue": "KIRGIZ", "synonyms": ["KG"]}, {"conceptId": "C158181", "definition": "A Chinese person from the Lahu ethnic group.", "preferredTerm": "Lahu Chinese", "submissionValue": "LAHU", "synonyms": ["LH"]}, {"conceptId": "C126531", "definition": "A person of Latin American descent.", "preferredTerm": "Latin American", "submissionValue": "LATIN AMERICAN"}, {"conceptId": "C158212", "definition": "A Chinese person from the Lhoba ethnic group.", "preferredTerm": "Lhoba Chinese", "submissionValue": "LHOBA", "synonyms": ["LB"]}, {"conceptId": "C158174", "definition": "A Chinese person from the Li ethnic group.", "preferredTerm": "Li Chinese", "submissionValue": "LI", "synonyms": ["LI"]}, {"conceptId": "C158178", "definition": "A Chinese person from the Lisu ethnic group.", "preferredTerm": "Lisu Chinese", "submissionValue": "LISU", "synonyms": ["LS"]}, {"conceptId": "C158161", "definition": "A Chinese person from the Man ethnic group.", "preferredTerm": "Man Chinese", "submissionValue": "MAN", "synonyms": ["MA"]}, {"conceptId": "C158194", "definition": "A Chinese person from the Maonan (including the Then) ethnic group.", "preferredTerm": "Maonan Chinese", "submissionValue": "MAONAN", "synonyms": ["MN"]}, {"conceptId": "C67114", "definition": "A person of Mexican and American descent.", "preferredTerm": "Mexican American", "submissionValue": "MEXICAN AMERICAN"}, {"conceptId": "C67113", "definition": "A person of Mexican descent.", "preferredTerm": "Mexican", "submissionValue": "MEXICAN"}, {"conceptId": "C158163", "definition": "A Chinese person from the Miao (Including Hmong) ethnic group.", "preferredTerm": "Miao Chinese", "submissionValue": "MIAO", "synonyms": ["MH"]}, {"conceptId": "C158207", "definition": "A Chinese person from the Monba ethnic group.", "preferredTerm": "Monba Chinese", "submissionValue": "MONBA", "synonyms": ["MB"]}, {"conceptId": "C158167", "definition": "A Chinese person from the Mongol ethnic group.", "preferredTerm": "Mongol Chinese", "submissionValue": "MONGOL", "synonyms": ["MG"]}, {"conceptId": "C158187", "definition": "A Chinese person from the Mulao (including the Qago) ethnic group.", "preferredTerm": "Mulao Chinese", "submissionValue": "MULAO", "synonyms": ["ML"]}, {"conceptId": "C158184", "definition": "A Chinese person from the Naxi (including Mosuo) ethnic group.", "preferredTerm": "Naxi Chinese", "submissionValue": "NAXI", "synonyms": ["NX"]}, {"conceptId": "C41222", "definition": "A person not of Cuban, Mexican, Puerto Rican, South or Central American, or other Spanish culture or origin, regardless of race. An arbitrary ethnic classification. (NCI)", "preferredTerm": "Not Hispanic or Latino", "submissionValue": "NOT HISPANIC OR LATINO"}, {"conceptId": "C43234", "definition": "Not provided or available.", "preferredTerm": "Not Reported", "submissionValue": "NOT REPORTED", "synonyms": ["Not reported"]}, {"conceptId": "C158198", "definition": "A Chinese person from the Nu ethnic group.", "preferredTerm": "Nu Chinese", "submissionValue": "NU", "synonyms": ["NU"]}, {"conceptId": "C158208", "definition": "A Chinese person from the Oroqen ethnic group.", "preferredTerm": "Oroqen Chinese", "submissionValue": "OROQEN", "synonyms": ["OR"]}, {"conceptId": "C67112", "definition": "A person of Puerto Rican descent.", "preferredTerm": "Puerto Rican", "submissionValue": "PUERTO RICAN"}, {"conceptId": "C158196", "definition": "A Chinese person from the Pumi ethnic group.", "preferredTerm": "Pumi Chinese", "submissionValue": "PUMI", "synonyms": ["PM"]}, {"conceptId": "C158185", "definition": "A Chinese person from the Qiang ethnic group.", "preferredTerm": "Qiang Chinese", "submissionValue": "QIANG", "synonyms": ["QI"]}, {"conceptId": "C158204", "definition": "A Chinese person from the Russ ethnic group.", "preferredTerm": "Russ Chinese", "submissionValue": "RUSS", "synonyms": ["RS"]}, {"conceptId": "C158192", "definition": "A Chinese person from the Salar ethnic group.", "preferredTerm": "Salar Chinese", "submissionValue": "SALAR", "synonyms": ["SL"]}, {"conceptId": "C103283", "definition": "A person of Sephardic Jewish descent.", "preferredTerm": "Sephardic Jew", "submissionValue": "SEPHARDIC JEW"}, {"conceptId": "C158177", "definition": "A Chinese person from the She ethnic group.", "preferredTerm": "She Chinese", "submissionValue": "SHE", "synonyms": ["SH"]}, {"conceptId": "C126532", "definition": "A person of South American descent.", "preferredTerm": "South American", "submissionValue": "SOUTH AMERICAN"}, {"conceptId": "C67120", "definition": "A person from Spain or of Spanish descent.", "preferredTerm": "Spanish", "submissionValue": "SPANISH"}, {"conceptId": "C158183", "definition": "A Chinese person from the Sui ethnic group.", "preferredTerm": "Sui Chinese", "submissionValue": "SUI", "synonyms": ["SU"]}, {"conceptId": "C158195", "definition": "A Chinese person from the Tajik ethnic group.", "preferredTerm": "Tajik Chinese", "submissionValue": "TAJIK", "synonyms": ["TA"]}, {"conceptId": "C158213", "definition": "A Chinese person from the Tatar ethnic group.", "preferredTerm": "Tatar Chinese", "submissionValue": "TATAR", "synonyms": ["TT"]}, {"conceptId": "C158186", "definition": "A Chinese person from the Tu ethnic group.", "preferredTerm": "Tu Chinese", "submissionValue": "TU", "synonyms": ["TU"]}, {"conceptId": "C158165", "definition": "A Chinese person from the Tujia ethnic group.", "preferredTerm": "Tujia Chinese", "submissionValue": "TUJIA", "synonyms": ["TJ"]}, {"conceptId": "C17998", "definition": "Not known, not observed, not recorded, or refused. (NCI)", "preferredTerm": "Unknown", "submissionValue": "UNKNOWN", "synonyms": ["U", "UNK", "Unknown"]}, {"conceptId": "C158162", "definition": "A Chinese person from the Uygur ethnic group.", "preferredTerm": "Uygur Chinese", "submissionValue": "UYGUR", "synonyms": ["UG"]}, {"conceptId": "C158206", "definition": "A Chinese person from the Uzbek ethnic group.", "preferredTerm": "Uzbek Chinese", "submissionValue": "UZBEK", "synonyms": ["UZ"]}, {"conceptId": "C158182", "definition": "A Chinese person from the Va ethnic group.", "preferredTerm": "Va Chinese", "submissionValue": "VA", "synonyms": ["VA"]}, {"conceptId": "C158188", "definition": "A Chinese person from the Xibe ethnic group.", "preferredTerm": "Xibe Chinese", "submissionValue": "XIBE", "synonyms": ["XB"]}, {"conceptId": "C158170", "definition": "A Chinese person from the Yao ethnic group.", "preferredTerm": "Yao Chinese", "submissionValue": "YAO", "synonyms": ["YA"]}, {"conceptId": "C158164", "definition": "A Chinese person from the Yi ethnic group.", "preferredTerm": "Yi Chinese", "submissionValue": "YI", "synonyms": ["YI"]}, {"conceptId": "C158205", "definition": "A Chinese person from the Yugur ethnic group.", "preferredTerm": "Yugur Chinese", "submissionValue": "YUGUR", "synonyms": ["YG"]}, {"conceptId": "C158166", "definition": "A Chinese person from the Zang (including Amdowa, Khampa and some Pumi speakers) ethnic group.", "preferredTerm": "Zang Chinese", "submissionValue": "ZANG", "synonyms": ["ZA"]}, {"conceptId": "C158159", "definition": "A Chinese person from the Zhuang ethnic group.", "preferredTerm": "Zhuang Chinese", "submissionValue": "ZHUANG", "synonyms": ["ZH"]}]}