{"_links": {"parentPackage": {"href": "/mdr/ct/packages/sdtmct-2023-03-31", "title": "SDTM Controlled Terminology Package 53 Effective 2023-03-31", "type": "Terminology"}, "priorVersion": {"href": "/mdr/ct/packages/sdtmct-2022-12-16/codelists/C129942", "title": "CDISC SDTM Urinary System Test Code Terminology", "type": "Code List"}, "rootItem": {"href": "/mdr/root/ct/sdtmct/codelists/C129942", "title": "Version-agnostic anchor resource for codelist C129942", "type": "Root Value Domain"}, "self": {"href": "/mdr/ct/packages/sdtmct-2023-03-31/codelists/C129942", "title": "CDISC SDTM Urinary System Test Code Terminology", "type": "Code List"}}, "conceptId": "C129942", "definition": "A terminology codelist to describe the test code for examinations of the urinary system.", "extensible": "true", "name": "Urinary System Test Code", "preferredTerm": "CDISC SDTM Urinary System Test Code Terminology", "submissionValue": "URNSTSCD", "synonyms": ["Urinary System Test Code"], "terms": [{"conceptId": "C94866", "definition": "The volume of blood per unit time passing through a specified location, such as a point in a blood vessel or an entire organ.", "preferredTerm": "Blood Flow Rate", "submissionValue": "BLDFLRT", "synonyms": ["Blood Flow Rate"]}, {"conceptId": "C64546", "definition": "A measurement of the color of a biological specimen.", "preferredTerm": "Color Assessment", "submissionValue": "COLOR", "synonyms": ["Color"]}, {"conceptId": "C135522", "definition": "The condition of the donated organ or tissue. (NCI)", "preferredTerm": "Graft Status", "submissionValue": "GRFTSTAT", "synonyms": ["Graft Status"]}, {"conceptId": "C179823", "definition": "An indication as to whether hematoma has occurred.", "preferredTerm": "Hematoma Indicator", "submissionValue": "HEMAIND", "synonyms": ["Hematoma Indicator"]}, {"conceptId": "C25334", "definition": "The linear extent in space from one end of something to the other end, or the extent of something from beginning to end. (NCI)", "preferredTerm": "Length", "submissionValue": "LENGTH", "synonyms": ["Length"]}, {"conceptId": "C130195", "definition": "A measurement of the total number of renal arteries.", "preferredTerm": "Number of Renal Arteries", "submissionValue": "RNLANUM", "synonyms": ["Number of Renal Arteries"]}, {"conceptId": "C130196", "definition": "A measurement of the total number of renal veins.", "preferredTerm": "Number of Renal Veins", "submissionValue": "RNLVNUM", "synonyms": ["Number of Renal Veins"]}, {"conceptId": "C179824", "definition": "An indication as to whether surgical damage has occurred.", "preferredTerm": "Surgical Damage Indicator", "submissionValue": "SGDMGIND", "synonyms": ["Surgical Damage Indicator"]}, {"conceptId": "C198401", "definition": "An observation, assessment or examination of the urinary system.", "preferredTerm": "Urinary System Examination", "submissionValue": "UREXAM", "synonyms": ["Urinary System Examination"]}]}