{"_links": {"parentPackage": {"href": "/mdr/ct/packages/sdtmct-2023-03-31", "title": "SDTM Controlled Terminology Package 53 Effective 2023-03-31", "type": "Terminology"}, "priorVersion": {"href": "/mdr/ct/packages/sdtmct-2022-12-16/codelists/C138213", "title": "CDISC Clinical Classification HAS-BLED Test Code Terminology", "type": "Code List"}, "rootItem": {"href": "/mdr/root/ct/sdtmct/codelists/C138213", "title": "Version-agnostic anchor resource for codelist C138213", "type": "Root Value Domain"}, "self": {"href": "/mdr/ct/packages/sdtmct-2023-03-31/codelists/C138213", "title": "CDISC Clinical Classification HAS-BLED Test Code Terminology", "type": "Code List"}}, "conceptId": "C138213", "definition": "HAS-BLED Bleeding Risk Score test code.", "extensible": "false", "name": "HAS-BLED Bleeding Risk Score Clinical Classification Test Code", "preferredTerm": "CDISC Clinical Classification HAS-BLED Test Code Terminology", "submissionValue": "HSB01TC", "synonyms": ["HAS-BLED Bleeding Risk Score Clinical Classification Test Code"], "terms": [{"conceptId": "C138357", "definition": "HAS-BLED Bleeding Risk Score - Hypertension.", "preferredTerm": "HAS-BLED - Hypertension", "submissionValue": "HSB0101", "synonyms": ["HSB01-Hypertension"]}, {"conceptId": "C138358", "definition": "HAS-BLED Bleeding Risk Score - Abnormal renal and liver function.", "preferredTerm": "HAS-BLED - Abnormal Renal and Liver Function", "submissionValue": "HSB0102", "synonyms": ["HSB01-Abnormal Renal and Liver Function"]}, {"conceptId": "C138359", "definition": "HAS-BLED Bleeding Risk Score - Stroke.", "preferredTerm": "HAS-BLED - Stroke", "submissionValue": "HSB0103", "synonyms": ["HSB01-Stroke"]}, {"conceptId": "C138360", "definition": "HAS-BLED Bleeding Risk Score - Bleeding.", "preferredTerm": "HAS-BLED - Bleeding", "submissionValue": "HSB0104", "synonyms": ["HSB01-Bleeding"]}, {"conceptId": "C138361", "definition": "HAS-BLED Bleeding Risk Score - Labile INRs.", "preferredTerm": "HAS-BLED - Labile INRs", "submissionValue": "HSB0105", "synonyms": ["HSB01-Labile INRs"]}, {"conceptId": "C138362", "definition": "HAS-BLED Bleeding Risk Score - Elderly.", "preferredTerm": "HAS-BLED - Elderly", "submissionValue": "HSB0106", "synonyms": ["HSB01-Elderly"]}, {"conceptId": "C138363", "definition": "HAS-BLED Bleeding Risk Score - Drugs or alcohol.", "preferredTerm": "HAS-BLED - Drugs or Alcohol", "submissionValue": "HSB0107", "synonyms": ["HSB01-Drugs or Alcohol"]}]}