{"_links": {"parentPackage": {"href": "/mdr/ct/packages/sdtmct-2023-03-31", "title": "SDTM Controlled Terminology Package 53 Effective 2023-03-31", "type": "Terminology"}, "priorVersion": {"href": "/mdr/ct/packages/sdtmct-2022-12-16/codelists/C138242", "title": "CDISC Questionnaire PedsQL Neuromuscular Module Acute Version 3.0 Young Child Report Test Name Terminology", "type": "Code List"}, "rootItem": {"href": "/mdr/root/ct/sdtmct/codelists/C138242", "title": "Version-agnostic anchor resource for codelist C138242", "type": "Root Value Domain"}, "self": {"href": "/mdr/ct/packages/sdtmct-2023-03-31/codelists/C138242", "title": "CDISC Questionnaire PedsQL Neuromuscular Module Acute Version 3.0 Young Child Report Test Name Terminology", "type": "Code List"}}, "conceptId": "C138242", "definition": "Pediatric Quality of Life Neuromuscular Module Acute Version 3 Young Child test name.", "extensible": "false", "name": "Pediatric Quality of Life Neuromuscular Module Acute Version 3 Young Child Questionnaire Test Name", "preferredTerm": "CDISC Questionnaire PedsQL Neuromuscular Module Acute Version 3.0 Young Child Report Test Name Terminology", "submissionValue": "PQL16TN", "synonyms": ["Pediatric Quality of Life Neuromuscular Module Acute Version 3 Young Child Questionnaire Test Name"], "terms": [{"conceptId": "C138670", "definition": "Pediatric Quality of Life Neuromuscular Module Acute Version 3 Young Child - Think about how you have been doing for the past 7 days. Please listen carefully to each sentence and tell me how much of a problem this is for you: My back feels stiff.", "preferredTerm": "PedsQL Neuromuscular Module Acute Version 3.0 Young Child Report - Back Feels Stiff", "submissionValue": "PQL16-Back Feels Stiff", "synonyms": ["PQL16-Back Feels Stiff"]}, {"conceptId": "C138669", "definition": "Pediatric Quality of Life Neuromuscular Module Acute Version 3 Young Child - Think about how you have been doing for the past 7 days. Please listen carefully to each sentence and tell me how much of a problem this is for you: I feel tired.", "preferredTerm": "PedsQL Neuromuscular Module Acute Version 3.0 Young Child Report - Feel Tired", "submissionValue": "PQL16-Feel Tired", "synonyms": ["PQL16-Feel Tired"]}, {"conceptId": "C138678", "definition": "Pediatric Quality of Life Neuromuscular Module Acute Version 3 Young Child - Think about how you have been doing for the past 7 days. Please listen carefully to each sentence and tell me how much of a problem this is for you: I get hurt accidentally.", "preferredTerm": "PedsQL Neuromuscular Module Acute Version 3.0 Young Child Report - Get Hurt Accidentally", "submissionValue": "PQL16-Get Hurt Accidentally", "synonyms": ["PQL16-Get Hurt Accidentally"]}, {"conceptId": "C138666", "definition": "Pediatric Quality of Life Neuromuscular Module Acute Version 3 Young Child - Think about how you have been doing for the past 7 days. Please listen carefully to each sentence and tell me how much of a problem this is for you: I get sick easily.", "preferredTerm": "PedsQL Neuromuscular Module Acute Version 3.0 Young Child Report - Get Sick Easily", "submissionValue": "PQL16-Get Sick Easily", "synonyms": ["PQL16-Get Sick Easily"]}, {"conceptId": "C138667", "definition": "Pediatric Quality of Life Neuromuscular Module Acute Version 3 Young Child - Think about how you have been doing for the past 7 days. Please listen carefully to each sentence and tell me how much of a problem this is for you: I get sores and/or rashes.", "preferredTerm": "PedsQL Neuromuscular Module Acute Version 3.0 Young Child Report - Get Sores and/or Rashes", "submissionValue": "PQL16-Get Sores and/or Rashes", "synonyms": ["PQL16-Get Sores and/or Rashes"]}, {"conceptId": "C138672", "definition": "Pediatric Quality of Life Neuromuscular Module Acute Version 3 Young Child - Think about how you have been doing for the past 7 days. Please listen carefully to each sentence and tell me how much of a problem this is for you: My hands are weak.", "preferredTerm": "PedsQL Neuromuscular Module Acute Version 3.0 Young Child Report - Hands Are Weak", "submissionValue": "PQL16-Hands Are Weak", "synonyms": ["PQL16-Hands Are Weak"]}, {"conceptId": "C138665", "definition": "Pediatric Quality of Life Neuromuscular Module Acute Version 3 Young Child - Think about how you have been doing for the past 7 days. Please listen carefully to each sentence and tell me how much of a problem this is for you: It is hard to breathe.", "preferredTerm": "PedsQL Neuromuscular Module Acute Version 3.0 Young Child Report - Hard to Breathe", "submissionValue": "PQL16-Hard to Breathe", "synonyms": ["PQL16-Hard to Breathe"]}, {"conceptId": "C138674", "definition": "Pediatric Quality of Life Neuromuscular Module Acute Version 3 Young Child - Think about how you have been doing for the past 7 days. Please listen carefully to each sentence and tell me how much of a problem this is for you: It is hard to gain or lose weight when I want to.", "preferredTerm": "PedsQL Neuromuscular Module Acute Version 3.0 Young Child Report - Hard to Gain or Lose Weight", "submissionValue": "PQL16-Hard to Gain/Lose Weight", "synonyms": ["PQL16-Hard to Gain/Lose Weight"]}, {"conceptId": "C138681", "definition": "Pediatric Quality of Life Neuromuscular Module Acute Version 3 Young Child - Think about how you have been doing for the past 7 days. Please listen carefully to each sentence and tell me how much of a problem this is for you: It is hard for me to go places with my equipment.", "preferredTerm": "PedsQL Neuromuscular Module Acute Version 3.0 Young Child Report - Hard to Go Places With Equipment", "submissionValue": "PQL16-Hard to Go Places With Equipment", "synonyms": ["PQL16-Hard to Go Places With Equipment"]}, {"conceptId": "C138676", "definition": "Pediatric Quality of Life Neuromuscular Module Acute Version 3 Young Child - Think about how you have been doing for the past 7 days. Please listen carefully to each sentence and tell me how much of a problem this is for you: It is hard to swallow food.", "preferredTerm": "PedsQL Neuromuscular Module Acute Version 3.0 Young Child Report - Hard to Swallow Food", "submissionValue": "PQL16-Hard to Swallow Food", "synonyms": ["PQL16-Hard to Swallow Food"]}, {"conceptId": "C138680", "definition": "Pediatric Quality of Life Neuromuscular Module Acute Version 3 Young Child - Think about how you have been doing for the past 7 days. Please listen carefully to each sentence and tell me how much of a problem this is for you: It is hard to turn myself during the night.", "preferredTerm": "PedsQL Neuromuscular Module Acute Version 3.0 Young Child Report - Hard to Turn During Night", "submissionValue": "PQL16-Hard to Turn During Night", "synonyms": ["PQL16-Hard to Turn During Night"]}, {"conceptId": "C138673", "definition": "Pediatric Quality of Life Neuromuscular Module Acute Version 3 Young Child - Think about how you have been doing for the past 7 days. Please listen carefully to each sentence and tell me how much of a problem this is for you: It is hard to use the bathroom.", "preferredTerm": "PedsQL Neuromuscular Module Acute Version 3.0 Young Child Report - Hard to Use Bathroom", "submissionValue": "PQL16-Hard to Use Bathroom", "synonyms": ["PQL16-Hard to Use Bathroom"]}, {"conceptId": "C138675", "definition": "Pediatric Quality of Life Neuromuscular Module Acute Version 3 Young Child - Think about how you have been doing for the past 7 days. Please listen carefully to each sentence and tell me how much of a problem this is for you: It is hard to use my hands.", "preferredTerm": "PedsQL Neuromuscular Module Acute Version 3.0 Young Child Report - Hard to Use Hands", "submissionValue": "PQL16-Hard to Use Hands", "synonyms": ["PQL16-Hard to Use Hands"]}, {"conceptId": "C138668", "definition": "Pediatric Quality of Life Neuromuscular Module Acute Version 3 Young Child - Think about how you have been doing for the past 7 days. Please listen carefully to each sentence and tell me how much of a problem this is for you: My legs hurt.", "preferredTerm": "PedsQL Neuromuscular Module Acute Version 3.0 Young Child Report - Legs Hurt", "submissionValue": "PQL16-Legs Hurt", "synonyms": ["PQL16-Legs Hurt"]}, {"conceptId": "C138677", "definition": "Pediatric Quality of Life Neuromuscular Module Acute Version 3 Young Child - Think about how you have been doing for the past 7 days. Please listen carefully to each sentence and tell me how much of a problem this is for you: It takes me a long time to bathe or shower.", "preferredTerm": "PedsQL Neuromuscular Module Acute Version 3.0 Young Child Report - Long Time to Bathe or Shower", "submissionValue": "PQL16-Long Time to Bathe/Shower", "synonyms": ["PQL16-Long Time to Bathe/Shower"]}, {"conceptId": "C138679", "definition": "Pediatric Quality of Life Neuromuscular Module Acute Version 3 Young Child - Think about how you have been doing for the past 7 days. Please listen carefully to each sentence and tell me how much of a problem this is for you: I take a long time to eat.", "preferredTerm": "PedsQL Neuromuscular Module Acute Version 3.0 Young Child Report - Take Long Time to Eat", "submissionValue": "PQL16-Take Long Time to Eat", "synonyms": ["PQL16-Take Long Time to Eat"]}, {"conceptId": "C138671", "definition": "Pediatric Quality of Life Neuromuscular Module Acute Version 3 Young Child - Think about how you have been doing for the past 7 days. Please listen carefully to each sentence and tell me how much of a problem this is for you: I wake up tired.", "preferredTerm": "PedsQL Neuromuscular Module Acute Version 3.0 Young Child Report - Wake Up Tired", "submissionValue": "PQL16-Wake Up Tired", "synonyms": ["PQL16-Wake Up Tired"]}]}