{"_links": {"parentPackage": {"href": "/mdr/ct/packages/sdtmct-2023-03-31", "title": "SDTM Controlled Terminology Package 53 Effective 2023-03-31", "type": "Terminology"}, "priorVersion": {"href": "/mdr/ct/packages/sdtmct-2022-12-16/codelists/C138261", "title": "CDISC Questionnaire PedsQL Neuromuscular Module Version 3.0 Young Child Report Test Code Terminology", "type": "Code List"}, "rootItem": {"href": "/mdr/root/ct/sdtmct/codelists/C138261", "title": "Version-agnostic anchor resource for codelist C138261", "type": "Root Value Domain"}, "self": {"href": "/mdr/ct/packages/sdtmct-2023-03-31/codelists/C138261", "title": "CDISC Questionnaire PedsQL Neuromuscular Module Version 3.0 Young Child Report Test Code Terminology", "type": "Code List"}}, "conceptId": "C138261", "definition": "Pediatric Quality of Life Neuromuscular Module Version 3 Young Child test code.", "extensible": "false", "name": "Pediatric Quality of Life Neuromuscular Module Version 3 Young Child Questionnaire Test Code", "preferredTerm": "CDISC Questionnaire PedsQL Neuromuscular Module Version 3.0 Young Child Report Test Code Terminology", "submissionValue": "PQL07TC", "synonyms": ["Pediatric Quality of Life Neuromuscular Module Version 3 Young Child Questionnaire Test Code"], "terms": [{"conceptId": "C138882", "definition": "Pediatric Quality of Life Neuromuscular Module Version 3 Young Child - Think about how you have been doing for the last few weeks. Please listen carefully to each sentence and tell me how much of a problem this is for you: It is hard to breathe.", "preferredTerm": "PedsQL Neuromuscular Module Version 3.0 Young Child Report - Hard to Breathe", "submissionValue": "PQL0701", "synonyms": ["PQL07-Hard to Breathe"]}, {"conceptId": "C138883", "definition": "Pediatric Quality of Life Neuromuscular Module Version 3 Young Child - Think about how you have been doing for the last few weeks. Please listen carefully to each sentence and tell me how much of a problem this is for you: I get sick easily.", "preferredTerm": "PedsQL Neuromuscular Module Version 3.0 Young Child Report - Get Sick Easily", "submissionValue": "PQL0702", "synonyms": ["PQL07-Get Sick Easily"]}, {"conceptId": "C138884", "definition": "Pediatric Quality of Life Neuromuscular Module Version 3 Young Child - Think about how you have been doing for the last few weeks. Please listen carefully to each sentence and tell me how much of a problem this is for you: I get sores and/or rashes.", "preferredTerm": "PedsQL Neuromuscular Module Version 3.0 Young Child Report - Get Sores and/or Rashes", "submissionValue": "PQL0703", "synonyms": ["PQL07-Get Sores and/or Rashes"]}, {"conceptId": "C138885", "definition": "Pediatric Quality of Life Neuromuscular Module Version 3 Young Child - Think about how you have been doing for the last few weeks. Please listen carefully to each sentence and tell me how much of a problem this is for you: My legs hurt.", "preferredTerm": "PedsQL Neuromuscular Module Version 3.0 Young Child Report - Legs Hurt", "submissionValue": "PQL0704", "synonyms": ["PQL07-Legs Hurt"]}, {"conceptId": "C138886", "definition": "Pediatric Quality of Life Neuromuscular Module Version 3 Young Child - Think about how you have been doing for the last few weeks. Please listen carefully to each sentence and tell me how much of a problem this is for you: I feel tired.", "preferredTerm": "PedsQL Neuromuscular Module Version 3.0 Young Child Report - Feel Tired", "submissionValue": "PQL0705", "synonyms": ["PQL07-Feel Tired"]}, {"conceptId": "C138887", "definition": "Pediatric Quality of Life Neuromuscular Module Version 3 Young Child - Think about how you have been doing for the last few weeks. Please listen carefully to each sentence and tell me how much of a problem this is for you: My back feels stiff.", "preferredTerm": "PedsQL Neuromuscular Module Version 3.0 Young Child Report - Back Feels Stiff", "submissionValue": "PQL0706", "synonyms": ["PQL07-Back Feels Stiff"]}, {"conceptId": "C138888", "definition": "Pediatric Quality of Life Neuromuscular Module Version 3 Young Child - Think about how you have been doing for the last few weeks. Please listen carefully to each sentence and tell me how much of a problem this is for you: I wake up tired.", "preferredTerm": "PedsQL Neuromuscular Module Version 3.0 Young Child Report - Wake Up Tired", "submissionValue": "PQL0707", "synonyms": ["PQL07-Wake Up Tired"]}, {"conceptId": "C138889", "definition": "Pediatric Quality of Life Neuromuscular Module Version 3 Young Child - Think about how you have been doing for the last few weeks. Please listen carefully to each sentence and tell me how much of a problem this is for you: My hands are weak.", "preferredTerm": "PedsQL Neuromuscular Module Version 3.0 Young Child Report - Hands Are Weak", "submissionValue": "PQL0708", "synonyms": ["PQL07-Hands Are Weak"]}, {"conceptId": "C138890", "definition": "Pediatric Quality of Life Neuromuscular Module Version 3 Young Child - Think about how you have been doing for the last few weeks. Please listen carefully to each sentence and tell me how much of a problem this is for you: It is hard to use the bathroom.", "preferredTerm": "PedsQL Neuromuscular Module Version 3.0 Young Child Report - Hard to Use Bathroom", "submissionValue": "PQL0709", "synonyms": ["PQL07-Hard to Use Bathroom"]}, {"conceptId": "C138891", "definition": "Pediatric Quality of Life Neuromuscular Module Version 3 Young Child - Think about how you have been doing for the last few weeks. Please listen carefully to each sentence and tell me how much of a problem this is for you: It is hard to gain or lose weight when I want to.", "preferredTerm": "PedsQL Neuromuscular Module Version 3.0 Young Child Report - Hard to Gain or Lose Weight", "submissionValue": "PQL0710", "synonyms": ["PQL07-Hard to Gain/Lose Weight"]}, {"conceptId": "C138892", "definition": "Pediatric Quality of Life Neuromuscular Module Version 3 Young Child - Think about how you have been doing for the last few weeks. Please listen carefully to each sentence and tell me how much of a problem this is for you: It is hard to use my hands.", "preferredTerm": "PedsQL Neuromuscular Module Version 3.0 Young Child Report - Hard to Use Hands", "submissionValue": "PQL0711", "synonyms": ["PQL07-Hard to Use Hands"]}, {"conceptId": "C138893", "definition": "Pediatric Quality of Life Neuromuscular Module Version 3 Young Child - Think about how you have been doing for the last few weeks. Please listen carefully to each sentence and tell me how much of a problem this is for you: It is hard to swallow food.", "preferredTerm": "PedsQL Neuromuscular Module Version 3.0 Young Child Report - Hard to Swallow Food", "submissionValue": "PQL0712", "synonyms": ["PQL07-Hard to Swallow Food"]}, {"conceptId": "C138894", "definition": "Pediatric Quality of Life Neuromuscular Module Version 3 Young Child - Think about how you have been doing for the last few weeks. Please listen carefully to each sentence and tell me how much of a problem this is for you: It takes me a long time to bathe or shower.", "preferredTerm": "PedsQL Neuromuscular Module Version 3.0 Young Child Report - Long Time to Bathe or Shower", "submissionValue": "PQL0713", "synonyms": ["PQL07-Long Time to Bathe/Shower"]}, {"conceptId": "C138895", "definition": "Pediatric Quality of Life Neuromuscular Module Version 3 Young Child - Think about how you have been doing for the last few weeks. Please listen carefully to each sentence and tell me how much of a problem this is for you: I get hurt accidentally.", "preferredTerm": "PedsQL Neuromuscular Module Version 3.0 Young Child Report - Get Hurt Accidentally", "submissionValue": "PQL0714", "synonyms": ["PQL07-Get Hurt Accidentally"]}, {"conceptId": "C138896", "definition": "Pediatric Quality of Life Neuromuscular Module Version 3 Young Child - Think about how you have been doing for the last few weeks. Please listen carefully to each sentence and tell me how much of a problem this is for you: I take a long time to eat.", "preferredTerm": "PedsQL Neuromuscular Module Version 3.0 Young Child Report - Take Long Time to Eat", "submissionValue": "PQL0715", "synonyms": ["PQL07-Take Long Time to Eat"]}, {"conceptId": "C138897", "definition": "Pediatric Quality of Life Neuromuscular Module Version 3 Young Child - Think about how you have been doing for the last few weeks. Please listen carefully to each sentence and tell me how much of a problem this is for you: It is hard to turn myself during the night.", "preferredTerm": "PedsQL Neuromuscular Module Version 3.0 Young Child Report - Hard to Turn During Night", "submissionValue": "PQL0716", "synonyms": ["PQL07-Hard to Turn During Night"]}, {"conceptId": "C138898", "definition": "Pediatric Quality of Life Neuromuscular Module Version 3 Young Child - Think about how you have been doing for the last few weeks. Please listen carefully to each sentence and tell me how much of a problem this is for you: It is hard for me to go places with my equipment.", "preferredTerm": "PedsQL Neuromuscular Module Version 3.0 Young Child Report - Hard to Go Places With Equipment", "submissionValue": "PQL0717", "synonyms": ["PQL07-Hard to Go Places With Equipment"]}]}