{"_links": {"parentPackage": {"href": "/mdr/ct/packages/sdtmct-2023-03-31", "title": "SDTM Controlled Terminology Package 53 Effective 2023-03-31", "type": "Terminology"}, "priorVersion": {"href": "/mdr/ct/packages/sdtmct-2022-12-16/codelists/C141663", "title": "CDISC Functional Test 4-Stair Ascend Test Code Terminology", "type": "Code List"}, "rootItem": {"href": "/mdr/root/ct/sdtmct/codelists/C141663", "title": "Version-agnostic anchor resource for codelist C141663", "type": "Root Value Domain"}, "self": {"href": "/mdr/ct/packages/sdtmct-2023-03-31/codelists/C141663", "title": "CDISC Functional Test 4-Stair Ascend Test Code Terminology", "type": "Code List"}}, "conceptId": "C141663", "definition": "4-Stair Ascend test code.", "extensible": "false", "name": "4-Stair Ascend Functional Test Test Code", "preferredTerm": "CDISC Functional Test 4-Stair Ascend Test Code Terminology", "submissionValue": "A4STR1TC", "synonyms": ["4-Stair Ascend Functional Test Test Code"], "terms": [{"conceptId": "C174103", "definition": "4-Stair Ascend - Was the 4-stair ascend performed?", "preferredTerm": "4-Stair Ascend - Was 4-Stair Ascend Performed", "submissionValue": "A4STR101", "synonyms": ["A4STR1-Was 4-Stair Ascend Performed"]}, {"conceptId": "C141706", "definition": "4-Stair Ascend - If yes, time taken to do 4-stair ascend.", "preferredTerm": "4-Stair Ascend - Time to Do 4-Stair Ascend", "submissionValue": "A4STR102", "synonyms": ["A4STR1-Time to Do 4-Stair Ascend"]}, {"conceptId": "C147590", "definition": "4-Stair Ascend - If yes, did subject wear orthoses?", "preferredTerm": "4-Stair Ascend - Wear Orthoses", "submissionValue": "A4STR103", "synonyms": ["A4STR1-Wear Orthoses"]}, {"conceptId": "C141707", "definition": "4-Stair Ascend - Test grade.", "preferredTerm": "4-Stair Ascend - Test Grade", "submissionValue": "A4STR104", "synonyms": ["A4STR1-Test Grade"]}]}