{"_links": {"parentPackage": {"href": "/mdr/ct/packages/sdtmct-2023-03-31", "title": "SDTM Controlled Terminology Package 53 Effective 2023-03-31", "type": "Terminology"}, "priorVersion": {"href": "/mdr/ct/packages/sdtmct-2022-12-16/codelists/C141662", "title": "CDISC Functional Test 4-Stair Ascend Test Name Terminology", "type": "Code List"}, "rootItem": {"href": "/mdr/root/ct/sdtmct/codelists/C141662", "title": "Version-agnostic anchor resource for codelist C141662", "type": "Root Value Domain"}, "self": {"href": "/mdr/ct/packages/sdtmct-2023-03-31/codelists/C141662", "title": "CDISC Functional Test 4-Stair Ascend Test Name Terminology", "type": "Code List"}}, "conceptId": "C141662", "definition": "4-Stair Ascend test name.", "extensible": "false", "name": "4-Stair Ascend Functional Test Test Name", "preferredTerm": "CDISC Functional Test 4-Stair Ascend Test Name Terminology", "submissionValue": "A4STR1TN", "synonyms": ["4-Stair Ascend Functional Test Test Name"], "terms": [{"conceptId": "C141707", "definition": "4-Stair Ascend - Test grade.", "preferredTerm": "4-Stair Ascend - Test Grade", "submissionValue": "A4STR1-Test Grade", "synonyms": ["A4STR1-Test Grade"]}, {"conceptId": "C141706", "definition": "4-Stair Ascend - If yes, time taken to do 4-stair ascend.", "preferredTerm": "4-Stair Ascend - Time to Do 4-Stair Ascend", "submissionValue": "A4STR1-Time to Do 4-Stair Ascend", "synonyms": ["A4STR1-Time to Do 4-Stair Ascend"]}, {"conceptId": "C174103", "definition": "4-Stair Ascend - Was the 4-stair ascend performed?", "preferredTerm": "4-Stair Ascend - Was 4-Stair Ascend Performed", "submissionValue": "A4STR1-Was 4-Stair Ascend Performed", "synonyms": ["A4STR1-Was 4-Stair Ascend Performed"]}, {"conceptId": "C147590", "definition": "4-Stair Ascend - If yes, did subject wear orthoses?", "preferredTerm": "4-Stair Ascend - Wear Orthoses", "submissionValue": "A4STR1-Wear Orthoses", "synonyms": ["A4STR1-Wear Orthoses"]}]}