{"_links": {"parentPackage": {"href": "/mdr/ct/packages/sdtmct-2023-03-31", "title": "SDTM Controlled Terminology Package 53 Effective 2023-03-31", "type": "Terminology"}, "priorVersion": {"href": "/mdr/ct/packages/sdtmct-2022-12-16/codelists/C142187", "title": "CDISC SDTM Vaccines Findings About Test Code Terminology", "type": "Code List"}, "rootItem": {"href": "/mdr/root/ct/sdtmct/codelists/C142187", "title": "Version-agnostic anchor resource for codelist C142187", "type": "Root Value Domain"}, "self": {"href": "/mdr/ct/packages/sdtmct-2023-03-31/codelists/C142187", "title": "CDISC SDTM Vaccines Findings About Test Code Terminology", "type": "Code List"}}, "conceptId": "C142187", "definition": "Terminology relevant to the test codes that describe findings about a vaccines event or intervention.", "extensible": "true", "name": "Vaccines Findings About Test Code", "preferredTerm": "CDISC SDTM Vaccines Findings About Test Code Terminology", "submissionValue": "VNFATSCD", "synonyms": ["Vaccines Findings About Test Code"], "terms": [{"conceptId": "C25377", "definition": "The outward or visible aspect of an entity.", "preferredTerm": "Appearance", "submissionValue": "APPEAR", "synonyms": ["Aper"]}, {"conceptId": "C198212", "definition": "Description of the distribution pattern of a finding within the examined area.", "preferredTerm": "Distribution Pattern Finding Description", "submissionValue": "DISTR", "synonyms": ["Distribution"]}, {"conceptId": "C124281", "definition": "The total number of episodes that have occurred for the condition.", "preferredTerm": "Number of Episodes", "submissionValue": "EPSDNUM", "synonyms": ["Number of Episodes"]}, {"conceptId": "C187676", "definition": "The circumferential measurement of an entity or object of interest at its widest point.", "preferredTerm": "Greatest Circumference at Point of Interest", "submissionValue": "GCIRCPI", "synonyms": ["Greatest Circ at Point of Interest", "Greatest Circumference at Point of Interest", "Largest Circumference at Point of Interest"]}, {"conceptId": "C96684", "definition": "The longest possible length of a straight line passing through the center of a circular or spheroid object that connects two points on the circumference.", "preferredTerm": "Longest Diameter", "submissionValue": "LDIAM", "synonyms": ["Longest Diameter"]}, {"conceptId": "C174277", "definition": "The number of lesions observed.", "preferredTerm": "Number of Lesions", "submissionValue": "LESNUM", "synonyms": ["Number of Lesions"]}, {"conceptId": "C101687", "definition": "A number representing the outer diameter of a needle. (NCI)", "preferredTerm": "Needle Gauge", "submissionValue": "NDLGAUGE", "synonyms": ["Needle Gauge"]}, {"conceptId": "C187675", "definition": "The anatomical joint in closest proximity to the entity or object of interest.", "preferredTerm": "Nearest Joint", "submissionValue": "NEARJNT", "synonyms": ["Nearest Joint"]}, {"conceptId": "C127786", "definition": "An indication as to whether something has happened, such as an event or incident.", "preferredTerm": "Occurrence Indicator", "submissionValue": "OCCUR", "synonyms": ["Occurrence Indicator"]}, {"conceptId": "C184724", "definition": "An indication as to whether the event or intervention prevents or has prevented the performance of daily activities.", "preferredTerm": "Prevents Daily Activities Indicator", "submissionValue": "PDAIND", "synonyms": ["Prevents Daily Activities Indicator"]}, {"conceptId": "C198213", "definition": "An indicator as to whether the subject has symptoms of itchiness.", "preferredTerm": "Pruritus Indicator", "submissionValue": "PRURIND", "synonyms": ["Pruritus Indicator"]}, {"conceptId": "C25676", "definition": "The degree of something undesirable.", "preferredTerm": "Severity", "submissionValue": "SEV", "synonyms": ["Severity/Intensity"]}, {"conceptId": "C82528", "definition": "A standardized categorical classification of the severity of an event or finding.", "preferredTerm": "Toxicity Grade", "submissionValue": "TOXGR", "synonyms": ["Toxicity Grade"]}]}