{"_links": {"parentPackage": {"href": "/mdr/ct/packages/sdtmct-2023-03-31", "title": "SDTM Controlled Terminology Package 53 Effective 2023-03-31", "type": "Terminology"}, "priorVersion": {"href": "/mdr/ct/packages/sdtmct-2022-12-16/codelists/C147537", "title": "CDISC Clinical Classification ATLAS Test Name Terminology", "type": "Code List"}, "rootItem": {"href": "/mdr/root/ct/sdtmct/codelists/C147537", "title": "Version-agnostic anchor resource for codelist C147537", "type": "Root Value Domain"}, "self": {"href": "/mdr/ct/packages/sdtmct-2023-03-31/codelists/C147537", "title": "CDISC Clinical Classification ATLAS Test Name Terminology", "type": "Code List"}}, "conceptId": "C147537", "definition": "ATLAS test name.", "extensible": "false", "name": "ATLAS Clinical Classification Test Name", "preferredTerm": "CDISC Clinical Classification ATLAS Test Name Terminology", "submissionValue": "ATLAS1TN", "synonyms": ["ATLAS Clinical Classification Test Name"], "terms": [{"conceptId": "C147843", "definition": "Age, treatment with systemic antibiotics, leukocyte count, serum albumin, and serum creatinine as a measure of renal function - Age.", "preferredTerm": "ATLAS - Age", "submissionValue": "ATLAS1-Age", "synonyms": ["ATLAS1-Age"]}, {"conceptId": "C147846", "definition": "Age, treatment with systemic antibiotics, leukocyte count, serum albumin, and serum creatinine as a measure of renal function - Albumin (serum).", "preferredTerm": "ATLAS - Albumin", "submissionValue": "ATLAS1-Albumin", "synonyms": ["ATLAS1-Albumin"]}, {"conceptId": "C147845", "definition": "Age, treatment with systemic antibiotics, leukocyte count, serum albumin, and serum creatinine as a measure of renal function - Leukocyte count (total).", "preferredTerm": "ATLAS - Leukocyte Count", "submissionValue": "ATLAS1-Leukocyte Count", "synonyms": ["ATLAS1-Leukocyte Count"]}, {"conceptId": "C147848", "definition": "Age, treatment with systemic antibiotics, leukocyte count, serum albumin, and serum creatinine as a measure of renal function - Score.", "preferredTerm": "ATLAS - Score", "submissionValue": "ATLAS1-Score", "synonyms": ["ATLAS1-Score"]}, {"conceptId": "C147847", "definition": "Age, treatment with systemic antibiotics, leukocyte count, serum albumin, and serum creatinine as a measure of renal function - Serum creatinine (as a measure of renal function).", "preferredTerm": "ATLAS - Serum Creatinine", "submissionValue": "ATLAS1-Serum Creatinine", "synonyms": ["ATLAS1-Serum Creatinine"]}, {"conceptId": "C147844", "definition": "Age, treatment with systemic antibiotics, leukocyte count, serum albumin, and serum creatinine as a measure of renal function - Treatment with systemic antibiotics during CDI therapy (>= 1 day).", "preferredTerm": "ATLAS - Treatment With Antibiotics", "submissionValue": "ATLAS1-Treatment With Antibiotics", "synonyms": ["ATLAS1-Treatment With Antibiotics"]}]}