{"_links": {"parentPackage": {"href": "/mdr/ct/packages/sdtmct-2023-03-31", "title": "SDTM Controlled Terminology Package 53 Effective 2023-03-31", "type": "Terminology"}, "priorVersion": {"href": "/mdr/ct/packages/sdtmct-2022-12-16/codelists/C150765", "title": "CDISC Functional Test COWAT Test Name Terminology", "type": "Code List"}, "rootItem": {"href": "/mdr/root/ct/sdtmct/codelists/C150765", "title": "Version-agnostic anchor resource for codelist C150765", "type": "Root Value Domain"}, "self": {"href": "/mdr/ct/packages/sdtmct-2023-03-31/codelists/C150765", "title": "CDISC Functional Test COWAT Test Name Terminology", "type": "Code List"}}, "conceptId": "C150765", "definition": "Controlled Oral Word Association Test test name.", "extensible": "false", "name": "Controlled Oral Word Association Test Functional Test Test Name", "preferredTerm": "CDISC Functional Test COWAT Test Name Terminology", "submissionValue": "COWAT1TN", "synonyms": ["Controlled Oral Word Association Test Functional Test Test Name"], "terms": [{"conceptId": "C150922", "definition": "Controlled Oral Word Association Test - Can you tell me another word that begins with R?", "preferredTerm": "COWAT - Another Word That Begins With R", "submissionValue": "COWAT1-Another Word That Begins With R", "synonyms": ["COWAT1-Another Word That Begins With R"]}, {"conceptId": "C150923", "definition": "Controlled Oral Word Association Test - Number correct words: Now I'm going to give you another letter, and again, say all words beginning with that letter that you can think of. You will have a minute for each one. The first letter is C.", "preferredTerm": "COWAT - Number Correct Words: C", "submissionValue": "COWAT1-Number Correct Words: C", "synonyms": ["COWAT1-Number Correct Words: C"]}, {"conceptId": "C150924", "definition": "Controlled Oral Word Association Test - Number correct words: Now I am going to give another letter. Tell me as many words as you can that begin with F. Tell me as many words as quickly as you can that begin with F.", "preferredTerm": "COWAT - Number Correct Words: F", "submissionValue": "COWAT1-Number Correct Words: F", "synonyms": ["COWAT1-Number Correct Words: F"]}, {"conceptId": "C150925", "definition": "Controlled Oral Word Association Test - Number correct words: Now I am going to give another letter. Tell me as many words as you can that begin with L. Tell me as many words as quickly as you can that begin with L.", "preferredTerm": "COWAT - Number Correct Words: L", "submissionValue": "COWAT1-Number Correct Words: L", "synonyms": ["COWAT1-Number Correct Words: L"]}]}