{"_links": {"parentPackage": {"href": "/mdr/ct/packages/sdtmct-2023-03-31", "title": "SDTM Controlled Terminology Package 53 Effective 2023-03-31", "type": "Terminology"}, "priorVersion": {"href": "/mdr/ct/packages/sdtmct-2022-12-16/codelists/C154456", "title": "CDISC Questionnaire SMDDS Version 1.0 Test Name Terminology", "type": "Code List"}, "rootItem": {"href": "/mdr/root/ct/sdtmct/codelists/C154456", "title": "Version-agnostic anchor resource for codelist C154456", "type": "Root Value Domain"}, "self": {"href": "/mdr/ct/packages/sdtmct-2023-03-31/codelists/C154456", "title": "CDISC Questionnaire SMDDS Version 1.0 Test Name Terminology", "type": "Code List"}}, "conceptId": "C154456", "definition": "Symptoms of Major Depressive Disorder Scale v1.0 test name.", "extensible": "false", "name": "Symptoms of Major Depressive Disorder Scale v1.0 Questionnaire Test Name", "preferredTerm": "CDISC Questionnaire SMDDS Version 1.0 Test Name Terminology", "submissionValue": "SMDDS1TN", "synonyms": ["Symptoms of Major Depressive Disorder Scale v1.0 Questionnaire Test Name"], "terms": [{"conceptId": "C176213", "definition": "Symptoms of Major Depressive Disorder Scale v1.0 - Low energy subscore.", "preferredTerm": "SMDDS Version 1.0 - SMDDDS1-Low Energy Subscore", "submissionValue": "SMDDDS1-Low Energy Subscore", "synonyms": ["SMDDDS1-Low Energy Subscore"]}, {"conceptId": "C176212", "definition": "Symptoms of Major Depressive Disorder Scale v1.0 - Anxiety subscore.", "preferredTerm": "SMDDS Version 1.0 - Anxiety Subscore", "submissionValue": "SMDDS1-Anxiety Subscore", "synonyms": ["SMDDS1-Anxiety Subscore"]}, {"conceptId": "C176214", "definition": "Symptoms of Major Depressive Disorder Scale v1.0 - Cognition subscore.", "preferredTerm": "SMDDS Version 1.0 - Cognition Subscore", "submissionValue": "SMDDS1-Cognition Subscore", "synonyms": ["SMDDS1-Cognition Subscore"]}, {"conceptId": "C176216", "definition": "Symptoms of Major Depressive Disorder Scale v1.0 - Eating behavior subscore.", "preferredTerm": "SMDDS Version 1.0 - Eating Behavior Subscore", "submissionValue": "SMDDS1-Eating Behavior Subscore", "synonyms": ["SMDDS1-Eating Behavior Subscore"]}, {"conceptId": "C155635", "definition": "Symptoms of Major Depressive Disorder Scale v1.0 - Over the past 7 days, how difficult was it for you to stop thinking about your problems?", "preferredTerm": "SMDDS Version 1.0 - How Difficult Stop Think Problems", "submissionValue": "SMDDS1-How Difficult Stop Think Problems", "synonyms": ["SMDDS1-How Difficult Stop Think Problems"]}, {"conceptId": "C155636", "definition": "Symptoms of Major Depressive Disorder Scale v1.0 - Over the past 7 days, how difficult was it for you to concentrate?", "preferredTerm": "SMDDS Version 1.0 - How Difficult to Concentrate", "submissionValue": "SMDDS1-How Difficult to Concentrate", "synonyms": ["SMDDS1-How Difficult to Concentrate"]}, {"conceptId": "C155637", "definition": "Symptoms of Major Depressive Disorder Scale v1.0 - Over the past 7 days, how difficult was it for you to enjoy your daily life?", "preferredTerm": "SMDDS Version 1.0 - How Difficult to Enjoy Daily Life", "submissionValue": "SMDDS1-How Difficult to Enjoy Daily Life", "synonyms": ["SMDDS1-How Difficult to Enjoy Daily Life"]}, {"conceptId": "C155630", "definition": "Symptoms of Major Depressive Disorder Scale v1.0 - Over the past 7 days, how hopeless have you felt?", "preferredTerm": "SMDDS Version 1.0 - How Hopeless Have You Felt", "submissionValue": "SMDDS1-How Hopeless Have You Felt", "synonyms": ["SMDDS1-How Hopeless Have You Felt"]}, {"conceptId": "C155631", "definition": "Symptoms of Major Depressive Disorder Scale v1.0 - Over the past 7 days, how irritable have you felt?", "preferredTerm": "SMDDS Version 1.0 - How Irritable Have You Felt", "submissionValue": "SMDDS1-How Irritable Have You Felt", "synonyms": ["SMDDS1-How Irritable Have You Felt"]}, {"conceptId": "C155643", "definition": "Symptoms of Major Depressive Disorder Scale v1.0 - Over the past 7 days, how much of the time did you blame yourself when bad things happened?", "preferredTerm": "SMDDS Version 1.0 - How Much Blame Yourself Bad Thing", "submissionValue": "SMDDS1-How Much Blame Yourself Bad Thing", "synonyms": ["SMDDS1-How Much Blame Yourself Bad Thing"]}, {"conceptId": "C155642", "definition": "Symptoms of Major Depressive Disorder Scale v1.0 - Over the past 7 days, how much of the time did you feel like doing nothing?", "preferredTerm": "SMDDS Version 1.0 - How Much Feel Like Doing Nothing", "submissionValue": "SMDDS1-How Much Feel Like Doing Nothing", "synonyms": ["SMDDS1-How Much Feel Like Doing Nothing"]}, {"conceptId": "C155644", "definition": "Symptoms of Major Depressive Disorder Scale v1.0 - Over the past 7 days, how much of the time did you feel that life is not worth living?", "preferredTerm": "SMDDS Version 1.0 - How Much Feel Not Worth Living", "submissionValue": "SMDDS1-How Much Feel Not Worth Living", "synonyms": ["SMDDS1-How Much Feel Not Worth Living"]}, {"conceptId": "C155641", "definition": "Symptoms of Major Depressive Disorder Scale v1.0 - Over the past 7 days, how much of the time did you have to push yourself to do things?", "preferredTerm": "SMDDS Version 1.0 - How Much Push Yourself Do Things", "submissionValue": "SMDDS1-How Much Push Yourself Do Things", "synonyms": ["SMDDS1-How Much Push Yourself Do Things"]}, {"conceptId": "C155640", "definition": "Symptoms of Major Depressive Disorder Scale v1.0 - Over the past 7 days, how often did you over eat?", "preferredTerm": "SMDDS Version 1.0 - How Often Did You Over Eat", "submissionValue": "SMDDS1-How Often Did You Over Eat", "synonyms": ["SMDDS1-How Often Did You Over Eat"]}, {"conceptId": "C155639", "definition": "Symptoms of Major Depressive Disorder Scale v1.0 - Over the past 7 days, how often did you have a poor appetite?", "preferredTerm": "SMDDS Version 1.0 - How Often Have Poor Appetite", "submissionValue": "SMDDS1-How Often Have Poor Appetite", "synonyms": ["SMDDS1-How Often Have Poor Appetite"]}, {"conceptId": "C155638", "definition": "Symptoms of Major Depressive Disorder Scale v1.0 - Over the past 7 days, how often did you have a problem with your sleep (falling asleep, staying asleep, or sleeping too much)?", "preferredTerm": "SMDDS Version 1.0 - How Often Problem With Sleep", "submissionValue": "SMDDS1-How Often Problem With Sleep", "synonyms": ["SMDDS1-How Often Problem With Sleep"]}, {"conceptId": "C155632", "definition": "Symptoms of Major Depressive Disorder Scale v1.0 - Over the past 7 days, how overwhelmed have you felt?", "preferredTerm": "SMDDS Version 1.0 - How Overwhelmed Have You Felt", "submissionValue": "SMDDS1-How Overwhelmed Have You Felt", "synonyms": ["SMDDS1-How Overwhelmed Have You Felt"]}, {"conceptId": "C155629", "definition": "Symptoms of Major Depressive Disorder Scale v1.0 - Over the past 7 days, how sad have you felt?", "preferredTerm": "SMDDS Version 1.0 - How Sad Have You Felt", "submissionValue": "SMDDS1-How Sad Have You Felt", "synonyms": ["SMDDS1-How Sad Have You Felt"]}, {"conceptId": "C155634", "definition": "Symptoms of Major Depressive Disorder Scale v1.0 - Over the past 7 days, how tired have you felt?", "preferredTerm": "SMDDS Version 1.0 - How Tired Have You Felt", "submissionValue": "SMDDS1-How Tired Have You Felt", "synonyms": ["SMDDS1-How Tired Have You Felt"]}, {"conceptId": "C155633", "definition": "Symptoms of Major Depressive Disorder Scale v1.0 - Over the past 7 days, how worried have you felt?", "preferredTerm": "SMDDS Version 1.0 - How Worried Have You Felt", "submissionValue": "SMDDS1-How Worried Have You Felt", "synonyms": ["SMDDS1-How Worried Have You Felt"]}, {"conceptId": "C176217", "definition": "Symptoms of Major Depressive Disorder Scale v1.0 - Low motivation subscore.", "preferredTerm": "SMDDS Version 1.0 - Low Motivation Subscore", "submissionValue": "SMDDS1-Low Motivation Subscore", "synonyms": ["SMDDS1-Low Motivation Subscore"]}, {"conceptId": "C176211", "definition": "Symptoms of Major Depressive Disorder Scale v1.0 - Negative emotions/mood subscore.", "preferredTerm": "SMDDS Version 1.0 - Negative Emotions/Mood Subscore", "submissionValue": "SMDDS1-Negative Emotions/Mood Subscore", "synonyms": ["SMDDS1-Negative Emotions/Mood Subscore"]}, {"conceptId": "C176219", "definition": "Symptoms of Major Depressive Disorder Scale v1.0 - Self-harm/suicide subscore.", "preferredTerm": "SMDDS Version 1.0 - Self-Harm/Suicide Subscore", "submissionValue": "SMDDS1-Self-Harm/Suicide Subscore", "synonyms": ["SMDDS1-Self-Harm/Suicide Subscore"]}, {"conceptId": "C176218", "definition": "Symptoms of Major Depressive Disorder Scale v1.0 - Sense of self subscore.", "preferredTerm": "SMDDS Version 1.0 - Sense of Self Subscore", "submissionValue": "SMDDS1-Sense of Self Subscore", "synonyms": ["SMDDS1-Sense of Self Subscore"]}, {"conceptId": "C176215", "definition": "Symptoms of Major Depressive Disorder Scale v1.0 - Sleep disturbances subscore.", "preferredTerm": "SMDDS Version 1.0 - Sleep Disturbances Subscore", "submissionValue": "SMDDS1-Sleep Disturbances Subscore", "synonyms": ["SMDDS1-Sleep Disturbances Subscore"]}, {"conceptId": "C155645", "definition": "Symptoms of Major Depressive Disorder Scale v1.0 - Total score.", "preferredTerm": "SMDDS Version 1.0 - Total Score", "submissionValue": "SMDDS1-Total Score", "synonyms": ["SMDDS1-Total Score"]}]}