{"_links": {"parentPackage": {"href": "/mdr/ct/packages/sdtmct-2023-03-31", "title": "SDTM Controlled Terminology Package 53 Effective 2023-03-31", "type": "Terminology"}, "priorVersion": {"href": "/mdr/ct/packages/sdtmct-2022-12-16/codelists/C157727", "title": "CDISC Questionnaire PHQ-2 Test Code Terminology", "type": "Code List"}, "rootItem": {"href": "/mdr/root/ct/sdtmct/codelists/C157727", "title": "Version-agnostic anchor resource for codelist C157727", "type": "Root Value Domain"}, "self": {"href": "/mdr/ct/packages/sdtmct-2023-03-31/codelists/C157727", "title": "CDISC Questionnaire PHQ-2 Test Code Terminology", "type": "Code List"}}, "conceptId": "C157727", "definition": "Patient Health Questionnaire - 2 test code.", "extensible": "false", "name": "Patient Health Questionnaire - 2 Item Questionnaire Test Code", "preferredTerm": "CDISC Questionnaire PHQ-2 Test Code Terminology", "submissionValue": "PHQ04TC", "synonyms": ["Patient Health Questionnaire - 2 Item Questionnaire Test Code"], "terms": [{"conceptId": "C157729", "definition": "The Patient Health Questionnaire-2 - Over the past 2 weeks, how often have you been bothered by any of the following problems? Little interest or pleasure in doing things.", "preferredTerm": "PHQ-2 - Little Interest or Pleasure in Doing Things", "submissionValue": "PHQ0401", "synonyms": ["PHQ04-Little Interest/Pleasure in Things"]}, {"conceptId": "C157730", "definition": "The Patient Health Questionnaire-2 - Over the past 2 weeks, how often have you been bothered by any of the following problems? Feeling down, depressed or hopeless.", "preferredTerm": "PHQ-2 - Feeling Down, Depressed or Hopeless", "submissionValue": "PHQ0402", "synonyms": ["PHQ04-Feeling Down Depressed or Hopeless"]}]}