{"_links": {"parentPackage": {"href": "/mdr/ct/packages/sdtmct-2023-03-31", "title": "SDTM Controlled Terminology Package 53 Effective 2023-03-31", "type": "Terminology"}, "priorVersion": {"href": "/mdr/ct/packages/sdtmct-2022-12-16/codelists/C161622", "title": "CDISC Clinical Classification AVPU Test Name Terminology", "type": "Code List"}, "rootItem": {"href": "/mdr/root/ct/sdtmct/codelists/C161622", "title": "Version-agnostic anchor resource for codelist C161622", "type": "Root Value Domain"}, "self": {"href": "/mdr/ct/packages/sdtmct-2023-03-31/codelists/C161622", "title": "CDISC Clinical Classification AVPU Test Name Terminology", "type": "Code List"}}, "conceptId": "C161622", "definition": "Alert Verbal Painful Unresponsive Scale test name.", "extensible": "false", "name": "Alert Verbal Painful Unresponsive Scale Clinical Classification Test Name", "preferredTerm": "CDISC Clinical Classification AVPU Test Name Terminology", "submissionValue": "AVPU01TN", "synonyms": ["Alert Verbal Painful Unresponsive Scale Clinical Classification Test Name"], "terms": [{"conceptId": "C161740", "definition": "Alert Verbal Painful Unresponsive Scale - Responsivenesss.", "preferredTerm": "AVPU - Responsiveness", "submissionValue": "AVPU01-Responsiveness", "synonyms": ["AVPU01-Responsiveness"]}]}