{"_links": {"parentPackage": {"href": "/mdr/ct/packages/sdtmct-2023-03-31", "title": "SDTM Controlled Terminology Package 53 Effective 2023-03-31", "type": "Terminology"}, "priorVersion": {"href": "/mdr/ct/packages/sdtmct-2022-12-16/codelists/C163389", "title": "CDISC Questionnaire GAD-7 Version 2 Test Code Terminology", "type": "Code List"}, "rootItem": {"href": "/mdr/root/ct/sdtmct/codelists/C163389", "title": "Version-agnostic anchor resource for codelist C163389", "type": "Root Value Domain"}, "self": {"href": "/mdr/ct/packages/sdtmct-2023-03-31/codelists/C163389", "title": "CDISC Questionnaire GAD-7 Version 2 Test Code Terminology", "type": "Code List"}}, "conceptId": "C163389", "definition": "Generalized Anxiety Disorder - 7 Version 2 test code.", "extensible": "false", "name": "Generalized Anxiety Disorder - 7 Version 2 Questionnaire Test Code", "preferredTerm": "CDISC Questionnaire GAD-7 Version 2 Test Code Terminology", "submissionValue": "GAD02TC", "synonyms": ["Generalized Anxiety Disorder - 7 Version 2 Questionnaire Test Code"], "terms": [{"conceptId": "C163832", "definition": "Generalized Anxiety Disorder - 7 Version 2 - Feeling nervous, anxious or on edge.", "preferredTerm": "GAD-7 Version 2 - Feeling Nervous Anxious or On Edge", "submissionValue": "GAD0201", "synonyms": ["GAD02-Feeling Nervous Anxious or On Edge"]}, {"conceptId": "C163833", "definition": "Generalized Anxiety Disorder - 7 Version 2 - Not being able to stop or control worrying.", "preferredTerm": "GAD-7 Version 2 - Not Able to Stop or Control Worrying", "submissionValue": "GAD0202", "synonyms": ["GAD02-Not Able to Stop/Control Worrying"]}, {"conceptId": "C163834", "definition": "Generalized Anxiety Disorder - 7 Version 2 - Worrying too much about different things.", "preferredTerm": "GAD-7 Version 2 - Worrying Too Much About Things", "submissionValue": "GAD0203", "synonyms": ["GAD02-Worrying Too Much About Things"]}, {"conceptId": "C163835", "definition": "Generalized Anxiety Disorder - 7 Version 2 - Trouble relaxing.", "preferredTerm": "GAD-7 Version 2 - Trouble Relaxing", "submissionValue": "GAD0204", "synonyms": ["GAD02-Trouble Relaxing"]}, {"conceptId": "C163836", "definition": "Generalized Anxiety Disorder - 7 Version 2 - Being so restless that it is hard to sit still.", "preferredTerm": "GAD-7 Version 2 - Being Restless Hard to Sit Still", "submissionValue": "GAD0205", "synonyms": ["GAD02-Being Restless Hard to Sit Still"]}, {"conceptId": "C163837", "definition": "Generalized Anxiety Disorder - 7 Version 2 - Becoming easily annoyed or irritable.", "preferredTerm": "GAD-7 Version 2 - Becoming Easily Annoyed or Irritable", "submissionValue": "GAD0206", "synonyms": ["GAD02-Becoming Easily Annoyed/Irritable"]}, {"conceptId": "C163838", "definition": "Generalized Anxiety Disorder - 7 Version 2 - Feeling afraid as if something awful might happen.", "preferredTerm": "GAD-7 Version 2 - Feel Afraid If Something Awful Happen", "submissionValue": "GAD0207", "synonyms": ["GAD02-Feel Afraid/Something Awful Happen"]}, {"conceptId": "C163839", "definition": "Generalized Anxiety Disorder - 7 Version 2 - Total score.", "preferredTerm": "GAD-7 Version 2 - Total Score", "submissionValue": "GAD0208", "synonyms": ["GAD02-Total Score"]}]}