{"_links": {"parentPackage": {"href": "/mdr/ct/packages/sdtmct-2023-03-31", "title": "SDTM Controlled Terminology Package 53 Effective 2023-03-31", "type": "Terminology"}, "priorVersion": {"href": "/mdr/ct/packages/sdtmct-2022-12-16/codelists/C170528", "title": "CDISC Clinical Classification KDIGO-AKI Test Name Terminology", "type": "Code List"}, "rootItem": {"href": "/mdr/root/ct/sdtmct/codelists/C170528", "title": "Version-agnostic anchor resource for codelist C170528", "type": "Root Value Domain"}, "self": {"href": "/mdr/ct/packages/sdtmct-2023-03-31/codelists/C170528", "title": "CDISC Clinical Classification KDIGO-AKI Test Name Terminology", "type": "Code List"}}, "conceptId": "C170528", "definition": "Kidney Disease Improving Global Outcomes Staging For Acute Kidney Injury test name.", "extensible": "false", "name": "Kidney Disease Improving Global Outcomes Staging For Acute Kidney Injury Clinical Classification Test Name", "preferredTerm": "CDISC Clinical Classification KDIGO-AKI Test Name Terminology", "submissionValue": "KDIGO1TN", "synonyms": ["Kidney Disease Improving Global Outcomes Staging For Acute Kidney Injury Clinical Classification Test Name"], "terms": [{"conceptId": "C170692", "definition": "Kidney Disease: Improving Global Outcomes Staging For Acute Kidney Injury - KDIGO AKI stage.", "preferredTerm": "KDIGO-AKI - KDIGO AKI Stage", "submissionValue": "KDIGO1-KDIGO AKI Stage", "synonyms": ["KDIGO1-KDIGO AKI Stage"]}]}