{"_links": {"parentPackage": {"href": "/mdr/ct/packages/sdtmct-2023-03-31", "title": "SDTM Controlled Terminology Package 53 Effective 2023-03-31", "type": "Terminology"}, "priorVersion": {"href": "/mdr/ct/packages/sdtmct-2022-12-16/codelists/C171444", "title": "CDISC SDTM Health Care Encounters Dictionary Derived Term Terminology", "type": "Code List"}, "rootItem": {"href": "/mdr/root/ct/sdtmct/codelists/C171444", "title": "Version-agnostic anchor resource for codelist C171444", "type": "Root Value Domain"}, "self": {"href": "/mdr/ct/packages/sdtmct-2023-03-31/codelists/C171444", "title": "CDISC SDTM Health Care Encounters Dictionary Derived Term Terminology", "type": "Code List"}}, "conceptId": "C171444", "definition": "A terminology codelist based on the standardized or preprinted name of the healthcare encounter that occurs.", "extensible": "true", "name": "Health Care Encounters Dictionary Derived Term", "preferredTerm": "CDISC SDTM Health Care Encounters Dictionary Derived Term Terminology", "submissionValue": "HODECOD", "synonyms": ["Health Care Encounters Dictionary Derived Term"], "terms": [{"conceptId": "C198260", "definition": "The subject or patient has interacted with a healthcare professional at an adult daycare facility.", "preferredTerm": "Adult Daycare Facility Visit", "submissionValue": "ADULT DAYCARE FACILITY VISIT"}, {"conceptId": "C171501", "definition": "The subject or patient has interacted with a healthcare professional at a cardiac catheterization unit.", "preferredTerm": "Cardiac Catheterization Laboratory Visit", "submissionValue": "CARDIAC CATHETERIZATION LABORATORY VISIT"}, {"conceptId": "C171502", "definition": "The subject or patient has been admitted as an inpatient to a cardiac intensive care unit in a hospital.", "preferredTerm": "Cardiac Intensive Care Unit Stay", "submissionValue": "CARDIAC INTENSIVE CARE UNIT STAY", "synonyms": ["CICU Stay", "Coronary Intensive Care Unit Stay"]}, {"conceptId": "C177950", "definition": "The subject or patient has interacted with a healthcare professional at a cardiology unit in a hospital.", "preferredTerm": "Cardiology Unit Visit", "submissionValue": "CARDIOLOGY UNIT VISIT"}, {"conceptId": "C177948", "definition": "The subject or patient has interacted with a dietary specialist.", "preferredTerm": "Dietary Specialist Visit", "submissionValue": "DIETARY SPECIALIST VISIT"}, {"conceptId": "C176294", "definition": "The subject or patient has interacted with a healthcare professional at an emergency room.", "preferredTerm": "Emergency Room Visit", "submissionValue": "EMERGENCY ROOM VISIT"}, {"conceptId": "C171509", "definition": "The subject or patient has been admitted as an inpatient to a general medical unit of a hospital.", "preferredTerm": "General Ward Stay", "submissionValue": "GENERAL WARD STAY", "synonyms": ["General Medical Unit Stay"]}, {"conceptId": "C177947", "definition": "The subject or patient has interacted with a healthcare professional.", "preferredTerm": "Healthcare Professional Visit", "submissionValue": "HEALTHCARE PROFESSIONAL VISIT"}, {"conceptId": "C184507", "definition": "The subject or patient has interacted with a healthcare professional within a residence.", "preferredTerm": "Home Healthcare Visit", "submissionValue": "HOME HEALTHCARE VISIT"}, {"conceptId": "C198261", "definition": "The subject or patient has been admitted as an inpatient to a hospice facility.", "preferredTerm": "Hospice Facility Stay", "submissionValue": "HOSPICE FACILITY STAY"}, {"conceptId": "C171453", "definition": "The subject or patient has been admitted as an inpatient to a hospital.", "preferredTerm": "Hospital Stay", "submissionValue": "HOSPITAL STAY", "synonyms": ["Inpatient Hospital Stay", "Inpatient Hospitalization"]}, {"conceptId": "C171454", "definition": "The subject or patient has been admitted as an inpatient to a intensive care unit in a hospital.", "preferredTerm": "Intensive Care Unit Stay", "submissionValue": "INTENSIVE CARE UNIT STAY", "synonyms": ["ICU Stay"]}, {"conceptId": "C177949", "definition": "The subject or patient has interacted with a mental health specialist.", "preferredTerm": "Mental Health Specialist Visit", "submissionValue": "MENTAL HEALTH SPECIALIST VISIT"}, {"conceptId": "C171517", "definition": "The subject or patient has been admitted as an inpatient to a neuro-intensive care unit in a hospital.", "preferredTerm": "Neuro Intensive Care Unit Stay", "submissionValue": "NEURO INTENSIVE CARE UNIT STAY", "synonyms": ["Neuro-ICU Stay", "Neuro-Trauma ICU Stay"]}, {"conceptId": "C171518", "definition": "The subject or patient has been admitted as an inpatient to a nursing home.", "preferredTerm": "Nursing Home Stay", "submissionValue": "NURSING HOME STAY"}, {"conceptId": "C154474", "definition": "The subject or patient has interacted with a healthcare professional at an outpatient clinic.", "preferredTerm": "Ambulatory Visit", "submissionValue": "OUTPATIENT CLINIC VISIT", "synonyms": ["Ambulatory Care Clinic Visit", "Ambulatory Care Facility Visit", "Ambulatory Center Visit"]}, {"conceptId": "C171520", "definition": "The subject or patient has interacted with a healthcare professional at a physical therapy facility.", "preferredTerm": "Physical Therapy Facility Visit", "submissionValue": "PHYSICAL THERAPY FACILITY VISIT"}, {"conceptId": "C176292", "definition": "The subject or patient has interacted with a primary care physician.", "preferredTerm": "Primary Care Physician's Office Visit", "submissionValue": "PRIMARY CARE PHYSICIAN'S OFFICE VISIT"}, {"conceptId": "C171522", "definition": "The subject or patient has been admitted as an inpatient to a psychiatric ward.", "preferredTerm": "Psychiatric Ward Stay", "submissionValue": "PSYCHIATRIC WARD STAY"}, {"conceptId": "C171523", "definition": "The subject or patient has been admitted as an inpatient to a rehabilitation facility.", "preferredTerm": "Rehabilitation Facility Stay", "submissionValue": "REHABILITATION FACILITY STAY"}, {"conceptId": "C171534", "definition": "The subject or patient has been admitted as an inpatient to a skilled nursing facility.", "preferredTerm": "Skilled Nursing Facility Stay", "submissionValue": "SKILLED NURSING FACILITY STAY"}, {"conceptId": "C176293", "definition": "The subject or patient has interacted with a specialty care physician.", "preferredTerm": "Specialty Care Physician's Office Visit", "submissionValue": "SPECIALTY CARE PHYSICIAN'S OFFICE VISIT"}, {"conceptId": "C171535", "definition": "The subject or patient has been admitted as an inpatient to a surgical intensive care unit in a hospital.", "preferredTerm": "Surgical Intensive Care Unit Stay", "submissionValue": "SURGICAL INTENSIVE CARE UNIT STAY", "synonyms": ["SICU Stay"]}]}