{"_links": {"parentPackage": {"href": "/mdr/ct/packages/sdtmct-2023-03-31", "title": "SDTM Controlled Terminology Package 53 Effective 2023-03-31", "type": "Terminology"}, "priorVersion": {"href": "/mdr/ct/packages/sdtmct-2022-12-16/codelists/C177715", "title": "CDISC Questionnaire SF12 v1.0 Standard Test Name Terminology", "type": "Code List"}, "rootItem": {"href": "/mdr/root/ct/sdtmct/codelists/C177715", "title": "Version-agnostic anchor resource for codelist C177715", "type": "Root Value Domain"}, "self": {"href": "/mdr/ct/packages/sdtmct-2023-03-31/codelists/C177715", "title": "CDISC Questionnaire SF12 v1.0 Standard Test Name Terminology", "type": "Code List"}}, "conceptId": "C177715", "definition": "Short Form 12 Health Survey Standard, US Version 1.0 test name.", "extensible": "false", "name": "Short Form 12 Health Survey Standard, US Version 1.0 Questionnaire Test Name", "preferredTerm": "CDISC Questionnaire SF12 v1.0 Standard Test Name Terminology", "submissionValue": "SF121TN", "synonyms": ["Short Form 12 Health Survey Standard, US Version 1.0 Questionnaire Test Name"], "terms": [{"conceptId": "C177868", "definition": "The Short Form 12 Health Survey Standard, US Version 1.0 - Please give the one answer that comes closest to the way you have been feeling. How much of the time during the past 4 weeks - did you have a lot of energy?", "preferredTerm": "SF12 v1.0 Standard - Did You Have a Lot of Energy", "submissionValue": "SF121-Did You Have a Lot of Energy", "synonyms": ["SF121-Did You Have a Lot of Energy"]}, {"conceptId": "C177864", "definition": "The Short Form 12 Health Survey Standard, US Version 1.0 - During the past 4 weeks, have you had any of the following problems with your work or other regular daily activities as a result of any emotional problems (such as feeling depressed or anxious) - accomplished less than you would like.", "preferredTerm": "SF12 v1.0 Standard - Emotional: Accomplished Less", "submissionValue": "SF121-Emotional: Accomplished Less", "synonyms": ["SF121-Emotional: Accomplished Less"]}, {"conceptId": "C177865", "definition": "The Short Form 12 Health Survey Standard, US Version 1.0 - During the past 4 weeks, have you had any of the following problems with your work or other regular daily activities as a result of any emotional problems (such as feeling depressed or anxious) - did work or other activities less carefully than usual.", "preferredTerm": "SF12 v1.0 Standard - Emotional: Did Work Less Carefully", "submissionValue": "SF121-Emotional: Did Work Less Carefully", "synonyms": ["SF121-Emotional: Did Work Less Carefully"]}, {"conceptId": "C177867", "definition": "The Short Form 12 Health Survey Standard, US Version 1.0 - Please give the one answer that comes closest to the way you have been feeling. How much of the time during the past 4 weeks - have you felt calm and peaceful?", "preferredTerm": "SF12 v1.0 Standard - Have You Felt Calm and Peaceful", "submissionValue": "SF121-Have You Felt Calm and Peaceful", "synonyms": ["SF121-Have You Felt Calm and Peaceful"]}, {"conceptId": "C177859", "definition": "The Short Form 12 Health Survey Standard, US Version 1.0 - In general, would you say your health is.", "preferredTerm": "SF12 v1.0 Standard - In General You Say Your Health Is", "submissionValue": "SF121-In General You Say Your Health Is", "synonyms": ["SF121-In General You Say Your Health Is"]}, {"conceptId": "C177861", "definition": "The Short Form 12 Health Survey Standard, US Version 1.0 - How much does your health now limit you in - climbing several flights of stairs.", "preferredTerm": "SF12 v1.0 Standard - Limit Climbing Several Flights", "submissionValue": "SF121-Limit Climbing Several Flights", "synonyms": ["SF121-Limit Climbing Several Flights"]}, {"conceptId": "C177860", "definition": "The Short Form 12 Health Survey Standard, US Version 1.0 - How much does your health now limit you in - moderate activities, such as moving a table, pushing a vacuum cleaner, bowling, or playing golf.", "preferredTerm": "SF12 v1.0 Standard - Limit Moderate Activities", "submissionValue": "SF121-Limit Moderate Activities", "synonyms": ["SF121-Limit Moderate Activities"]}, {"conceptId": "C180458", "definition": "The Short Form 12 Health Survey Standard, US Version 1.0 - Mental component score.", "preferredTerm": "SF12 v1.0 Standard - Mental Component Score", "submissionValue": "SF121-Mental Component Score", "synonyms": ["SF121-Mental Component Score"]}, {"conceptId": "C177866", "definition": "The Short Form 12 Health Survey Standard, US Version 1.0 - During the past 4 weeks, how much did pain interfere with your normal work (including both work outside the home and housework)?", "preferredTerm": "SF12 v1.0 Standard - Pain Interfere With Normal Work", "submissionValue": "SF121-Pain Interfere With Normal Work", "synonyms": ["SF121-Pain Interfere With Normal Work"]}, {"conceptId": "C180457", "definition": "The Short Form 12 Health Survey Standard, US Version 1.0 - Physical component score.", "preferredTerm": "SF12 v1.0 Standard - Physical Component Score", "submissionValue": "SF121-Physical Component Score", "synonyms": ["SF121-Physical Component Score"]}, {"conceptId": "C177862", "definition": "The Short Form 12 Health Survey Standard, US Version 1.0 - During the past 4 weeks, have you had any of the following problems with your work or other regular daily activities as a result of your physical health - accomplished less than you would like.", "preferredTerm": "SF12 v1.0 Standard - Physical: Accomplished Less", "submissionValue": "SF121-Physical: Accomplished Less", "synonyms": ["SF121-Physical: Accomplished Less"]}, {"conceptId": "C177863", "definition": "The Short Form 12 Health Survey Standard, US Version 1.0 - During the past 4 weeks, have you had any of the following problems with your work or other regular daily activities as a result of your physical health - were limited in the kind of work or other activities.", "preferredTerm": "SF12 v1.0 Standard - Physical: Limited Kind of Work", "submissionValue": "SF121-Physical: Limited Kind of Work", "synonyms": ["SF121-Physical: Limited Kind of Work"]}, {"conceptId": "C180459", "definition": "The Short Form 12 Health Survey Standard, US Version 1.0 - SF-6D_R2 (utility index release 2) score.", "preferredTerm": "SF12 v1.0 Standard - SF-6D_R2 Score", "submissionValue": "SF121-SF-6D_R2 (Util Index Rel 2) Score", "synonyms": ["SF121-SF-6D_R2 (Util Index Rel 2) Score"]}, {"conceptId": "C177870", "definition": "The Short Form 12 Health Survey Standard, US Version 1.0 - During the past 4 weeks, how much of the time has your physical health or emotional problems interfered with your social activities (like visiting friends, relatives, etc.)?", "preferredTerm": "SF12 v1.0 Standard - Time Physical Health, Emotional Interfered", "submissionValue": "SF121-Time Phys/Emotional Interfered", "synonyms": ["SF121-Time Phys/Emotional Interfered"]}, {"conceptId": "C177869", "definition": "The Short Form 12 Health Survey Standard, US Version 1.0 - Please give the one answer that comes closest to the way you have been feeling. How much of the time during the past 4 weeks - have you felt downhearted and blue?", "preferredTerm": "SF12 v1.0 Standard - You Felt Downhearted and Blue", "submissionValue": "SF121-You Felt Downhearted and Blue", "synonyms": ["SF121-You Felt Downhearted and Blue"]}]}