{"_links": {"parentPackage": {"href": "/mdr/ct/packages/sdtmct-2023-03-31", "title": "SDTM Controlled Terminology Package 53 Effective 2023-03-31", "type": "Terminology"}, "priorVersion": {"href": "/mdr/ct/packages/sdtmct-2022-12-16/codelists/C177709", "title": "CDISC Questionnaire SF10 v1.0 Children Acute Test Name Terminology", "type": "Code List"}, "rootItem": {"href": "/mdr/root/ct/sdtmct/codelists/C177709", "title": "Version-agnostic anchor resource for codelist C177709", "type": "Root Value Domain"}, "self": {"href": "/mdr/ct/packages/sdtmct-2023-03-31/codelists/C177709", "title": "CDISC Questionnaire SF10 v1.0 Children Acute Test Name Terminology", "type": "Code List"}}, "conceptId": "C177709", "definition": "Short Form 10 Health Survey for Children Acute, US Version 1.0 test name.", "extensible": "false", "name": "Short Form 10 Health Survey for Children Acute, US Version 1.0 Questionnaire Test Name", "preferredTerm": "CDISC Questionnaire SF10 v1.0 Children Acute Test Name Terminology", "submissionValue": "SF102TN", "synonyms": ["Short Form 10 Health Survey for Children Acute, US Version 1.0 Questionnaire Test Name"], "terms": [{"conceptId": "C177835", "definition": "The Short Form 10 Health Survey Children Acute, US Version 1.0 - During the past week, how much of the time do you think your child acted bothered or upset?", "preferredTerm": "SF10 v1.0 Children Acute - Acted Bothered or Upset", "submissionValue": "SF102-Acted Bothered or Upset", "synonyms": ["SF102-Acted Bothered or Upset"]}, {"conceptId": "C177829", "definition": "The Short Form 10 Health Survey Children Acute, US Version 1.0 - During the past week, has your child been limited in any of the following activities due to HEALTH problems - bending, lifting, or stooping?", "preferredTerm": "SF10 v1.0 Children Acute - Bending, Lifting, Stooping", "submissionValue": "SF102-Bending/Lifting/Stooping", "synonyms": ["SF102-Bending/Lifting/Stooping"]}, {"conceptId": "C177828", "definition": "The Short Form 10 Health Survey Children Acute, US Version 1.0 - During the past week, has your child been limited in any of the following activities due to HEALTH problems - Doing things that take some energy such as riding a bike or skating?", "preferredTerm": "SF10 v1.0 Children Acute - Doing Things That Take Some Energy", "submissionValue": "SF102-Doing Things That Take Some Energy", "synonyms": ["SF102-Doing Things That Take Some Energy"]}, {"conceptId": "C177831", "definition": "The Short Form 10 Health Survey Children Acute, US Version 1.0 - During the past week, has your child been limited in the KIND of schoolwork or activities with friends he/she could do because of EMOTIONAL or BEHAVIORAL problems?", "preferredTerm": "SF10 v1.0 Children Acute - Emotional: Schoolwork, Activities", "submissionValue": "SF102-Emotional: Schoolwork/Activities", "synonyms": ["SF102-Emotional: Schoolwork/Activities"]}, {"conceptId": "C177833", "definition": "The Short Form 10 Health Survey Children Acute, US Version 1.0 - During the past week, how satisfied do you think your child has felt about his/her friendships?", "preferredTerm": "SF10 v1.0 Children Acute - Felt About His/Her Friendships", "submissionValue": "SF102-Felt About His/Her Friendships", "synonyms": ["SF102-Felt About His/Her Friendships"]}, {"conceptId": "C177834", "definition": "The Short Form 10 Health Survey Children Acute, US Version 1.0 - During the past week, how satisfied do you think your child has felt about his/her life overall?", "preferredTerm": "SF10 v1.0 Children Acute - Felt About His/Her Life Overall", "submissionValue": "SF102-Felt About His/Her Life Overall", "synonyms": ["SF102-Felt About His/Her Life Overall"]}, {"conceptId": "C177836", "definition": "The Short Form 10 Health Survey Children Acute, US Version 1.0 - Compared to other children your child's age, in general would you say his/her behavior is.", "preferredTerm": "SF10 v1.0 Children Acute - His/Her Behavior Is", "submissionValue": "SF102-His/Her Behavior Is", "synonyms": ["SF102-His/Her Behavior Is"]}, {"conceptId": "C177832", "definition": "The Short Form 10 Health Survey Children Acute, US Version 1.0 - During the past week, how much bodily pain or discomfort has your child had?", "preferredTerm": "SF10 v1.0 Children Acute - How Much Bodily Pain Child Had", "submissionValue": "SF102-How Much Bodily Pain Child Had", "synonyms": ["SF102-How Much Bodily Pain Child Had"]}, {"conceptId": "C177827", "definition": "The Short Form 10 Health Survey Children Acute, US Version 1.0 - In general, would you say your child's health is.", "preferredTerm": "SF10 v1.0 Children Acute - In General You Say Child Health Is", "submissionValue": "SF102-In General You Say Child Health Is", "synonyms": ["SF102-In General You Say Child Health Is"]}, {"conceptId": "C177830", "definition": "The Short Form 10 Health Survey Children Acute, US Version 1.0 - During the past week, has your child been limited in the KIND of schoolwork or activities with friends he/she could do because of PHYSICAL health problems?", "preferredTerm": "SF10 v1.0 Children Acute - Physical: Schoolwork, Activities", "submissionValue": "SF102-Physical: Schoolwork/Activities", "synonyms": ["SF102-Physical: Schoolwork/Activities"]}]}