{"_links": {"parentPackage": {"href": "/mdr/ct/packages/sdtmct-2023-03-31", "title": "SDTM Controlled Terminology Package 53 Effective 2023-03-31", "type": "Terminology"}, "priorVersion": {"href": "/mdr/ct/packages/sdtmct-2022-12-16/codelists/C179954", "title": "CDISC Questionnaire Combat Exposure Scale CES0105 Through CES0107 Standardized Character Response Terminology", "type": "Code List"}, "rootItem": {"href": "/mdr/root/ct/sdtmct/codelists/C179954", "title": "Version-agnostic anchor resource for codelist C179954", "type": "Root Value Domain"}, "self": {"href": "/mdr/ct/packages/sdtmct-2023-03-31/codelists/C179954", "title": "CDISC Questionnaire Combat Exposure Scale CES0105 Through CES0107 Standardized Character Response Terminology", "type": "Code List"}}, "conceptId": "C179954", "definition": "Combat Exposure Scale standardized character result for CES0105 through CES0107 test and test code.", "extensible": "false", "name": "Combat Exposure Scale Questionnaire STRESC for CES0105 Through CES0107 TN/TC", "preferredTerm": "CDISC Questionnaire Combat Exposure Scale CES0105 Through CES0107 Standardized Character Response Terminology", "submissionValue": "CES0105T07STR", "synonyms": ["Combat Exposure Scale Questionnaire STRESC for CES0105 Through CES0107 TN/TC"], "terms": [{"conceptId": "C180306", "definition": "Combat Exposure Scale standardized character result for CES0105 through CES0107-Never.", "preferredTerm": "Combat Exposure Scale CES0105 Through CES0107 Standardized Character Result 1", "submissionValue": "1", "synonyms": ["CES0105 through CES0107-1"]}, {"conceptId": "C180307", "definition": "Combat Exposure Scale standardized character result for CES0105 through CES0107-1-2 times.", "preferredTerm": "Combat Exposure Scale CES0105 Through CES0107 Standardized Character Result 2", "submissionValue": "2", "synonyms": ["CES0105 through CES0107-2"]}, {"conceptId": "C180308", "definition": "Combat Exposure Scale standardized character result for CES0105 through CES0107-3-12 times.", "preferredTerm": "Combat Exposure Scale CES0105 Through CES0107 Standardized Character Result 3", "submissionValue": "3", "synonyms": ["CES0105 through CES0107-3"]}, {"conceptId": "C180309", "definition": "Combat Exposure Scale standardized character result for CES0105 through CES0107-13-50 times.", "preferredTerm": "Combat Exposure Scale CES0105 Through CES0107 Standardized Character Result 4", "submissionValue": "4", "synonyms": ["CES0105 through CES0107-4"]}, {"conceptId": "C180310", "definition": "Combat Exposure Scale standardized character result for CES0105 through CES0107-51+ times.", "preferredTerm": "Combat Exposure Scale CES0105 Through CES0107 Standardized Character Result 5", "submissionValue": "5", "synonyms": ["CES0105 through CES0107-5"]}]}