{"_links": {"parentPackage": {"href": "/mdr/ct/packages/sdtmct-2023-03-31", "title": "SDTM Controlled Terminology Package 53 Effective 2023-03-31", "type": "Terminology"}, "priorVersion": {"href": "/mdr/ct/packages/sdtmct-2022-12-16/codelists/C179952", "title": "CDISC Questionnaire Combat Exposure Scale CES0103 Standardized Character Response Terminology", "type": "Code List"}, "rootItem": {"href": "/mdr/root/ct/sdtmct/codelists/C179952", "title": "Version-agnostic anchor resource for codelist C179952", "type": "Root Value Domain"}, "self": {"href": "/mdr/ct/packages/sdtmct-2023-03-31/codelists/C179952", "title": "CDISC Questionnaire Combat Exposure Scale CES0103 Standardized Character Response Terminology", "type": "Code List"}}, "conceptId": "C179952", "definition": "Combat Exposure Scale standardized character result for CES0103 test and test code.", "extensible": "false", "name": "Combat Exposure Scale Questionnaire STRESC for CES0103 TN/TC", "preferredTerm": "CDISC Questionnaire Combat Exposure Scale CES0103 Standardized Character Response Terminology", "submissionValue": "CES0103STR", "synonyms": ["Combat Exposure Scale Questionnaire STRESC for CES0103 TN/TC"], "terms": [{"conceptId": "C180296", "definition": "Combat Exposure Scale standardized character result for CES0103-No.", "preferredTerm": "Combat Exposure Scale CES0103 Standardized Character Result 1", "submissionValue": "1", "synonyms": ["CES0103-1"]}, {"conceptId": "C180297", "definition": "Combat Exposure Scale standardized character result for CES0103-1-2 times.", "preferredTerm": "Combat Exposure Scale CES0103 Standardized Character Result 2", "submissionValue": "2", "synonyms": ["CES0103-2"]}, {"conceptId": "C180298", "definition": "Combat Exposure Scale standardized character result for CES0103-3-12 times.", "preferredTerm": "Combat Exposure Scale CES0103 Standardized Character Result 3", "submissionValue": "3", "synonyms": ["CES0103-3"]}, {"conceptId": "C180299", "definition": "Combat Exposure Scale standardized character result for CES0103-13-25 times.", "preferredTerm": "Combat Exposure Scale CES0103 Standardized Character Result 4", "submissionValue": "4", "synonyms": ["CES0103-4"]}, {"conceptId": "C180300", "definition": "Combat Exposure Scale standardized character result for CES0103-26+times.", "preferredTerm": "Combat Exposure Scale CES0103 Standardized Character Result 5", "submissionValue": "5", "synonyms": ["CES0103-5"]}]}