{"_links": {"parentPackage": {"href": "/mdr/ct/packages/sdtmct-2023-03-31", "title": "SDTM Controlled Terminology Package 53 Effective 2023-03-31", "type": "Terminology"}, "priorVersion": {"href": "/mdr/ct/packages/sdtmct-2022-12-16/codelists/C179945", "title": "CDISC Questionnaire Combat Exposure Scale CES0101 Original Response Terminology", "type": "Code List"}, "rootItem": {"href": "/mdr/root/ct/sdtmct/codelists/C179945", "title": "Version-agnostic anchor resource for codelist C179945", "type": "Root Value Domain"}, "self": {"href": "/mdr/ct/packages/sdtmct-2023-03-31/codelists/C179945", "title": "CDISC Questionnaire Combat Exposure Scale CES0101 Original Response Terminology", "type": "Code List"}}, "conceptId": "C179945", "definition": "Combat Exposure Scale original result for CES0101 test and test code.", "extensible": "false", "name": "Combat Exposure Scale Questionnaire ORRES for CES0101 TN/TC", "preferredTerm": "CDISC Questionnaire Combat Exposure Scale CES0101 Original Response Terminology", "submissionValue": "CES0101OR", "synonyms": ["Combat Exposure Scale Questionnaire ORRES for CES0101 TN/TC"], "terms": [{"conceptId": "C180262", "definition": "Combat Exposure Scale original result for CES0101-1-3 times.", "preferredTerm": "Combat Exposure Scale CES0101 Original Result - 1-3 Times", "submissionValue": "1-3 times", "synonyms": ["CES0101-1-3 times"]}, {"conceptId": "C180264", "definition": "Combat Exposure Scale original result for CES0101-13-50 times.", "preferredTerm": "Combat Exposure Scale CES0101 Original Result - 13-50 Times", "submissionValue": "13-50 times", "synonyms": ["CES0101-13-50 times"]}, {"conceptId": "C180263", "definition": "Combat Exposure Scale original result for CES0101-4-12 times.", "preferredTerm": "Combat Exposure Scale CES0101 Original Result - 4-12 Times", "submissionValue": "4-12 times", "synonyms": ["CES0101-4-12 times"]}, {"conceptId": "C180265", "definition": "Combat Exposure Scale original result for CES0101-51+times.", "preferredTerm": "Combat Exposure Scale CES0101 Original Result - 51+ Times", "submissionValue": "51+ times", "synonyms": ["CES0101-51+times"]}, {"conceptId": "C180261", "definition": "Combat Exposure Scale original result for CES0101-No.", "preferredTerm": "Combat Exposure Scale CES0101 Original Result - No", "submissionValue": "No", "synonyms": ["CES0101-No"]}]}