{"_links": {"parentPackage": {"href": "/mdr/ct/packages/sdtmct-2023-03-31", "title": "SDTM Controlled Terminology Package 53 Effective 2023-03-31", "type": "Terminology"}, "priorVersion": {"href": "/mdr/ct/packages/sdtmct-2022-12-16/codelists/C181169", "title": "CDISC SDTM Binding Agent for Immunogenicity Tests Terminology", "type": "Code List"}, "rootItem": {"href": "/mdr/root/ct/sdtmct/codelists/C181169", "title": "Version-agnostic anchor resource for codelist C181169", "type": "Root Value Domain"}, "self": {"href": "/mdr/ct/packages/sdtmct-2023-03-31/codelists/C181169", "title": "CDISC SDTM Binding Agent for Immunogenicity Tests Terminology", "type": "Code List"}}, "conceptId": "C181169", "definition": "A terminology codelist relevant to the description of the agent that is binding to the entity in the ISTEST variable.", "extensible": "true", "name": "Binding Agent for Immunogenicity Tests", "preferredTerm": "CDISC SDTM Binding Agent for Immunogenicity Tests Terminology", "submissionValue": "ISBDAGT", "synonyms": ["Binding Agent for Immunogenicity Tests"], "terms": [{"conceptId": "C189452", "definition": "Antigen(s) from the species Periplaneta americana (American cockroach) that are considered as insect allergen(s).", "preferredTerm": "Periplaneta americana Antigen", "submissionValue": "AMERICAN COCKROACH ANTIGEN", "synonyms": ["Periplaneta americana Antigen"]}, {"conceptId": "C189458", "definition": "Antigen(s) from the species Dermatophagoides farinae (American house dust mite) that are considered as insect allergen(s).", "preferredTerm": "Dermatophagoides farinae Antigen", "submissionValue": "AMERICAN HOUSE DUST MITE ANTIGEN", "synonyms": ["Dermatophagoides farinae Antigen"]}, {"conceptId": "C181357", "definition": "Antigen(s) from a mix of animals that are considered as animal allergen(s).", "preferredTerm": "Animal Mix Antigens", "submissionValue": "ANIMAL MIX ANTIGENS"}, {"conceptId": "C106602", "definition": "An antigen encoded by the BPI gene and an endogenous antibiotic, cytotoxic protein in the innate immune system. It can be considered as an autoantigen and is commonly associated with the autoimmune diseases inflammatory bowel disease, systemic lupus erythematosus and rheumatoid arthritis.", "preferredTerm": "Bactericidal Permeability-Increasing Protein", "submissionValue": "BACTERICIDAL PERMEABILITY-INCREASING PROTEIN", "synonyms": ["Bactericidal/Permeability-Increasing Protein", "BPI", "RBPI"]}, {"conceptId": "C189454", "definition": "Antigen(s) in the Hymenoptera venom from a mix of bees that are considered as insect allergen(s).", "preferredTerm": "Multiple Bee Mix Hymenoptera venom Antigens", "submissionValue": "BEE MIX VENOM ANTIGENS"}, {"conceptId": "C189477", "definition": "Antigen(s) in the pollen of the species Cynodon dactylon (Bermuda grass) that are considered as plant allergen(s).", "preferredTerm": "Cynodon dactylon Pollen Antigen", "submissionValue": "BERMUDA GRASS POLLEN", "synonyms": ["Cynodon dactylon Pollen Antigen"]}, {"conceptId": "C142155", "definition": "An antigen of the cardiolipin-binding protein encoded by the APOH gene. It can be considered as an autoantigen and is commonly associated with the autoimmune diseases antiphospholipid syndrome and systemic rheumatic diseases like systemic lupus erythematosus.", "preferredTerm": "Beta-2-Glycoprotein 1", "submissionValue": "BETA-2 GLYCOPROTEIN 1", "synonyms": ["Apo-H", "Apolipoprotein H", "B2GPI", "Beta-2-Glycoprotein I"]}, {"conceptId": "C187753", "definition": "The approximately 220-250 kDa cell surface, adhesin protein and the virulence factor for Bordetella pertussis.", "preferredTerm": "Bordetella pertussis Filamentous Hemagglutinin", "submissionValue": "BORDETELLA PERTUSSIS FILAMENTOUS HEMAGGLUTININ", "synonyms": ["Bordetella pertussis FHA"]}, {"conceptId": "C187754", "definition": "A mixture of fimbriae antigens from Bordetella pertussis.", "preferredTerm": "Bordetella pertussis Fimbriae Antigens", "submissionValue": "BORDETELLA PERTUSSIS FIMBRIAE ANTIGENS"}, {"conceptId": "C77699", "definition": "The approximately 69 kDa cell surface, autotransporter protein and the virulence factor for Bordetella pertussis.", "preferredTerm": "Bordetella pertussis Pertactin Antigen", "submissionValue": "BORDETELLA PERTUSSIS PERTACTIN", "synonyms": ["PRN"]}, {"conceptId": "C187755", "definition": "The approximately 105 kDa secreted exotoxin and the virulence factor for Bordetella pertussis.", "preferredTerm": "Bordetella pertussis Toxin", "submissionValue": "BORDETELLA PERTUSSIS TOXIN", "synonyms": ["PT"]}, {"conceptId": "C189455", "definition": "Antigen(s) in the pollen of the species Acer negundo (box elder tree) that are considered as plant allergen(s).", "preferredTerm": "Acer negundo Pollen Antigen", "submissionValue": "BOX ELDER POLLEN", "synonyms": ["Acer negundo Pollen Antigen", "Boxelder Pollen Antigen"]}, {"conceptId": "C198263", "definition": "An antigen of the diphosphatidylglycerol lipid found uniquely in the inner membrane of mitochondria. It can be considered as an autoantigen and is commonly associated with the autoimmune diseases antiphospholipid syndrome and systemic rheumatic diseases.", "preferredTerm": "Cardiolipin", "submissionValue": "CARDIOLIPIN"}, {"conceptId": "C189478", "definition": "Antigen(s) from the seed of the species Anacardium occidentale (cashew nut) that are considered as food allergen(s).", "preferredTerm": "Anacardium occidentale Nut Antigen", "submissionValue": "CASHEW NUT ANTIGEN", "synonyms": ["Anacardium occidentale Nut Antigen", "Cashew Nut Antigen"]}, {"conceptId": "C181359", "definition": "Antigen(s) in the dander (skin flakes) of the species Felis catus (domestic cat) that are considered as animal allergen(s).", "preferredTerm": "Cat Dander Antigen", "submissionValue": "CAT DANDER ANTIGEN", "synonyms": ["Domestic Cat Dander Antigen", "Felis catus Dander Antigen"]}, {"conceptId": "C16389", "definition": "Antigen(s) of the lysosomal proteinase or endopeptidase family and are encoded by the CTS gene. They can be considered as autoantigens and are commonly associated with systemic vasculitis, inflammatory rheumatic diseases, autoimmune hepatitis, and chronic inflammatory bowel diseases.", "preferredTerm": "Cathepsin", "submissionValue": "CATHEPSIN"}, {"conceptId": "C181695", "definition": "An antigen of the centromere protein encoded by the CENPB gene, with a designation of B. It can be considered as an autoantigen and is commonly associated with the autoimmune disease CREST syndrome.", "preferredTerm": "Major Centromere Autoantigen B", "submissionValue": "CENTROMERE B", "synonyms": ["CENP-B", "Centromere Protein B", "Major Centromere Autoantigen B"]}, {"conceptId": "C193254", "definition": "Antigen(s) of the centromere protein family and are encoded by the CENP gene. They can be considered as autoantigens and are commonly associated with the autoimmune diseases Sjogren's syndrome, systemic sclerosis, and CREST syndrome.", "preferredTerm": "Centromere Protein", "submissionValue": "CENTROMERE", "synonyms": ["Centromere Protein"]}, {"conceptId": "C189466", "definition": "Antigen(s) from a mix of workplace or household chemicals that are considered as allergen(s).", "preferredTerm": "Multiple Chemical Mix Antigens", "submissionValue": "CHEMICAL MIX ANTIGENS"}, {"conceptId": "C187757", "definition": "The approximately 150 kDa secreted protein toxin and the virulence factor for Clostridium tetani.", "preferredTerm": "Clostridium tetani Toxin", "submissionValue": "CLOSTRIDIUM TETANI TOXIN", "synonyms": ["TeNT", "Tetanospasmin", "Tetanus Toxin"]}, {"conceptId": "C187758", "definition": "The purified and detoxified form of the Clostridium tetani toxin. Toxicity of this toxin is suppressed or inactivated either by heat or with formaldehyde.", "preferredTerm": "Clostridium tetani Toxoid", "submissionValue": "CLOSTRIDIUM TETANI TOXOID"}, {"conceptId": "C189456", "definition": "Antigen(s) in the pollen of the species Ambrosia artemisiifolia (common ragweed) that are considered as plant allergen(s).", "preferredTerm": "Ambrosia elatior Pollen Antigen", "submissionValue": "COMMON RAGWEED POLLEN", "synonyms": ["Ambrosia artemisiifolia Pollen Antigen", "Ambrosia elatior Pollen Antigen", "Short Ragweed Pollen Antigen"]}, {"conceptId": "C193256", "definition": "An antigen of the \"q\" subcomponent of the C1 complement protein complex. It can be considered as an autoantigen and is commonly associated with the autoimmune diseases systemic lupus erythematosus and severe rheumatoid arthritis.", "preferredTerm": "Complement Component C1q", "submissionValue": "COMPLEMENT C1Q"}, {"conceptId": "C154099", "definition": "An antigen of the cleaved \"d\" fragment of the C3 complement protein. It can be considered as an autoantigen and is commonly associated with the autoimmune disease systemic lupus erythematosus.", "preferredTerm": "Complement C3d", "submissionValue": "COMPLEMENT C3D"}, {"conceptId": "C189476", "definition": "Antigen(s) from the fruit (i.e. kernel/maize) of the species Zea mays (corn) that are considered as food allergen(s).", "preferredTerm": "Zea mays Antigen", "submissionValue": "CORN ANTIGEN", "synonyms": ["Maize Antigen", "Zea mays Antigen"]}, {"conceptId": "C189480", "definition": "Antigen(s) from the fruit of the species Corylus avellana (common hazel) that are considered as food allergen(s).", "preferredTerm": "Corylus Avellana Nut Antigen", "submissionValue": "CORYLUS AVELLANA NUT ANTIGEN", "synonyms": ["Common Hazel Nut Antigen", "Common Hazelnut Antigen", "European Hazel Nut Antigen"]}, {"conceptId": "C187759", "definition": "The purified and detoxified form of the Corynebacterium diphtheriae toxin. Toxicity of this toxin is suppressed or inactivated either by heat or with formaldehyde.", "preferredTerm": "Corynebacterium diphtheriae Toxoid", "submissionValue": "CORYNEBACTERIUM DIPHTHERIAE TOXOID"}, {"conceptId": "C181361", "definition": "Antigen(s) in the dander (skin flakes) of the species Bos taurus (cow) that are considered as animal allergen(s).", "preferredTerm": "Cow Dander Antigen", "submissionValue": "COW DANDER ANTIGEN", "synonyms": ["Bos taurus Dander Antigen", "Cattle Dander Antigen"]}, {"conceptId": "C189457", "definition": "Antigen(s) from the milk produced by a cow that are considered as food allergen(s).", "preferredTerm": "Cow Milk Antigen", "submissionValue": "COW MILK ANTIGEN"}, {"conceptId": "C198264", "definition": "An antigen of the citrulline-containing peptide with a cyclic structure. It can be considered as an autoantigen and is commonly associated with the autoimmune disease rheumatoid arthritis.", "preferredTerm": "Cyclic Citrullinated Peptide", "submissionValue": "CYCLIC CITRULLINATED PEPTIDE", "synonyms": ["CCP"]}, {"conceptId": "C189460", "definition": "Antigen(s) in the mix of foods made from mammalian milk that are considered as food allergen(s).", "preferredTerm": "Multiple Dairy Mix Antigens", "submissionValue": "DAIRY MIX ANTIGENS"}, {"conceptId": "C187763", "definition": "The B subtype of nuclease produced by group A beta-hemolytic streptococci.", "preferredTerm": "Group A Streptococcus Deoxyribonuclease-B", "submissionValue": "DEOXYRIBONUCLEASE-B", "synonyms": ["DNase B", "Group A Streptococcus Deoxyribonuclease-B"]}, {"conceptId": "C177652", "definition": "An antigen of the cell-cell adhesion protein encoded by the DSG1 gene. It can be considered as an autoantigen and is commonly associated with autoimmune diseases pemphigus foliaceus and pemphigus vulgaris.", "preferredTerm": "Desmoglein-1", "submissionValue": "DESMOGLEIN 1"}, {"conceptId": "C101150", "definition": "An antigen of the cell-cell adhesion protein encoded by the DSG3 gene. It can be considered as an autoantigen and is commonly associated with autoimmune disease pemphigus vulgaris.", "preferredTerm": "Desmoglein-3", "submissionValue": "DESMOGLEIN 3"}, {"conceptId": "C181358", "definition": "Antigen(s) in the dander (skin flakes) of the species Canis lupus familiaris (dog) that are considered as animal allergen(s).", "preferredTerm": "Dog Dander Antigen", "submissionValue": "DOG DANDER ANTIGEN", "synonyms": ["Canis familiaris Dander Antigen", "Canis lupus familiaris Dander Antigen"]}, {"conceptId": "C189461", "definition": "Antigen(s) from the clear and liquid substance around the yolk of an egg that are considered as food allergen(s).", "preferredTerm": "Egg White Antigen", "submissionValue": "EGG WHITE ANTIGEN"}, {"conceptId": "C189479", "definition": "Antigen(s) in the pollen of the species Plantago lanceolata (English plantain) that are considered as plant allergen(s).", "preferredTerm": "Plantago lanceolata Pollen Antigen", "submissionValue": "ENGLISH PLANTAIN POLLEN", "synonyms": ["Plantago lanceolata Pollen Antigen"]}, {"conceptId": "C187761", "definition": "The approximately 110 kDa structural protein that forms the nucleocapsid of the Epstein-Barr virus.", "preferredTerm": "Epstein-Barr Virus Capsid Antigen", "submissionValue": "EPSTEIN-BARR VIRUS CAPSID ANTIGEN", "synonyms": ["EBV-VCA"]}, {"conceptId": "C187762", "definition": "The approximately 46-55 kDa lytic protein from the Epstein-Barr virus and is the diffuse component of the Epstein-Barr virus-induced early antigen (EA) complex.", "preferredTerm": "Epstein-Barr Virus Early Antigen Diffuse Component", "submissionValue": "EPSTEIN-BARR VIRUS EARLY D ANTIGEN", "synonyms": ["EBV EA-D", "Epstein-Barr Virus Early Antigen Diffuse Component", "Epstein-Barr Virus Early Antigen-Diffuse"]}, {"conceptId": "C128296", "definition": "The approximately 66 kDa DNA-binding protein with a designation nuclear antigen 1, from the 6 nuclear antigens produced by the Epstein-Barr virus.", "preferredTerm": "Epstein-Barr Nuclear Antigen 1", "submissionValue": "EPSTEIN-BARR VIRUS NUCLEAR ANTIGEN 1", "synonyms": ["EBNA1", "EBV Nuclear Antigen 1"]}, {"conceptId": "C187760", "definition": "One or more proteins from the 6 nuclear antigens (EBNA 1, 2, 3, 4, 5 and/or 6) produced by the Epstein-Barr virus.", "preferredTerm": "Epstein-Barr Nuclear Antigen", "submissionValue": "EPSTEIN-BARR VIRUS NUCLEAR ANTIGEN", "synonyms": ["EBNA"]}, {"conceptId": "C189459", "definition": "Antigen(s) from the species Dermatophagoides pteronyssinus (European house dust mite) that are considered as insect allergen(s).", "preferredTerm": "Dermatophagoides pteronyssinus Antigen", "submissionValue": "EUROPEAN HOUSE DUST MITE ANTIGEN", "synonyms": ["Dermatophagoides pteronyssinus Antigen"]}, {"conceptId": "C198225", "definition": "A group of autoimmune substances found in the nucleus of a cell which can be extracted from the saline soluble fraction of cells, and may be comprised of (but not limited to) ribonucleoproteins, Smith antigens, Sjogren's antigens, Scl-70 and/or Jo-1 antigens.", "preferredTerm": "Extractable Nuclear Autoantigen", "submissionValue": "EXTRACTABLE NUCLEAR AUTOANTIGENS", "synonyms": ["ENAs", "Extractable Nuclear Antigens", "Saline-extracted Nuclear Antigens"]}, {"conceptId": "C189462", "definition": "Antigen(s) from the species Blattella germanica (German cockroach) that are considered as insect allergen(s).", "preferredTerm": "Blattella germanica Antigen", "submissionValue": "GERMAN COCKROACH ANTIGEN", "synonyms": ["Blattella germanica Antigen"]}, {"conceptId": "C189463", "definition": "An antigen and alcohol-soluble fraction of gluten from wheat and other grains that is considered as a food allergen.", "preferredTerm": "Gliadin Antigen", "submissionValue": "GLIADIN ANTIGEN"}, {"conceptId": "C185680", "definition": "An antigen of the 67 kDa isoform of GAD which is encoded by the GAD1 gene. It can be considered as an autoantigen and is commonly associated with the autoimmune disease type 1 diabetes.", "preferredTerm": "Glutamate Decarboxylase 1", "submissionValue": "GLUTAMIC ACID DECARBOXYLASE 1", "synonyms": ["GAD67", "Glutamate decarboxylase 67", "Glutamic Acid Decarboxylase 67"]}, {"conceptId": "C185683", "definition": "An antigen of the 65 kDa isoform of GAD which is encoded by the GAD2 gene. It can be considered as an autoantigen and is commonly associated with the autoimmune disease type 1 diabetes.", "preferredTerm": "Glutamate Decarboxylase 2", "submissionValue": "GLUTAMIC ACID DECARBOXYLASE 2", "synonyms": ["GAD65", "Glutamate decarboxylase 65", "Glutamic Acid Decarboxylase 65"]}, {"conceptId": "C193255", "definition": "Any antigen(s) encoded by the GAD gene that catalyze the decarboxylation of glutamate to GABA. They can be considered as autoantigens and are commonly associated with the autoimmune diseases type 1 diabetes, autoimmune polyendocrine syndrome types 1 and 2, and stiff man syndrome.", "preferredTerm": "Glutamate Decarboxylase", "submissionValue": "GLUTAMIC ACID DECARBOXYLASE", "synonyms": ["GAD"]}, {"conceptId": "C189465", "definition": "Antigen(s) in the pollens of a mix of grasses that are considered as plant allergen(s).", "preferredTerm": "Multiple Grass Mix Pollen Antigens", "submissionValue": "GRASS MIX POLLENS"}, {"conceptId": "C187764", "definition": "The approximately 21.5 kDa structural protein that forms the nucleocapsid of the Hepatitis B virus.", "preferredTerm": "Hepatitis B Virus Capsid Antigen", "submissionValue": "HEPATITIS B VIRUS CORE ANTIGEN", "synonyms": ["HBcAg", "Hepatitis B Virus Capsid Antigen"]}, {"conceptId": "C187765", "definition": "The approximately 16-18 kDa nonstructural tolerogen that forms in-between the nucleocapsid and the lipid envelope of, and is secreted by the Hepatitis B virus.", "preferredTerm": "Hepatitis B Virus Early Antigen", "submissionValue": "HEPATITIS B VIRUS E ANTIGEN", "synonyms": ["HBeAg", "Hepatitis B Virus Early Antigen"]}, {"conceptId": "C62786", "definition": "One or more of the three structural surface proteins, small, HBsAg S (26 kDa); middle, HBsAg M (33 kDa); and large, HBsAg L (41 kDa), that form the hepatitis B viral lipid envelope.", "preferredTerm": "Hepatitis B Virus HBsAg Surface Protein Antigen", "submissionValue": "HEPATITIS B VIRUS SURFACE ANTIGEN", "synonyms": ["HBsAg"]}, {"conceptId": "C187772", "definition": "A mixture of different species (or below the species level classifications) of the herpes simplex viruses.", "preferredTerm": "Mixed Herpes Simplex Viruses", "submissionValue": "HERPES SIMPLEX VIRUSES"}, {"conceptId": "C16683", "definition": "An antigen in the core histone family and a subunit of the nucleosome complex, with a designation of H1. It can be considered as an autoantigen and is commonly associated with the autoimmune diseases systemic lupus erythematosus and rheumatoid arthritis.", "preferredTerm": "Histone H1", "submissionValue": "HISTONE H1"}, {"conceptId": "C16684", "definition": "An antigen in the core histone family and a subunit of the nucleosome complex, with a designation of H2A. It can be considered as an autoantigen and is commonly associated with the autoimmune diseases systemic lupus erythematosus and rheumatoid arthritis.", "preferredTerm": "Histone H2A", "submissionValue": "HISTONE H2A"}, {"conceptId": "C17460", "definition": "An antigen in the core histone family and a subunit of the nucleosome complex, with a designation of H2B. It can be considered as an autoantigen and is commonly associated with the autoimmune diseases systemic lupus erythematosus and rheumatoid arthritis.", "preferredTerm": "Histone H2B", "submissionValue": "HISTONE H2B"}, {"conceptId": "C16685", "definition": "An antigen in the core histone family and a subunit of the nucleosome complex, with a designation of H3. It can be considered as an autoantigen and is commonly associated with the autoimmune diseases systemic lupus erythematosus and rheumatoid arthritis.", "preferredTerm": "Histone H3", "submissionValue": "HISTONE H3"}, {"conceptId": "C16686", "definition": "An antigen in the core histone family and a subunit of the nucleosome complex, with a designation of H4. It can be considered as an autoantigen and is commonly associated with the autoimmune diseases systemic lupus erythematosus and rheumatoid arthritis.", "preferredTerm": "Histone H4", "submissionValue": "HISTONE H4"}, {"conceptId": "C16687", "definition": "Any antigen(s) of the histone nuclear protein family. They can be considered as autoantigens and are commonly associated with the autoimmune diseases systemic lupus erythematosus and rheumatoid arthritis.", "preferredTerm": "Histone", "submissionValue": "HISTONE"}, {"conceptId": "C187773", "definition": "A mixture of different species (or below the species level classifications) of the human immunodeficiency viruses.", "preferredTerm": "Mixed Human Immunodeficiency Viruses", "submissionValue": "HIV VIRUSES"}, {"conceptId": "C187766", "definition": "The approximately 160 kDa envelope glycoprotein from the human immunodeficiency virus 1. This precursor protein is further cleaved into the gp120 and gp41 proteins.", "preferredTerm": "HIV-1 gp160", "submissionValue": "HIV-1 GP160"}, {"conceptId": "C187767", "definition": "The approximately 41 kDa transmembrane, envelope glycoprotein from the human immunodeficiency virus 1. This transmembrane protein is cleaved from the precursor GP160 protein.", "preferredTerm": "HIV-1 gp41", "submissionValue": "HIV-1 GP41"}, {"conceptId": "C187768", "definition": "The approximately 24 kDa structural protein that forms the nucleocapsid of the human immunodeficiency virus 1.", "preferredTerm": "HIV-1 p24", "submissionValue": "HIV-1 P24", "synonyms": ["HIV-1 P24 Capsid Protein"]}, {"conceptId": "C187769", "definition": "The approximately 31 kDa integrase from the human immunodeficiency virus 1.", "preferredTerm": "HIV-1 p31", "submissionValue": "HIV-1 P31", "synonyms": ["HIV-1 IN"]}, {"conceptId": "C187770", "definition": "The approximately 140 kDa envelope glycoprotein from the human immunodeficiency virus 2.", "preferredTerm": "HIV-2 gp140", "submissionValue": "HIV-2 GP140"}, {"conceptId": "C187771", "definition": "The approximately 36 kDa transmembrane, envelope glycoprotein from the human immunodeficiency virus 2.", "preferredTerm": "HIV-2 gp36", "submissionValue": "HIV-2 GP36"}, {"conceptId": "C181360", "definition": "Antigen(s) in the dander (skin flakes) of the species Equus caballus (domestic horse) that are considered as animal allergen(s).", "preferredTerm": "Horse Dander Antigen", "submissionValue": "HORSE DANDER ANTIGEN", "synonyms": ["Domestic Horse Dander Antigen", "Equus caballus Dander Antigen"]}, {"conceptId": "C187774", "definition": "A mixture of different species (or below the species level classifications) of the human T-cell lymphotropic viruses.", "preferredTerm": "Mixed Human T-cell Lymphotropic Viruses", "submissionValue": "HTLV VIRUSES"}, {"conceptId": "C65218", "definition": "An antigen of plasma protein and encoded by the ALB gene. It can be considered as an autoantigen and is commonly associated with the autoimmune diseases systemic lupus erythematosus and type 1 diabetes.", "preferredTerm": "Albumin (Human)", "submissionValue": "HUMAN ALBUMIN", "synonyms": ["HAS", "Human Serum Albumin"]}, {"conceptId": "C148305", "definition": "An antigen encoded by the INSM2 gene and regulates insulin secretion. It can be considered as an autoantigen and is commonly associated with the autoimmune disease type 1 diabetes.", "preferredTerm": "Insulinoma-Associated Protein 2", "submissionValue": "INSULINOMA-ASSOCIATED PROTEIN 2", "synonyms": ["IA-2", "INSM2", "Zinc Finger Protein IA-6"]}, {"conceptId": "C148308", "definition": "An antigen encoded by the PTPRN gene and regulates insulin secretion. It can be considered as an autoantigen and is commonly associated with the autoimmune disease type 1 diabetes.", "preferredTerm": "Receptor-Type Tyrosine-Protein Phosphatase-Like N", "submissionValue": "ISLET CELL ANTIGEN 512", "synonyms": ["IA-2", "ICA512", "Islet Antigen 2", "Islet Cell Autoantigen 3", "PTP-IA2", "Receptor-type Tyrosine-protein Phosphatase-like N"]}, {"conceptId": "C198226", "definition": "A group of autoimmune substances found in the pancreatic islet beta cells. They are commonly associated with the autoimmune disease type 1 diabetes.", "preferredTerm": "Islet Cell Autoantigen", "submissionValue": "ISLET CELL AUTOANTIGENS", "synonyms": ["Islet Autoantigens"]}, {"conceptId": "C198265", "definition": "A group of autoimmune substances found in the cytoplasm of pancreatic islet cells that are the target of autoantibodies. They are commonly associated with the autoimmune disease type 1 diabetes.", "preferredTerm": "Islet Cell Cytoplasmic Autoantigen", "submissionValue": "ISLET CELL CYTOPLASMIC AUTOANTIGENS"}, {"conceptId": "C183518", "definition": "An antigen encoded by the HARS1 gene that regulates histidyl-transfer RNA synthesis. It can be considered as an autoantigen and is commonly associated with the autoimmune diseases anti-synthetase syndrome, polymyositis and dermatomyositis.", "preferredTerm": "Histidine-tRNA Ligase, Cytoplasmic", "submissionValue": "JO-1 ANTIGEN", "synonyms": ["Histidine tRNA Ligase 1, Cytoplasmic", "Histidyl-tRNA Synthetase 1"]}, {"conceptId": "C189481", "definition": "Antigen(s) in the pollen of the species Sorghum halepense (Johnson grass) that are considered as plant allergen(s).", "preferredTerm": "Sorghum halepense Pollen Antigen", "submissionValue": "JOHNSON GRASS POLLEN", "synonyms": ["Sorghum halepense Pollen", "Sorghum halepense Pollen Antigen"]}, {"conceptId": "C189467", "definition": "An antigen found in the hemolymph of the species Megathura crenulata (giant keyhole limpet) that is also considered as a food allergen.", "preferredTerm": "Megathura crenulata Hemocyanin Antigen", "submissionValue": "KEYHOLE LIMPET HEMOCYANIN", "synonyms": ["KLH", "Megathura crenulata Hemocyanin"]}, {"conceptId": "C94665", "definition": "An antigen encoded by the LTF gene that binds to iron and has antimicrobial function. It can be considered as an autoantigen and is commonly associated with the autoimmune diseases rheumatoid vasculitis and arthritis, systemic lupus erythematosus, ulcerative colitis, and Crohn's disease.", "preferredTerm": "Lactotransferrin", "submissionValue": "LACTOFERRIN", "synonyms": ["Lactotransferrin"]}, {"conceptId": "C17287", "definition": "An antigen in the cytochrome P450 mixed-function oxidase system and is encoded by the CYP2D6 gene, it is a major drug metabolizing enzyme. It can be considered as an autoantigen and is commonly associated with the autoimmune hepatitis.", "preferredTerm": "Cytochrome P450 2D6", "submissionValue": "LIVER KIDNEY MICROSOMAL TYPE 1 ANTIGEN", "synonyms": ["CYP2D6", "Cytochrome P450 2D6", "Liver Kidney Microsomal 1 Antigen"]}, {"conceptId": "C198227", "definition": "A group of autoimmune, multienzyme complexes found within the inner and outer lining of the mitochondria that may be comprised of (but not limited to) M1 through M9 antigens. They are commonly associated with autoimmune hepatitis and primary biliary cholangitis/cirrhosis.", "preferredTerm": "Mitochondrial Autoantigen", "submissionValue": "MITOCHONDRIAL AUTOANTIGENS"}, {"conceptId": "C198266", "definition": "Antigen(s) of the inner mitochondrial membrane proteins, with a designation of M2, and may be comprised of (but not limited to) protein X, the E2 component, E1a and E1b subunits of the pyruvate dehydrogenase complex (PDC). They can be considered as autoantigens and are commonly associated with autoimmune hepatitis and primary biliary cholangitis/cirrhosis.", "preferredTerm": "Mitochondrial M2 Antigen", "submissionValue": "MITOCHONDRIAL M2", "synonyms": ["Mitochondrial Antigen M2", "Mitochondrial Autoantigen M2"]}, {"conceptId": "C189482", "definition": "Antigen(s) from a mix of types of sources that are considered as allergen(s).", "preferredTerm": "Multiple Mixed Antigens", "submissionValue": "MIXED ANTIGENS"}, {"conceptId": "C189468", "definition": "Antigen(s) from a mix of molds that are considered as allergen(s).", "preferredTerm": "Multiple Mold Mix Antigens", "submissionValue": "MOLD MIX ANTIGENS"}, {"conceptId": "C71145", "definition": "An antigen encoded by the MPO gene that regulates innate immunity through hypohalous acids production. It can be considered as an autoantigen and is commonly associated with autoimmune systemic vasculitis diseases, cystic fibrosis, COPD and other inflammatory conditions.", "preferredTerm": "Myeloperoxidase", "submissionValue": "MYELOPEROXIDASE", "synonyms": ["MPO"]}, {"conceptId": "C181353", "definition": "A group of autoimmune substances found in the nucleus of a cell that are the target of autoantibodies.", "preferredTerm": "Nuclear Autoantigen", "submissionValue": "NUCLEAR AUTOANTIGENS"}, {"conceptId": "C13268", "definition": "Antigen(s) of DNA packaging complexes comprising of a strand of DNA winding around a protein core and an octamer of histones. They can be considered as autoantigens and are commonly and mainly associated with the autoimmune disease systemic lupus erythematosus.", "preferredTerm": "Nucleosome", "submissionValue": "NUCLEOSOME"}, {"conceptId": "C189469", "definition": "Antigen(s) from a mix of edible nuts that are considered as food allergen(s).", "preferredTerm": "Multiple Nut Mix Antigens", "submissionValue": "NUT MIX ANTIGENS"}, {"conceptId": "C189483", "definition": "Antigen(s) in the pollen of the species Olea europaea (olive tree) that are considered as plant allergen(s).", "preferredTerm": "Olea europaea Pollen Antigen", "submissionValue": "OLIVE TREE POLLEN", "synonyms": ["Common Olive Pollen Antigen", "Olea europaea Pollen Antigen"]}, {"conceptId": "C189484", "definition": "Antigen(s) in the pollen of the species Dactylis glomerata (orchard grass) that are considered as plant allergen(s).", "preferredTerm": "Dactylis glomerata Pollen Antigen", "submissionValue": "ORCHARD GRASS POLLEN", "synonyms": ["Cocksfoot Grass Pollen Antigen", "Dactylis glomerata Pollen Antigen"]}, {"conceptId": "C198267", "definition": "An antigen of low density lipoprotein cholesterol that is also oxidized. It can be considered as an autoantigen and is commonly associated inflammatory and autoimmune conditions.", "preferredTerm": "Oxidized Low Density Lipoprotein Cholesterol", "submissionValue": "OXIDIZED LOW DENSITY LIPOPROTEIN CHOLESTEROL", "synonyms": ["Ox-LDL", "Oxidized LDL Cholesterol"]}, {"conceptId": "C189453", "definition": "Antigen(s) from the seed of the species Arachis hypogaea (peanut) that are considered as food allergen(s).", "preferredTerm": "Arachis hypogaea Antigen", "submissionValue": "PEANUT ANTIGEN", "synonyms": ["Arachis hypogaea Antigen"]}, {"conceptId": "C68417", "definition": "An antigen of the phospholipid containing serine in the inner cell membrane. It can be considered as an autoantigen and is commonly associated with the autoimmune diseases of antiphospholipid syndrome and systemic sclerosis.", "preferredTerm": "Phosphatidylserine", "submissionValue": "PHOSPHATIDYLSERINE"}, {"conceptId": "C70561", "definition": "Antigen(s) of the phosphate-containing lipids. They can be considered as autoantigens and are commonly and mainly associated with the autoimmune diseases antiphospholipid syndrome and systemic rheumatic diseases such as systemic lupus erythematosus.", "preferredTerm": "Phospholipid", "submissionValue": "PHOSPHOLIPID"}, {"conceptId": "C198268", "definition": "An antigen of the protein complex comprising of platelet factor 4 and heparin. It can be considered as an autoantigen and is commonly associated with the autoimmune disease heparin-induced thrombocytopenia.", "preferredTerm": "Platelet Factor 4-Heparin Complex", "submissionValue": "PLATELET FACTOR 4-HEPARIN COMPLEX", "synonyms": ["PF4-Heparin"]}, {"conceptId": "C17548", "definition": "An antigen encoded by the PRTN3 gene that regulates extracellular matrix protein proteolysis. It can be considered as an autoantigen and is commonly associated with the autoimmune systemic vasculitis disease, Wegener's granulomatosis.", "preferredTerm": "Myeloblastin", "submissionValue": "PROTEINASE 3", "synonyms": ["Myeloblastin", "PR3", "Wegener Granulomatosis Autoantigen"]}, {"conceptId": "C95949", "definition": "Antigen(s) of the ribonucleic acid and RNA-binding protein multienzyme complexes. They can be considered as autoantigens and are commonly associated with the autoimmune diseases mixed connective tissue disease, systemic rheumatic diseases, and progressive systemic sclerosis.", "preferredTerm": "Ribonucleoprotein", "submissionValue": "RIBONUCLEOPROTEIN", "synonyms": ["RNP"]}, {"conceptId": "C198269", "definition": "Antigen(s) of the three phosphoproteins, P0, P1 and P2 which are components of ribosomes. They can be considered as autoantigens and are commonly associated with the autoimmune disease systemic lupus erythematosus.", "preferredTerm": "Ribosomal P Protein", "submissionValue": "RIBOSOMAL P PROTEINS", "synonyms": ["Ribosomal-P"]}, {"conceptId": "C198270", "definition": "An antigen of the polymerase protein complex with a designation of III, that transcribes DNA into tRNA, rRNA and small RNAs. It can be considered as an autoantigen and is commonly associated with the autoimmune disease systemic sclerosis.", "preferredTerm": "RNA Polymerase III", "submissionValue": "RNA POLYMERASE III", "synonyms": ["Pol III", "RNAP III"]}, {"conceptId": "C189485", "definition": "Antigen(s) in the pollen of the species Kali turgidum (Russian thistle) that are considered as plant allergen(s).", "preferredTerm": "Kali turgidum Pollen Antigen", "submissionValue": "RUSSIAN THISTLE POLLEN", "synonyms": ["Common Saltwort Pollen Antigen", "Kali turgidum Pollen Antigen", "Salsola kali Pollen Antigen"]}, {"conceptId": "C181991", "definition": "The approximately 45.6 kDa structural protein that forms the nucleocapsid of the Severe Acute Respiratory Syndrome Coronavirus 2 virus (SARS-CoV-2).", "preferredTerm": "SARS-CoV-2 Nucleoprotein", "submissionValue": "SARS-COV-2 NUCLEOCAPSID PROTEIN", "synonyms": ["SARS-CoV-2 Nucleocapsid N Protein"]}, {"conceptId": "C178209", "definition": "The approximately 180-200 kDa transmembrane, receptor binding protein from the Severe Acute Respiratory Syndrome Coronavirus 2 virus (SARS-CoV-2).", "preferredTerm": "SARS-CoV-2 Spike Glycoprotein", "submissionValue": "SARS-COV-2 SPIKE PROTEIN", "synonyms": ["SARS-CoV-2 S Protein"]}, {"conceptId": "C16516", "definition": "An antigen of the nuclear enzyme topoisomerase 1 encoded by the TOP1 gene that relaxes coiled DNA. It can be considered as an autoantigen and is commonly associated with the autoimmune diseases systemic sclerosis and systemic lupus erythematosus.", "preferredTerm": "DNA Topoisomerase 1", "submissionValue": "SCL-70", "synonyms": ["DNA Topoisomerase I", "Scl-70 Antigen", "Scleroderma-70"]}, {"conceptId": "C189470", "definition": "Antigen(s) from any member(s) of the aquatic invertebrate animal having a shell and belonging to the phylum Mollusca, the class Crustacea (phylum Arthropoda), or the phylum Echinodermata that are considered as food allergen(s).", "preferredTerm": "Multiple Shellfish Mix Antigens", "submissionValue": "SHELLFISH MIX ANTIGENS"}, {"conceptId": "C189486", "definition": "Antigen(s) in the pollen of the species Betula pendula (silver birch tree) that are considered as plant allergen(s).", "preferredTerm": "Betula pendula Pollen Antigen", "submissionValue": "SILVER BIRCH POLLEN", "synonyms": ["Betula pendula Pollen Antigen", "Betula verrucosa Pollen Antigen", "European White Birch Pollen Antigen"]}, {"conceptId": "C198271", "definition": "Antigen(s) encoded by the Ro gene and are the Sjogren's type A antigens, SSA-52 and SSA-60. They can be considered as autoantigens and are commonly associated with the autoimmune disease Sjogren's Syndrome.", "preferredTerm": "Sjogrens SS-A Antigen", "submissionValue": "SJOGRENS SS-A ANTIGEN", "synonyms": ["Sjogren's Ro Antigen", "SSA"]}, {"conceptId": "C181355", "definition": "An autoantigen encoded by the Ro52 gene (also called the TRIM21 gene) and has a molecular weight of 52 kDa. It is associated with the autoimmune disease Sjogrens Syndrome.", "preferredTerm": "Sjogrens SS-A52 Antigen", "submissionValue": "SJOGRENS SS-A52 ANTIGEN", "synonyms": ["Ro52", "Sjogrens Ro 52kDa Antigen", "SSA-52"]}, {"conceptId": "C181354", "definition": "An autoantigen encoded by the Ro60 gene and has a molecular weight of 60 kDa. It is associated with the autoimmune disease Sjogrens Syndrome.", "preferredTerm": "Sjogrens SS-A60 Antigen", "submissionValue": "SJOGRENS SS-A60 ANTIGEN", "synonyms": ["Ro60", "Sjogrens Ro 60kDa Antigen", "SSA-60"]}, {"conceptId": "C181356", "definition": "An autoantigen encoded by the SSB gene. It is associated with the autoimmune disease Sjogrens Syndrome.", "preferredTerm": "Sjogrens SS-B Antigen", "submissionValue": "SJOGRENS SS-B ANTIGEN", "synonyms": ["Sjogrens La Antigen", "SSB"]}, {"conceptId": "C198272", "definition": "Antigen(s) of small nuclear ribonucleoprotein (snRNP) complexes family of U1, U2, U4, U5, and U6, which contains a single nuclear RNA (snRNA) molecule, the associated proteins, and the seven core Smith (Sm) proteins. They can be considered as autoantigens and are commonly associated with the autoimmune disease systemic lupus erythematosus.", "preferredTerm": "Smith/Ribonuclear Protein Complex Antigen", "submissionValue": "SMITH ANTIGEN RIBONUCLEOPROTEIN COMPLEX", "synonyms": ["Ribonucleoprotein Smith Complex", "Sm/RNP Complex"]}, {"conceptId": "C198273", "definition": "Antigen(s) of the extractable nuclear RNA-binding proteins that may be comprised of (but not limited to) Smith B, B', N, D1, D2, D3, E, F and G. They are commonly associated with the autoimmune disease systemic lupus erythematosus.", "preferredTerm": "Smith Antigen", "submissionValue": "SMITH ANTIGENS", "synonyms": ["Smith Autoantigens"]}, {"conceptId": "C198274", "definition": "A group of autoimmune substances found in the smooth muscles that may be comprised of (but not limited to) actin and non-actin cytoskeleton components such as vimentin, tubulin, and desmin. They are commonly associated with autoimmune hepatitis.", "preferredTerm": "Smooth Muscle Autoantigen", "submissionValue": "SMOOTH MUSCLE AUTOANTIGENS"}, {"conceptId": "C198275", "definition": "A soluble cytosolic liver antigen which is most frequently the 50 kDa UGA serine tRNA-associated protein complex (tRNP(Ser)Sec). It can be considered as an autoantigen and is commonly associated with type 1 and 2 autoimmune hepatitis.", "preferredTerm": "Soluble Liver Antigen", "submissionValue": "SOLUBLE LIVER ANTIGEN", "synonyms": ["SLA", "Soluble Liver Autoantigen"]}, {"conceptId": "C189464", "definition": "Antigen(s) from the seed of the species Glycine max (soybean) that are considered as food allergen(s).", "preferredTerm": "Glycine max Antigen", "submissionValue": "SOYBEAN ANTIGEN", "synonyms": ["Glycine max Antigen"]}, {"conceptId": "C187775", "definition": "The approximately 60 kDa protein that is an oxygen-labile exotoxin produced by beta-hemolytic streptococci.", "preferredTerm": "Streptococcal Toxin Streptolysin O", "submissionValue": "STREPTOLYSIN O", "synonyms": ["SLO", "Streptococcal Toxin Streptolysin O"]}, {"conceptId": "C16752", "definition": "An antigen encoded by the TPO gene that regulates thyroid hormones synthesis. It can be considered as an autoantigen and is commonly associated with autoimmune thyroid disease.", "preferredTerm": "Thyroid Peroxidase", "submissionValue": "THYROID PEROXIDASE", "synonyms": ["Thyroperoxidase", "TPO"]}, {"conceptId": "C189487", "definition": "Antigen(s) in the pollen of the species Phleum pratense (Timothy grass) that are considered as plant allergen(s).", "preferredTerm": "Phleum pratense Pollen Antigen", "submissionValue": "TIMOTHY GRASS POLLEN", "synonyms": ["Phleum pratense Pollen Antigen"]}, {"conceptId": "C186641", "definition": "An antigen of the transglutaminase enzyme family and catalyzes the crosslinking of proteins with a molecular weight of approximate 78 kDa. It can be considered as an autoantigen and is commonly associated with the autoimmune disease celiac disease.", "preferredTerm": "Protein-Glutamine Gamma-Glutamyltransferase 2", "submissionValue": "TISSUE TRANSGLUTAMINASE", "synonyms": ["TG2", "tTG"]}, {"conceptId": "C189471", "definition": "Antigen(s) in the pollens of a mix of trees that are considered as plant allergen(s).", "preferredTerm": "Multiple Tree Mix Pollen Antigens", "submissionValue": "TREE MIX POLLENS"}, {"conceptId": "C189472", "definition": "Antigen(s) from the species Triticum aestivum (common wheat) that are considered as food allergen(s).", "preferredTerm": "Triticum Aestivum Antigen", "submissionValue": "TRITICUM AESTIVUM ANTIGEN", "synonyms": ["Bread Wheat Antigen", "Common Wheat Antigen"]}, {"conceptId": "C189488", "definition": "Antigen(s) from the wheat species within the genus Triticum that are considered as food allergen(s).", "preferredTerm": "Triticum Species Antigen", "submissionValue": "TRITICUM SPECIES ANTIGEN"}, {"conceptId": "C198276", "definition": "An antigen of the U1 small nuclear ribonucleoprotein (snRNP) complex, which contains the U1-snRNA, the U1-associated proteins 70kDa-U1, U1A, U1C, and the seven core Smith (Sm) proteins. It can be considered as an autoantigen and is commonly associated with the autoimmune diseases systemic lupus erythematosus and mixed connective tissue disease.", "preferredTerm": "U1 Small Nuclear Ribonucleoprotein", "submissionValue": "U1 SMALL NUCLEAR RIBONUCLEOPROTEIN 70 KDA", "synonyms": ["Ribonucleoprotein-70", "snRNP70", "U1 snRNP 70 kDa"]}, {"conceptId": "C187756", "definition": "The approximately 55 kDa, receptor binding B subunit of the Cholera toxin and the virulence factor for Vibrio cholerae.", "preferredTerm": "Cholera Toxin B Subunit", "submissionValue": "VIBRIO CHOLERA TOXIN B SUBUNIT", "synonyms": ["CTB"]}, {"conceptId": "C189491", "definition": "Antigen(s) from the fruit(s) of the Juglans species (walnut) that are considered as food allergen(s).", "preferredTerm": "Walnut Antigen", "submissionValue": "WALNUT ANTIGEN"}, {"conceptId": "C189473", "definition": "Antigen(s) in the pollens of a mix of weeds that are considered as plant allergen(s).", "preferredTerm": "Multiple Weed Mix Pollen Antigens", "submissionValue": "WEED MIX POLLENS"}, {"conceptId": "C189489", "definition": "Antigen(s) in the pollen of the species Ambrosia psilostachya (Western ragweed) that are considered as plant allergen(s).", "preferredTerm": "Ambrosia psilostachya Pollen Antigen", "submissionValue": "WESTERN RAGWEED POLLEN", "synonyms": ["Ambrosia psilostachya Pollen Antigen"]}, {"conceptId": "C189474", "definition": "Antigen(s) in the pollen of the species Ulmus americana (white elm tree) that are considered as plant allergen(s).", "preferredTerm": "Ulmus americana Pollen Antigen", "submissionValue": "WHITE ELM POLLEN", "synonyms": ["American elm Pollen Antigen", "Ulmus americana Pollen Antigen"]}, {"conceptId": "C189475", "definition": "Antigen(s) in the pollen of the species Quercus alba (white oak tree) that are considered as plant allergen(s).", "preferredTerm": "Quercus alba Pollen Antigen", "submissionValue": "WHITE OAK POLLEN", "synonyms": ["Quercus alba Pollen Antigen"]}, {"conceptId": "C189490", "definition": "Antigen(s) in the pollen of the species Leymus triticoides (wild rye grass) that are considered as plant allergen(s).", "preferredTerm": "Leymus triticoides Pollen Antigen", "submissionValue": "WILD RYE GRASS POLLEN", "synonyms": ["Elymus triticoides Pollen Antigen", "Leymus triticoides Pollen Antigen"]}]}