{"_links": {"parentPackage": {"href": "/mdr/ct/packages/sdtmct-2023-03-31", "title": "SDTM Controlled Terminology Package 53 Effective 2023-03-31", "type": "Terminology"}, "priorVersion": {"href": "/mdr/ct/packages/sdtmct-2022-12-16/codelists/C182514", "title": "CDISC Clinical Classification Kurtzke Functional System Scores KFSS102 Standardized Character Response Terminology", "type": "Code List"}, "rootItem": {"href": "/mdr/root/ct/sdtmct/codelists/C182514", "title": "Version-agnostic anchor resource for codelist C182514", "type": "Root Value Domain"}, "self": {"href": "/mdr/ct/packages/sdtmct-2023-03-31/codelists/C182514", "title": "CDISC Clinical Classification Kurtzke Functional System Scores KFSS102 Standardized Character Response Terminology", "type": "Code List"}}, "conceptId": "C182514", "definition": "Kurtzke Functional System Scores standardized character result for KFSS102 test and test code.", "extensible": "false", "name": "Kurtzke Functional System Scores Clinical Classification STRESC for KFSS102 TN/TC", "preferredTerm": "CDISC Clinical Classification Kurtzke Functional System Scores KFSS102 Standardized Character Response Terminology", "submissionValue": "KFSS102STR", "synonyms": ["Kurtzke Functional System Scores Clinical Classification STRESC for KFSS102 TN/TC"], "terms": [{"conceptId": "C182789", "definition": "Kurtzke Functional System Scores standardized character result for KFSS102-Normal.", "preferredTerm": "Kurtzke Functional System Scores KFSS102 Standardized Character Result 0", "submissionValue": "0", "synonyms": ["KFSS102-0"]}, {"conceptId": "C182790", "definition": "Kurtzke Functional System Scores standardized character result for KFSS102-Abnormal signs without disability.", "preferredTerm": "Kurtzke Functional System Scores KFSS102 Standardized Character Result 1", "submissionValue": "1", "synonyms": ["KFSS102-1"]}, {"conceptId": "C182791", "definition": "Kurtzke Functional System Scores standardized character result for KFSS102-Mild ataxia.", "preferredTerm": "Kurtzke Functional System Scores KFSS102 Standardized Character Result 2", "submissionValue": "2", "synonyms": ["KFSS102-2"]}, {"conceptId": "C182792", "definition": "Kurtzke Functional System Scores standardized character result for KFSS102-Moderate truncal or limb ataxia.", "preferredTerm": "Kurtzke Functional System Scores KFSS102 Standardized Character Result 3", "submissionValue": "3", "synonyms": ["KFSS102-3"]}, {"conceptId": "C182793", "definition": "Kurtzke Functional System Scores standardized character result for KFSS102-Severe ataxia, all limbs.", "preferredTerm": "Kurtzke Functional System Scores KFSS102 Standardized Character Result 4", "submissionValue": "4", "synonyms": ["KFSS102-4"]}, {"conceptId": "C182794", "definition": "Kurtzke Functional System Scores standardized character result for KFSS102-Unable to perform coordinated movements due to ataxia.", "preferredTerm": "Kurtzke Functional System Scores KFSS102 Standardized Character Result 5", "submissionValue": "5", "synonyms": ["KFSS102-5"]}, {"conceptId": "C182795", "definition": "Kurtzke Functional System Scores standardized character result for KFSS102-Unknown.", "preferredTerm": "Kurtzke Functional System Scores KFSS102 Standardized Character Result Unknown", "submissionValue": "Unknown", "synonyms": ["KFSS102-Unknown"]}]}