{"_links": {"parentPackage": {"href": "/mdr/ct/packages/sdtmct-2023-03-31", "title": "SDTM Controlled Terminology Package 53 Effective 2023-03-31", "type": "Terminology"}, "priorVersion": {"href": "/mdr/ct/packages/sdtmct-2022-12-16/codelists/C182530", "title": "CDISC Clinical Classification Acute Physiology and Chronic Health Evaluation II APCH107 Standardized Character Response Terminology", "type": "Code List"}, "rootItem": {"href": "/mdr/root/ct/sdtmct/codelists/C182530", "title": "Version-agnostic anchor resource for codelist C182530", "type": "Root Value Domain"}, "self": {"href": "/mdr/ct/packages/sdtmct-2023-03-31/codelists/C182530", "title": "CDISC Clinical Classification Acute Physiology and Chronic Health Evaluation II APCH107 Standardized Character Response Terminology", "type": "Code List"}}, "conceptId": "C182530", "definition": "Acute Physiology and Chronic Health Evaluation II standardized character result for APCH107 test and test code.", "extensible": "false", "name": "Acute Physiology and Chronic Health Evaluation II Clinical Classification STRESC for APCH107 TN/TC", "preferredTerm": "CDISC Clinical Classification Acute Physiology and Chronic Health Evaluation II APCH107 Standardized Character Response Terminology", "submissionValue": "APCH107STR", "synonyms": ["Acute Physiology and Chronic Health Evaluation II Clinical Classification STRESC for APCH107 TN/TC"], "terms": [{"conceptId": "C182980", "definition": "Acute Physiology and Chronic Health Evaluation II standardized character result for APCH107-130-149.", "preferredTerm": "Acute Physiology and Chronic Health Evaluation II APCH107 Standardized Character Result 0", "submissionValue": "0", "synonyms": ["APCH107-0"]}, {"conceptId": "C182979", "definition": "Acute Physiology and Chronic Health Evaluation II standardized character result for APCH107-150-154.", "preferredTerm": "Acute Physiology and Chronic Health Evaluation II APCH107 Standardized Character Result 1", "submissionValue": "1", "synonyms": ["APCH107-1"]}, {"conceptId": "C182978", "definition": "Acute Physiology and Chronic Health Evaluation II standardized character result for APCH107-155-159; 120-129.", "preferredTerm": "Acute Physiology and Chronic Health Evaluation II APCH107 Standardized Character Result 2", "submissionValue": "2", "synonyms": ["APCH107-2"]}, {"conceptId": "C182977", "definition": "Acute Physiology and Chronic Health Evaluation II standardized character result for APCH107-160-179; 111-119.", "preferredTerm": "Acute Physiology and Chronic Health Evaluation II APCH107 Standardized Character Result 3", "submissionValue": "3", "synonyms": ["APCH107-3"]}, {"conceptId": "C182976", "definition": "Acute Physiology and Chronic Health Evaluation II standardized character result for APCH107-Greater than or equal to 180; Less than or equal to 110.", "preferredTerm": "Acute Physiology and Chronic Health Evaluation II APCH107 Standardized Character Result 4", "submissionValue": "4", "synonyms": ["APCH107-4"]}]}