{"_links": {"parentPackage": {"href": "/mdr/ct/packages/sdtmct-2023-03-31", "title": "SDTM Controlled Terminology Package 53 Effective 2023-03-31", "type": "Terminology"}, "priorVersion": {"href": "/mdr/ct/packages/sdtmct-2022-12-16/codelists/C182531", "title": "CDISC Clinical Classification Acute Physiology and Chronic Health Evaluation II APCH108 Standardized Character Response Terminology", "type": "Code List"}, "rootItem": {"href": "/mdr/root/ct/sdtmct/codelists/C182531", "title": "Version-agnostic anchor resource for codelist C182531", "type": "Root Value Domain"}, "self": {"href": "/mdr/ct/packages/sdtmct-2023-03-31/codelists/C182531", "title": "CDISC Clinical Classification Acute Physiology and Chronic Health Evaluation II APCH108 Standardized Character Response Terminology", "type": "Code List"}}, "conceptId": "C182531", "definition": "Acute Physiology and Chronic Health Evaluation II standardized character result for APCH108 test and test code.", "extensible": "false", "name": "Acute Physiology and Chronic Health Evaluation II Clinical Classification STRESC for APCH108 TN/TC", "preferredTerm": "CDISC Clinical Classification Acute Physiology and Chronic Health Evaluation II APCH108 Standardized Character Response Terminology", "submissionValue": "APCH108STR", "synonyms": ["Acute Physiology and Chronic Health Evaluation II Clinical Classification STRESC for APCH108 TN/TC"], "terms": [{"conceptId": "C182992", "definition": "Acute Physiology and Chronic Health Evaluation II standardized character result for APCH108-3.5-5.4.", "preferredTerm": "Acute Physiology and Chronic Health Evaluation II APCH108 Standardized Character Result 0", "submissionValue": "0", "synonyms": ["APCH108-0"]}, {"conceptId": "C182991", "definition": "Acute Physiology and Chronic Health Evaluation II standardized character result for APCH108-5.5-5.9; 3-3.4.", "preferredTerm": "Acute Physiology and Chronic Health Evaluation II APCH108 Standardized Character Result 1", "submissionValue": "1", "synonyms": ["APCH108-1"]}, {"conceptId": "C182990", "definition": "Acute Physiology and Chronic Health Evaluation II standardized character result for APCH108-2.5-2.9.", "preferredTerm": "Acute Physiology and Chronic Health Evaluation II APCH108 Standardized Character Result 2", "submissionValue": "2", "synonyms": ["APCH108-2"]}, {"conceptId": "C182989", "definition": "Acute Physiology and Chronic Health Evaluation II standardized character result for APCH108-6-6.9.", "preferredTerm": "Acute Physiology and Chronic Health Evaluation II APCH108 Standardized Character Result 3", "submissionValue": "3", "synonyms": ["APCH108-3"]}, {"conceptId": "C182988", "definition": "Acute Physiology and Chronic Health Evaluation II standardized character result for APCH108-Greater than or equal to 7; Less than 2.5.", "preferredTerm": "Acute Physiology and Chronic Health Evaluation II APCH108 Standardized Character Result 4", "submissionValue": "4", "synonyms": ["APCH108-4"]}]}