{"_links": {"parentPackage": {"href": "/mdr/ct/packages/sdtmct-2023-03-31", "title": "SDTM Controlled Terminology Package 53 Effective 2023-03-31", "type": "Terminology"}, "priorVersion": {"href": "/mdr/ct/packages/sdtmct-2022-12-16/codelists/C182506", "title": "CDISC Clinical Classification Hamilton Anxiety Rating Scale HAMA101 Through HAMA114 Standardized Character Response Terminology", "type": "Code List"}, "rootItem": {"href": "/mdr/root/ct/sdtmct/codelists/C182506", "title": "Version-agnostic anchor resource for codelist C182506", "type": "Root Value Domain"}, "self": {"href": "/mdr/ct/packages/sdtmct-2023-03-31/codelists/C182506", "title": "CDISC Clinical Classification Hamilton Anxiety Rating Scale HAMA101 Through HAMA114 Standardized Character Response Terminology", "type": "Code List"}}, "conceptId": "C182506", "definition": "Hamilton Anxiety Rating Scale standardized character result for HAMA101 through HAMA114 test and test code.", "extensible": "false", "name": "Hamilton Anxiety Rating Scale Clinical Classification STRESC for HAMA101 Through HAMA114 TN/TC", "preferredTerm": "CDISC Clinical Classification Hamilton Anxiety Rating Scale HAMA101 Through HAMA114 Standardized Character Response Terminology", "submissionValue": "HAMA101T14STR", "synonyms": ["Hamilton Anxiety Rating Scale Clinical Classification STRESC for HAMA101 Through HAMA114 TN/TC"], "terms": [{"conceptId": "C182711", "definition": "Hamilton Anxiety Rating Scale standard character result for HAMA101 through HAMA114-Not present.", "preferredTerm": "Hamilton Anxiety Rating Scale HAMA101 Through HAMA114 Standardized Character Result 0", "submissionValue": "0", "synonyms": ["HAMA101 through HAMA114-0"]}, {"conceptId": "C182712", "definition": "Hamilton Anxiety Rating Scale standard character result for HAMA101 through HAMA114-Mild.", "preferredTerm": "Hamilton Anxiety Rating Scale HAMA101 Through HAMA114 Standardized Character Result 1", "submissionValue": "1", "synonyms": ["HAMA101 through HAMA114-1"]}, {"conceptId": "C182713", "definition": "Hamilton Anxiety Rating Scale standard character result for HAMA101 through HAMA114-Moderate.", "preferredTerm": "Hamilton Anxiety Rating Scale HAMA101 Through HAMA114 Standardized Character Result 2", "submissionValue": "2", "synonyms": ["HAMA101 through HAMA114-2"]}, {"conceptId": "C182714", "definition": "Hamilton Anxiety Rating Scale standard character result for HAMA101 through HAMA114-Severe.", "preferredTerm": "Hamilton Anxiety Rating Scale HAMA101 Through HAMA114 Standardized Character Result 3", "submissionValue": "3", "synonyms": ["HAMA101 through HAMA114-3"]}, {"conceptId": "C182715", "definition": "Hamilton Anxiety Rating Scale standard character result for HAMA101 through HAMA114-Very severe.", "preferredTerm": "Hamilton Anxiety Rating Scale HAMA101 Through HAMA114 Standardized Character Result 4", "submissionValue": "4", "synonyms": ["HAMA101 through HAMA114-4"]}]}