{"_links": {"parentPackage": {"href": "/mdr/ct/packages/sdtmct-2023-03-31", "title": "SDTM Controlled Terminology Package 53 Effective 2023-03-31", "type": "Terminology"}, "priorVersion": {"href": "/mdr/ct/packages/sdtmct-2022-12-16/codelists/C182476", "title": "CDISC Clinical Classification Kurtzke Functional System Scores KFSS102 Original Response Terminology", "type": "Code List"}, "rootItem": {"href": "/mdr/root/ct/sdtmct/codelists/C182476", "title": "Version-agnostic anchor resource for codelist C182476", "type": "Root Value Domain"}, "self": {"href": "/mdr/ct/packages/sdtmct-2023-03-31/codelists/C182476", "title": "CDISC Clinical Classification Kurtzke Functional System Scores KFSS102 Original Response Terminology", "type": "Code List"}}, "conceptId": "C182476", "definition": "Kurtzke Functional System Scores original result for KFSS102 test and test code.", "extensible": "false", "name": "Kurtzke Functional System Scores Clinical Classification ORRES for KFSS102 TN/TC", "preferredTerm": "CDISC Clinical Classification Kurtzke Functional System Scores KFSS102 Original Response Terminology", "submissionValue": "KFSS102OR", "synonyms": ["Kurtzke Functional System Scores Clinical Classification ORRES for KFSS102 TN/TC"], "terms": [{"conceptId": "C182783", "definition": "Kurtzke Functional System Scores original result for KFSS102-Abnormal signs without disability.", "preferredTerm": "Kurtzke Functional System Scores KFSS102 Original Result - Abnormal signs without disability", "submissionValue": "Abnormal signs without disability", "synonyms": ["KFSS102-Abnormal signs without disability"]}, {"conceptId": "C182784", "definition": "Kurtzke Functional System Scores original result for KFSS102-Mild ataxia.", "preferredTerm": "Kurtzke Functional System Scores KFSS102 Original Result - Mild ataxia", "submissionValue": "Mild ataxia", "synonyms": ["KFSS102-Mild ataxia"]}, {"conceptId": "C182785", "definition": "Kurtzke Functional System Scores original result for KFSS102-Moderate truncal or limb ataxia.", "preferredTerm": "Kurtzke Functional System Scores KFSS102 Original Result - Moderate truncal or limb ataxia", "submissionValue": "Moderate truncal or limb ataxia", "synonyms": ["KFSS102-Moderate truncal or limb ataxias"]}, {"conceptId": "C182782", "definition": "Kurtzke Functional System Scores original result for KFSS102-Normal.", "preferredTerm": "Kurtzke Functional System Scores KFSS102 Original Result - Normal", "submissionValue": "Normal", "synonyms": ["KFSS102-Normal"]}, {"conceptId": "C182786", "definition": "Kurtzke Functional System Scores original result for KFSS102-Severe ataxia, all limbs.", "preferredTerm": "Kurtzke Functional System Scores KFSS102 Original Result - Severe ataxia, all limbs", "submissionValue": "Severe ataxia, all limbs", "synonyms": ["KFSS102-Severe ataxia, all limbs"]}, {"conceptId": "C182787", "definition": "Kurtzke Functional System Scores original result for KFSS102-Unable to perform coordinated movements due to ataxia.", "preferredTerm": "Kurtzke Functional System Scores KFSS102 Original Result - Unable to perform coordinated movements due to ataxia", "submissionValue": "Unable to perform coordinated movements due to ataxia", "synonyms": ["KFSS102-Unable to perform coordinated movements due to ataxia"]}, {"conceptId": "C182788", "definition": "Kurtzke Functional System Scores original result for KFSS102-Unknown.", "preferredTerm": "Kurtzke Functional System Scores KFSS102 Original Result - Unknown", "submissionValue": "Unknown", "synonyms": ["KFSS102-Unknown"]}]}