{"_links": {"parentPackage": {"href": "/mdr/ct/packages/sdtmct-2023-03-31", "title": "SDTM Controlled Terminology Package 53 Effective 2023-03-31", "type": "Terminology"}, "priorVersion": {"href": "/mdr/ct/packages/sdtmct-2022-12-16/codelists/C182472", "title": "CDISC Clinical Classification ATLAS Score ATLAS103 Original Response Terminology", "type": "Code List"}, "rootItem": {"href": "/mdr/root/ct/sdtmct/codelists/C182472", "title": "Version-agnostic anchor resource for codelist C182472", "type": "Root Value Domain"}, "self": {"href": "/mdr/ct/packages/sdtmct-2023-03-31/codelists/C182472", "title": "CDISC Clinical Classification ATLAS Score ATLAS103 Original Response Terminology", "type": "Code List"}}, "conceptId": "C182472", "definition": "ATLAS original result for ATLAS103 test and test code.", "extensible": "false", "name": "ATLAS Clinical Classification ORRES for ATLAS103 TN/TC", "preferredTerm": "CDISC Clinical Classification ATLAS Score ATLAS103 Original Response Terminology", "submissionValue": "ATLAS103OR", "synonyms": ["ATLAS Clinical Classification ORRES for ATLAS103 TN/TC"], "terms": [{"conceptId": "C182749", "definition": "ATLAS original result for ATLAS103-16,000-25,000.", "preferredTerm": "ATLAS Score ATLAS103 Original Result - 16,000-25,000", "submissionValue": "16,000-25,000", "synonyms": ["ATLAS103-16,000-25,000"]}, {"conceptId": "C182748", "definition": "ATLAS original result for ATLAS103-Less than16,000.", "preferredTerm": "ATLAS Score ATLAS103 Original Result - <16,000", "submissionValue": "<16,000", "synonyms": ["ATLAS103-<16,000"]}, {"conceptId": "C182750", "definition": "ATLAS original result for ATLAS103-Greater than 25,000.", "preferredTerm": "ATLAS Score ATLAS103 Original Result - >25,000", "submissionValue": ">25,000", "synonyms": ["ATLAS103->25,000"]}]}