{"_links": {"parentPackage": {"href": "/mdr/ct/packages/sdtmct-2023-03-31", "title": "SDTM Controlled Terminology Package 53 Effective 2023-03-31", "type": "Terminology"}, "priorVersion": {"href": "/mdr/ct/packages/sdtmct-2022-12-16/codelists/C182520", "title": "CDISC Clinical Classification Kurtzke Functional System Scores KFSS107 Standardized Character Response Terminology", "type": "Code List"}, "rootItem": {"href": "/mdr/root/ct/sdtmct/codelists/C182520", "title": "Version-agnostic anchor resource for codelist C182520", "type": "Root Value Domain"}, "self": {"href": "/mdr/ct/packages/sdtmct-2023-03-31/codelists/C182520", "title": "CDISC Clinical Classification Kurtzke Functional System Scores KFSS107 Standardized Character Response Terminology", "type": "Code List"}}, "conceptId": "C182520", "definition": "Kurtzke Functional System Scores standardized character result for KFSS107 test and test code.", "extensible": "false", "name": "Kurtzke Functional System Scores Clinical Classification STRESC for KFSS107 TN/TC", "preferredTerm": "CDISC Clinical Classification Kurtzke Functional System Scores KFSS107 Standardized Character Response Terminology", "submissionValue": "KFSS107STR", "synonyms": ["Kurtzke Functional System Scores Clinical Classification STRESC for KFSS107 TN/TC"], "terms": [{"conceptId": "C182869", "definition": "Kurtzke Functional System Scores standardized character result for KFSS107-Normal.", "preferredTerm": "Kurtzke Functional System Scores KFSS107 Standardized Character Result 0", "submissionValue": "0", "synonyms": ["KFSS107-0"]}, {"conceptId": "C182870", "definition": "Kurtzke Functional System Scores standardized character result for KFSS107-Mood alteration only (does not affect DSS score).", "preferredTerm": "Kurtzke Functional System Scores KFSS107 Standardized Character Result 1", "submissionValue": "1", "synonyms": ["KFSS107-1"]}, {"conceptId": "C182871", "definition": "Kurtzke Functional System Scores standardized character result for KFSS107-Mild decrease in mentation.", "preferredTerm": "Kurtzke Functional System Scores KFSS107 Standardized Character Result 2", "submissionValue": "2", "synonyms": ["KFSS107-2"]}, {"conceptId": "C182872", "definition": "Kurtzke Functional System Scores standardized character result for KFSS107-Moderate decrease in mentation.", "preferredTerm": "Kurtzke Functional System Scores KFSS107 Standardized Character Result 3", "submissionValue": "3", "synonyms": ["KFSS107-3"]}, {"conceptId": "C182873", "definition": "Kurtzke Functional System Scores standardized character result for KFSS107-Marked decrease in mentation (chronic brain syndrome - moderate).", "preferredTerm": "Kurtzke Functional System Scores KFSS107 Standardized Character Result 4", "submissionValue": "4", "synonyms": ["KFSS107-4"]}, {"conceptId": "C182874", "definition": "Kurtzke Functional System Scores standardized character result for KFSS107-Dementia or chronic brain syndrome - severe or incompetent.", "preferredTerm": "Kurtzke Functional System Scores KFSS107 Standardized Character Result 5", "submissionValue": "5", "synonyms": ["KFSS107-5"]}, {"conceptId": "C182875", "definition": "Kurtzke Functional System Scores standardized character result for KFSS107-Unknown.", "preferredTerm": "Kurtzke Functional System Scores KFSS107 Standardized Character Result Unknown", "submissionValue": "Unknown", "synonyms": ["KFSS107-Unknown"]}]}