{"_links": {"parentPackage": {"href": "/mdr/ct/packages/sdtmct-2023-03-31", "title": "SDTM Controlled Terminology Package 53 Effective 2023-03-31", "type": "Terminology"}, "priorVersion": {"href": "/mdr/ct/packages/sdtmct-2022-12-16/codelists/C182470", "title": "CDISC Clinical Classification ATLAS Score ATLAS101 Original Response Terminology", "type": "Code List"}, "rootItem": {"href": "/mdr/root/ct/sdtmct/codelists/C182470", "title": "Version-agnostic anchor resource for codelist C182470", "type": "Root Value Domain"}, "self": {"href": "/mdr/ct/packages/sdtmct-2023-03-31/codelists/C182470", "title": "CDISC Clinical Classification ATLAS Score ATLAS101 Original Response Terminology", "type": "Code List"}}, "conceptId": "C182470", "definition": "ATLAS original result for ATLAS101 test and test code.", "extensible": "false", "name": "ATLAS Clinical Classification ORRES for ATLAS101 TN/TC", "preferredTerm": "CDISC Clinical Classification ATLAS Score ATLAS101 Original Response Terminology", "submissionValue": "ATLAS101OR", "synonyms": ["ATLAS Clinical Classification ORRES for ATLAS101 TN/TC"], "terms": [{"conceptId": "C182739", "definition": "ATLAS original result for ATLAS101-60-79.", "preferredTerm": "ATLAS Score ATLAS101 Original Result - 60-79", "submissionValue": "60-79", "synonyms": ["ATLAS101-60-79"]}, {"conceptId": "C182738", "definition": "ATLAS original result for ATLAS101-Less than 60.", "preferredTerm": "ATLAS Score ATLAS101 Original Result - <60", "submissionValue": "<60", "synonyms": ["ATLAS101-<60"]}, {"conceptId": "C182740", "definition": "ATLAS original result for ATLAS101-Greater than or equal to 80.", "preferredTerm": "ATLAS Score ATLAS101 Original Result - >=80", "submissionValue": ">=80", "synonyms": ["ATLAS101->=80"]}]}