{"_links": {"parentPackage": {"href": "/mdr/ct/packages/sdtmct-2023-03-31", "title": "SDTM Controlled Terminology Package 53 Effective 2023-03-31", "type": "Terminology"}, "priorVersion": {"href": "/mdr/ct/packages/sdtmct-2022-12-16/codelists/C182477", "title": "CDISC Clinical Classification Kurtzke Functional System Scores KFSS1SET1 Original Response Terminology", "type": "Code List"}, "rootItem": {"href": "/mdr/root/ct/sdtmct/codelists/C182477", "title": "Version-agnostic anchor resource for codelist C182477", "type": "Root Value Domain"}, "self": {"href": "/mdr/ct/packages/sdtmct-2023-03-31/codelists/C182477", "title": "CDISC Clinical Classification Kurtzke Functional System Scores KFSS1SET1 Original Response Terminology", "type": "Code List"}}, "conceptId": "C182477", "definition": "Kurtzke Functional System Scores original result for KFSS102A and KFSS106A test and test code.", "extensible": "false", "name": "Kurtzke Functional System Scores Clinical Classification ORRES the Same as KFSS102A TN/TC", "preferredTerm": "CDISC Clinical Classification Kurtzke Functional System Scores KFSS1SET1 Original Response Terminology", "submissionValue": "KFSS1SET1OR", "synonyms": ["Kurtzke Functional System Scores Clinical Classification ORRES the Same as KFSS102A TN/TC"], "terms": [{"conceptId": "C182796", "definition": "Kurtzke Functional System Scores original result for KFSS102 and KFSS106A-Checked.", "preferredTerm": "Kurtzke Functional System Scores KFSS1SET1 Original Result - Checked", "submissionValue": "CHECKED", "synonyms": ["KFSS1SET1-CHECKED"]}, {"conceptId": "C182797", "definition": "Kurtzke Functional System Scores original result for KFSS102 and KFSS106A-Not checked.", "preferredTerm": "Kurtzke Functional System Scores KFSS1SET1 Original Result - Not Checked", "submissionValue": "NOT CHECKED", "synonyms": ["KFSS1SET1-NOT CHECKED"]}]}