{"_links": {"parentPackage": {"href": "/mdr/ct/packages/sdtmct-2023-03-31", "title": "SDTM Controlled Terminology Package 53 Effective 2023-03-31", "type": "Terminology"}, "priorVersion": {"href": "/mdr/ct/packages/sdtmct-2022-12-16/codelists/C187454", "title": "CDISC Questionnaire Stanford Sleepiness Scale Test Code Terminology", "type": "Code List"}, "rootItem": {"href": "/mdr/root/ct/sdtmct/codelists/C187454", "title": "Version-agnostic anchor resource for codelist C187454", "type": "Root Value Domain"}, "self": {"href": "/mdr/ct/packages/sdtmct-2023-03-31/codelists/C187454", "title": "CDISC Questionnaire Stanford Sleepiness Scale Test Code Terminology", "type": "Code List"}}, "conceptId": "C187454", "definition": "Stanford Sleepiness Scale test code.", "extensible": "false", "name": "Stanford Sleepiness Scale Questionnaire Test Code", "preferredTerm": "CDISC Questionnaire Stanford Sleepiness Scale Test Code Terminology", "submissionValue": "SSS01TC", "synonyms": ["Stanford Sleepiness Scale Questionnaire Test Code"], "terms": [{"conceptId": "C187621", "definition": "Stanford Sleepiness Scale - Degree of sleepiness.", "preferredTerm": "SSS - Degree of Sleepiness", "submissionValue": "SSS0101", "synonyms": ["SSS01-Degree of Sleepiness"]}]}