{"_links": {"parentPackage": {"href": "/mdr/ct/packages/sdtmct-2023-03-31", "title": "SDTM Controlled Terminology Package 53 Effective 2023-03-31", "type": "Terminology"}, "priorVersion": {"href": "/mdr/ct/packages/sdtmct-2022-12-16/codelists/C187463", "title": "CDISC Questionnaire Stanford Sleepiness Scale SSS0101 Standardized Character Response Terminology", "type": "Code List"}, "rootItem": {"href": "/mdr/root/ct/sdtmct/codelists/C187463", "title": "Version-agnostic anchor resource for codelist C187463", "type": "Root Value Domain"}, "self": {"href": "/mdr/ct/packages/sdtmct-2023-03-31/codelists/C187463", "title": "CDISC Questionnaire Stanford Sleepiness Scale SSS0101 Standardized Character Response Terminology", "type": "Code List"}}, "conceptId": "C187463", "definition": "Stanford Sleepiness Scale standardized character result for SSS0101 test and test code.", "extensible": "false", "name": "Stanford Sleepiness Scale Questionnaire STRESC for SSS0101 TN/TC", "preferredTerm": "CDISC Questionnaire Stanford Sleepiness Scale SSS0101 Standardized Character Response Terminology", "submissionValue": "SSS0101STR", "synonyms": ["Stanford Sleepiness Scale Questionnaire STRESC for SSS0101 TN/TC"], "terms": [{"conceptId": "C187502", "definition": "Stanford Sleepiness Scale standardized character result for SSS0101-Feeling active and vital; alert; wide awake.", "preferredTerm": "Stanford Sleepiness Scale SSS0101 Standardized Character Result 1", "submissionValue": "1", "synonyms": ["SSS0101-1"]}, {"conceptId": "C187503", "definition": "Stanford Sleepiness Scale standardized character result for SSS0101-Functioning at a high level, but not at peak; able to concentrate.", "preferredTerm": "Stanford Sleepiness Scale SSS0101 Standardized Character Result 2", "submissionValue": "2", "synonyms": ["SSS0101-2"]}, {"conceptId": "C187504", "definition": "Stanford Sleepiness Scale standardized character result for SSS0101-Relaxed; awake; not at full alertness; responsive.", "preferredTerm": "Stanford Sleepiness Scale SSS0101 Standardized Character Result 3", "submissionValue": "3", "synonyms": ["SSS0101-3"]}, {"conceptId": "C187505", "definition": "Stanford Sleepiness Scale standardized character result for SSS0101-A little foggy; not at peak; let down.", "preferredTerm": "Stanford Sleepiness Scale SSS0101 Standardized Character Result 4", "submissionValue": "4", "synonyms": ["SSS0101-4"]}, {"conceptId": "C187506", "definition": "Stanford Sleepiness Scale standardized character result for SSS0101-Fogginess; beginning to lose interest in remaining awake; slowed down.", "preferredTerm": "Stanford Sleepiness Scale SSS0101 Standardized Character Result 5", "submissionValue": "5", "synonyms": ["SSS0101-5"]}, {"conceptId": "C187507", "definition": "Stanford Sleepiness Scale standardized character result for SSS0101-Sleepiness; prefer to be lying down; fighting sleep; woozy.", "preferredTerm": "Stanford Sleepiness Scale SSS0101 Standardized Character Result 6", "submissionValue": "6", "synonyms": ["SSS0101-6"]}, {"conceptId": "C187508", "definition": "Stanford Sleepiness Scale standardized character result for SSS0101-Almost in reverie; sleep onset soon; lost struggle to remain awake.", "preferredTerm": "Stanford Sleepiness Scale SSS0101 Standardized Character Result 7", "submissionValue": "7", "synonyms": ["SSS0101-7"]}]}