{"_links": {"parentPackage": {"href": "/mdr/ct/packages/sdtmct-2023-03-31", "title": "SDTM Controlled Terminology Package 53 Effective 2023-03-31", "type": "Terminology"}, "priorVersion": {"href": "/mdr/ct/packages/sdtmct-2022-12-16/codelists/C189693", "title": "CDISC Clinical Classification Brief Psychiatric Rating Scale-Anchored BPRSA118 Original Response Terminology", "type": "Code List"}, "rootItem": {"href": "/mdr/root/ct/sdtmct/codelists/C189693", "title": "Version-agnostic anchor resource for codelist C189693", "type": "Root Value Domain"}, "self": {"href": "/mdr/ct/packages/sdtmct-2023-03-31/codelists/C189693", "title": "CDISC Clinical Classification Brief Psychiatric Rating Scale-Anchored BPRSA118 Original Response Terminology", "type": "Code List"}}, "conceptId": "C189693", "definition": "Brief Psychiatric Rating Scale-Anchored original result for BPRSA118 test and test code.", "extensible": "false", "name": "Brief Psychiatric Rating Scale-Anchored Clinical Classification ORRES for BPRSA118 TN/TC", "preferredTerm": "CDISC Clinical Classification Brief Psychiatric Rating Scale-Anchored BPRSA118 Original Response Terminology", "submissionValue": "BPRSA118OR", "synonyms": ["Brief Psychiatric Rating Scale-Anchored Clinical Classification ORRES for BPRSA118 TN/TC"], "terms": [{"conceptId": "C189740", "definition": "Brief Psychiatric Rating Scale-Anchored original result for BPRSA118 with response-Cannot be assessed adequately because of severe formal thought disorder, uncooperativeness, or marked evasiveness/guardedness; or not assessed.", "preferredTerm": "Brief Psychiatric Rating Scale-Anchored BPRSA118 Original Result - Cannot be Assessed Adequately Because of Severe Formal Thought Disorder, Uncooperativeness, or Marked Evasiveness/Guardedness; or Not Assessed", "submissionValue": "Cannot be assessed adequately because of severe formal thought disorder, uncooperativeness, or marked evasiveness/guardedness; or Not assessed", "synonyms": ["BPRSA118-Cannot be assessed adequately because of severe formal thought disorder, uncooperativeness, or marked evasiveness/guardedness", "or Not assessed"]}, {"conceptId": "C189735", "definition": "Brief Psychiatric Rating Scale-Anchored original result for BPRSA118 with response-Mild.", "preferredTerm": "Brief Psychiatric Rating Scale-Anchored BPRSA118 Original Result - Mild", "submissionValue": "Mild", "synonyms": ["BPRSA118-Mild"]}, {"conceptId": "C189736", "definition": "Brief Psychiatric Rating Scale-Anchored original result for BPRSA118 with response-Moderate.", "preferredTerm": "Brief Psychiatric Rating Scale-Anchored BPRSA118 Original Result - Moderate", "submissionValue": "Moderate", "synonyms": ["BPRSA118-Moderate"]}, {"conceptId": "C189737", "definition": "Brief Psychiatric Rating Scale-Anchored original result for BPRSA118 with response-Moderately severe.", "preferredTerm": "Brief Psychiatric Rating Scale-Anchored BPRSA118 Original Result - Moderately Severe", "submissionValue": "Moderately Severe", "synonyms": ["BPRSA118-Moderately Severe"]}, {"conceptId": "C189733", "definition": "Brief Psychiatric Rating Scale-Anchored original result for BPRSA118 with response-Not observed.", "preferredTerm": "Brief Psychiatric Rating Scale-Anchored BPRSA118 Original Result - Not Observed", "submissionValue": "Not observed", "synonyms": ["BPRSA118-Not observed"]}, {"conceptId": "C189738", "definition": "Brief Psychiatric Rating Scale-Anchored original result for BPRSA118 with response-Severe.", "preferredTerm": "Brief Psychiatric Rating Scale-Anchored BPRSA118 Original Result - Severe", "submissionValue": "Severe", "synonyms": ["BPRSA118-Severe"]}, {"conceptId": "C189734", "definition": "Brief Psychiatric Rating Scale-Anchored original result for BPRSA118 with response-Very mild.", "preferredTerm": "Brief Psychiatric Rating Scale-Anchored BPRSA118 Original Result - Very Mild", "submissionValue": "Very Mild", "synonyms": ["BPRSA118-Very Mild"]}, {"conceptId": "C189739", "definition": "Brief Psychiatric Rating Scale-Anchored original result for BPRSA118 with response-Very severe.", "preferredTerm": "Brief Psychiatric Rating Scale-Anchored BPRSA118 Original Result - Very Severe", "submissionValue": "Very Severe", "synonyms": ["BPRSA118-Very Severe"]}]}