{"_links": {"parentPackage": {"href": "/mdr/ct/packages/sdtmct-2023-03-31", "title": "SDTM Controlled Terminology Package 53 Effective 2023-03-31", "type": "Terminology"}, "priorVersion": {"href": "/mdr/ct/packages/sdtmct-2022-12-16/codelists/C189266", "title": "CDISC SDTM SDTMIG Medical Device Version Response Terminology", "type": "Code List"}, "rootItem": {"href": "/mdr/root/ct/sdtmct/codelists/C189266", "title": "Version-agnostic anchor resource for codelist C189266", "type": "Root Value Domain"}, "self": {"href": "/mdr/ct/packages/sdtmct-2023-03-31/codelists/C189266", "title": "CDISC SDTM SDTMIG Medical Device Version Response Terminology", "type": "Code List"}}, "conceptId": "C189266", "definition": "Terminology relevant to the version of the study data tabulation model implementation guide for medical devices used in the study.", "extensible": "true", "name": "SDTMIG Medical Device Version Response", "preferredTerm": "CDISC SDTM SDTMIG Medical Device Version Response Terminology", "submissionValue": "SDTMDVRS", "synonyms": ["SDTMIG Medical Device Version Response"], "terms": [{"conceptId": "C189636", "definition": "Version 1.0 of the CDISC Study Data Tabulation Model (SDTM) Implementation Guide for medical devices.", "preferredTerm": "CDISC SDTM Implementation Guide Medical Device Version 1.0", "submissionValue": "1.0", "synonyms": ["SDTMIG Medical Device Version 1.0", "SDTMIG-MD Version 1.0"]}, {"conceptId": "C189637", "definition": "Version 1.1 of the CDISC Study Data Tabulation Model (SDTM) Implementation Guide for medical devices.", "preferredTerm": "CDISC SDTM Implementation Guide Medical Device Version 1.1", "submissionValue": "1.1", "synonyms": ["SDTMIG Medical Device Version 1.1", "SDTMIG-MD Version 1.1"]}]}