{"_links": {"parentPackage": {"href": "/mdr/ct/packages/sdtmct-2023-03-31", "title": "SDTM Controlled Terminology Package 53 Effective 2023-03-31", "type": "Terminology"}, "priorVersion": {"href": "/mdr/ct/packages/sdtmct-2022-12-16/codelists/C189690", "title": "CDISC Clinical Classification Brief Psychiatric Rating Scale-Anchored BPRSA1SET1 Standardized Character Response Terminology", "type": "Code List"}, "rootItem": {"href": "/mdr/root/ct/sdtmct/codelists/C189690", "title": "Version-agnostic anchor resource for codelist C189690", "type": "Root Value Domain"}, "self": {"href": "/mdr/ct/packages/sdtmct-2023-03-31/codelists/C189690", "title": "CDISC Clinical Classification Brief Psychiatric Rating Scale-Anchored BPRSA1SET1 Standardized Character Response Terminology", "type": "Code List"}}, "conceptId": "C189690", "definition": "Brief Psychiatric Rating Scale-Anchored standardized character result for BPRSA101, BPRSA102, BPRSA105, BPRSA108, BPRSA109, BPRSA110, BPRSA111, BPRSA112, and BPRSA115 test and test code.", "extensible": "false", "name": "Brief Psychiatric Rating Scale-Anchored Clinical Classification STRESC the Same as BPRSA101 TN/TC", "preferredTerm": "CDISC Clinical Classification Brief Psychiatric Rating Scale-Anchored BPRSA1SET1 Standardized Character Response Terminology", "submissionValue": "BPRSA1SET1STR", "synonyms": ["Brief Psychiatric Rating Scale-Anchored Clinical Classification STRESC the Same as BPRSA101 TN/TC"], "terms": [{"conceptId": "C189711", "definition": "Brief Psychiatric Rating Scale-Anchored standardized character result for BPRSA101, BPRSA102, BPRSA105, BPRSA108, BPRSA109, BPRSA110, BPRSA111, BPRSA112, and BPRSA115-Not reported.", "preferredTerm": "Brief Psychiatric Rating Scale-Anchored BPRSA1SET1 Standardized Character Result 1", "submissionValue": "1", "synonyms": ["BPRSA1SET1-1"]}, {"conceptId": "C189712", "definition": "Brief Psychiatric Rating Scale-Anchored standardized character result for BPRSA101, BPRSA102, BPRSA105, BPRSA108, BPRSA109, BPRSA110, BPRSA111, BPRSA112, and BPRSA115-Very mild.", "preferredTerm": "Brief Psychiatric Rating Scale-Anchored BPRSA1SET1 Standardized Character Result 2", "submissionValue": "2", "synonyms": ["BPRSA1SET1-2"]}, {"conceptId": "C189713", "definition": "Brief Psychiatric Rating Scale-Anchored standardized character result for BPRSA101, BPRSA102, BPRSA105, BPRSA108, BPRSA109, BPRSA110, BPRSA111, BPRSA112, and BPRSA115-Mild.", "preferredTerm": "Brief Psychiatric Rating Scale-Anchored BPRSA1SET1 Standardized Character Result 3", "submissionValue": "3", "synonyms": ["BPRSA1SET1-3"]}, {"conceptId": "C189714", "definition": "Brief Psychiatric Rating Scale-Anchored standardized character result for BPRSA101, BPRSA102, BPRSA105, BPRSA108, BPRSA109, BPRSA110, BPRSA111, BPRSA112, and BPRSA115-Moderate.", "preferredTerm": "Brief Psychiatric Rating Scale-Anchored BPRSA1SET1 Standardized Character Result 4", "submissionValue": "4", "synonyms": ["BPRSA1SET1-4"]}, {"conceptId": "C189715", "definition": "Brief Psychiatric Rating Scale-Anchored standardized character result for BPRSA101, BPRSA102, BPRSA105, BPRSA108, BPRSA109, BPRSA110, BPRSA111, BPRSA112, and BPRSA115-Moderately severe.", "preferredTerm": "Brief Psychiatric Rating Scale-Anchored BPRSA1SET1 Standardized Character Result 5", "submissionValue": "5", "synonyms": ["BPRSA1SET1-5"]}, {"conceptId": "C189716", "definition": "Brief Psychiatric Rating Scale-Anchored standardized character result for BPRSA101, BPRSA102, BPRSA105, BPRSA108, BPRSA109, BPRSA110, BPRSA111, BPRSA112, and BPRSA115-Severe.", "preferredTerm": "Brief Psychiatric Rating Scale-Anchored BPRSA1SET1 Standardized Character Result 6", "submissionValue": "6", "synonyms": ["BPRSA1SET1-6"]}, {"conceptId": "C189717", "definition": "Brief Psychiatric Rating Scale-Anchored standardized character result for BPRSA101, BPRSA102, BPRSA105, BPRSA108, BPRSA109, BPRSA110, BPRSA111, BPRSA112, and BPRSA115-Very severe.", "preferredTerm": "Brief Psychiatric Rating Scale-Anchored BPRSA1SET1 Standardized Character Result 7", "submissionValue": "7", "synonyms": ["BPRSA1SET1-7"]}, {"conceptId": "C189718", "definition": "Brief Psychiatric Rating Scale-Anchored standardized character result for BPRSA101, BPRSA102, BPRSA105, BPRSA108, BPRSA109, BPRSA110, BPRSA111, BPRSA112, and BPRSA115-Cannot be assessed adequately because of severe formal thought disorder, uncooperativeness, or marked evasiveness/guardedness; or not assessed.", "preferredTerm": "Brief Psychiatric Rating Scale-Anchored BPRSA1SET1 Standardized Character Result 9", "submissionValue": "9", "synonyms": ["BPRSA1SET1-9"]}]}