{"_links": {"parentPackage": {"href": "/mdr/ct/packages/sdtmct-2023-03-31", "title": "SDTM Controlled Terminology Package 53 Effective 2023-03-31", "type": "Terminology"}, "priorVersion": {"href": "/mdr/ct/packages/sdtmct-2022-12-16/codelists/C190886", "title": "CDISC Clinical Classification Harvey-Bradshaw Index HBI0101 Standardized Character Response Terminology", "type": "Code List"}, "rootItem": {"href": "/mdr/root/ct/sdtmct/codelists/C190886", "title": "Version-agnostic anchor resource for codelist C190886", "type": "Root Value Domain"}, "self": {"href": "/mdr/ct/packages/sdtmct-2023-03-31/codelists/C190886", "title": "CDISC Clinical Classification Harvey-Bradshaw Index HBI0101 Standardized Character Response Terminology", "type": "Code List"}}, "conceptId": "C190886", "definition": "Harvey-Bradshaw Index standardized character result for HBI0101 test and test code.", "extensible": "false", "name": "Harvey-Bradshaw Index Clinical Classification STRESC for HBI0101 TN/TC", "preferredTerm": "CDISC Clinical Classification Harvey-Bradshaw Index HBI0101 Standardized Character Response Terminology", "submissionValue": "HBI0101STR", "synonyms": ["Harvey-Bradshaw Index Clinical Classification STRESC for HBI0101 TN/TC"], "terms": [{"conceptId": "C190963", "definition": "Harvey-Bradshaw Index standardized character result for HBI0101-Very well.", "preferredTerm": "Harvey-Bradshaw Index HBI0101 Standardized Character Result 0", "submissionValue": "0", "synonyms": ["HBI0101-0"]}, {"conceptId": "C190964", "definition": "Harvey-Bradshaw Index standardized character result for HBI0101-Slightly below par.", "preferredTerm": "Harvey-Bradshaw Index HBI0101 Standardized Character Result 1", "submissionValue": "1", "synonyms": ["HBI0101-1"]}, {"conceptId": "C190965", "definition": "Harvey-Bradshaw Index standardized character result for HBI0101-Poor.", "preferredTerm": "Harvey-Bradshaw Index HBI0101 Standardized Character Result 2", "submissionValue": "2", "synonyms": ["HBI0101-2"]}, {"conceptId": "C190966", "definition": "Harvey-Bradshaw Index standardized character result for HBI0101-Very poor.", "preferredTerm": "Harvey-Bradshaw Index HBI0101 Standardized Character Result 3", "submissionValue": "3", "synonyms": ["HBI0101-3"]}, {"conceptId": "C190967", "definition": "Harvey-Bradshaw Index standardized character result for HBI0101-Terrible.", "preferredTerm": "Harvey-Bradshaw Index HBI0101 Standardized Character Result 4", "submissionValue": "4", "synonyms": ["HBI0101-4"]}]}