{"_links": {"parentPackage": {"href": "/mdr/ct/packages/sdtmct-2023-03-31", "title": "SDTM Controlled Terminology Package 53 Effective 2023-03-31", "type": "Terminology"}, "priorVersion": {"href": "/mdr/ct/packages/sdtmct-2022-12-16/codelists/C190900", "title": "CDISC Clinical Classification Modified Van Assche Index MVAI104 Standardized Character Response Terminology", "type": "Code List"}, "rootItem": {"href": "/mdr/root/ct/sdtmct/codelists/C190900", "title": "Version-agnostic anchor resource for codelist C190900", "type": "Root Value Domain"}, "self": {"href": "/mdr/ct/packages/sdtmct-2023-03-31/codelists/C190900", "title": "CDISC Clinical Classification Modified Van Assche Index MVAI104 Standardized Character Response Terminology", "type": "Code List"}}, "conceptId": "C190900", "definition": "Modified Van Assche Index standardized character result for MVAI104 test and test code.", "extensible": "false", "name": "Modified Van Assche Index Clinical Classification STRESC for MVAI104 TN/TC", "preferredTerm": "CDISC Clinical Classification Modified Van Assche Index MVAI104 Standardized Character Response Terminology", "submissionValue": "MVAI104STR", "synonyms": ["Modified Van Assche Index Clinical Classification STRESC for MVAI104 TN/TC"], "terms": [{"conceptId": "C191014", "definition": "Modified Van Assche Index standardized character result for MVAI104-Absent.", "preferredTerm": "Modified Van Assche Index MVAI104 Standardized Character Result 0", "submissionValue": "0", "synonyms": ["MVAI104-0"]}, {"conceptId": "C191015", "definition": "Modified Van Assche Index standardized character result for MVAI104-Diffuse.", "preferredTerm": "Modified Van Assche Index MVAI104 Standardized Character Result 1", "submissionValue": "1", "synonyms": ["MVAI104-1"]}, {"conceptId": "C191016", "definition": "Modified Van Assche Index standardized character result for MVAI104-Focal.", "preferredTerm": "Modified Van Assche Index MVAI104 Standardized Character Result 2", "submissionValue": "2", "synonyms": ["MVAI104-2"]}, {"conceptId": "C191017", "definition": "Modified Van Assche Index standardized character result for MVAI104-Collection - small.", "preferredTerm": "Modified Van Assche Index MVAI104 Standardized Character Result 3", "submissionValue": "3", "synonyms": ["MVAI104-3"]}, {"conceptId": "C191018", "definition": "Modified Van Assche Index standardized character result for MVAI104-Collection - medium.", "preferredTerm": "Modified Van Assche Index MVAI104 Standardized Character Result 4", "submissionValue": "4", "synonyms": ["MVAI104-4"]}, {"conceptId": "C191019", "definition": "Modified Van Assche Index standardized character result for MVAI104-Collection - large.", "preferredTerm": "Modified Van Assche Index MVAI104 Standardized Character Result 5", "submissionValue": "5", "synonyms": ["MVAI104-5"]}]}