{"_links": {"parentPackage": {"href": "/mdr/ct/packages/sdtmct-2023-03-31", "title": "SDTM Controlled Terminology Package 53 Effective 2023-03-31", "type": "Terminology"}, "priorVersion": {"href": "/mdr/ct/packages/sdtmct-2022-12-16/codelists/C190939", "title": "CDISC Questionnaire Patient Health Questionnaire - 8 Item Test Name Terminology", "type": "Code List"}, "rootItem": {"href": "/mdr/root/ct/sdtmct/codelists/C190939", "title": "Version-agnostic anchor resource for codelist C190939", "type": "Root Value Domain"}, "self": {"href": "/mdr/ct/packages/sdtmct-2023-03-31/codelists/C190939", "title": "CDISC Questionnaire Patient Health Questionnaire - 8 Item Test Name Terminology", "type": "Code List"}}, "conceptId": "C190939", "definition": "Patient Health Questionnaire - 8 test name.", "extensible": "false", "name": "Patient Health Questionnaire - 8 Questionnaire Test Name", "preferredTerm": "CDISC Questionnaire Patient Health Questionnaire - 8 Item Test Name Terminology", "submissionValue": "PHQ05TN", "synonyms": ["Patient Health Questionnaire - 8 Questionnaire Test Name"], "terms": [{"conceptId": "C191159", "definition": "Patient Health Questionnaire - 8 - Over the past 2 weeks, how often have you been bothered by any of the following problems? Feeling bad about yourself--or that you are a failure or have let yourself or your family down.", "preferredTerm": "PHQ-8 - Feeling Bad About Yourself", "submissionValue": "PHQ05-Feeling Bad About Yourself", "synonyms": ["PHQ05-Feeling Bad About Yourself"]}, {"conceptId": "C191155", "definition": "Patient Health Questionnaire - 8 - Over the past 2 weeks, how often have you been bothered by any of the following problems? Feeling down, depressed, or hopeless.", "preferredTerm": "PHQ-8 - Feeling Down Depressed or Hopeless", "submissionValue": "PHQ05-Feeling Down Depressed or Hopeless", "synonyms": ["PHQ05-Feeling Down Depressed or Hopeless"]}, {"conceptId": "C191157", "definition": "Patient Health Questionnaire - 8 - Over the past 2 weeks, how often have you been bothered by any of the following problems? Feeling tired or having little energy.", "preferredTerm": "PHQ-8 - Feeling Tired or Little Energy", "submissionValue": "PHQ05-Feeling Tired or Little Energy", "synonyms": ["PHQ05-Feeling Tired or Little Energy"]}, {"conceptId": "C191154", "definition": "Patient Health Questionnaire - 8 - Over the past 2 weeks, how often have you been bothered by any of the following problems? Little interest or pleasure in doing things.", "preferredTerm": "PHQ-8 - Little Interest or Pleasure in Things", "submissionValue": "PHQ05-Little Interest/Pleasure in Things", "synonyms": ["PHQ05-Little Interest/Pleasure in Things"]}, {"conceptId": "C191161", "definition": "Patient Health Questionnaire - 8 - Over the past 2 weeks, how often have you been bothered by any of the following problems? Moving or speaking so slowly that other people could have noticed? Or the opposite -- being so fidgety or restless that you have been moving around a lot more than usual.", "preferredTerm": "PHQ-8 - Moving Slowly or Fidgety or Restless", "submissionValue": "PHQ05-Moving Slowly or Fidgety/Restless", "synonyms": ["PHQ05-Moving Slowly or Fidgety/Restless"]}, {"conceptId": "C191158", "definition": "Patient Health Questionnaire - 8 - Over the past 2 weeks, how often have you been bothered by any of the following problems? Poor appetite or overeating.", "preferredTerm": "PHQ-8 - Poor Appetite or Overeating", "submissionValue": "PHQ05-Poor Appetite or Overeating", "synonyms": ["PHQ05-Poor Appetite or Overeating"]}, {"conceptId": "C191162", "definition": "Patient Health Questionnaire - 8 - Total Score.", "preferredTerm": "PHQ-8 - Total Score", "submissionValue": "PHQ05-Total Score", "synonyms": ["PHQ05-Total Score"]}, {"conceptId": "C191160", "definition": "Patient Health Questionnaire - 8 - Over the past 2 weeks, how often have you been bothered by any of the following problems? Trouble concentrating on things, such as reading the newspaper or watching television.", "preferredTerm": "PHQ-8 - Trouble Concentrating on Things", "submissionValue": "PHQ05-Trouble Concentrating on Things", "synonyms": ["PHQ05-Trouble Concentrating on Things"]}, {"conceptId": "C191156", "definition": "Patient Health Questionnaire - 8 - Over the past 2 weeks, how often have you been bothered by any of the following problems? Trouble falling or staying asleep, or sleeping too much.", "preferredTerm": "PHQ-8 - Trouble Falling or Staying Asleep", "submissionValue": "PHQ05-Trouble Falling or Staying Asleep", "synonyms": ["PHQ05-Trouble Falling or Staying Asleep"]}]}