{"_links": {"parentPackage": {"href": "/mdr/ct/packages/sdtmct-2023-03-31", "title": "SDTM Controlled Terminology Package 53 Effective 2023-03-31", "type": "Terminology"}, "priorVersion": {"href": "/mdr/ct/packages/sdtmct-2022-12-16/codelists/C190901", "title": "CDISC Clinical Classification Modified Van Assche Index MVAI105 Original Response Terminology", "type": "Code List"}, "rootItem": {"href": "/mdr/root/ct/sdtmct/codelists/C190901", "title": "Version-agnostic anchor resource for codelist C190901", "type": "Root Value Domain"}, "self": {"href": "/mdr/ct/packages/sdtmct-2023-03-31/codelists/C190901", "title": "CDISC Clinical Classification Modified Van Assche Index MVAI105 Original Response Terminology", "type": "Code List"}}, "conceptId": "C190901", "definition": "Modified Van Assche Index original result for MVAI105 test and test code.", "extensible": "false", "name": "Modified Van Assche Index Clinical Classification ORRES for MVAI105 TN/TC", "preferredTerm": "CDISC Clinical Classification Modified Van Assche Index MVAI105 Original Response Terminology", "submissionValue": "MVAI105OR", "synonyms": ["Modified Van Assche Index Clinical Classification ORRES for MVAI105 TN/TC"], "terms": [{"conceptId": "C191020", "definition": "Modified Van Assche Index original result for MVAI105-Fibrous.", "preferredTerm": "Modified Van Assche Index MVAI105 Original Result - Fibrous", "submissionValue": "Fibrous", "synonyms": ["MVAI105-Fibrous"]}, {"conceptId": "C191022", "definition": "Modified Van Assche Index original result for MVAI105-Fluid/pus.", "preferredTerm": "Modified Van Assche Index MVAI105 Original Result - Fluid/Pus", "submissionValue": "Fluid/pus", "synonyms": ["MVAI105-Fluid/pus"]}, {"conceptId": "C191021", "definition": "Modified Van Assche Index original result for MVAI105-Granulation tissue.", "preferredTerm": "Modified Van Assche Index MVAI105 Original Result - Granulation Tissue", "submissionValue": "Granulation tissue", "synonyms": ["MVAI105-Granulation tissue"]}]}