{"_links": {"parentPackage": {"href": "/mdr/ct/packages/sdtmct-2023-03-31", "title": "SDTM Controlled Terminology Package 53 Effective 2023-03-31", "type": "Terminology"}, "priorVersion": {"href": "/mdr/ct/packages/sdtmct-2022-12-16/codelists/C190891", "title": "CDISC Clinical Classification Harvey-Bradshaw Index HBI0105A Through HBI0105H Original Response Terminology", "type": "Code List"}, "rootItem": {"href": "/mdr/root/ct/sdtmct/codelists/C190891", "title": "Version-agnostic anchor resource for codelist C190891", "type": "Root Value Domain"}, "self": {"href": "/mdr/ct/packages/sdtmct-2023-03-31/codelists/C190891", "title": "CDISC Clinical Classification Harvey-Bradshaw Index HBI0105A Through HBI0105H Original Response Terminology", "type": "Code List"}}, "conceptId": "C190891", "definition": "Harvey-Bradshaw Index original result for HBI0105A through HBI0105H test and test code.", "extensible": "false", "name": "Harvey-Bradshaw Index Clinical Classification ORRES for HBI0105A Through HBI0105H TN/TC", "preferredTerm": "CDISC Clinical Classification Harvey-Bradshaw Index HBI0105A Through HBI0105H Original Response Terminology", "submissionValue": "HBI0105AT05HOR", "synonyms": ["Harvey-Bradshaw Index Clinical Classification ORRES for HBI0105A Through HBI0105H TN/TC"], "terms": [{"conceptId": "C190984", "definition": "Harvey-Bradshaw Index original result for HBI0105A through HBI0105H-No.", "preferredTerm": "Harvey-Bradshaw Index HBI0105A Through HBI0105H Original Result - No", "submissionValue": "no", "synonyms": ["HBI0105A through HBI0105H-no"]}, {"conceptId": "C190985", "definition": "Harvey-Bradshaw Index original result for HBI0105A through HBI0105H-Yes.", "preferredTerm": "Harvey-Bradshaw Index HBI0105A Through HBI0105H Original Result - Yes", "submissionValue": "yes", "synonyms": ["HBI0105A through HBI0105H-yes"]}]}