{"_links": {"parentPackage": {"href": "/mdr/ct/packages/sdtmct-2023-03-31", "title": "SDTM Controlled Terminology Package 53 Effective 2023-03-31", "type": "Terminology"}, "priorVersion": {"href": "/mdr/ct/packages/sdtmct-2022-12-16/codelists/C190902", "title": "CDISC Clinical Classification Modified Van Assche Index MVAI105 Standardized Character Response Terminology", "type": "Code List"}, "rootItem": {"href": "/mdr/root/ct/sdtmct/codelists/C190902", "title": "Version-agnostic anchor resource for codelist C190902", "type": "Root Value Domain"}, "self": {"href": "/mdr/ct/packages/sdtmct-2023-03-31/codelists/C190902", "title": "CDISC Clinical Classification Modified Van Assche Index MVAI105 Standardized Character Response Terminology", "type": "Code List"}}, "conceptId": "C190902", "definition": "Modified Van Assche Index standardized character result for MVAI105 test and test code.", "extensible": "false", "name": "Modified Van Assche Index Clinical Classification STRESC for MVAI105 TN/TC", "preferredTerm": "CDISC Clinical Classification Modified Van Assche Index MVAI105 Standardized Character Response Terminology", "submissionValue": "MVAI105STR", "synonyms": ["Modified Van Assche Index Clinical Classification STRESC for MVAI105 TN/TC"], "terms": [{"conceptId": "C191023", "definition": "Modified Van Assche Index standardized character result for MVAI105-Fibrous.", "preferredTerm": "Modified Van Assche Index MVAI105 Standardized Character Result 0", "submissionValue": "0", "synonyms": ["MVAI105-0"]}, {"conceptId": "C191024", "definition": "Modified Van Assche Index standardized character result for MVAI105-Granulation tissue.", "preferredTerm": "Modified Van Assche Index MVAI105 Standardized Character Result 1", "submissionValue": "1", "synonyms": ["MVAI105-1"]}, {"conceptId": "C191025", "definition": "Modified Van Assche Index standardized character result for MVAI105-Fluid/pus.", "preferredTerm": "Modified Van Assche Index MVAI105 Standardized Character Result 2", "submissionValue": "2", "synonyms": ["MVAI105-2"]}]}