{"_links": {"parentPackage": {"href": "/mdr/ct/packages/sdtmct-2023-03-31", "title": "SDTM Controlled Terminology Package 53 Effective 2023-03-31", "type": "Terminology"}, "priorVersion": {"href": "/mdr/ct/packages/sdtmct-2022-12-16/codelists/C190935", "title": "CDISC Clinical Classification Psoriasis Area and Severity Index European Medical Agency Version Test Name Terminology", "type": "Code List"}, "rootItem": {"href": "/mdr/root/ct/sdtmct/codelists/C190935", "title": "Version-agnostic anchor resource for codelist C190935", "type": "Root Value Domain"}, "self": {"href": "/mdr/ct/packages/sdtmct-2023-03-31/codelists/C190935", "title": "CDISC Clinical Classification Psoriasis Area and Severity Index European Medical Agency Version Test Name Terminology", "type": "Code List"}}, "conceptId": "C190935", "definition": "Psoriasis Area and Severity Index Version EMA test name.", "extensible": "false", "name": "Psoriasis Area and Severity Index Version EMA Clinical Classification Test Name", "preferredTerm": "CDISC Clinical Classification Psoriasis Area and Severity Index European Medical Agency Version Test Name Terminology", "submissionValue": "PASI04TN", "synonyms": ["Psoriasis Area and Severity Index Version EMA Clinical Classification Test Name"], "terms": [{"conceptId": "C191098", "definition": "Psoriasis Area and Severity Index Version EMA - Head: Area score.", "preferredTerm": "PASI EMA Version - Head: Area Score", "submissionValue": "PASI04-Head: Area Score", "synonyms": ["PASI04-Head: Area Score"]}, {"conceptId": "C191097", "definition": "Psoriasis Area and Severity Index Version EMA - Head: Desquamation/Scaling symptom score.", "preferredTerm": "PASI EMA Version - Head: Desquamation/Scaling", "submissionValue": "PASI04-Head: Desquamation/Scaling", "synonyms": ["PASI04-Head: Desquamation/Scaling"]}, {"conceptId": "C191095", "definition": "Psoriasis Area and Severity Index Version EMA - Head: Erythema/Redness symptom score.", "preferredTerm": "PASI EMA Version - Head: Erythema/Redness", "submissionValue": "PASI04-Head: Erythema/Redness", "synonyms": ["PASI04-Head: Erythema/Redness"]}, {"conceptId": "C191111", "definition": "Psoriasis Area and Severity Index Version EMA - Head: Sum of symptom scores.", "preferredTerm": "PASI EMA Version - Head: Sum of Symptom Scores", "submissionValue": "PASI04-Head: Sum of Symptom Scores", "synonyms": ["PASI04-Head: Sum of Symptom Scores"]}, {"conceptId": "C191113", "definition": "Psoriasis Area and Severity Index Version EMA - Head: Sum x area x 0.1.", "preferredTerm": "PASI EMA Version - Head: Sum X Area X 0.1", "submissionValue": "PASI04-Head: Sum X Area X 0.1", "synonyms": ["PASI04-Head: Sum X Area X 0.1"]}, {"conceptId": "C191112", "definition": "Psoriasis Area and Severity Index Version EMA - Head: Sum of symptom scores x area score.", "preferredTerm": "PASI EMA Version - Head: Sum X Area", "submissionValue": "PASI04-Head: Sum X Area", "synonyms": ["PASI04-Head: Sum X Area"]}, {"conceptId": "C191096", "definition": "Psoriasis Area and Severity Index Version EMA - Head: Thickness/Induration symptom score.", "preferredTerm": "PASI EMA Version - Head: Thickness/Induration", "submissionValue": "PASI04-Head: Thickness/Induration", "synonyms": ["PASI04-Head: Thickness/Induration"]}, {"conceptId": "C191110", "definition": "Psoriasis Area and Severity Index Version EMA - Lower Extremities: Area score.", "preferredTerm": "PASI EMA Version - Lower Extremities: Area Score", "submissionValue": "PASI04-Low Extrem: Area Score", "synonyms": ["PASI04-Low Extrem: Area Score"]}, {"conceptId": "C191109", "definition": "Psoriasis Area and Severity Index Version EMA - Lower Extremities: Desquamation/Scaling symptom score.", "preferredTerm": "PASI EMA Version - Lower Extremities: Desquamation/Scaling", "submissionValue": "PASI04-Low Extrem: Desquamation/Scaling", "synonyms": ["PASI04-Low Extrem: Desquamation/Scaling"]}, {"conceptId": "C191107", "definition": "Psoriasis Area and Severity Index Version EMA - Lower Extremities: Erythema/Redness symptom score.", "preferredTerm": "PASI EMA Version - Lower Extremities: Erythema/Redness", "submissionValue": "PASI04-Low Extrem: Erythema/Redness", "synonyms": ["PASI04-Low Extrem: Erythema/Redness"]}, {"conceptId": "C191120", "definition": "Psoriasis Area and Severity Index Version EMA - Lower Extremities: Sum of symptom scores.", "preferredTerm": "PASI EMA Version - Lower Extremities: Sum of Symptom Scores", "submissionValue": "PASI04-Low Extrem: Sum of Symptom Scores", "synonyms": ["PASI04-Low Extrem: Sum of Symptom Scores"]}, {"conceptId": "C191122", "definition": "Psoriasis Area and Severity Index Version EMA - Lower Extremities: Sum x area x 0.4.", "preferredTerm": "PASI EMA Version - Lower Extremities: Sum X Area X 0.4", "submissionValue": "PASI04-Low Extrem: Sum X Area X 0.4", "synonyms": ["PASI04-Low Extrem: Sum X Area X 0.4"]}, {"conceptId": "C191121", "definition": "Psoriasis Area and Severity Index Version EMA - Lower Extremities: Sum of symptom scores x area score.", "preferredTerm": "PASI EMA Version - Lower Extremities: Sum X Area", "submissionValue": "PASI04-Low Extrem: Sum X Area", "synonyms": ["PASI04-Low Extrem: Sum X Area"]}, {"conceptId": "C191108", "definition": "Psoriasis Area and Severity Index Version EMA - Lower Extremities: Thickness/Induration symptom score.", "preferredTerm": "PASI EMA Version - Lower Extremities: Thickness/Induration", "submissionValue": "PASI04-Low Extrem: Thickness/Induration", "synonyms": ["PASI04-Low Extrem: Thickness/Induration"]}, {"conceptId": "C191123", "definition": "Psoriasis Area and Severity Index Version EMA - Total sum.", "preferredTerm": "PASI EMA Version - Total Sum", "submissionValue": "PASI04-Total Sum", "synonyms": ["PASI04-Total Sum"]}, {"conceptId": "C191106", "definition": "Psoriasis Area and Severity Index Version EMA - Trunk: Area score.", "preferredTerm": "PASI EMA Version - Trunk: Area Score", "submissionValue": "PASI04-Trunk: Area Score", "synonyms": ["PASI04-Trunk: Area Score"]}, {"conceptId": "C191105", "definition": "Psoriasis Area and Severity Index Version EMA - Trunk: Desquamation/Scaling symptom score.", "preferredTerm": "PASI EMA Version - Trunk: Desquamation/Scaling", "submissionValue": "PASI04-Trunk: Desquamation/Scaling", "synonyms": ["PASI04-Trunk: Desquamation/Scaling"]}, {"conceptId": "C191103", "definition": "Psoriasis Area and Severity Index Version EMA - Trunk: Erythema/Redness symptom score.", "preferredTerm": "PASI EMA Version - Trunk: Erythema/Redness", "submissionValue": "PASI04-Trunk: Erythema/Redness", "synonyms": ["PASI04-Trunk: Erythema/Redness"]}, {"conceptId": "C191117", "definition": "Psoriasis Area and Severity Index Version EMA - Trunk: Sum of symptom scores.", "preferredTerm": "PASI EMA Version - Trunk: Sum of Symptom Scores", "submissionValue": "PASI04-Trunk: Sum of Symptom Scores", "synonyms": ["PASI04-Trunk: Sum of Symptom Scores"]}, {"conceptId": "C191119", "definition": "Psoriasis Area and Severity Index Version EMA - Trunk: Sum x area x 0.3.", "preferredTerm": "PASI EMA Version - Trunk: Sum X Area X 0.3", "submissionValue": "PASI04-Trunk: Sum X Area X 0.3", "synonyms": ["PASI04-Trunk: Sum X Area X 0.3"]}, {"conceptId": "C191118", "definition": "Psoriasis Area and Severity Index Version EMA - Trunk: Sum of symptom scores x area score.", "preferredTerm": "PASI EMA Version - Trunk: Sum X Area", "submissionValue": "PASI04-Trunk: Sum X Area", "synonyms": ["PASI04-Trunk: Sum X Area"]}, {"conceptId": "C191104", "definition": "Psoriasis Area and Severity Index Version EMA - Trunk: Thickness/Induration symptom score.", "preferredTerm": "PASI EMA Version - Trunk: Thickness/Induration", "submissionValue": "PASI04-Trunk: Thickness/Induration", "synonyms": ["PASI04-Trunk: Thickness/Induration"]}, {"conceptId": "C191102", "definition": "Psoriasis Area and Severity Index Version EMA - Upper Extremities: Area score.", "preferredTerm": "PASI EMA Version - Upper Extremities: Area Score", "submissionValue": "PASI04-Up Extrem: Area Score", "synonyms": ["PASI04-Up Extrem: Area Score"]}, {"conceptId": "C191101", "definition": "Psoriasis Area and Severity Index Version EMA - Upper Extremities: Desquamation/Scaling symptom score.", "preferredTerm": "PASI EMA Version - Upper Extremities: Desquamation/Scaling", "submissionValue": "PASI04-Up Extrem: Desquamation/Scaling", "synonyms": ["PASI04-Up Extrem: Desquamation/Scaling"]}, {"conceptId": "C191099", "definition": "Psoriasis Area and Severity Index Version EMA - Upper Extremities: Erythema/Redness symptom score.", "preferredTerm": "PASI EMA Version - Upper Extremities: Erythema/Redness", "submissionValue": "PASI04-Up Extrem: Erythema/Redness", "synonyms": ["PASI04-Up Extrem: Erythema/Redness"]}, {"conceptId": "C191114", "definition": "Psoriasis Area and Severity Index Version EMA - Upper Extremities: Sum of symptom scores.", "preferredTerm": "PASI EMA Version - Upper Extremities: Sum of Symptom Scores", "submissionValue": "PASI04-Up Extrem: Sum of Symptom Scores", "synonyms": ["PASI04-Up Extrem: Sum of Symptom Scores"]}, {"conceptId": "C191116", "definition": "Psoriasis Area and Severity Index Version EMA - Upper Extremities: Sum x area x 0.2.", "preferredTerm": "PASI EMA Version - Upper Extremities: Sum X Area X 0.2", "submissionValue": "PASI04-Up Extrem: Sum X Area X 0.2", "synonyms": ["PASI04-Up Extrem: Sum X Area X 0.2"]}, {"conceptId": "C191115", "definition": "Psoriasis Area and Severity Index Version EMA - Upper Extremities: Sum of symptom scores x area score.", "preferredTerm": "PASI EMA Version - Upper Extremities: Sum X Area", "submissionValue": "PASI04-Up Extrem: Sum X Area", "synonyms": ["PASI04-Up Extrem: Sum X Area"]}, {"conceptId": "C191100", "definition": "Psoriasis Area and Severity Index Version EMA - Upper Extremities: Thickness/Induration symptom score.", "preferredTerm": "PASI EMA Version - Upper Extremities: Thickness/Induration", "submissionValue": "PASI04-Up Extrem: Thickness/Induration", "synonyms": ["PASI04-Up Extrem: Thickness/Induration"]}]}