{"_links": {"parentPackage": {"href": "/mdr/ct/packages/sdtmct-2023-03-31", "title": "SDTM Controlled Terminology Package 53 Effective 2023-03-31", "type": "Terminology"}, "priorVersion": {"href": "/mdr/ct/packages/sdtmct-2022-12-16/codelists/C190899", "title": "CDISC Clinical Classification Modified Van Assche Index MVAI104 Original Response Terminology", "type": "Code List"}, "rootItem": {"href": "/mdr/root/ct/sdtmct/codelists/C190899", "title": "Version-agnostic anchor resource for codelist C190899", "type": "Root Value Domain"}, "self": {"href": "/mdr/ct/packages/sdtmct-2023-03-31/codelists/C190899", "title": "CDISC Clinical Classification Modified Van Assche Index MVAI104 Original Response Terminology", "type": "Code List"}}, "conceptId": "C190899", "definition": "Modified Van Assche Index original result for MVAI104 test and test code.", "extensible": "false", "name": "Modified Van Assche Index Clinical Classification ORRES for MVAI104 TN/TC", "preferredTerm": "CDISC Clinical Classification Modified Van Assche Index MVAI104 Original Response Terminology", "submissionValue": "MVAI104OR", "synonyms": ["Modified Van Assche Index Clinical Classification ORRES for MVAI104 TN/TC"], "terms": [{"conceptId": "C191008", "definition": "Modified Van Assche Index original result for MVAI104-Absent.", "preferredTerm": "Modified Van Assche Index MVAI104 Original Result - Absent", "submissionValue": "Absent", "synonyms": ["MVAI104-Absent"]}, {"conceptId": "C191013", "definition": "Modified Van Assche Index original result for MVAI104-Collection - large.", "preferredTerm": "Modified Van Assche Index MVAI104 Original Result - Collection - Large", "submissionValue": "Collection - large", "synonyms": ["MVAI104-Collection - large"]}, {"conceptId": "C191012", "definition": "Modified Van Assche Index original result for MVAI104-Collection - medium.", "preferredTerm": "Modified Van Assche Index MVAI104 Original Result - Collection - Medium", "submissionValue": "Collection - medium", "synonyms": ["MVAI104-Collection - medium"]}, {"conceptId": "C191011", "definition": "Modified Van Assche Index original result for MVAI104-Collection - small.", "preferredTerm": "Modified Van Assche Index MVAI104 Original Result - Collection - Small", "submissionValue": "Collection - small", "synonyms": ["MVAI104-Collection - small"]}, {"conceptId": "C191009", "definition": "Modified Van Assche Index original result for MVAI104-Diffuse.", "preferredTerm": "Modified Van Assche Index MVAI104 Original Result - Diffuse", "submissionValue": "Diffuse", "synonyms": ["MVAI104-Diffuse"]}, {"conceptId": "C191010", "definition": "Modified Van Assche Index original result for MVAI104-Focal.", "preferredTerm": "Modified Van Assche Index MVAI104 Original Result - Focal", "submissionValue": "Focal", "synonyms": ["MVAI104-Focal"]}]}