{"_links": {"parentPackage": {"href": "/mdr/ct/packages/sdtmct-2023-03-31", "title": "SDTM Controlled Terminology Package 53 Effective 2023-03-31", "type": "Terminology"}, "priorVersion": {"href": "/mdr/ct/packages/sdtmct-2022-12-16/codelists/C190888", "title": "CDISC Clinical Classification Harvey-Bradshaw Index HBI0102 Standardized Character Response Terminology", "type": "Code List"}, "rootItem": {"href": "/mdr/root/ct/sdtmct/codelists/C190888", "title": "Version-agnostic anchor resource for codelist C190888", "type": "Root Value Domain"}, "self": {"href": "/mdr/ct/packages/sdtmct-2023-03-31/codelists/C190888", "title": "CDISC Clinical Classification Harvey-Bradshaw Index HBI0102 Standardized Character Response Terminology", "type": "Code List"}}, "conceptId": "C190888", "definition": "Harvey-Bradshaw Index standardized character result for HBI0102 test and test code.", "extensible": "false", "name": "Harvey-Bradshaw Index Clinical Classification STRESC for HBI0102 TN/TC", "preferredTerm": "CDISC Clinical Classification Harvey-Bradshaw Index HBI0102 Standardized Character Response Terminology", "submissionValue": "HBI0102STR", "synonyms": ["Harvey-Bradshaw Index Clinical Classification STRESC for HBI0102 TN/TC"], "terms": [{"conceptId": "C190972", "definition": "Harvey-Bradshaw Index standardized character result for HBI0102-None.", "preferredTerm": "Harvey-Bradshaw Index HBI0102 Standardized Character Result 0", "submissionValue": "0", "synonyms": ["HBI0102-0"]}, {"conceptId": "C190973", "definition": "Harvey-Bradshaw Index standardized character result for HBI0102-Mild.", "preferredTerm": "Harvey-Bradshaw Index HBI0102 Standardized Character Result 1", "submissionValue": "1", "synonyms": ["HBI0102-1"]}, {"conceptId": "C190974", "definition": "Harvey-Bradshaw Index standardized character result for HBI0102-Moderate.", "preferredTerm": "Harvey-Bradshaw Index HBI0102 Standardized Character Result 2", "submissionValue": "2", "synonyms": ["HBI0102-2"]}, {"conceptId": "C190975", "definition": "Harvey-Bradshaw Index standardized character result for HBI0102-Severe.", "preferredTerm": "Harvey-Bradshaw Index HBI0102 Standardized Character Result 3", "submissionValue": "3", "synonyms": ["HBI0102-3"]}]}