{"_links": {"parentPackage": {"href": "/mdr/ct/packages/sdtmct-2023-03-31", "title": "SDTM Controlled Terminology Package 53 Effective 2023-03-31", "type": "Terminology"}, "priorVersion": {"href": "/mdr/ct/packages/sdtmct-2022-12-16/codelists/C190904", "title": "CDISC Clinical Classification Rutgeerts Score RUTG0101 Standardized Character Response Terminology", "type": "Code List"}, "rootItem": {"href": "/mdr/root/ct/sdtmct/codelists/C190904", "title": "Version-agnostic anchor resource for codelist C190904", "type": "Root Value Domain"}, "self": {"href": "/mdr/ct/packages/sdtmct-2023-03-31/codelists/C190904", "title": "CDISC Clinical Classification Rutgeerts Score RUTG0101 Standardized Character Response Terminology", "type": "Code List"}}, "conceptId": "C190904", "definition": "Rutgeerts Score standardized character result for RUTG0101 test and test code.", "extensible": "false", "name": "Rutgeerts Score Clinical Classification STRESC for RUTG0101 TN/TC", "preferredTerm": "CDISC Clinical Classification Rutgeerts Score RUTG0101 Standardized Character Response Terminology", "submissionValue": "RUTG0101STR", "synonyms": ["Rutgeerts Score Clinical Classification STRESC for RUTG0101 TN/TC"], "terms": [{"conceptId": "C191031", "definition": "Rutgeerts Score standardized character result for RUTG0101-No lesions.", "preferredTerm": "Rutgeerts Score RUTG0101 Standardized Character Result i0", "submissionValue": "i0", "synonyms": ["RUTG0101-i0"]}, {"conceptId": "C191032", "definition": "Rutgeerts Score standardized character result for RUTG0101-Less than 5 aphthous lesions.", "preferredTerm": "Rutgeerts Score RUTG0101 Standardized Character Result i1", "submissionValue": "i1", "synonyms": ["RUTG0101-i1"]}, {"conceptId": "C191033", "definition": "Rutgeerts Score standardized character result for RUTG0101-Greater than 5 aphthous lesions with normal mucosa between the lesions, or skip areas of larger lesions or lesions confined to the ileocolonic anastomosis (i.e., less than 1 cm in length).", "preferredTerm": "Rutgeerts Score RUTG0101 Standardized Character Result i2", "submissionValue": "i2", "synonyms": ["RUTG0101-i2"]}, {"conceptId": "C191034", "definition": "Rutgeerts Score standardized character result for RUTG0101-Diffuse aphthous ileitis with diffusely inflamed mucosa.", "preferredTerm": "Rutgeerts Score RUTG0101 Standardized Character Result i3", "submissionValue": "i3", "synonyms": ["RUTG0101-i3"]}, {"conceptId": "C191035", "definition": "Rutgeerts Score standardized character result for RUTG0101-Diffuse inflammation with already larger ulcers, nodules, and/or narrowing.", "preferredTerm": "Rutgeerts Score RUTG0101 Standardized Character Result i4", "submissionValue": "i4", "synonyms": ["RUTG0101-i4"]}]}