{"_links": {"parentPackage": {"href": "/mdr/ct/packages/sdtmct-2023-03-31", "title": "SDTM Controlled Terminology Package 53 Effective 2023-03-31", "type": "Terminology"}, "priorVersion": {"href": "/mdr/ct/packages/sdtmct-2022-12-16/codelists/C190898", "title": "CDISC Clinical Classification Modified Van Assche Index MVAI103 Standardized Character Response Terminology", "type": "Code List"}, "rootItem": {"href": "/mdr/root/ct/sdtmct/codelists/C190898", "title": "Version-agnostic anchor resource for codelist C190898", "type": "Root Value Domain"}, "self": {"href": "/mdr/ct/packages/sdtmct-2023-03-31/codelists/C190898", "title": "CDISC Clinical Classification Modified Van Assche Index MVAI103 Standardized Character Response Terminology", "type": "Code List"}}, "conceptId": "C190898", "definition": "Modified Van Assche Index standardized character result for MVAI103 test and test code.", "extensible": "false", "name": "Modified Van Assche Index Clinical Classification STRESC for MVAI103 TN/TC", "preferredTerm": "CDISC Clinical Classification Modified Van Assche Index MVAI103 Standardized Character Response Terminology", "submissionValue": "MVAI103STR", "synonyms": ["Modified Van Assche Index Clinical Classification STRESC for MVAI103 TN/TC"], "terms": [{"conceptId": "C191005", "definition": "Modified Van Assche Index standardized character result for MVAI103-Normal.", "preferredTerm": "Modified Van Assche Index MVAI103 Standardized Character Result 0", "submissionValue": "0", "synonyms": ["MVAI103-0"]}, {"conceptId": "C191006", "definition": "Modified Van Assche Index standardized character result for MVAI103-Thickened.", "preferredTerm": "Modified Van Assche Index MVAI103 Standardized Character Result 1", "submissionValue": "1", "synonyms": ["MVAI103-1"]}, {"conceptId": "C191007", "definition": "Modified Van Assche Index standardized character result for MVAI103-Increased signal intensity.", "preferredTerm": "Modified Van Assche Index MVAI103 Standardized Character Result 2", "submissionValue": "2", "synonyms": ["MVAI103-2"]}]}