{"_links": {"parentPackage": {"href": "/mdr/ct/packages/sdtmct-2023-03-31", "title": "SDTM Controlled Terminology Package 53 Effective 2023-03-31", "type": "Terminology"}, "priorVersion": {"href": "/mdr/ct/packages/sdtmct-2022-12-16/codelists/C190934", "title": "CDISC Clinical Classification Psoriasis Area and Severity Index Fredriksson Version Test Code Terminology", "type": "Code List"}, "rootItem": {"href": "/mdr/root/ct/sdtmct/codelists/C190934", "title": "Version-agnostic anchor resource for codelist C190934", "type": "Root Value Domain"}, "self": {"href": "/mdr/ct/packages/sdtmct-2023-03-31/codelists/C190934", "title": "CDISC Clinical Classification Psoriasis Area and Severity Index Fredriksson Version Test Code Terminology", "type": "Code List"}}, "conceptId": "C190934", "definition": "Psoriasis Area and Severity Index Version Fredriksson test code.", "extensible": "false", "name": "Psoriasis Area and Severity Index Version Fredriksson Clinical Classification Test Code", "preferredTerm": "CDISC Clinical Classification Psoriasis Area and Severity Index Fredriksson Version Test Code Terminology", "submissionValue": "PASI03TC", "synonyms": ["Psoriasis Area and Severity Index Version Fredriksson Clinical Classification Test Code"], "terms": [{"conceptId": "C191066", "definition": "Psoriasis Area and Severity Index Version Fredriksson - Head: Erythema/Redness symptom score.", "preferredTerm": "PASI Fredriksson Version - Head: Erythema/Redness", "submissionValue": "PASI0301", "synonyms": ["PASI03-Head: Erythema/Redness"]}, {"conceptId": "C191067", "definition": "Psoriasis Area and Severity Index Version Fredriksson - Head: Thickness/Induration symptom score.", "preferredTerm": "PASI Fredriksson Version - Head: Thickness/Induration", "submissionValue": "PASI0302", "synonyms": ["PASI03-Head: Thickness/Induration"]}, {"conceptId": "C191068", "definition": "Psoriasis Area and Severity Index Version Fredriksson - Head: Desquamation/Scaling symptom score.", "preferredTerm": "PASI Fredriksson Version - Head: Desquamation/Scaling", "submissionValue": "PASI0303", "synonyms": ["PASI03-Head: Desquamation/Scaling"]}, {"conceptId": "C191069", "definition": "Psoriasis Area and Severity Index Version Fredriksson - Head: Area score.", "preferredTerm": "PASI Fredriksson Version - Head: Area Score", "submissionValue": "PASI0304", "synonyms": ["PASI03-Head: Area Score"]}, {"conceptId": "C191070", "definition": "Psoriasis Area and Severity Index Version Fredriksson - Upper Extremities: Erythema/Redness symptom score.", "preferredTerm": "PASI Fredriksson Version - Upper Extremities: Erythema/Redness", "submissionValue": "PASI0305", "synonyms": ["PASI03-Up Extrem: Erythema/Redness"]}, {"conceptId": "C191071", "definition": "Psoriasis Area and Severity Index Version Fredriksson - Upper Extremities: Thickness/Induration symptom score.", "preferredTerm": "PASI Fredriksson Version - Upper Extremities: Thickness/Induration", "submissionValue": "PASI0306", "synonyms": ["PASI03-Up Extrem: Thickness/Induration"]}, {"conceptId": "C191072", "definition": "Psoriasis Area and Severity Index Version Fredriksson - Upper Extremities: Desquamation/Scaling symptom score.", "preferredTerm": "PASI Fredriksson Version - Upper Extremities: Desquamation/Scaling", "submissionValue": "PASI0307", "synonyms": ["PASI03-Up Extrem: Desquamation/Scaling"]}, {"conceptId": "C191073", "definition": "Psoriasis Area and Severity Index Version Fredriksson - Upper Extremities: Area score.", "preferredTerm": "PASI Fredriksson Version - Upper Extremities: Area Score", "submissionValue": "PASI0308", "synonyms": ["PASI03-Up Extrem: Area Score"]}, {"conceptId": "C191074", "definition": "Psoriasis Area and Severity Index Version Fredriksson - Trunk: Erythema/Redness symptom score.", "preferredTerm": "PASI Fredriksson Version - Trunk: Erythema/Redness", "submissionValue": "PASI0309", "synonyms": ["PASI03-Trunk: Erythema/Redness"]}, {"conceptId": "C191075", "definition": "Psoriasis Area and Severity Index Version Fredriksson - Trunk: Thickness/Induration symptom score.", "preferredTerm": "PASI Fredriksson Version - Trunk: Thickness/Induration", "submissionValue": "PASI0310", "synonyms": ["PASI03-Trunk: Thickness/Induration"]}, {"conceptId": "C191076", "definition": "Psoriasis Area and Severity Index Version Fredriksson - Trunk: Desquamation/Scaling symptom score.", "preferredTerm": "PASI Fredriksson Version - Trunk: Desquamation/Scaling", "submissionValue": "PASI0311", "synonyms": ["PASI03-Trunk: Desquamation/Scaling"]}, {"conceptId": "C191077", "definition": "Psoriasis Area and Severity Index Version Fredriksson - Trunk: Area score.", "preferredTerm": "PASI Fredriksson Version - Trunk: Area Score", "submissionValue": "PASI0312", "synonyms": ["PASI03-Trunk: Area Score"]}, {"conceptId": "C191078", "definition": "Psoriasis Area and Severity Index Version Fredriksson - Lower Extremities: Erythema/Redness symptom score.", "preferredTerm": "PASI Fredriksson Version - Lower Extremities: Erythema/Redness", "submissionValue": "PASI0313", "synonyms": ["PASI03-Low Extrem: Erythema/Redness"]}, {"conceptId": "C191079", "definition": "Psoriasis Area and Severity Index Version Fredriksson - Lower Extremities: Thickness/Induration symptom score.", "preferredTerm": "PASI Fredriksson Version - Lower Extremities: Thickness/Induration", "submissionValue": "PASI0314", "synonyms": ["PASI03-Low Extrem: Thickness/Induration"]}, {"conceptId": "C191080", "definition": "Psoriasis Area and Severity Index Version Fredriksson - Lower Extremities: Desquamation/Scaling symptom score.", "preferredTerm": "PASI Fredriksson Version - Lower Extremities: Desquamation/Scaling", "submissionValue": "PASI0315", "synonyms": ["PASI03-Low Extrem: Desquamation/Scaling"]}, {"conceptId": "C191081", "definition": "Psoriasis Area and Severity Index Version Fredriksson - Lower Extremities: Area score.", "preferredTerm": "PASI Fredriksson Version - Lower Extremities: Area Score", "submissionValue": "PASI0316", "synonyms": ["PASI03-Low Extrem: Area Score"]}, {"conceptId": "C191082", "definition": "Psoriasis Area and Severity Index Version Fredriksson - Head: Sum of symptom scores.", "preferredTerm": "PASI Fredriksson Version - Head: Sum of Symptom Scores", "submissionValue": "PASI0317", "synonyms": ["PASI03-Head: Sum of Symptom Scores"]}, {"conceptId": "C191083", "definition": "Psoriasis Area and Severity Index Version Fredriksson - Head: Sum of symptom scores x area score.", "preferredTerm": "PASI Fredriksson Version - Head: Sum X Area", "submissionValue": "PASI0318", "synonyms": ["PASI03-Head: Sum X Area"]}, {"conceptId": "C191084", "definition": "Psoriasis Area and Severity Index Version Fredriksson - Head: Sum x area x 0.1.", "preferredTerm": "PASI Fredriksson Version - Head: Sum X Area X 0.1", "submissionValue": "PASI0319", "synonyms": ["PASI03-Head: Sum X Area X 0.1"]}, {"conceptId": "C191085", "definition": "Psoriasis Area and Severity Index Version Fredriksson - Upper Extremities: Sum of symptom scores.", "preferredTerm": "PASI Fredriksson Version - Upper Extremities: Sum of Symptom Scores", "submissionValue": "PASI0320", "synonyms": ["PASI03-Up Extrem: Sum of Symptom Scores"]}, {"conceptId": "C191086", "definition": "Psoriasis Area and Severity Index Version Fredriksson - Upper Extremities: Sum of symptom scores x area score.", "preferredTerm": "PASI Fredriksson Version - Upper Extremities: Sum X Area", "submissionValue": "PASI0321", "synonyms": ["PASI03-Up Extrem: Sum X Area"]}, {"conceptId": "C191087", "definition": "Psoriasis Area and Severity Index Version Fredriksson - Upper Extremities: Sum x area x 0.2.", "preferredTerm": "PASI Fredriksson Version - Upper Extremities: Sum X Area X 0.2", "submissionValue": "PASI0322", "synonyms": ["PASI03-Up Extrem: Sum X Area X 0.2"]}, {"conceptId": "C191088", "definition": "Psoriasis Area and Severity Index Version Fredriksson - Trunk: Sum of symptom scores.", "preferredTerm": "PASI Fredriksson Version - Trunk: Sum of Symptom Scores", "submissionValue": "PASI0323", "synonyms": ["PASI03-Trunk: Sum of Symptom Scores"]}, {"conceptId": "C191089", "definition": "Psoriasis Area and Severity Index Version Fredriksson - Trunk: Sum of symptom scores x area score.", "preferredTerm": "PASI Fredriksson Version - Trunk: Sum X Area", "submissionValue": "PASI0324", "synonyms": ["PASI03-Trunk: Sum X Area"]}, {"conceptId": "C191090", "definition": "Psoriasis Area and Severity Index Version Fredriksson - Trunk: Sum x area x 0.3.", "preferredTerm": "PASI Fredriksson Version - Trunk: Sum X Area X 0.3", "submissionValue": "PASI0325", "synonyms": ["PASI03-Trunk: Sum X Area X 0.3"]}, {"conceptId": "C191091", "definition": "Psoriasis Area and Severity Index Version Fredriksson - Lower Extremities: Sum of symptom scores.", "preferredTerm": "PASI Fredriksson Version - Lower Extremities: Sum of Symptom Scores", "submissionValue": "PASI0326", "synonyms": ["PASI03-Low Extrem: Sum of Symptom Scores"]}, {"conceptId": "C191092", "definition": "Psoriasis Area and Severity Index Version Fredriksson - Lower Extremities: Sum of symptom scores x area score.", "preferredTerm": "PASI Fredriksson Version - Lower Extremities: Sum X Area", "submissionValue": "PASI0327", "synonyms": ["PASI03-Low Extrem: Sum X Area"]}, {"conceptId": "C191093", "definition": "Psoriasis Area and Severity Index Version Fredriksson - Lower Extremities: Sum x area x 0.4.", "preferredTerm": "PASI Fredriksson Version - Lower Extremities: Sum X Area X 0.4", "submissionValue": "PASI0328", "synonyms": ["PASI03-Low Extrem: Sum X Area X 0.4"]}, {"conceptId": "C191094", "definition": "Psoriasis Area and Severity Index Version Fredriksson - Total sum.", "preferredTerm": "PASI Fredriksson Version - Total Sum", "submissionValue": "PASI0329", "synonyms": ["PASI03-Total Sum"]}]}