{"_links": {"parentPackage": {"href": "/mdr/ct/packages/sdtmct-2023-03-31", "title": "SDTM Controlled Terminology Package 53 Effective 2023-03-31", "type": "Terminology"}, "rootItem": {"href": "/mdr/root/ct/sdtmct/codelists/C193274", "title": "Version-agnostic anchor resource for codelist C193274", "type": "Root Value Domain"}, "self": {"href": "/mdr/ct/packages/sdtmct-2023-03-31/codelists/C193274", "title": "CDISC Questionnaire Kidney Disease and Quality of Life-36 Version 1 Test Code Terminology", "type": "Code List"}}, "conceptId": "C193274", "definition": "Kidney Disease and Quality of Life-36 Version 1 test code.", "extensible": "false", "name": "Kidney Disease and Quality of Life-36 Version 1 Questionnaire Test Code", "preferredTerm": "CDISC Questionnaire Kidney Disease and Quality of Life-36 Version 1 Test Code Terminology", "submissionValue": "KDQ1TC", "synonyms": ["Kidney Disease and Quality of Life-36 Version 1 Questionnaire Test Code"], "terms": [{"conceptId": "C193326", "definition": "Kidney Disease and Quality of Life-36 Version 1 - In general, would you say your health is.", "preferredTerm": "KDQOL-36 Version 1 - In General You Say Your Health Is", "submissionValue": "KDQ101", "synonyms": ["KDQ1-In General You Say Your Health Is"]}, {"conceptId": "C193327", "definition": "Kidney Disease and Quality of Life-36 Version 1 - Does your health now limit you in these activities? If so, how much: Moderate activities, such as moving a table, pushing a vacuum cleaner, bowling, or playing golf.", "preferredTerm": "KDQOL-36 Version 1 - Limit Moderate Activities", "submissionValue": "KDQ102", "synonyms": ["KDQ1-Limit Moderate Activities"]}, {"conceptId": "C193328", "definition": "Kidney Disease and Quality of Life-36 Version 1 - Does your health now limit you in these activities? If so, how much: Climbing several flights of stairs.", "preferredTerm": "KDQOL-36 Version 1 - Limit Climbing Several Flights", "submissionValue": "KDQ103", "synonyms": ["KDQ1-Limit Climbing Several Flights"]}, {"conceptId": "C193329", "definition": "Kidney Disease and Quality of Life-36 Version 1 - During the past 4 weeks, have you had any of the following problems with your work or other regular daily activities as a result of your physical health: Accomplished less than you would like.", "preferredTerm": "KDQOL-36 Version 1 - Physical: Accomplished Less", "submissionValue": "KDQ104", "synonyms": ["KDQ1-Physical: Accomplished Less"]}, {"conceptId": "C193330", "definition": "Kidney Disease and Quality of Life-36 Version 1 - During the past 4 weeks, have you had any of the following problems with your work or other regular daily activities as a result of your physical health: Were limited in the kind of work or other activities.", "preferredTerm": "KDQOL-36 Version 1 - Physical: Limited Kind of Work", "submissionValue": "KDQ105", "synonyms": ["KDQ1-Physical: Limited Kind of Work"]}, {"conceptId": "C193331", "definition": "Kidney Disease and Quality of Life-36 Version 1 - During the past 4 weeks, have you had any of the following problems with your work or other regular daily activities as a result of any emotional problems (such as feeling depressed or anxious): Accomplished less than you would like.", "preferredTerm": "KDQOL-36 Version 1 - Emotional: Accomplished Less", "submissionValue": "KDQ106", "synonyms": ["KDQ1-Emotional: Accomplished Less"]}, {"conceptId": "C193332", "definition": "Kidney Disease and Quality of Life-36 Version 1 - During the past 4 weeks, have you had any of the following problems with your work or other regular daily activities as a result of any emotional problems (such as feeling depressed or anxious): Didn't do work or other activities as carefully as usual.", "preferredTerm": "KDQOL-36 Version 1 - Emotional: Did Work Less Carefully", "submissionValue": "KDQ107", "synonyms": ["KDQ1-Emotional: Did Work Less Carefully"]}, {"conceptId": "C193333", "definition": "Kidney Disease and Quality of Life-36 Version 1 - During the past 4 weeks, how much did pain interfere with your normal work (including both work outside the home and housework)?", "preferredTerm": "KDQOL-36 Version 1 - Pain Interfere With Normal Work", "submissionValue": "KDQ108", "synonyms": ["KDQ1-Pain Interfere With Normal Work"]}, {"conceptId": "C193334", "definition": "Kidney Disease and Quality of Life-36 Version 1 - How much of the time during the past 4 weeks: Have you felt calm and peaceful?", "preferredTerm": "KDQOL-36 Version 1 - Have You Felt Calm and Peaceful", "submissionValue": "KDQ109", "synonyms": ["KDQ1-Have You Felt Calm and Peaceful"]}, {"conceptId": "C193335", "definition": "Kidney Disease and Quality of Life-36 Version 1 - How much of the time during the past 4 weeks: Did you have a lot of energy?", "preferredTerm": "KDQOL-36 Version 1 - Did You Have a Lot of Energy", "submissionValue": "KDQ110", "synonyms": ["KDQ1-Did You Have a Lot of Energy"]}, {"conceptId": "C193336", "definition": "Kidney Disease and Quality of Life-36 Version 1 - How much of the time during the past 4 weeks: Have you felt downhearted and blue?", "preferredTerm": "KDQOL-36 Version 1 - You Felt Downhearted and Blue", "submissionValue": "KDQ111", "synonyms": ["KDQ1-You Felt Downhearted and Blue"]}, {"conceptId": "C193337", "definition": "Kidney Disease and Quality of Life-36 Version 1 - During the past 4 weeks, how much of the time has your physical health or emotional problems interfered with your social activities (like visiting with friends, relatives, etc.)?", "preferredTerm": "KDQOL-36 Version 1 - Time Physical or Emotional Interfered", "submissionValue": "KDQ112", "synonyms": ["KDQ1-Time Phys/Emotional Interfered"]}, {"conceptId": "C193338", "definition": "Kidney Disease and Quality of Life-36 Version 1 - How true or false is each of the following statements for you: My kidney disease interferes too much with my life.", "preferredTerm": "KDQOL-36 Version 1 - Kidney Disease Interferes With Life", "submissionValue": "KDQ113", "synonyms": ["KDQ1-Kidney Disease Interferes w/ Life"]}, {"conceptId": "C193339", "definition": "Kidney Disease and Quality of Life-36 Version 1 - How true or false is each of the following statements for you: Too much of my time is spent dealing with my kidney disease.", "preferredTerm": "KDQOL-36 Version 1 - Time Spent Deal With Kidney Disease", "submissionValue": "KDQ114", "synonyms": ["KDQ1-Time Spent Deal w/ Kidney Disease"]}, {"conceptId": "C193340", "definition": "Kidney Disease and Quality of Life-36 Version 1 - How true or false is each of the following statements for you: I feel frustrated dealing with my kidney disease.", "preferredTerm": "KDQOL-36 Version 1 - Frustrated Deal With Kidney Disease", "submissionValue": "KDQ115", "synonyms": ["KDQ1-Frustrated Deal w/ Kidney Disease"]}, {"conceptId": "C193341", "definition": "Kidney Disease and Quality of Life-36 Version 1 - How true or false is each of the following statements for you: I feel like a burden on my family.", "preferredTerm": "KDQOL-36 Version 1 - I Feel Like a Burden on My Family", "submissionValue": "KDQ116", "synonyms": ["KDQ1-I Feel Like a Burden on My Family"]}, {"conceptId": "C193342", "definition": "Kidney Disease and Quality of Life-36 Version 1 - During the past 4 weeks, to what extent were you bothered by each of the following: Soreness in your muscles?", "preferredTerm": "KDQOL-36 Version 1 - Bothered by Soreness in Muscles", "submissionValue": "KDQ117", "synonyms": ["KDQ1-Bothered by Soreness in Muscles"]}, {"conceptId": "C193343", "definition": "Kidney Disease and Quality of Life-36 Version 1 - During the past 4 weeks, to what extent were you bothered by each of the following: Chest pain?", "preferredTerm": "KDQOL-36 Version 1 - Bothered by Chest Pain", "submissionValue": "KDQ118", "synonyms": ["KDQ1-Bothered by Chest Pain"]}, {"conceptId": "C193344", "definition": "Kidney Disease and Quality of Life-36 Version 1 - During the past 4 weeks, to what extent were you bothered by each of the following: Cramps?", "preferredTerm": "KDQOL-36 Version 1 - Bothered by Cramps", "submissionValue": "KDQ119", "synonyms": ["KDQ1-Bothered by Cramps"]}, {"conceptId": "C193345", "definition": "Kidney Disease and Quality of Life-36 Version 1 - During the past 4 weeks, to what extent were you bothered by each of the following: Itchy skin?", "preferredTerm": "KDQOL-36 Version 1 - Bothered by Itchy Skin", "submissionValue": "KDQ120", "synonyms": ["KDQ1-Bothered by Itchy Skin"]}, {"conceptId": "C193346", "definition": "Kidney Disease and Quality of Life-36 Version 1 - During the past 4 weeks, to what extent were you bothered by each of the following: Dry skin?", "preferredTerm": "KDQOL-36 Version 1 - Bothered by Dry Skin", "submissionValue": "KDQ121", "synonyms": ["KDQ1-Bothered by Dry Skin"]}, {"conceptId": "C193347", "definition": "Kidney Disease and Quality of Life-36 Version 1 - During the past 4 weeks, to what extent were you bothered by each of the following: Shortness of breath?", "preferredTerm": "KDQOL-36 Version 1 - Bothered by Shortness of Breath", "submissionValue": "KDQ122", "synonyms": ["KDQ1-Bothered by Shortness of Breath"]}, {"conceptId": "C193348", "definition": "Kidney Disease and Quality of Life-36 Version 1 - During the past 4 weeks, to what extent were you bothered by each of the following: Faintness or dizziness?", "preferredTerm": "KDQOL-36 Version 1 - Bothered by Faintness or Dizziness", "submissionValue": "KDQ123", "synonyms": ["KDQ1-Bothered by Faintness or Dizziness"]}, {"conceptId": "C193349", "definition": "Kidney Disease and Quality of Life-36 Version 1 - During the past 4 weeks, to what extent were you bothered by each of the following: Lack of appetite?", "preferredTerm": "KDQOL-36 Version 1 - Bothered by Lack of Appetite", "submissionValue": "KDQ124", "synonyms": ["KDQ1-Bothered by Lack of Appetite"]}, {"conceptId": "C193350", "definition": "Kidney Disease and Quality of Life-36 Version 1 - During the past 4 weeks, to what extent were you bothered by each of the following: Washed out or drained?", "preferredTerm": "KDQOL-36 Version 1 - Bothered by Washed Out or Drained", "submissionValue": "KDQ125", "synonyms": ["KDQ1-Bothered by Washed Out or Drained"]}, {"conceptId": "C193351", "definition": "Kidney Disease and Quality of Life-36 Version 1 - During the past 4 weeks, to what extent were you bothered by each of the following: Numbness in hands or feet?", "preferredTerm": "KDQOL-36 Version 1 - Bothered by Numbness in Hands or Feet", "submissionValue": "KDQ126", "synonyms": ["KDQ1-Bothered by Numbness in Hands/Feet"]}, {"conceptId": "C193352", "definition": "Kidney Disease and Quality of Life-36 Version 1 - During the past 4 weeks, to what extent were you bothered by each of the following: Nausea or upset stomach?", "preferredTerm": "KDQOL-36 Version 1 - Bothered by Nausea or Upset Stomach", "submissionValue": "KDQ127", "synonyms": ["KDQ1-Bothered by Nausea/Upset Stomach"]}, {"conceptId": "C193353", "definition": "Kidney Disease and Quality of Life-36 Version 1 - During the past 4 weeks, to what extent were you bothered by each of the following: (Hemodialysis patient only) Problems with your access site?", "preferredTerm": "KDQOL-36 Version 1 - Bothered by Problems With Access Site", "submissionValue": "KDQ128A", "synonyms": ["KDQ1-Bothered by Problems w/ Access Site"]}, {"conceptId": "C193354", "definition": "Kidney Disease and Quality of Life-36 Version 1 - During the past 4 weeks, to what extent were you bothered by each of the following: (Peritoneal dialysis patient only) Problems with your catheter site?", "preferredTerm": "KDQOL-36 Version 1 - Bothered by Problems Catheter Site", "submissionValue": "KDQ128B", "synonyms": ["KDQ1-Bothered by Problems Catheter Site"]}, {"conceptId": "C193355", "definition": "Kidney Disease and Quality of Life-36 Version 1 - How much does kidney disease bother you in each of the following areas: Fluid restriction?", "preferredTerm": "KDQOL-36 Version 1 - Bother Fluid Restriction", "submissionValue": "KDQ129", "synonyms": ["KDQ1-Bother Fluid Restriction"]}, {"conceptId": "C193356", "definition": "Kidney Disease and Quality of Life-36 Version 1 - How much does kidney disease bother you in each of the following areas: Dietary restriction?", "preferredTerm": "KDQOL-36 Version 1 - Bother Dietary Restriction", "submissionValue": "KDQ130", "synonyms": ["KDQ1-Bother Dietary Restriction"]}, {"conceptId": "C193357", "definition": "Kidney Disease and Quality of Life-36 Version 1 - How much does kidney disease bother you in each of the following areas: Your ability to work around the house?", "preferredTerm": "KDQOL-36 Version 1 - Bother Ability to Work Around House", "submissionValue": "KDQ131", "synonyms": ["KDQ1-Bother Ability to Work Around House"]}, {"conceptId": "C193358", "definition": "Kidney Disease and Quality of Life-36 Version 1 - How much does kidney disease bother you in each of the following areas: Your ability to travel?", "preferredTerm": "KDQOL-36 Version 1 - Bother Your Ability to Travel", "submissionValue": "KDQ132", "synonyms": ["KDQ1-Bother Your Ability to Travel"]}, {"conceptId": "C193359", "definition": "Kidney Disease and Quality of Life-36 Version 1 - How much does kidney disease bother you in each of the following areas: Being dependent on doctors and other medical staff?", "preferredTerm": "KDQOL-36 Version 1 - Bother Dependent on Doctors and Staff", "submissionValue": "KDQ133", "synonyms": ["KDQ1-Bother Dependent on Doctors/Staff"]}, {"conceptId": "C193360", "definition": "Kidney Disease and Quality of Life-36 Version 1 - How much does kidney disease bother you in each of the following areas: Stress or worries caused by kidney disease?", "preferredTerm": "KDQOL-36 Version 1 - Bother Stress Caused by Disease", "submissionValue": "KDQ134", "synonyms": ["KDQ1-Bother Stress Caused by Disease"]}, {"conceptId": "C193361", "definition": "Kidney Disease and Quality of Life-36 Version 1 - How much does kidney disease bother you in each of the following areas: Your sex life?", "preferredTerm": "KDQOL-36 Version 1 - Bother Your Sex Life", "submissionValue": "KDQ135", "synonyms": ["KDQ1-Bother Your Sex Life"]}, {"conceptId": "C193362", "definition": "Kidney Disease and Quality of Life-36 Version 1 - How much does kidney disease bother you in each of the following areas: Your personal appearance?", "preferredTerm": "KDQOL-36 Version 1 - Bother Your Personal Appearance", "submissionValue": "KDQ136", "synonyms": ["KDQ1-Bother Your Personal Appearance"]}]}