{"_links": {"parentPackage": {"href": "/mdr/ct/packages/sdtmct-2023-03-31", "title": "SDTM Controlled Terminology Package 53 Effective 2023-03-31", "type": "Terminology"}, "rootItem": {"href": "/mdr/root/ct/sdtmct/codelists/C193257", "title": "Version-agnostic anchor resource for codelist C193257", "type": "Root Value Domain"}, "self": {"href": "/mdr/ct/packages/sdtmct-2023-03-31/codelists/C193257", "title": "CDISC Clinical Classification Tanner Scale Girl TANN0101 Original Response Terminology", "type": "Code List"}}, "conceptId": "C193257", "definition": "Tanner Scale Girl original result for TANN0101 test and test code.", "extensible": "false", "name": "Tanner Scale Girl Clinical Classification ORRES for TANN0101 TN/TC", "preferredTerm": "CDISC Clinical Classification Tanner Scale Girl TANN0101 Original Response Terminology", "submissionValue": "TANN0101OR", "synonyms": ["Tanner Scale Girl Clinical Classification ORRES for TANN0101 TN/TC"], "terms": [{"conceptId": "C193284", "definition": "Tanner Scale Girl original result for TANN0101-Stage 1: Pre-adolescent; elevation of papilla only.", "preferredTerm": "Tanner Scale Girl TANN0101 Original Result - Stage 1", "submissionValue": "Stage 1", "synonyms": ["TANN0101-Stage 1"]}, {"conceptId": "C193285", "definition": "Tanner Scale Girl original result for TANN0101-Stage 2: Breast bud stage; elevation of breast and papilla as a small mound, enlargement of areola diameter.", "preferredTerm": "Tanner Scale Girl TANN0101 Original Result - Stage 2", "submissionValue": "Stage 2", "synonyms": ["TANN0101-Stage 2"]}, {"conceptId": "C193286", "definition": "Tanner Scale Girl original result for TANN0101-Stage 3: Further enlargement of breast and areola, with no separation of their contours.", "preferredTerm": "Tanner Scale Girl TANN0101 Original Result - Stage 3", "submissionValue": "Stage 3", "synonyms": ["TANN0101-Stage 3"]}, {"conceptId": "C193287", "definition": "Tanner Scale Girl original result for TANN0101-Stage 4: Projection of areola and papilla to form a secondary mound above the level of the breast.", "preferredTerm": "Tanner Scale Girl TANN0101 Original Result - Stage 4", "submissionValue": "Stage 4", "synonyms": ["TANN0101-Stage 4"]}, {"conceptId": "C193288", "definition": "Tanner Scale Girl original result for TANN0101-Stage 5: Mature stage; projection of papilla only, due to recession of the areola to the general contour of the breast.", "preferredTerm": "Tanner Scale Girl TANN0101 Original Result - Stage 5", "submissionValue": "Stage 5", "synonyms": ["TANN0101-Stage 5"]}]}