{"_links": {"parentPackage": {"href": "/mdr/ct/packages/sdtmct-2023-03-31", "title": "SDTM Controlled Terminology Package 53 Effective 2023-03-31", "type": "Terminology"}, "rootItem": {"href": "/mdr/root/ct/sdtmct/codelists/C193259", "title": "Version-agnostic anchor resource for codelist C193259", "type": "Root Value Domain"}, "self": {"href": "/mdr/ct/packages/sdtmct-2023-03-31/codelists/C193259", "title": "CDISC Clinical Classification Tanner Scale Girl TANN0102 Original Response Terminology", "type": "Code List"}}, "conceptId": "C193259", "definition": "Tanner Scale Girl original result for TANN0102 test and test code.", "extensible": "false", "name": "Tanner Scale Girl Clinical Classification ORRES for TANN0102 TN/TC", "preferredTerm": "CDISC Clinical Classification Tanner Scale Girl TANN0102 Original Response Terminology", "submissionValue": "TANN0102OR", "synonyms": ["Tanner Scale Girl Clinical Classification ORRES for TANN0102 TN/TC"], "terms": [{"conceptId": "C193294", "definition": "Tanner Scale Girl original result for TANN0102-Stage 1: Pre-adolescent; the vellus over the pubes is not further developed than that over the anterior abdominal wall, i.e. no pubic hair.", "preferredTerm": "Tanner Scale Girl TANN0102 Original Result - Stage 1", "submissionValue": "Stage 1", "synonyms": ["TANN0102-Stage 1"]}, {"conceptId": "C193295", "definition": "Tanner Scale Girl original result for TANN0102-Stage 2: Sparse growth of long, slightly pigmented, downy hair, straight or only slightly curled, appearing chiefly along the labia. This stage is difficult to see on photographs, particularly of fair-haired subjects. Though Stage 2 rating was used in this study, it cannot be regarded as reliable, and the ages at which subjects are said to have reached Stage 2 are almost certainly too late.", "preferredTerm": "Tanner Scale Girl TANN0102 Original Result - Stage 2", "submissionValue": "Stage 2", "synonyms": ["TANN0102-Stage 2"]}, {"conceptId": "C193296", "definition": "Tanner Scale Girl original result for TANN0102-Stage 3: Considerably darker, coarser, and more curled. The hair spreads sparsely over the junction of the pubes. This and subsequent stages were clearly recognizable on the photographs.", "preferredTerm": "Tanner Scale Girl TANN0102 Original Result - Stage 3", "submissionValue": "Stage 3", "synonyms": ["TANN0102-Stage 3"]}, {"conceptId": "C193297", "definition": "Tanner Scale Girl original result for TANN0102-Stage 4: Hair is now adult in type, but the area covered by it is still considerably smaller than in most adults. There is no spread to the medial surface of the thighs.", "preferredTerm": "Tanner Scale Girl TANN0102 Original Result - Stage 4", "submissionValue": "Stage 4", "synonyms": ["TANN0102-Stage 4"]}, {"conceptId": "C193298", "definition": "Tanner Scale Girl original result for TANN0102-Stage 5: Adult in quantity and type, distributed as an inverse triangle of the classically feminine pattern. Spread to the medial surface of the thighs, but not up the linea alba or elsewhere above the base of the inverse triangle.", "preferredTerm": "Tanner Scale Girl TANN0102 Original Result - Stage 5", "submissionValue": "Stage 5", "synonyms": ["TANN0102-Stage 5"]}]}