{"_links": {"parentPackage": {"href": "/mdr/ct/packages/protocolct-2023-03-31", "title": "Protocol Controlled Terminology Package 53 Effective 2023-03-31", "type": "Terminology"}, "priorVersion": {"href": "/mdr/ct/packages/protocolct-2022-12-16/codelists/C163026", "title": "CDISC Protocol Study Monitoring Attribute Terminology", "type": "Code List"}, "rootItem": {"href": "/mdr/root/ct/protocolct/codelists/C163026", "title": "Version-agnostic anchor resource for codelist C163026", "type": "Root Value Domain"}, "self": {"href": "/mdr/ct/packages/protocolct-2023-03-31/codelists/C163026", "title": "CDISC Protocol Study Monitoring Attribute Terminology", "type": "Code List"}}, "conceptId": "C163026", "definition": "A terminology value set relevant to the attributes of the study monitoring entity.", "name": "Study Monitoring Attribute Terminology", "preferredTerm": "CDISC Protocol Study Monitoring Attribute Terminology", "submissionValue": "Study Monitoring Attribute Terminology", "synonyms": ["Study Monitoring Attribute Terminology"], "terms": [{"conceptId": "C115753", "definition": "A document that describes the strategy, methods, responsibilities, and requirements for monitoring the trial. (ICH E6(R2) Glossary Addendum)", "preferredTerm": "Clinical Trial Monitoring Plan", "submissionValue": "Clinical Monitoring Plan"}, {"conceptId": "C163406", "definition": "A written plan that prospectively identifies and documents monitoring activities intended to protect the safety of the participants, the validity of the data and the integrity of the research study. The DSMP may also identify when to terminate a participant's participation (i.e. individual stopping rules) and/or the appropriate termination of a study (i.e. study stopping rules). (Mayo Clinic)", "preferredTerm": "Data and Safety Monitoring Plan", "submissionValue": "Data and Safety Monitoring Plan", "synonyms": ["Data Safety Monitoring Plan", "DSMP", "Safety Data Monitoring Plan"]}, {"conceptId": "C142488", "definition": "Process by which clinical data are examined for completeness, consistency, and accuracy for the duration of the study lifecycle.", "preferredTerm": "Data Monitoring", "submissionValue": "Data Monitoring"}, {"conceptId": "C163407", "definition": "A written message that asserts, affirms, or declares that the study is conducted in accordance with Good Clinical Practice (GCP).", "preferredTerm": "GCP Adherence Statement", "submissionValue": "GCP Adherence Statement", "synonyms": ["Good Clinical Practice Adherence Statement"]}, {"conceptId": "C142674", "definition": "A systematic, prioritized approach that involves identifying, assessing, monitoring and mitigating the risks that could affect the quality of the study or safety of the study participants.", "preferredTerm": "Risk Based Monitoring", "submissionValue": "Risk Monitoring"}, {"conceptId": "C163408", "definition": "Review of cumulative safety data to identify possible safety concerns.", "preferredTerm": "Safety Data Monitoring", "submissionValue": "Safety Data Monitoring"}, {"conceptId": "C163409", "definition": "Review of safety data to ensure safety of the individuals who are participating in the study, or to identify potential safety concerns for the duration of the study lifecycle.", "preferredTerm": "Safety Monitoring", "submissionValue": "Safety Monitoring"}, {"conceptId": "C184395", "definition": "A written message within the study protocol that describes the auditing activities that are to occur within a study and the intent to address findings from an audit report.", "preferredTerm": "Study Audit Statement", "submissionValue": "Study Audit Statement"}, {"conceptId": "C184396", "definition": "A systematic and independent examination of study-related activities and documents to determine whether the evaluated trial-related activities were conducted and the data were recorded, analyzed, and accurately reported according to the protocol, sponsor's standard operating procedures (SOPs), good clinical practice (GCP), and the applicable regulatory requirement(s). (ICH E6 Glossary)", "preferredTerm": "Study Audit", "submissionValue": "Study Audit"}, {"conceptId": "C163410", "definition": "A written message that asserts, affirms, or declares that the study will be monitored in adherence to a clinical monitoring plan and in accordance with Good Clinical Practice (GCP).", "preferredTerm": "Study Monitoring Statement", "submissionValue": "Study Monitoring Statement"}, {"conceptId": "C163411", "definition": "A systematic approach to identify and assess the risks of participant suicidal ideation and/or suicide.", "preferredTerm": "Suicidal Risk Monitoring", "submissionValue": "Suicidal Risk Monitoring"}, {"conceptId": "C15789", "definition": "The act of overseeing the progress of a clinical trial and of ensuring that it is conducted, recorded, and reported in accordance with the protocol, standard operating procedures (SOPs), good clinical practice (GCP), and the applicable regulatory requirement(s). [ICH E6 Glossary]", "preferredTerm": "Clinical Trials, Monitoring", "submissionValue": "Trial Monitoring"}]}