{"_links": {"parentPackage": {"href": "/mdr/ct/packages/protocolct-2023-03-31", "title": "Protocol Controlled Terminology Package 53 Effective 2023-03-31", "type": "Terminology"}, "priorVersion": {"href": "/mdr/ct/packages/protocolct-2022-12-16/codelists/C181167", "title": "CDISC Protocol Amendment Attribute Terminology", "type": "Code List"}, "rootItem": {"href": "/mdr/root/ct/protocolct/codelists/C181167", "title": "Version-agnostic anchor resource for codelist C181167", "type": "Root Value Domain"}, "self": {"href": "/mdr/ct/packages/protocolct-2023-03-31/codelists/C181167", "title": "CDISC Protocol Amendment Attribute Terminology", "type": "Code List"}}, "conceptId": "C181167", "definition": "A terminology value set relevant to the attributes of the protocol amendment.", "name": "Protocol Amendment Attribute Terminology", "preferredTerm": "CDISC Protocol Amendment Attribute Terminology", "submissionValue": "Protocol Amendment Attribute Terminology", "synonyms": ["Protocol Amendment Attribute Terminology"], "terms": [{"conceptId": "C181233", "definition": "A concise explanation justifying an individual change in the protocol.", "preferredTerm": "Brief Rationale for Protocol Change", "submissionValue": "Brief Rationale for Protocol Change", "synonyms": ["Brief Rationale for Protocol Modification", "Brief Rationale for Protocol Revision"]}, {"conceptId": "C181234", "definition": "A summarized explanation justifying a protocol amendment.", "preferredTerm": "Overall Rationale for Protocol Amendment", "submissionValue": "Overall Rationale for Protocol Amendment", "synonyms": ["Overall Justification for Amendment"]}, {"conceptId": "C132352", "definition": "The date on which a version of the protocol was finalized or approved by the sponsor.", "preferredTerm": "Protocol Approval by Sponsor Date", "submissionValue": "Study Protocol Version Approval by Sponsor Date", "synonyms": ["Protocol Amendment Approval by Sponsor Date", "Study Protocol Version Approval Date"]}, {"conceptId": "C181232", "definition": "A string of numerals that uniquely identifies a specific version of a study protocol.", "preferredTerm": "Study Protocol Version Number", "submissionValue": "Study Protocol Version Number", "synonyms": ["Study Protocol Amendment Number"]}]}