{"_links": {"parentPackage": {"href": "/mdr/ct/packages/protocolct-2023-03-31", "title": "Protocol Controlled Terminology Package 53 Effective 2023-03-31", "type": "Terminology"}, "priorVersion": {"href": "/mdr/ct/packages/protocolct-2022-12-16/codelists/C190866", "title": "CDISC Protocol Study Activity Attribute Terminology", "type": "Code List"}, "rootItem": {"href": "/mdr/root/ct/protocolct/codelists/C190866", "title": "Version-agnostic anchor resource for codelist C190866", "type": "Root Value Domain"}, "self": {"href": "/mdr/ct/packages/protocolct-2023-03-31/codelists/C190866", "title": "CDISC Protocol Study Activity Attribute Terminology", "type": "Code List"}}, "conceptId": "C190866", "definition": "A terminology value set relevant to the attributes of the study activity entity.", "name": "Study Activity Attribute Terminology", "preferredTerm": "CDISC Protocol Study Activity Attribute Terminology", "submissionValue": "Study Activity Attribute Terminology", "synonyms": ["Study Activity Attribute Terminology"], "terms": [{"conceptId": "C25217", "definition": "A measurement, evaluation, observation, or judgment of a study variable pertaining to the status of a subject. [After BEST Resource] (CDISC Glossary)", "preferredTerm": "Assessment", "submissionValue": "Study Assessment", "synonyms": ["Study Observation"]}, {"conceptId": "C82437", "definition": "A relative day, in reference to the protocol-defined study start point, on which an intervention, procedure, assessment, and/or collection of other study data occurs.", "preferredTerm": "Study Day", "submissionValue": "Study Day"}, {"conceptId": "C191215", "definition": "The allowable period of time before and/or after a planned or scheduled study visit, during which the actual study visit shall occur.", "preferredTerm": "Study Visit Window", "submissionValue": "Study Visit Window", "synonyms": ["Visit Window"]}, {"conceptId": "C191214", "definition": "A protocol-defined clinical encounter that encompasses planned and contingent study interventions, procedures, and assessments that may be performed on a subject. [SDTM]", "preferredTerm": "Study Visit", "submissionValue": "Study Visit", "synonyms": ["Visit"]}]}