{"_links": {"parentPackage": {"href": "/mdr/ct/packages/sendct-2014-09-26", "title": "SEND Controlled Terminology Package 19 Effective 2014-09-26", "type": "Terminology"}, "rootItem": {"href": "/mdr/root/ct/sendct/codelists/C85494", "title": "Version-agnostic anchor resource for codelist C85494", "type": "Root Value Domain"}, "self": {"href": "/mdr/ct/packages/sendct-2014-09-26/codelists/C85494", "title": "CDISC SDTM Pharmacokinetic Parameter Unit of Measure Terminology", "type": "Code List"}}, "conceptId": "C85494", "definition": "Units of measure for pharmacokinetic data and parameters.", "extensible": "true", "name": "PK Units of Measure", "preferredTerm": "CDISC SDTM Pharmacokinetic Parameter Unit of Measure Terminology", "submissionValue": "PKUNIT", "synonyms": ["PK Units of Measure"], "terms": [{"conceptId": "C25613", "definition": "A fraction or ratio with 100 understood as the denominator. (NCI)", "preferredTerm": "Percentage", "submissionValue": "%", "synonyms": ["Percentage"]}, {"conceptId": "C85657", "definition": "Liters per day (flow), divided by grams (weight).", "preferredTerm": "Liter per Gram per Day", "submissionValue": "(L/day)/g", "synonyms": ["L/g/d", "mL/mg/day", "uL/ug/day"]}, {"conceptId": "C85672", "definition": "Liters per day (flow), divided by milligrams (dose).", "preferredTerm": "Liter per Milligram per Day", "submissionValue": "(L/day)/mg", "synonyms": ["L/day/mg", "L/mg/d", "mL/day/ug", "mL/ug/day"]}, {"conceptId": "C85665", "definition": "Liters per day (flow), divided by micrograms (dose).", "preferredTerm": "Liter per Microgram per Day", "submissionValue": "(L/day)/ug", "synonyms": ["L/day/mcg", "L/day/ug", "L/mcg/day", "mL/day/ng", "mL/ng/day"]}, {"conceptId": "C85658", "definition": "Liters per hour (flow), divided by grams (weight).", "preferredTerm": "Liter per Gram per Hour", "submissionValue": "(L/h)/g", "synonyms": ["L/g/h", "L/h/g", "mL/h/mg", "mL/mg/h", "uL/h/ug", "uL/ug/h"]}, {"conceptId": "C85673", "definition": "Liters per hour (flow), divided by milligrams (dose).", "preferredTerm": "Liter per Milligram per Hour", "submissionValue": "(L/h)/mg", "synonyms": ["L/h/mg", "L/mg/h", "mL/h/ug", "mL/ug/h"]}, {"conceptId": "C85662", "definition": "Liters per hour (flow), divided by micrograms (dose).", "preferredTerm": "Liter per Microgram per Hour", "submissionValue": "(L/h)/ug", "synonyms": ["L/h/mcg", "L/h/ug", "L/mcg/h", "L/ug/h", "mL/h/ng", "mL/ng/h"]}, {"conceptId": "C85659", "definition": "Liters per minute (flow), divided by grams (weight).", "preferredTerm": "Liter per Gram per Minute", "submissionValue": "(L/min)/g", "synonyms": ["L/g/min", "L/min/g", "mL/mg/min", "uL/ug/min"]}, {"conceptId": "C85674", "definition": "Liters per minute (flow), divided by milligrams (dose).", "preferredTerm": "Liter per Milligram per Minute", "submissionValue": "(L/min)/mg", "synonyms": ["L/mg/min", "L/min/mg", "mL/min/ug", "mL/ug/min"]}, {"conceptId": "C85666", "definition": "Liters per minute (flow), divided by micrograms (dose).", "preferredTerm": "Liter per Microgram per Minute", "submissionValue": "(L/min)/ug", "synonyms": ["L/mcg/min", "L/min/mcg", "L/min/ug", "mL/min/ng", "mL/ng/min"]}, {"conceptId": "C66966", "definition": "A rate of occurrences of something within a period of time equal to sixty minutes.", "preferredTerm": "Per Hour", "submissionValue": "/h", "synonyms": ["Per Hour"]}, {"conceptId": "C85645", "definition": "International units per day.", "preferredTerm": "International Unit per Day", "submissionValue": "IU/day", "synonyms": ["IU/d"]}, {"conceptId": "C85646", "definition": "International units per hour.", "preferredTerm": "International Unit per Hour", "submissionValue": "IU/h", "synonyms": ["IU/h"]}, {"conceptId": "C85647", "definition": "International units per minute.", "preferredTerm": "International Unit per Minute", "submissionValue": "IU/min", "synonyms": ["IU/min"]}, {"conceptId": "C48505", "definition": "A unit of volume equal to a cubic decimeter, or one thousandth of cubic meter, or 1000 cubic centimeters, or approximately 61.023 744 cubic inches.(NCI)", "preferredTerm": "Liter", "submissionValue": "L", "synonyms": ["Liter"]}, {"conceptId": "C69110", "definition": "Liters per day.", "preferredTerm": "Liter per Day", "submissionValue": "L/day"}, {"conceptId": "C69160", "definition": "Liters per hour.", "preferredTerm": "Liter per Hour", "submissionValue": "L/h", "synonyms": ["L/h"]}, {"conceptId": "C73755", "definition": "Liters per kilogram per day.", "preferredTerm": "Milliliter per Gram per Day", "submissionValue": "L/kg/day", "synonyms": ["L/day/kg", "L/kg/d", "Milliliter per Gram per Day", "mL/day/g", "mL/g/day", "uL/day/mg", "uL/mg/day"]}, {"conceptId": "C73756", "definition": "Milliliters per gram per hour.", "preferredTerm": "Milliliter per Gram per Hour", "submissionValue": "L/kg/h", "synonyms": ["Milliliter per Gram per Hour"]}, {"conceptId": "C73757", "definition": "Milliliters per gram per minute.", "preferredTerm": "Milliliter per Gram per Minute", "submissionValue": "L/kg/min", "synonyms": ["Milliliter per Gram per Minute"]}, {"conceptId": "C67388", "definition": "A unit of volumetric flow rate defined as the rate at which one liter of matter travels during the period of time equal to one minute.(NCI)", "preferredTerm": "Liter per Minute", "submissionValue": "L/min", "synonyms": ["Liters per Minute"]}, {"conceptId": "C85676", "definition": "Liters per millimole per day.", "preferredTerm": "Liter per Millimole per Day", "submissionValue": "L/mmol/day", "synonyms": ["L/day/mmol", "L/mmol/d", "mL/day/umol", "mL/umol/day"]}, {"conceptId": "C85677", "definition": "Liters per millimole per hour.", "preferredTerm": "Liter per Millimole per Hour", "submissionValue": "L/mmol/h", "synonyms": ["L/h/mmol", "L/mmol/h", "mL/h/umol", "mL/umol/h"]}, {"conceptId": "C85678", "definition": "Liters per millimole per minute.", "preferredTerm": "Liter per Millimole per Minute", "submissionValue": "L/mmol/min", "synonyms": ["L/min/mmol", "L/mmol/min", "mL/min/umol", "mL/umol/min"]}, {"conceptId": "C85680", "definition": "Liters per mole.", "preferredTerm": "Liter per Mole", "submissionValue": "L/mol", "synonyms": ["L/mol", "mL/mmol", "uL/umol"]}, {"conceptId": "C85681", "definition": "Liters per mole per day.", "preferredTerm": "Liter per Mole per Day", "submissionValue": "L/mol/day", "synonyms": ["L/day/mol", "L/mol/d", "mL/day/mmol", "mL/mmol/day", "uL/day/umol", "uL/umol/day"]}, {"conceptId": "C85682", "definition": "Liters per mole per hour.", "preferredTerm": "Liter per Mole per Hour", "submissionValue": "L/mol/h", "synonyms": ["L/h/mol", "L/mol/h", "mL/h/mmol", "mL/mmol/h", "uL/h/umol", "uL/umol/h"]}, {"conceptId": "C85683", "definition": "Liters per mole per minute.", "preferredTerm": "Liter per Mole per Minute", "submissionValue": "L/mol/min", "synonyms": ["L/min/mol", "L/mol/min", "mL/min/mmol", "mL/mmol/min", "uL/min/umol", "uL/umol/min"]}, {"conceptId": "C85685", "definition": "Liters per nanogram per day.", "preferredTerm": "Liter per Nanogram per Day", "submissionValue": "L/ng/day", "synonyms": ["L/day/ng", "L/ng/d", "mL/day/pg", "mL/pg/day"]}, {"conceptId": "C85686", "definition": "Liters per nanogram per hour.", "preferredTerm": "Liter per Nanogram per Hour", "submissionValue": "L/ng/h", "synonyms": ["L/h/ng", "L/ng/h", "mL/h/pg", "mL/pg/h"]}, {"conceptId": "C85687", "definition": "Liters per nanogram per minute.", "preferredTerm": "Liter per Nanogram per Minute", "submissionValue": "L/ng/min", "synonyms": ["L/min/ng", "L/ng/min", "mL/min/pg", "mL/pg/min"]}, {"conceptId": "C85689", "definition": "Liters per nanomole per day.", "preferredTerm": "Liter per Nanomole per Day", "submissionValue": "L/nmol/day", "synonyms": ["L/day/nmol", "L/nmol/d", "mL/day/pmol", "mL/pmol/day"]}, {"conceptId": "C85690", "definition": "Liters per nanomole per hour.", "preferredTerm": "Liter per Nanomole per Hour", "submissionValue": "L/nmol/h", "synonyms": ["L/h/nmol", "L/nmol/h", "mL/h/pmol", "mL/pmol/h"]}, {"conceptId": "C85691", "definition": "Liters per nanomole per minute.", "preferredTerm": "Liter per Nanomole per Minute", "submissionValue": "L/nmol/min", "synonyms": ["L/min/nmol", "L/nmol/min", "mL/min/pmol", "mL/pmol/min"]}, {"conceptId": "C85693", "definition": "Liters per picogram per day.", "preferredTerm": "Liter per Picogram per Day", "submissionValue": "L/pg/day", "synonyms": ["L/day/pg", "L/pg/d"]}, {"conceptId": "C85694", "definition": "Liters per picogram per hour.", "preferredTerm": "Liter per Picogram per Hour", "submissionValue": "L/pg/h", "synonyms": ["L/h/pg", "L/pg/h"]}, {"conceptId": "C85695", "definition": "Liters per picogram per minute.", "preferredTerm": "Liter per Picogram per Minute", "submissionValue": "L/pg/min", "synonyms": ["L/min/pg", "L/pg/min"]}, {"conceptId": "C85668", "definition": "Liters per micromole per day.", "preferredTerm": "Liter per Micromole per Day", "submissionValue": "L/umol/day", "synonyms": ["L/day/mcmol", "L/day/umol", "L/mcmol/day", "L/umol/d"]}, {"conceptId": "C85669", "definition": "Liters per micromole per hour.", "preferredTerm": "Liter per Micromole per Hour", "submissionValue": "L/umol/h", "synonyms": ["L/h/mcmol", "L/h/umol", "L/mcmol/h", "L/umol/h"]}, {"conceptId": "C85670", "definition": "Liters per micromole per minute.", "preferredTerm": "Liter per Micromole per Minute", "submissionValue": "L/umol/min", "synonyms": ["L/mcmol/min", "L/min/mcmol", "L/min/umol", "L/umol/min"]}, {"conceptId": "C44256", "definition": "A unit of measurement for the quotient of the amount of one entity to another.", "preferredTerm": "Ratio", "submissionValue": "RATIO"}, {"conceptId": "C25301", "definition": "The time for Earth to make a complete rotation on its axis; ordinarily divided into twenty-four hours. This also refers to a specific day. (NCI)", "preferredTerm": "Day", "submissionValue": "day", "synonyms": ["Day"]}, {"conceptId": "C85583", "definition": "Days times femtograms per milliliter (area under the curve).", "preferredTerm": "Day Times Femtogram per Milliliter", "submissionValue": "day*fg/mL"}, {"conceptId": "C111167", "definition": "Days times femtograms per milliliter (area under the curve), divided by kilograms per meter squared (body mass index).", "preferredTerm": "Day Times Femtogram per Milliliter per Kilogram per Meter Squared", "submissionValue": "day*fg/mL/(kg/m2)"}, {"conceptId": "C117894", "definition": "Days times femtograms per milliliter (area under the curve), divided by milligrams per gram (dose normalized by body weight).", "preferredTerm": "Day Times Femtogram Per Milliliter Per Milligram Per Gram", "submissionValue": "day*fg/mL/(mg/g)"}, {"conceptId": "C117895", "definition": "Days times femtograms per milliliter (area under the curve), divided by milligrams per gram per day (daily dose normalized by body weight).", "preferredTerm": "Day Times Femtogram Per Milliliter Per Milligram Per Gram Per Day", "submissionValue": "day*fg/mL/(mg/g/day)"}, {"conceptId": "C112244", "definition": "Days times femtograms per milliliter (area under the curve), divided by grams (weight).", "preferredTerm": "Day Times Femtogram Per Milliliter Per Gram", "submissionValue": "day*fg/mL/g"}, {"conceptId": "C112245", "definition": "Days times femtograms per milliliter (area under the curve), divided by kilograms (weight).", "preferredTerm": "Day Times Femtogram Per Milliliter Per Kilogram", "submissionValue": "day*fg/mL/kg"}, {"conceptId": "C111168", "definition": "Days times femtograms per milliliter (area under the curve), divided by meters squared (surface area).", "preferredTerm": "Day Times Femtogram per Milliliter per Meter Squared", "submissionValue": "day*fg/mL/m2"}, {"conceptId": "C85584", "definition": "Days times grams per milliliter (area under the curve).", "preferredTerm": "Day Times Gram per Milliliter", "submissionValue": "day*g/mL"}, {"conceptId": "C111169", "definition": "Days times grams per milliliter (area under the curve), divided by kilograms per meter squared (body mass index).", "preferredTerm": "Day Times Gram per Milliliter per Kilogram per Meter Squared", "submissionValue": "day*g/mL/(kg/m2)"}, {"conceptId": "C117896", "definition": "Days times grams per milliliter (area under the curve), divided by milligrams per gram (dose normalized by body weight).", "preferredTerm": "Day Times gram Per Milliliter Per Milligram Per Gram", "submissionValue": "day*g/mL/(mg/g)"}, {"conceptId": "C117897", "definition": "Days times grams per milliliter (area under the curve), divided by milligrams per gram per day (daily dose normalized by body weight).", "preferredTerm": "Day Times gram Per Milliliter Per Milligram Per Gram Per Day", "submissionValue": "day*g/mL/(mg/g/day)"}, {"conceptId": "C112246", "definition": "Days times grams per milliliter (area under the curve), divided by grams (weight).", "preferredTerm": "Day Times Gram Per Milliliter Per Gram", "submissionValue": "day*g/mL/g"}, {"conceptId": "C112247", "definition": "Days times grams per milliliter (area under the curve), divided by kilograms (weight).", "preferredTerm": "Day Times Gram Per Milliliter Per Kilogram", "submissionValue": "day*g/mL/kg"}, {"conceptId": "C111170", "definition": "Days times grams per milliliter (area under the curve), divided by meters squared (surface area).", "preferredTerm": "Day Times Gram per Milliliter per Meter Squared", "submissionValue": "day*g/mL/m2"}, {"conceptId": "C85588", "definition": "Days times milligrams per milliliter (area under the curve).", "preferredTerm": "Day Times Milligram per Milliliter", "submissionValue": "day*mg/mL"}, {"conceptId": "C111175", "definition": "Days times milligrams per milliliter (area under the curve), divided by kilograms per meter squared (body mass index).", "preferredTerm": "Day Times Milligram per Milliliter per Kilogram per Meter Squared", "submissionValue": "day*mg/mL/(kg/m2)"}, {"conceptId": "C117898", "definition": "Days times milligrams per milliliter (area under the curve), divided by milligrams per gram (dose normalized by body weight).", "preferredTerm": "Day Times Milligram Per Milliliter Per Milligram Per Gram", "submissionValue": "day*mg/mL/(mg/g)"}, {"conceptId": "C117899", "definition": "Days times milligrams per milliliter (area under the curve), divided by milligrams per gram per day (daily dose normalized by body weight).", "preferredTerm": "Day Times Milligram Per Milliliter Per Milligram Per Gram Per Day", "submissionValue": "day*mg/mL/(mg/g/day)"}, {"conceptId": "C112252", "definition": "Days times milligrams per milliliter (area under the curve), divided by grams (weight).", "preferredTerm": "Day Times Milligram Per Milliliter Per Gram", "submissionValue": "day*mg/mL/g"}, {"conceptId": "C112253", "definition": "Days times milligrams per milliliter (area under the curve), divided by kilograms (weight).", "preferredTerm": "Day Times Milligram Per Milliliter Per Kilogram", "submissionValue": "day*mg/mL/kg"}, {"conceptId": "C111176", "definition": "Days times milligrams per milliliter (area under the curve), divided by meters squared (surface area).", "preferredTerm": "Day Times Milligram per Milliliter per Meter Squared", "submissionValue": "day*mg/mL/m2"}, {"conceptId": "C85587", "definition": "Days times millimoles per liter (area under the curve).", "preferredTerm": "Day Times Micromole per Milliliter", "submissionValue": "day*mmol/L"}, {"conceptId": "C111177", "definition": "Days times millimoles per liter (area under the curve), divided by kilograms per meter squared (body mass index).", "preferredTerm": "Day Times Millimole per Liter per Kilogram per Meter Squared", "submissionValue": "day*mmol/L/(kg/m2)"}, {"conceptId": "C117900", "definition": "Days times millimoles per liter (area under the curve), divided by milligrams per gram (dose normalized by body weight).", "preferredTerm": "Day Times Millimole Per Liter Per Milligram Per Gram", "submissionValue": "day*mmol/L/(mg/g)"}, {"conceptId": "C117901", "definition": "Days times millimoles per liter (area under the curve), divided by milligrams per gram per day (daily dose normalized by body weight).", "preferredTerm": "Day Times Millimole Per Liter Per Milligram Per Gram Per Day", "submissionValue": "day*mmol/L/(mg/g/day)"}, {"conceptId": "C112254", "definition": "Days times millimoles per liter (area under the curve), divided by grams (weight).", "preferredTerm": "Day Times Millimole Per Liter Per Gram", "submissionValue": "day*mmol/L/g"}, {"conceptId": "C112255", "definition": "Days times millimoles per liter (area under the curve), divided by kilograms (weight).", "preferredTerm": "Day Times Millimole Per Liter Per Kilogram", "submissionValue": "day*mmol/L/kg"}, {"conceptId": "C111178", "definition": "Days times millimoles per liter (area under the curve), divided by meters squared (surface area).", "preferredTerm": "Day Times Millimole per Liter per Meter Squared", "submissionValue": "day*mmol/L/m2"}, {"conceptId": "C85589", "definition": "Days times moles per liter (area under the curve).", "preferredTerm": "Day Times Millimole per Milliliter", "submissionValue": "day*mol/L"}, {"conceptId": "C111179", "definition": "Days times moles per liter (area under the curve), divided by kilograms per meter squared (body mass index).", "preferredTerm": "Day Times Mole per Liter per Kilogram per Meter Squared", "submissionValue": "day*mol/L/(kg/m2)"}, {"conceptId": "C117902", "definition": "Days times moles per liter (area under the curve), divided by milligrams per gram (dose normalized by body weight).", "preferredTerm": "Day Times mole Per Liter Per Milligram Per Gram", "submissionValue": "day*mol/L/(mg/g)"}, {"conceptId": "C117903", "definition": "Days times moles per liter (area under the curve), divided by milligrams per gram per day (daily dose normalized by body weight).", "preferredTerm": "Day Times mole Per Liter Per Milligram Per Gram Per Day", "submissionValue": "day*mol/L/(mg/g/day)"}, {"conceptId": "C112256", "definition": "Days times moles per liter (area under the curve), divided by grams (weight).", "preferredTerm": "Day Times Mole Per Liter Per Gram", "submissionValue": "day*mol/L/g"}, {"conceptId": "C112257", "definition": "Days times moles per liter (area under the curve), divided by kilograms (weight).", "preferredTerm": "Day Times Mole Per Liter Per Kilogram", "submissionValue": "day*mol/L/kg"}, {"conceptId": "C111180", "definition": "Days times moles per liter (area under the curve), divided by meters squared (surface area).", "preferredTerm": "Day Times Mole per Liter per Meter Squared", "submissionValue": "day*mol/L/m2"}, {"conceptId": "C85591", "definition": "Days times nanograms per milliliter (area under the curve).", "preferredTerm": "Day Times Nanogram per Milliliter", "submissionValue": "day*ng/mL"}, {"conceptId": "C111181", "definition": "Days times nanograms per milliliter (area under the curve), divided by kilograms per meter squared (body mass index).", "preferredTerm": "Day Times Nanogram per Milliliter per Kilogram per Meter Squared", "submissionValue": "day*ng/mL/(kg/m2)"}, {"conceptId": "C117904", "definition": "Days times nanograms per milliliter (area under the curve), divided by milligrams per gram (dose normalized by body weight).", "preferredTerm": "Day Times Nanogram Per Milliliter Per Milligram Per Gram", "submissionValue": "day*ng/mL/(mg/g)"}, {"conceptId": "C117905", "definition": "Days times nanograms per milliliter (area under the curve), divided by milligrams per gram per day (daily dose normalized by body weight).", "preferredTerm": "Day Times Nanogram Per Milliliter Per Milligram Per Gram Per Day", "submissionValue": "day*ng/mL/(mg/g/day)"}, {"conceptId": "C112258", "definition": "Days times nanograms per milliliter (area under the curve), divided by grams (weight).", "preferredTerm": "Day Times Nanogram Per Milliliter Per Gram", "submissionValue": "day*ng/mL/g"}, {"conceptId": "C112259", "definition": "Days times nanograms per milliliter (area under the curve), divided by kilograms (weight).", "preferredTerm": "Day Times Nanogram Per Milliliter Per Kilogram", "submissionValue": "day*ng/mL/kg"}, {"conceptId": "C111182", "definition": "Days times nanograms per milliliter (area under the curve), divided by meters squared (surface area).", "preferredTerm": "Day Times Nanogram per Milliliter per Meter Squared", "submissionValue": "day*ng/mL/m2"}, {"conceptId": "C85594", "definition": "Days times nanomoles per liter (area under the curve).", "preferredTerm": "Day Times Picomole per Milliliter", "submissionValue": "day*nmol/L"}, {"conceptId": "C111183", "definition": "Days times nanomoles per liter (area under the curve), divided by kilograms per meter squared (body mass index).", "preferredTerm": "Day Times Nanomole per Liter per Kilogram per Meter Squared", "submissionValue": "day*nmol/L/(kg/m2)"}, {"conceptId": "C117906", "definition": "Days times nanomoles per liter (area under the curve), divided by milligrams per gram (dose normalized by body weight).", "preferredTerm": "Day Times Nanomole Per Liter Per Milligram Per Gram", "submissionValue": "day*nmol/L/(mg/g)"}, {"conceptId": "C117907", "definition": "Days times nanomoles per liter (area under the curve), divided by milligrams per gram per day (daily dose normalized by body weight).", "preferredTerm": "Day Times Nanomole Per Liter Per Milligram Per Gram Per Day", "submissionValue": "day*nmol/L/(mg/g/day)"}, {"conceptId": "C112260", "definition": "Days times nanomoles per liter (area under the curve), divided by grams (weight).", "preferredTerm": "Day Times Nanomole Per Liter Per Gram", "submissionValue": "day*nmol/L/g"}, {"conceptId": "C112261", "definition": "Days times nanomoles per liter (area under the curve), divided by kilograms (weight).", "preferredTerm": "Day Times Nanomole Per Liter Per Kilogram", "submissionValue": "day*nmol/L/kg"}, {"conceptId": "C111184", "definition": "Days times nanomoles per liter (area under the curve), divided by meters squared (surface area).", "preferredTerm": "Day Times Nanomole per Liter per Meter Squared", "submissionValue": "day*nmol/L/m2"}, {"conceptId": "C85593", "definition": "Days times picograms per milliliter (area under the curve).", "preferredTerm": "Day Times Picogram per Milliliter", "submissionValue": "day*pg/mL"}, {"conceptId": "C111185", "definition": "Days times picograms per milliliter (area under the curve), divided by kilograms per meter squared (body mass index).", "preferredTerm": "Day Times Picogram per Milliliter per Kilogram per Meter Squared", "submissionValue": "day*pg/mL/(kg/m2)"}, {"conceptId": "C117908", "definition": "Days times picograms per milliliter (area under the curve), divided by milligrams per gram (dose normalized by body weight).", "preferredTerm": "Day Times Picogram Per Milliliter Per Milligram Per Gram", "submissionValue": "day*pg/mL/(mg/g)"}, {"conceptId": "C117909", "definition": "Days times picograms per milliliter (area under the curve), divided by milligrams per gram per day (daily dose normalized by body weight).", "preferredTerm": "Day Times Picogram Per Milliliter Per Milligram Per Gram Per Day", "submissionValue": "day*pg/mL/(mg/g/day)"}, {"conceptId": "C112262", "definition": "Days times picograms per milliliter (area under the curve), divided by grams (weight).", "preferredTerm": "Day Times Picogram Per Milliliter Per Gram", "submissionValue": "day*pg/mL/g"}, {"conceptId": "C112263", "definition": "Days times picograms per milliliter (area under the curve), divided by kilograms (weight).", "preferredTerm": "Day Times Picogram Per Milliliter Per Kilogram", "submissionValue": "day*pg/mL/kg"}, {"conceptId": "C111186", "definition": "Days times picograms per milliliter (area under the curve), divided by meters squared (surface area).", "preferredTerm": "Day Times Picogram per Milliliter per Meter Squared", "submissionValue": "day*pg/mL/m2"}, {"conceptId": "C111187", "definition": "Days times picomoles per liter (area under the curve).", "preferredTerm": "Day Times Picomole per Liter", "submissionValue": "day*pmol/L"}, {"conceptId": "C111188", "definition": "Days times picomoles per liter (area under the curve), divided by kilograms per meter squared (body mass index).", "preferredTerm": "Day Times Picomole per Liter per Kilogram per Meter Squared", "submissionValue": "day*pmol/L/(kg/m2)"}, {"conceptId": "C117910", "definition": "Days times picomoles per liter (area under the curve), divided by milligrams per gram (dose normalized by body weight).", "preferredTerm": "Day Times Picomole Per Liter Per Milligram Per Gram", "submissionValue": "day*pmol/L/(mg/g)"}, {"conceptId": "C117911", "definition": "Days times picomoles per liter (area under the curve), divided by milligrams per gram per day (daily dose normalized by body weight).", "preferredTerm": "Day Times Picomole Per Liter Per Milligram Per Gram Per Day", "submissionValue": "day*pmol/L/(mg/g/day)"}, {"conceptId": "C112264", "definition": "Days times picomoles per liter (area under the curve), divided by grams (weight).", "preferredTerm": "Day Times Picomole Per Liter Per Gram", "submissionValue": "day*pmol/L/g"}, {"conceptId": "C112265", "definition": "Days times picomoles per liter (area under the curve), divided by kilograms (weight).", "preferredTerm": "Day Times Picomole Per Liter Per Kilogram", "submissionValue": "day*pmol/L/kg"}, {"conceptId": "C111189", "definition": "Days times picomoles per liter (area under the curve), divided by meters squared (surface area).", "preferredTerm": "Day Times Picomole per Liter per Meter Squared", "submissionValue": "day*pmol/L/m2"}, {"conceptId": "C85586", "definition": "Days times micrograms per milliliter (area under the curve).", "preferredTerm": "Day Times Microgram per Milliliter", "submissionValue": "day*ug/mL"}, {"conceptId": "C111171", "definition": "Days times micrograms per milliliter (area under the curve), divided by kilograms per meter squared (body mass index).", "preferredTerm": "Day Times Microgram per Milliliter per Kilogram per Meter Squared", "submissionValue": "day*ug/mL/(kg/m2)"}, {"conceptId": "C117912", "definition": "Days times micrograms per milliliter (area under the curve), divided by milligrams per gram (dose normalized by body weight).", "preferredTerm": "Day Times Microgram Per Milliliter Per Milligram Per Gram", "submissionValue": "day*ug/mL/(mg/g)"}, {"conceptId": "C117913", "definition": "Days times micrograms per milliliter (area under the curve), divided by milligrams per gram per day (daily dose normalized by body weight).", "preferredTerm": "Day Times Microgram Per Milliliter Per Milligram Per Gram Per Day", "submissionValue": "day*ug/mL/(mg/g/day)"}, {"conceptId": "C112248", "definition": "Days times micrograms per milliliter (area under the curve), divided by grams (weight).", "preferredTerm": "Day Times Microgram Per Milliliter Per Gram", "submissionValue": "day*ug/mL/g"}, {"conceptId": "C112249", "definition": "Days times micrograms per milliliter (area under the curve), divided by kilograms (weight).", "preferredTerm": "Day Times Microgram Per Milliliter Per Kilogram", "submissionValue": "day*ug/mL/kg"}, {"conceptId": "C111172", "definition": "Days times micrograms per milliliter (area under the curve), divided by meters squared (surface area).", "preferredTerm": "Day Times Microgram per Milliliter per Meter Squared", "submissionValue": "day*ug/mL/m2"}, {"conceptId": "C85592", "definition": "Days times micromoles per liter (area under the curve).", "preferredTerm": "Day Times Nanomole per Milliliter", "submissionValue": "day*umol/L"}, {"conceptId": "C111173", "definition": "Days times micromoles per liter (area under the curve), divided by kilograms per meter squared (body mass index).", "preferredTerm": "Day Times Micromole per Liter per Kilogram per Meter Squared", "submissionValue": "day*umol/L/(kg/m2)"}, {"conceptId": "C117914", "definition": "Days times micromoles per liter (area under the curve), divided by milligrams per gram (dose normalized by body weight).", "preferredTerm": "Day Times Micromole Per Liter Per Milligram Per Gram", "submissionValue": "day*umol/L/(mg/g)"}, {"conceptId": "C117915", "definition": "Days times micromoles per liter (area under the curve), divided by milligrams per gram per day (daily dose normalized by body weight).", "preferredTerm": "Day Times Micromole Per Liter Per Milligram Per Gram Per Day", "submissionValue": "day*umol/L/(mg/g/day)"}, {"conceptId": "C112250", "definition": "Days times micromoles per liter (area under the curve), divided by grams (weight).", "preferredTerm": "Day Times Micromole Per Liter Per Gram", "submissionValue": "day*umol/L/g"}, {"conceptId": "C112251", "definition": "Days times micromoles per liter (area under the curve), divided by kilograms (weight).", "preferredTerm": "Day Times Micromole Per Liter Per Kilogram", "submissionValue": "day*umol/L/kg"}, {"conceptId": "C111174", "definition": "Days times micromoles per liter (area under the curve), divided by meters squared (surface area).", "preferredTerm": "Day Times Micromole per Liter per Meter Squared", "submissionValue": "day*umol/L/m2"}, {"conceptId": "C85597", "definition": "Femtograms per milliliter.", "preferredTerm": "Femtogram per Milliliter", "submissionValue": "fg/mL", "synonyms": ["fg/mL", "pg/L"]}, {"conceptId": "C48155", "definition": "A metric unit of mass equal to one one thousandth of a kilogram. (NCI)", "preferredTerm": "Gram", "submissionValue": "g", "synonyms": ["Gram"]}, {"conceptId": "C67372", "definition": "A dose calculation unit expressed in gram(s) per period of time equal to twenty-four hours.", "preferredTerm": "Gram per 24 Hours", "submissionValue": "g/day", "synonyms": ["Gram per Day", "g/24h", "g/d", "gram/24 Hours", "gram/day"]}, {"conceptId": "C85601", "definition": "Grams per hour.", "preferredTerm": "Gram per Hour", "submissionValue": "g/h", "synonyms": ["g/h", "gram/h"]}, {"conceptId": "C64566", "definition": "A unit of mass concentration defined as the concentration of one kilogram of a substance in unit volume of the mixture equal to one liter. The concept also refers to the unit of mass density (volumic mass) defined as the density of substance which mass equal to one kilogram occupies the volume one liter.(NCI)", "preferredTerm": "Kilogram per Liter", "submissionValue": "g/mL", "synonyms": ["Gram per Milliliter", "Kilogram per Liter", "g/mL", "gram/mL", "kg/L", "mg/uL"]}, {"conceptId": "C105462", "definition": "Grams per milliliter (concentration), divided by milligrams per kilogram (dose normalized by body weight).", "preferredTerm": "Gram Per Milliliter Per Milligram Per Kilogram", "submissionValue": "g/mL/(mg/kg)"}, {"conceptId": "C105463", "definition": "Grams per milliliter (concentration), divided by milligrams per kilogram per day (daily dose normalized by body weight).", "preferredTerm": "Gram Per Milliliter Per Milligram Per Kilogram Per Day", "submissionValue": "g/mL/(mg/kg/day)"}, {"conceptId": "C85602", "definition": "Grams per minute.", "preferredTerm": "Gram per Minute", "submissionValue": "g/min", "synonyms": ["g/min", "gram/min"]}, {"conceptId": "C25529", "definition": "A unit measure of time equal to 3,600 seconds or 60 minutes. It is approximately 1/24 of a median day. (NCI)", "preferredTerm": "Hour", "submissionValue": "h", "synonyms": ["Hour", "hr"]}, {"conceptId": "C85611", "definition": "Hours times femtograms per milliliter (area under the curve).", "preferredTerm": "Hour Times Femtogram per Milliliter", "submissionValue": "h*fg/mL"}, {"conceptId": "C111210", "definition": "Hours times femtograms per milliliter (area under the curve), divided by kilograms per meter squared (body mass index).", "preferredTerm": "Hour Times Femtogram per Milliliter per Kilogram per Meter Squared", "submissionValue": "h*fg/mL/(kg/m2)"}, {"conceptId": "C117916", "definition": "Hours times femtograms per milliliter (area under the curve), divided by milligrams per gram (dose normalized by body weight).", "preferredTerm": "Hour Times Femtogram Per Milliliter Per Milligram Per Gram", "submissionValue": "h*fg/mL/(mg/g)"}, {"conceptId": "C117917", "definition": "Hours times femtograms per milliliter (area under the curve), divided by milligrams per gram per day (daily dose normalized by body weight).", "preferredTerm": "Hour Times Femtogram Per Milliliter Per Milligram Per Gram Per Day", "submissionValue": "h*fg/mL/(mg/g/day)"}, {"conceptId": "C112298", "definition": "Hours times femtograms per milliliter (area under the curve), divided by grams (weight).", "preferredTerm": "Hour Times Femtogram Per Milliliter Per Gram", "submissionValue": "h*fg/mL/g"}, {"conceptId": "C112299", "definition": "Hours times femtograms per milliliter (area under the curve), divided by kilograms (weight).", "preferredTerm": "Hour Times Femtogram Per Milliliter Per Kilogram", "submissionValue": "h*fg/mL/kg"}, {"conceptId": "C111211", "definition": "Hours times femtograms per milliliter (area under the curve), divided by meters squared (surface area).", "preferredTerm": "Hour Times Femtogram per Milliliter per Meter Squared", "submissionValue": "h*fg/mL/m2"}, {"conceptId": "C85613", "definition": "Hours times grams per milliliter (area under the curve).", "preferredTerm": "Hour Times Gram per Milliliter", "submissionValue": "h*g/mL"}, {"conceptId": "C111212", "definition": "Hours times grams per milliliter (area under the curve), divided by kilograms per meter squared (body mass index).", "preferredTerm": "Hour Times Gram per Milliliter per Kilogram per Meter Squared", "submissionValue": "h*g/mL/(kg/m2)"}, {"conceptId": "C117918", "definition": "Hours times grams per milliliter (area under the curve), divided by milligrams per gram (dose normalized by body weight).", "preferredTerm": "Hour Times gram Per Milliliter Per Milligram Per Gram", "submissionValue": "h*g/mL/(mg/g)"}, {"conceptId": "C117919", "definition": "Hours times grams per milliliter (area under the curve), divided by milligrams per gram per day (daily dose normalized by body weight).", "preferredTerm": "Hour Times gram Per Milliliter Per Milligram Per Gram Per Day", "submissionValue": "h*g/mL/(mg/g/day)"}, {"conceptId": "C105464", "definition": "Hours times grams per milliliter (area under the curve), divided by milligrams per kilogram (dose normalized by body weight).", "preferredTerm": "Hour Times Gram Per Milliliter Per Milligram Per Kilogram", "submissionValue": "h*g/mL/(mg/kg)", "synonyms": ["h*g/mL/(ug/g)"]}, {"conceptId": "C105465", "definition": "Hours times grams per milliliter (area under the curve), divided by milligrams per kilogram per day (daily dose normalized by body weight).", "preferredTerm": "Hour Times Gram Per Milliliter Per Milligram Per Kilogram Per Day", "submissionValue": "h*g/mL/(mg/kg/day)", "synonyms": ["h*g/mL/(ug/g/day)"]}, {"conceptId": "C112300", "definition": "Hours times grams per milliliter (area under the curve), divided by grams (weight).", "preferredTerm": "Hour Times Gram Per Milliliter Per Gram", "submissionValue": "h*g/mL/g"}, {"conceptId": "C112301", "definition": "Hours times grams per milliliter (area under the curve), divided by kilograms (weight).", "preferredTerm": "Hour Times Gram Per Milliliter Per Kilogram", "submissionValue": "h*g/mL/kg"}, {"conceptId": "C111213", "definition": "Hours times grams per milliliter (area under the curve), divided by meters squared (surface area).", "preferredTerm": "Hour Times Gram per Milliliter per Meter Squared", "submissionValue": "h*g/mL/m2"}, {"conceptId": "C85621", "definition": "Hours times milligrams per milliliter (area under the curve).", "preferredTerm": "Hour Times Milligram per Milliliter", "submissionValue": "h*mg/mL"}, {"conceptId": "C111218", "definition": "Hours times milligrams per milliliter (area under the curve), divided by kilograms per meter squared (body mass index).", "preferredTerm": "Hour Times Milligram per Milliliter per Kilogram per Meter Squared", "submissionValue": "h*mg/mL/(kg/m2)"}, {"conceptId": "C117920", "definition": "Hours times milligrams per milliliter (area under the curve), divided by milligrams per gram (dose normalized by body weight).", "preferredTerm": "Hour Times Milligram Per Milliliter Per Milligram Per Gram", "submissionValue": "h*mg/mL/(mg/g)"}, {"conceptId": "C117921", "definition": "Hours times milligrams per milliliter (area under the curve), divided by milligrams per gram per day (daily dose normalized by body weight).", "preferredTerm": "Hour Times Milligram Per Milliliter Per Milligram Per Gram Per Day", "submissionValue": "h*mg/mL/(mg/g/day)"}, {"conceptId": "C105468", "definition": "Hours times milligrams per milliliter (area under the curve), divided by milligrams per kilogram (dose normalized by body weight).", "preferredTerm": "Hour Times Milligram Per Milliliter Per Milligram Per Kilogram", "submissionValue": "h*mg/mL/(mg/kg)", "synonyms": ["h*mg/mL/(ug/g)"]}, {"conceptId": "C105469", "definition": "Hours times milligrams per milliliter (area under the curve), divided by milligrams per kilogram per day (daily dose normalized by body weight).", "preferredTerm": "Hour Times Milligram Per Milliliter Per Milligram Per Kilogram Per Day", "submissionValue": "h*mg/mL/(mg/kg/day)", "synonyms": ["h*mg/mL/(ug/g/day)"]}, {"conceptId": "C112305", "definition": "Hours times milligrams per milliliter (area under the curve), divided by grams (weight).", "preferredTerm": "Hour Times Milligram Per Milliliter Per Gram", "submissionValue": "h*mg/mL/g"}, {"conceptId": "C112306", "definition": "Hours times milligrams per milliliter (area under the curve), divided by kilograms (weight).", "preferredTerm": "Hour Times Milligram Per Milliliter Per Kilogram", "submissionValue": "h*mg/mL/kg"}, {"conceptId": "C111219", "definition": "Hours times milligrams per milliliter (area under the curve), divided by meters squared (surface area).", "preferredTerm": "Hour Times Milligram per Milliliter per Meter Squared", "submissionValue": "h*mg/mL/m2"}, {"conceptId": "C85618", "definition": "Hours times millimoles per liter (area under the curve).", "preferredTerm": "Hour Times Micromole per Milliliter", "submissionValue": "h*mmol/L"}, {"conceptId": "C111220", "definition": "Hours times millimoles per liter (area under the curve), divided by kilograms per meter squared (body mass index).", "preferredTerm": "Hour Times Millimole per Liter per Kilogram per Meter Squared", "submissionValue": "h*mmol/L/(kg/m2)"}, {"conceptId": "C117922", "definition": "Hours times millimoles per liter (area under the curve), divided by milligrams per gram (dose normalized by body weight).", "preferredTerm": "Hour Times Millimole Per Liter Per Milligram Per Gram", "submissionValue": "h*mmol/L/(mg/g)"}, {"conceptId": "C117923", "definition": "Hours times millimoles per liter (area under the curve), divided by milligrams per gram per day (daily dose normalized by body weight).", "preferredTerm": "Hour Times Millimole Per Liter Per Milligram Per Gram Per Day", "submissionValue": "h*mmol/L/(mg/g/day)"}, {"conceptId": "C106530", "definition": "Hours times millimoles per liter (area under the curve), divided by grams (weight).", "preferredTerm": "Hour times Millimole Per Liter Per Gram", "submissionValue": "h*mmol/L/g"}, {"conceptId": "C112307", "definition": "Hours times millimoles per liter (area under the curve), divided by kilograms (weight).", "preferredTerm": "Hour Times Millimole Per Liter Per Kilogram", "submissionValue": "h*mmol/L/kg"}, {"conceptId": "C111221", "definition": "Hours times millimoles per liter (area under the curve), divided by meters squared (surface area).", "preferredTerm": "Hour Times Millimole per Liter per Meter Squared", "submissionValue": "h*mmol/L/m2"}, {"conceptId": "C85622", "definition": "Hours times moles per liter (area under the curve).", "preferredTerm": "Hour Times Millimole per Milliliter", "submissionValue": "h*mol/L"}, {"conceptId": "C111222", "definition": "Hours times moles per liter (area under the curve), divided by kilograms per meter squared (body mass index).", "preferredTerm": "Hour Times Mole per Liter per Kilogram per Meter Squared", "submissionValue": "h*mol/L/(kg/m2)"}, {"conceptId": "C117924", "definition": "Hours times moles per liter (area under the curve), divided by milligrams per gram (dose normalized by body weight).", "preferredTerm": "Hour Times mole Per Liter Per Milligram Per Gram", "submissionValue": "h*mol/L/(mg/g)"}, {"conceptId": "C117925", "definition": "Hours times moles per liter (area under the curve), divided by milligrams per gram per day (daily dose normalized by body weight).", "preferredTerm": "Hour Times mole Per Liter Per Milligram Per Gram Per Day", "submissionValue": "h*mol/L/(mg/g/day)"}, {"conceptId": "C106531", "definition": "Hours times moles per liter (area under the curve), divided by grams (weight).", "preferredTerm": "Hour times Mole Per Liter Per Gram", "submissionValue": "h*mol/L/g"}, {"conceptId": "C112308", "definition": "Hours times moles per liter (area under the curve), divided by kilograms (weight).", "preferredTerm": "Hour Times Mole Per Liter Per Kilogram", "submissionValue": "h*mol/L/kg"}, {"conceptId": "C111223", "definition": "Hours times moles per liter (area under the curve), divided by meters squared (surface area).", "preferredTerm": "Hour Times Mole per Liter per Meter Squared", "submissionValue": "h*mol/L/m2"}, {"conceptId": "C85624", "definition": "Hours times nanograms per milliliter (area under the curve).", "preferredTerm": "Hour Times Nanogram per Milliliter", "submissionValue": "h*ng/mL"}, {"conceptId": "C111224", "definition": "Hours times nanograms per milliliter (area under the curve), divided by kilograms per meter squared (body mass index).", "preferredTerm": "Hour Times Nanogram per Milliliter per Kilogram per Meter Squared", "submissionValue": "h*ng/mL/(kg/m2)"}, {"conceptId": "C117926", "definition": "Hours times nanograms per milliliter (area under the curve), divided by milligrams per gram (dose normalized by body weight).", "preferredTerm": "Hour Times Nanogram Per Milliliter Per Milligram Per Gram", "submissionValue": "h*ng/mL/(mg/g)"}, {"conceptId": "C117927", "definition": "Hours times nanograms per milliliter (area under the curve), divided by milligrams per gram per day (daily dose normalized by body weight).", "preferredTerm": "Hour Times Nanogram Per Milliliter Per Milligram Per Gram Per Day", "submissionValue": "h*ng/mL/(mg/g/day)"}, {"conceptId": "C85628", "definition": "Hours times nanograms per milliliter (area under the curve), divided by milligrams per kilogram (dose normalized by body weight).", "preferredTerm": "Hour Times Nanogram per Milliliter per Milligram per Kilogram", "submissionValue": "h*ng/mL/(mg/kg)", "synonyms": ["h*ng/mL/(ug/g)"]}, {"conceptId": "C105470", "definition": "Hours times nanograms per milliliter (area under the curve), divided by milligrams per kilogram per day (daily dose normalized by body weight).", "preferredTerm": "Hour Times Nanogram Per Milliliter Per Milligram Per Kilogram Per Day", "submissionValue": "h*ng/mL/(mg/kg/day)", "synonyms": ["h*ng/mL/(ug/g/day)"]}, {"conceptId": "C85629", "definition": "Hours times nanograms per milliliter (area under the curve), divided by milligrams per meter squared (dose normalized by surface area).", "preferredTerm": "Hour Times Nanogram per Milliliter per Milligram per Meter Squared", "submissionValue": "h*ng/mL/(mg/m2)"}, {"conceptId": "C85625", "definition": "Hours times nanograms per milliliter (area under the curve), divided by grams (weight).", "preferredTerm": "Hour Times Nanogram per Milliliter per Gram", "submissionValue": "h*ng/mL/g"}, {"conceptId": "C85626", "definition": "Hours times nanograms per milliliter (area under the curve), divided by kilograms (weight).", "preferredTerm": "Hour Times Nanogram per Milliliter per Kilogram", "submissionValue": "h*ng/mL/kg"}, {"conceptId": "C111225", "definition": "Hours times nanograms per milliliter (area under the curve), divided by meters squared (surface area).", "preferredTerm": "Hour Times Nanogram per Milliliter per Meter Squared", "submissionValue": "h*ng/mL/m2"}, {"conceptId": "C85627", "definition": "Hours times nanograms per milliliter (area under the curve), divided by milligrams (dose).", "preferredTerm": "Hour Times Nanogram per Milliliter per Milligram", "submissionValue": "h*ng/mL/mg", "synonyms": ["h*ng/mL/mg", "h*ng/mg/mL", "ng*h/mL/mg", "ng*h/mg/mL"]}, {"conceptId": "C85640", "definition": "Hours times nanomoles per liter (area under the curve).", "preferredTerm": "Hour Times Picomole per Milliliter", "submissionValue": "h*nmol/L"}, {"conceptId": "C111226", "definition": "Hours times nanomoles per liter (area under the curve), divided by kilograms per meter squared (body mass index).", "preferredTerm": "Hour Times Nanomole per Liter per Kilogram per Meter Squared", "submissionValue": "h*nmol/L/(kg/m2)"}, {"conceptId": "C117928", "definition": "Hours times nanomoles per liter (area under the curve), divided by milligrams per gram (dose normalized by body weight).", "preferredTerm": "Hour Times Nanomole Per Liter Per Milligram Per Gram", "submissionValue": "h*nmol/L/(mg/g)"}, {"conceptId": "C117929", "definition": "Hours times nanomoles per liter (area under the curve), divided by milligrams per gram per day (daily dose normalized by body weight).", "preferredTerm": "Hour Times Nanomole Per Liter Per Milligram Per Gram Per Day", "submissionValue": "h*nmol/L/(mg/g/day)"}, {"conceptId": "C116062", "definition": "Hours times nanomoles per liter (area under the curve), divided by grams (dose or weight).", "preferredTerm": "Hour Times Nanomole per Liter per Gram", "submissionValue": "h*nmol/L/g"}, {"conceptId": "C112309", "definition": "Hours times nanomoles per liter (area under the curve), divided by kilograms (weight).", "preferredTerm": "Hour Times Nanomole Per Liter Per Kilogram", "submissionValue": "h*nmol/L/kg"}, {"conceptId": "C111227", "definition": "Hours times nanomoles per liter (area under the curve), divided by meters squared (surface area).", "preferredTerm": "Hour Times Nanomole per Liter per Meter Squared", "submissionValue": "h*nmol/L/m2"}, {"conceptId": "C85631", "definition": "Hours times nanomoles per liter per micromole.", "preferredTerm": "Hour Times Nanomole per Liter per Micromole", "submissionValue": "h*nmol/L/umol", "synonyms": ["h*nmol/L/mcmol", "h*nmol/umol/L", "nmol*h/L/umol", "nmol*h/umol/L"]}, {"conceptId": "C85635", "definition": "Hours times picograms per milliliter (area under the curve).", "preferredTerm": "Hour Times Picogram per Milliliter", "submissionValue": "h*pg/mL"}, {"conceptId": "C111228", "definition": "Hours times picograms per milliliter (area under the curve), divided by kilograms per meter squared (body mass index).", "preferredTerm": "Hour Times Picogram per Milliliter per Kilogram per Meter Squared", "submissionValue": "h*pg/mL/(kg/m2)"}, {"conceptId": "C117930", "definition": "Hours times picograms per milliliter (area under the curve), divided by milligrams per gram (dose normalized by body weight).", "preferredTerm": "Hour Times Picogram Per Milliliter Per Milligram Per Gram", "submissionValue": "h*pg/mL/(mg/g)"}, {"conceptId": "C117931", "definition": "Hours times picograms per milliliter (area under the curve), divided by milligrams per gram per day (daily dose normalized by body weight).", "preferredTerm": "Hour Times Picogram Per Milliliter Per Milligram Per Gram Per Day", "submissionValue": "h*pg/mL/(mg/g/day)"}, {"conceptId": "C105471", "definition": "Hours times picograms per milliliter (area under the curve), divided by milligrams per kilogram (dose normalized by body weight).", "preferredTerm": "Hour Times Picogram Per Milliliter Per Milligram Per Kilogram", "submissionValue": "h*pg/mL/(mg/kg)", "synonyms": ["h*pg/mL/(ug/g)"]}, {"conceptId": "C105472", "definition": "Hours times picograms per milliliter (area under the curve), divided by milligrams per kilogram per day (daily dose normalized by body weight).", "preferredTerm": "Hour Times Picogram Per Milliliter Per Milligram Per Kilogram Per Day", "submissionValue": "h*pg/mL/(mg/kg/day)", "synonyms": ["h*pg/mL/(ug/g/day)"]}, {"conceptId": "C112310", "definition": "Hours times picograms per milliliter (area under the curve), divided by grams (weight).", "preferredTerm": "Hour Times Picogram Per Milliliter Per Gram", "submissionValue": "h*pg/mL/g"}, {"conceptId": "C85636", "definition": "Hours times picograms per milliliter (area under the curve), divided by kilograms (weight).", "preferredTerm": "Hour Times Picogram per Milliliter per Kilogram", "submissionValue": "h*pg/mL/kg"}, {"conceptId": "C111229", "definition": "Hours times picograms per milliliter (area under the curve), divided by meters squared (surface area).", "preferredTerm": "Hour Times Picogram per Milliliter per Meter Squared", "submissionValue": "h*pg/mL/m2"}, {"conceptId": "C85638", "definition": "Hours times picograms per milliliter (area under the curve), divided by milligrams (dose).", "preferredTerm": "Hour Times Picogram per Milliliter per Milligram", "submissionValue": "h*pg/mL/mg", "synonyms": ["h*pg/mL/mg", "h*pg/mg/mL", "pg*h/mL/mg", "pg*h/mg/mL"]}, {"conceptId": "C85612", "definition": "Hours times picomoles per liter (area under the curve).", "preferredTerm": "Hour Times Femtomole per Milliliter", "submissionValue": "h*pmol/L"}, {"conceptId": "C111230", "definition": "Hours times picomoles per liter (area under the curve), divided by kilograms per meter squared (body mass index).", "preferredTerm": "Hour Times Picomole per Liter per Kilogram per Meter Squared", "submissionValue": "h*pmol/L/(kg/m2)"}, {"conceptId": "C117932", "definition": "Hours times picomoles per liter (area under the curve), divided by milligrams per gram (dose normalized by body weight).", "preferredTerm": "Hour Times Picomole Per Liter Per Milligram Per Gram", "submissionValue": "h*pmol/L/(mg/g)"}, {"conceptId": "C117933", "definition": "Hours times picomoles per liter (area under the curve), divided by milligrams per gram per day (daily dose normalized by body weight).", "preferredTerm": "Hour Times Picomole Per Liter Per Milligram Per Gram Per Day", "submissionValue": "h*pmol/L/(mg/g/day)"}, {"conceptId": "C106532", "definition": "Hours times picomoles per liter (area under the curve), divided by grams (weight).", "preferredTerm": "Hour times Picomole Per Liter Per Gram", "submissionValue": "h*pmol/L/g"}, {"conceptId": "C112311", "definition": "Hours times picomoles per liter (area under the curve), divided by kilograms (weight).", "preferredTerm": "Hour Times Picomole Per Liter Per Kilogram", "submissionValue": "h*pmol/L/kg"}, {"conceptId": "C111231", "definition": "Hours times picomoles per liter (area under the curve), divided by meters squared (surface area).", "preferredTerm": "Hour Times Picomole per Liter per Meter Squared", "submissionValue": "h*pmol/L/m2"}, {"conceptId": "C85615", "definition": "Hours times micrograms per milliliter (area under the curve).", "preferredTerm": "Hour Times Microgram per Milliliter", "submissionValue": "h*ug/mL"}, {"conceptId": "C111214", "definition": "Hours times micrograms per milliliter (area under the curve), divided by kilograms per meter squared (body mass index).", "preferredTerm": "Hour Times Microgram per Milliliter per Kilogram per Meter Squared", "submissionValue": "h*ug/mL/(kg/m2)"}, {"conceptId": "C117934", "definition": "Hours times micrograms per milliliter (area under the curve), divided by milligrams per gram (dose normalized by body weight).", "preferredTerm": "Hour Times Microgram Per Milliliter Per Milligram Per Gram", "submissionValue": "h*ug/mL/(mg/g)"}, {"conceptId": "C117935", "definition": "Hours times micrograms per milliliter (area under the curve), divided by milligrams per gram per day (daily dose normalized by body weight).", "preferredTerm": "Hour Times Microgram Per Milliliter Per Milligram Per Gram Per Day", "submissionValue": "h*ug/mL/(mg/g/day)"}, {"conceptId": "C105466", "definition": "Hours times micrograms per milliliter (area under the curve), divided by milligrams per kilogram (dose normalized by body weight).", "preferredTerm": "Hour Times Microgram Per Milliliter Per Milligram Per Kilogram", "submissionValue": "h*ug/mL/(mg/kg)", "synonyms": ["h*ug/mL/(ug/g)"]}, {"conceptId": "C105467", "definition": "Hours times micrograms per milliliter (area under the curve), divided by milligrams per kilogram per day (daily dose normalized by body weight).", "preferredTerm": "Hour Times Microgram Per Milliliter Per Milligram Per Kilogram Per Day", "submissionValue": "h*ug/mL/(mg/kg/day)", "synonyms": ["h*ug/mL/(ug/g/day)"]}, {"conceptId": "C112302", "definition": "Hours times micrograms per milliliter (area under the curve), divided by grams (weight).", "preferredTerm": "Hour Times Microgram Per Milliliter Per Gram", "submissionValue": "h*ug/mL/g"}, {"conceptId": "C112303", "definition": "Hours times micrograms per milliliter (area under the curve), divided by kilograms (weight).", "preferredTerm": "Hour Times Microgram Per Milliliter Per Kilogram", "submissionValue": "h*ug/mL/kg"}, {"conceptId": "C111215", "definition": "Hours times micrograms per milliliter (area under the curve), divided by meters squared (surface area).", "preferredTerm": "Hour Times Microgram per Milliliter per Meter Squared", "submissionValue": "h*ug/mL/m2"}, {"conceptId": "C85617", "definition": "Hours times micrograms per milliliter (area under the curve), divided by milligrams (dose).", "preferredTerm": "Hour Times Microgram per Milliliter per Milligram", "submissionValue": "h*ug/mL/mg", "synonyms": ["h*mcg/mL/mg", "h*ug/mg/mL", "ug*h/mL/mg", "ug*h/mg/mL"]}, {"conceptId": "C85632", "definition": "Hours times micromoles per liter (area under the curve).", "preferredTerm": "Hour Times Nanomole per Milliliter", "submissionValue": "h*umol/L"}, {"conceptId": "C111216", "definition": "Hours times micromoles per liter (area under the curve), divided by kilograms per meter squared (body mass index).", "preferredTerm": "Hour Times Micromole per Liter per Kilogram per Meter Squared", "submissionValue": "h*umol/L/(kg/m2)"}, {"conceptId": "C117936", "definition": "Hours times micromoles per liter (area under the curve), divided by milligrams per gram (dose normalized by body weight).", "preferredTerm": "Hour Times Micromole Per Liter Per Milligram Per Gram", "submissionValue": "h*umol/L/(mg/g)"}, {"conceptId": "C117937", "definition": "Hours times micromoles per liter (area under the curve), divided by milligrams per gram per day (daily dose normalized by body weight).", "preferredTerm": "Hour Times Micromole Per Liter Per Milligram Per Gram Per Day", "submissionValue": "h*umol/L/(mg/g/day)"}, {"conceptId": "C116063", "definition": "Hours times micromoles per liter (area under the curve), divided by grams (dose or weight).", "preferredTerm": "Hour Times Micromole per liter per Gram", "submissionValue": "h*umol/L/g"}, {"conceptId": "C112304", "definition": "Hours times micromoles per liter (area under the curve), divided by kilograms (weight).", "preferredTerm": "Hour Times Micromole Per Liter Per Kilogram", "submissionValue": "h*umol/L/kg"}, {"conceptId": "C111217", "definition": "Hours times micromoles per liter (area under the curve), divided by meters squared (surface area).", "preferredTerm": "Hour Times Micromole per Liter per Meter Squared", "submissionValue": "h*umol/L/m2"}, {"conceptId": "C85606", "definition": "Hours squared times milligrams per milliliter.", "preferredTerm": "Hour Squared Times Milligram per Milliliter", "submissionValue": "h2*mg/mL", "synonyms": ["h*h*mg/mL", "h2*g/L", "h2*ug/uL", "h^2*mg/mL", "mg*h2/mL"]}, {"conceptId": "C85605", "definition": "Hours squared times millimoles per liter (area under the moment curve).", "preferredTerm": "Hour Squared Times Micromole per Milliliter", "submissionValue": "h2*mmol/L"}, {"conceptId": "C85607", "definition": "Hours squared times moles per liter (area under the moment curve).", "preferredTerm": "Hour Squared Times Millimole per Milliliter", "submissionValue": "h2*mol/L"}, {"conceptId": "C85608", "definition": "Hours squared times nanograms per milliliter.", "preferredTerm": "Hour Squared Times Nanogram per Milliliter", "submissionValue": "h2*ng/mL", "synonyms": ["h*h*ng/mL", "h2*ug/L", "h^2*ng/mL", "ng*h2/mL"]}, {"conceptId": "C85610", "definition": "Hours squared times nanomoles per liter (area under the moment curve).", "preferredTerm": "Hour Squared Times Picomole per Milliliter", "submissionValue": "h2*nmol/L"}, {"conceptId": "C85609", "definition": "Hours squared times picogram per milliliter.", "preferredTerm": "Hour Squared Times Picogram per Milliliter", "submissionValue": "h2*pg/mL", "synonyms": ["h*h*pg/mL", "h2*ng/L", "h^2*pg/mL", "pg*h2/mL"]}, {"conceptId": "C106529", "definition": "Hours squared times picomoles per liter (area under the moment curve).", "preferredTerm": "Hour Squared Times Picomole Per Liter", "submissionValue": "h2*pmol/L"}, {"conceptId": "C85604", "definition": "Hours squared times micrograms per milliliter.", "preferredTerm": "Hour Squared Times Microgram per Milliliter", "submissionValue": "h2*ug/mL", "synonyms": ["h*h*ug/mL", "h2*mcg/mL", "h2*mg/L", "h^2*ug/mL", "ug*h2/mL"]}, {"conceptId": "C106528", "definition": "Hours squared times micromoles per liter (area under the moment curve).", "preferredTerm": "Hour Squared Times Micromole Per Liter", "submissionValue": "h2*umol/L"}, {"conceptId": "C67376", "definition": "Unit of arbitrary substance concentration (biologic activity concentration) defined as the concentration of one international unit per one liter of system volume.(NCI)", "preferredTerm": "International Unit per Liter", "submissionValue": "mIU/mL", "synonyms": ["IE/L", "IU/L", "International Unit per Liter", "mIU/mL"]}, {"conceptId": "C28254", "definition": "The unit of volume equal to one thousandth of a liter, one cubic centimeter, 10E-6 cubic meter, or approximately to 0.061 023 7 cubic inch.(NCI)", "preferredTerm": "Milliliter", "submissionValue": "mL", "synonyms": ["Milliliter", "cm3"]}, {"conceptId": "C67410", "definition": "Milliliters per day.", "preferredTerm": "Milliliter per 24 Hours", "submissionValue": "mL/day", "synonyms": ["Milliliter per Day"]}, {"conceptId": "C66962", "definition": "A unit of volumetric flow rate defined as the rate at which one milliliter of matter travels during the period of time equal to one hour.(NCI)", "preferredTerm": "Milliliter per Hour", "submissionValue": "mL/h", "synonyms": ["Milliliters per Hour"]}, {"conceptId": "C73758", "definition": "Milliliters per kilogram per day.", "preferredTerm": "Milliliter per Kilogram per Day", "submissionValue": "mL/kg/day", "synonyms": ["Milliliter per Kilogram per Day"]}, {"conceptId": "C73759", "definition": "Milliliters per kilogram per hour.", "preferredTerm": "Milliliter per Kilogram per Hour", "submissionValue": "mL/kg/h", "synonyms": ["Milliliter per Kilogram per Hour"]}, {"conceptId": "C73760", "definition": "Milliliters per kilogram per minute.", "preferredTerm": "Milliliter per Kilogram per Minute", "submissionValue": "mL/kg/min", "synonyms": ["Milliliter per Kilogram per Minute", "mL/kg/min", "mL/min/kg", "uL/g/min", "uL/min/g"]}, {"conceptId": "C64777", "definition": "A metric unit of volumetric flow rate defined as the rate at which one milliliter of matter travels during the period of time equal to one minute.(NCI)", "preferredTerm": "Milliliter per Minute", "submissionValue": "mL/min", "synonyms": ["Milliliters per Minute"]}, {"conceptId": "C85716", "definition": "Milliliters per mole per day.", "preferredTerm": "Milliliter per Mole per Day", "submissionValue": "mL/mol/day", "synonyms": ["mL/day/mol", "mL/mol/d", "uL/day/mmol", "uL/mmol/day"]}, {"conceptId": "C85717", "definition": "Milliliters per mole per hour.", "preferredTerm": "Milliliter per Mole per Hour", "submissionValue": "mL/mol/h", "synonyms": ["mL/h/mol", "mL/mol/h", "uL/h/mmol", "uL/mmol/h"]}, {"conceptId": "C85718", "definition": "Milliliters per mole per minute.", "preferredTerm": "Milliliter per Mole per Minute", "submissionValue": "mL/mol/min", "synonyms": ["mL/min/mol", "mL/mol/min", "uL/min/mmol", "uL/mmol/min"]}, {"conceptId": "C28253", "definition": "The unit of mass equal to one thousandth of a gram or 1000 micrograms. One milligram equals approximately 0.015432 grain or 35.274 x 10E-6 ounce.(NCI)", "preferredTerm": "Milligram", "submissionValue": "mg", "synonyms": ["Milligram"]}, {"conceptId": "C67399", "definition": "A unit of measure referring to the ratio between mass expressed in milligrams per day.(NCI)", "preferredTerm": "Milligram per 24 Hours", "submissionValue": "mg/day", "synonyms": ["Milligram per Day"]}, {"conceptId": "C66969", "definition": "A unit of mass flow rate equivalent to the rate at which one thousandth of a gram of matter travels to a given object or space over a period of time equal to one hour.(NCI)", "preferredTerm": "Milligram per Hour", "submissionValue": "mg/h", "synonyms": ["Milligram per Hour"]}, {"conceptId": "C42576", "definition": "A unit of mass concentration defined as the concentration of one kilogram of a substance per unit volume of the mixture equal to one cubic meter, or the concentration of one milligram of a substance per unit volume of the mixture equal to one milliliter, or one gram of a substance per one liter of the mixture. It is also a unit of mass density (volumic mass) defined as the density of substance which mass equal to one milligram occupies the volume one milliliter.(NCI)", "preferredTerm": "Kilogram per Cubic Meter", "submissionValue": "mg/mL", "synonyms": ["Gram per Liter", "Kilogram per Cubic Meter", "Microgram per Microliter", "Milligram per Milliliter", "g/L", "kg/m3", "mg/mL", "ug/uL"]}, {"conceptId": "C105475", "definition": "Milligrams per milliliter (concentration), divided by milligrams per kilogram (dose normalized by body weight).", "preferredTerm": "Milligram Per Milliliter Per Milligram Per Kilogram", "submissionValue": "mg/mL/(mg/kg)"}, {"conceptId": "C105476", "definition": "Milligrams per milliliter (concentration), divided by milligrams per kilogram per day (daily dose normalized by body weight).", "preferredTerm": "Milligram Per Milliliter Per Milligram Per Kilogram Per Day", "submissionValue": "mg/mL/(mg/kg/day)"}, {"conceptId": "C85711", "definition": "Milligrams per milliliter per hour.", "preferredTerm": "Milligram per Milliliter per Hour", "submissionValue": "mg/mL/h", "synonyms": ["g/L/h", "g/h/L", "mg/h/mL", "ug/h/uL", "ug/uL/h"]}, {"conceptId": "C73742", "definition": "Milligrams per minute.", "preferredTerm": "Milligram per Minute", "submissionValue": "mg/min", "synonyms": ["Milligram per Minute"]}, {"conceptId": "C48154", "definition": "A unit measure of time equal to 60 seconds.(NCI)", "preferredTerm": "Minute", "submissionValue": "min", "synonyms": ["Minute Unit of Time"]}, {"conceptId": "C85724", "definition": "Minutes times femtograms per milliliter (area under the curve).", "preferredTerm": "Minute Times Femtogram per Milliliter", "submissionValue": "min*fg/mL"}, {"conceptId": "C111254", "definition": "Minutes times femtograms per milliliter (area under the curve), divided by kilograms per meter squared (body mass index).", "preferredTerm": "Minute Times Femtogram per Milliliter per Kilogram per Meter Squared", "submissionValue": "min*fg/mL/(kg/m2)"}, {"conceptId": "C117938", "definition": "Minutes times femtograms per milliliter (area under the curve), divided by milligrams per gram (dose normalized by body weight).", "preferredTerm": "Minute Times Femtogram Per Milliliter Per Milligram Per Gram", "submissionValue": "min*fg/mL/(mg/g)"}, {"conceptId": "C117939", "definition": "Minutes times femtograms per milliliter (area under the curve), divided by milligrams per gram per day (daily dose normalized by body weight).", "preferredTerm": "Minute Times Femtogram Per Milliliter Per Milligram Per Gram Per Day", "submissionValue": "min*fg/mL/(mg/g/day)"}, {"conceptId": "C112334", "definition": "Minutes times femtograms per milliliter (area under the curve), divided by grams (weight).", "preferredTerm": "Minute Times Femtogram Per Milliliter Per Gram", "submissionValue": "min*fg/mL/g"}, {"conceptId": "C112335", "definition": "Minutes times femtograms per milliliter (area under the curve), divided by kilograms (weight).", "preferredTerm": "Minute Times Femtogram Per Milliliter Per Kilogram", "submissionValue": "min*fg/mL/kg"}, {"conceptId": "C111255", "definition": "Minutes times femtograms per milliliter (area under the curve), divided by meters squared (surface area).", "preferredTerm": "Minute Times Femtogram per Milliliter per Meter Squared", "submissionValue": "min*fg/mL/m2"}, {"conceptId": "C85725", "definition": "Minutes times grams per milliliter (area under the curve).", "preferredTerm": "Minute Times Gram per Milliliter", "submissionValue": "min*g/mL"}, {"conceptId": "C111256", "definition": "Minutes times grams per milliliter (area under the curve), divided by kilograms per meter squared (body mass index).", "preferredTerm": "Minute Times Gram per Milliliter per Kilogram per Meter Squared", "submissionValue": "min*g/mL/(kg/m2)"}, {"conceptId": "C117940", "definition": "Minutes times grams per milliliter (area under the curve), divided by milligrams per gram (dose normalized by body weight).", "preferredTerm": "Minute Times gram Per Milliliter Per Milligram Per Gram", "submissionValue": "min*g/mL/(mg/g)"}, {"conceptId": "C117941", "definition": "Minutes times grams per milliliter (area under the curve), divided by milligrams per gram per day (daily dose normalized by body weight).", "preferredTerm": "Minute Times gram Per Milliliter Per Milligram Per Gram Per Day", "submissionValue": "min*g/mL/(mg/g/day)"}, {"conceptId": "C112336", "definition": "Minutes times grams per milliliter (area under the curve), divided by grams (weight).", "preferredTerm": "Minute Times Gram Per Milliliter Per Gram", "submissionValue": "min*g/mL/g"}, {"conceptId": "C112337", "definition": "Minutes times grams per milliliter (area under the curve), divided by kilograms (weight).", "preferredTerm": "Minute Times Gram Per Milliliter Per Kilogram", "submissionValue": "min*g/mL/kg"}, {"conceptId": "C111257", "definition": "Minutes times grams per milliliter (area under the curve), divided by meters squared (surface area).", "preferredTerm": "Minute Times Gram per Milliliter per Meter Squared", "submissionValue": "min*g/mL/m2"}, {"conceptId": "C85729", "definition": "Minutes times milligrams per milliliter (area under the curve).", "preferredTerm": "Minute Times Milligram per Milliliter", "submissionValue": "min*mg/mL"}, {"conceptId": "C111262", "definition": "Minutes times milligrams per milliliter (area under the curve), divided by kilograms per meter squared (body mass index).", "preferredTerm": "Minute Times Milligram per Milliliter per Kilogram per Meter Squared", "submissionValue": "min*mg/mL/(kg/m2)"}, {"conceptId": "C117942", "definition": "Minutes times milligrams per milliliter (area under the curve), divided by milligrams per gram (dose normalized by body weight).", "preferredTerm": "Minute Times Milligram Per Milliliter Per Milligram Per Gram", "submissionValue": "min*mg/mL/(mg/g)"}, {"conceptId": "C117943", "definition": "Minutes times milligrams per milliliter (area under the curve), divided by milligrams per gram per day (daily dose normalized by body weight).", "preferredTerm": "Minute Times Milligram Per Milliliter Per Milligram Per Gram Per Day", "submissionValue": "min*mg/mL/(mg/g/day)"}, {"conceptId": "C112342", "definition": "Minutes times milligrams per milliliter (area under the curve), divided by grams (weight).", "preferredTerm": "Minute Times Milligram Per Milliliter Per Gram", "submissionValue": "min*mg/mL/g"}, {"conceptId": "C112343", "definition": "Minutes times milligrams per milliliter (area under the curve), divided by kilograms (weight).", "preferredTerm": "Minute Times Milligram Per Milliliter Per Kilogram", "submissionValue": "min*mg/mL/kg"}, {"conceptId": "C111263", "definition": "Minutes times milligrams per milliliter (area under the curve), divided by meters squared (surface area).", "preferredTerm": "Minute Times Milligram per Milliliter per Meter Squared", "submissionValue": "min*mg/mL/m2"}, {"conceptId": "C85728", "definition": "Minutes times millimoles per liter (area under the curve).", "preferredTerm": "Minute Times Micromole per Milliliter", "submissionValue": "min*mmol/L"}, {"conceptId": "C111264", "definition": "Minutes times millimoles per liter (area under the curve), divided by kilograms per meter squared (body mass index).", "preferredTerm": "Minute Times Millimole per Liter per Kilogram per Meter Squared", "submissionValue": "min*mmol/L/(kg/m2)"}, {"conceptId": "C117944", "definition": "Minutes times millimoles per liter (area under the curve), divided by milligrams per gram (dose normalized by body weight).", "preferredTerm": "Minute Times Millimole Per Liter Per Milligram Per Gram", "submissionValue": "min*mmol/L/(mg/g)"}, {"conceptId": "C117945", "definition": "Minutes times millimoles per liter (area under the curve), divided by milligrams per gram per day (daily dose normalized by body weight).", "preferredTerm": "Minute Times Millimole Per Liter Per Milligram Per Gram Per Day", "submissionValue": "min*mmol/L/(mg/g/day)"}, {"conceptId": "C112344", "definition": "Minutes times millimoles per liter (area under the curve), divided by grams (weight).", "preferredTerm": "Minute Times Millimole Per Liter Per Gram", "submissionValue": "min*mmol/L/g"}, {"conceptId": "C112345", "definition": "Minutes times millimoles per liter (area under the curve), divided by kilograms (weight).", "preferredTerm": "Minute Times Millimole Per Liter Per Kilogram", "submissionValue": "min*mmol/L/kg"}, {"conceptId": "C111265", "definition": "Minutes times millimoles per liter (area under the curve), divided by meters squared (surface area).", "preferredTerm": "Minute Times Millimole per Liter per Meter Squared", "submissionValue": "min*mmol/L/m2"}, {"conceptId": "C85730", "definition": "Minutes times moles per liter (area under the curve).", "preferredTerm": "Minute Times Millimole per Milliliter", "submissionValue": "min*mol/L"}, {"conceptId": "C111266", "definition": "Minutes times moles per liter (area under the curve), divided by kilograms per meter squared (body mass index).", "preferredTerm": "Minute Times Mole per Liter per Kilogram per Meter Squared", "submissionValue": "min*mol/L/(kg/m2)"}, {"conceptId": "C117946", "definition": "Minutes times moles per liter (area under the curve), divided by milligrams per gram (dose normalized by body weight).", "preferredTerm": "Minute Times mole Per Liter Per Milligram Per Gram", "submissionValue": "min*mol/L/(mg/g)"}, {"conceptId": "C117947", "definition": "Minutes times moles per liter (area under the curve), divided by milligrams per gram per day (daily dose normalized by body weight).", "preferredTerm": "Minute Times mole Per Liter Per Milligram Per Gram Per Day", "submissionValue": "min*mol/L/(mg/g/day)"}, {"conceptId": "C112346", "definition": "Minutes times moles per liter (area under the curve), divided by grams (weight).", "preferredTerm": "Minute Times Mole Per Liter Per Gram", "submissionValue": "min*mol/L/g"}, {"conceptId": "C112347", "definition": "Minutes times moles per liter (area under the curve), divided by kilograms (weight).", "preferredTerm": "Minute Times Mole Per Liter Per Kilogram", "submissionValue": "min*mol/L/kg"}, {"conceptId": "C111267", "definition": "Minutes times moles per liter (area under the curve), divided by meters squared (surface area).", "preferredTerm": "Minute Times Mole per Liter per Meter Squared", "submissionValue": "min*mol/L/m2"}, {"conceptId": "C85732", "definition": "Minutes times nanograms per milliliter (area under the curve).", "preferredTerm": "Minute Times Nanogram per Milliliter", "submissionValue": "min*ng/mL"}, {"conceptId": "C111268", "definition": "Minutes times nanograms per milliliter (area under the curve), divided by kilograms per meter squared (body mass index).", "preferredTerm": "Minute Times Nanogram per Milliliter per Kilogram per Meter Squared", "submissionValue": "min*ng/mL/(kg/m2)"}, {"conceptId": "C117948", "definition": "Minutes times nanograms per milliliter (area under the curve), divided by milligrams per gram (dose normalized by body weight).", "preferredTerm": "Minute Times Nanogram Per Milliliter Per Milligram Per Gram", "submissionValue": "min*ng/mL/(mg/g)"}, {"conceptId": "C117949", "definition": "Minutes times nanograms per milliliter (area under the curve), divided by milligrams per gram per day (daily dose normalized by body weight).", "preferredTerm": "Minute Times Nanogram Per Milliliter Per Milligram Per Gram Per Day", "submissionValue": "min*ng/mL/(mg/g/day)"}, {"conceptId": "C112348", "definition": "Minutes times nanograms per milliliter (area under the curve), divided by grams (weight).", "preferredTerm": "Minute Times Nanogram Per Milliliter Per Gram", "submissionValue": "min*ng/mL/g"}, {"conceptId": "C112349", "definition": "Minutes times nanograms per milliliter (area under the curve), divided by kilograms (weight).", "preferredTerm": "Minute Times Nanogram Per Milliliter Per Kilogram", "submissionValue": "min*ng/mL/kg"}, {"conceptId": "C111269", "definition": "Minutes times nanograms per milliliter (area under the curve), divided by meters squared (surface area).", "preferredTerm": "Minute Times Nanogram per Milliliter per Meter Squared", "submissionValue": "min*ng/mL/m2"}, {"conceptId": "C85735", "definition": "Minutes times nanomoles per liter (area under the curve).", "preferredTerm": "Minute Times Picomole per Milliliter", "submissionValue": "min*nmol/L"}, {"conceptId": "C111270", "definition": "Minutes times nanomoles per liter (area under the curve), divided by kilograms per meter squared (body mass index).", "preferredTerm": "Minute Times Nanomole per Liter per Kilogram per Meter Squared", "submissionValue": "min*nmol/L/(kg/m2)"}, {"conceptId": "C117950", "definition": "Minutes times nanomoles per liter (area under the curve), divided by milligrams per gram (dose normalized by body weight).", "preferredTerm": "Minute Times Nanomole Per Liter Per Milligram Per Gram", "submissionValue": "min*nmol/L/(mg/g)"}, {"conceptId": "C117951", "definition": "Minutes times nanomoles per liter (area under the curve), divided by milligrams per gram per day (daily dose normalized by body weight).", "preferredTerm": "Minute Times Nanomole Per Liter Per Milligram Per Gram Per Day", "submissionValue": "min*nmol/L/(mg/g/day)"}, {"conceptId": "C112350", "definition": "Minutes times nanomoles per liter (area under the curve), divided by grams (weight).", "preferredTerm": "Minute Times Nanomole Per Liter Per Gram", "submissionValue": "min*nmol/L/g"}, {"conceptId": "C112351", "definition": "Minutes times nanomoles per liter (area under the curve), divided by kilograms (weight).", "preferredTerm": "Minute Times Nanomole Per Liter Per Kilogram", "submissionValue": "min*nmol/L/kg"}, {"conceptId": "C111271", "definition": "Minutes times nanomoles per liter (area under the curve), divided by meters squared (surface area).", "preferredTerm": "Minute Times Nanomole per Liter per Meter Squared", "submissionValue": "min*nmol/L/m2"}, {"conceptId": "C85734", "definition": "Minutes times picograms per milliliter (area under the curve).", "preferredTerm": "Minute Times Picogram per Milliliter", "submissionValue": "min*pg/mL"}, {"conceptId": "C111272", "definition": "Minutes times picograms per milliliter (area under the curve), divided by kilograms per meter squared (body mass index).", "preferredTerm": "Minute Times Picogram per Milliliter per Kilogram per Meter Squared", "submissionValue": "min*pg/mL/(kg/m2)"}, {"conceptId": "C117952", "definition": "Minutes times picograms per milliliter (area under the curve), divided by milligrams per gram (dose normalized by body weight).", "preferredTerm": "Minute Times Picogram Per Milliliter Per Milligram Per Gram", "submissionValue": "min*pg/mL/(mg/g)"}, {"conceptId": "C117953", "definition": "Minutes times picograms per milliliter (area under the curve), divided by milligrams per gram per day (daily dose normalized by body weight).", "preferredTerm": "Minute Times Picogram Per Milliliter Per Milligram Per Gram Per Day", "submissionValue": "min*pg/mL/(mg/g/day)"}, {"conceptId": "C112352", "definition": "Minutes times picograms per milliliter (area under the curve), divided by grams (weight).", "preferredTerm": "Minute Times Picogram Per Milliliter Per Gram", "submissionValue": "min*pg/mL/g"}, {"conceptId": "C112353", "definition": "Minutes times picograms per milliliter (area under the curve), divided by kilograms (weight).", "preferredTerm": "Minute Times Picogram Per Milliliter Per Kilogram", "submissionValue": "min*pg/mL/kg"}, {"conceptId": "C111273", "definition": "Minutes times picograms per milliliter (area under the curve), divided by meters squared (surface area).", "preferredTerm": "Minute Times Picogram per Milliliter per Meter Squared", "submissionValue": "min*pg/mL/m2"}, {"conceptId": "C106543", "definition": "Minutes times picomoles per liter (area under the curve).", "preferredTerm": "Minute Times Picomole Per Liter", "submissionValue": "min*pmol/L"}, {"conceptId": "C111274", "definition": "Minutes times picomoles per liter (area under the curve), divided by kilograms per meter squared (body mass index).", "preferredTerm": "Minute Times Picomole per Liter per Kilogram per Meter Squared", "submissionValue": "min*pmol/L/(kg/m2)"}, {"conceptId": "C117954", "definition": "Minutes times picomoles per liter (area under the curve), divided by milligrams per gram (dose normalized by body weight).", "preferredTerm": "Minute Times Picomole Per Liter Per Milligram Per Gram", "submissionValue": "min*pmol/L/(mg/g)"}, {"conceptId": "C117955", "definition": "Minutes times picomoles per liter (area under the curve), divided by milligrams per gram per day (daily dose normalized by body weight).", "preferredTerm": "Minute Times Picomole Per Liter Per Milligram Per Gram Per Day", "submissionValue": "min*pmol/L/(mg/g/day)"}, {"conceptId": "C112354", "definition": "Minutes times picomoles per liter (area under the curve), divided by grams (weight).", "preferredTerm": "Minute Times Picomole Per Liter Per Gram", "submissionValue": "min*pmol/L/g"}, {"conceptId": "C112355", "definition": "Minutes times picomoles per liter (area under the curve), divided by kilograms (weight).", "preferredTerm": "Minute Times Picomole Per Liter Per Kilogram", "submissionValue": "min*pmol/L/kg"}, {"conceptId": "C111275", "definition": "Minutes times picomoles per liter (area under the curve), divided by meters squared (surface area).", "preferredTerm": "Minute Times Picomole per Liter per Meter Squared", "submissionValue": "min*pmol/L/m2"}, {"conceptId": "C85727", "definition": "Minutes times micrograms per milliliter (area under the curve).", "preferredTerm": "Minute Times Microgram per Milliliter", "submissionValue": "min*ug/mL"}, {"conceptId": "C111258", "definition": "Minutes times micrograms per milliliter (area under the curve), divided by kilograms per meter squared (body mass index).", "preferredTerm": "Minute Times Microgram per Milliliter per Kilogram per Meter Squared", "submissionValue": "min*ug/mL/(kg/m2)"}, {"conceptId": "C117956", "definition": "Minutes times micrograms per milliliter (area under the curve), divided by milligrams per gram (dose normalized by body weight).", "preferredTerm": "Minute Times Microgram Per Milliliter Per Milligram Per Gram", "submissionValue": "min*ug/mL/(mg/g)"}, {"conceptId": "C117957", "definition": "Minutes times micrograms per milliliter (area under the curve), divided by milligrams per gram per day (daily dose normalized by body weight).", "preferredTerm": "Minute Times Microgram Per Milliliter Per Milligram Per Gram Per Day", "submissionValue": "min*ug/mL/(mg/g/day)"}, {"conceptId": "C112338", "definition": "Minutes times micrograms per milliliter (area under the curve), divided by grams (weight).", "preferredTerm": "Minute Times Microgram Per Milliliter Per Gram", "submissionValue": "min*ug/mL/g"}, {"conceptId": "C112339", "definition": "Minutes times micrograms per milliliter (area under the curve), divided by kilograms (weight).", "preferredTerm": "Minute Times Microgram Per Milliliter Per Kilogram", "submissionValue": "min*ug/mL/kg"}, {"conceptId": "C111259", "definition": "Minutes times micrograms per milliliter (area under the curve), divided by meters squared (surface area).", "preferredTerm": "Minute Times Microgram per Milliliter per Meter Squared", "submissionValue": "min*ug/mL/m2"}, {"conceptId": "C85733", "definition": "Minutes times micromoles per liter (area under the curve).", "preferredTerm": "Minute Times Nanomole per Milliliter", "submissionValue": "min*umol/L"}, {"conceptId": "C111260", "definition": "Minutes times micromoles per liter (area under the curve), divided by kilograms per meter squared (body mass index).", "preferredTerm": "Minute Times Micromole per Liter per Kilogram per Meter Squared", "submissionValue": "min*umol/L/(kg/m2)"}, {"conceptId": "C117958", "definition": "Minutes times micromoles per liter (area under the curve), divided by milligrams per gram (dose normalized by body weight).", "preferredTerm": "Minute Times Micromole Per Liter Per Milligram Per Gram", "submissionValue": "min*umol/L/(mg/g)"}, {"conceptId": "C117959", "definition": "Minutes times micromoles per liter (area under the curve), divided by milligrams per gram per day (daily dose normalized by body weight).", "preferredTerm": "Minute Times Micromole Per Liter Per Milligram Per Gram Per Day", "submissionValue": "min*umol/L/(mg/g/day)"}, {"conceptId": "C112340", "definition": "Minutes times micromoles per liter (area under the curve), divided by grams (weight).", "preferredTerm": "Minute Times Micromole Per Liter Per Gram", "submissionValue": "min*umol/L/g"}, {"conceptId": "C112341", "definition": "Minutes times micromoles per liter (area under the curve), divided by kilograms (weight).", "preferredTerm": "Minute Times Micromole Per Liter Per Kilogram", "submissionValue": "min*umol/L/kg"}, {"conceptId": "C111261", "definition": "Minutes times micromoles per liter (area under the curve), divided by meters squared (surface area).", "preferredTerm": "Minute Times Micromole per Liter per Meter Squared", "submissionValue": "min*umol/L/m2"}, {"conceptId": "C48513", "definition": "A unit of amount of substance equal to 0.001 mole.(NCI)", "preferredTerm": "Millimole", "submissionValue": "mmol", "synonyms": ["Millimole"]}, {"conceptId": "C64387", "definition": "A unit of concentration (molarity unit) equal to one thousandth of a mole (10E-3 mole) of solute per one liter of solution.(NCI)", "preferredTerm": "Millimole per Liter", "submissionValue": "mmol/L", "synonyms": ["Micromole per Milliliter", "Millimole per Liter", "Mole per Cubic Meter", "mcmol/mL", "mmol/L", "mol/m3", "nmol/uL", "umol/mL"]}, {"conceptId": "C85720", "definition": "Millimoles per hour.", "preferredTerm": "Millimole per Hour", "submissionValue": "mmol/h"}, {"conceptId": "C85721", "definition": "Millimoles per milliliter per hour.", "preferredTerm": "Millimole per Milliliter per Hour", "submissionValue": "mmol/mL/h", "synonyms": ["mmol/h/mL", "mmol/mL/h", "mol/L/h", "mol/h/L", "umol/h/uL", "umol/uL/h"]}, {"conceptId": "C85722", "definition": "Millimoles per minute.", "preferredTerm": "Millimole per Minute", "submissionValue": "mmol/min"}, {"conceptId": "C42539", "definition": "A unit defined as the amount of substance that contains as many elementary units as there are atoms in 0.012 kg of carbon-12. When the mole is used, the elementary entities must be specified and may be atoms, molecules, ions, electrons, other particles, or specified groups of such particles.(NCI)", "preferredTerm": "Mole", "submissionValue": "mol", "synonyms": ["Mole"]}, {"conceptId": "C48555", "definition": "A unit of concentration (molarity unit) equal to one mole of solute in one liter of solution.(NCI)", "preferredTerm": "Mole per Liter", "submissionValue": "mol/L", "synonyms": ["Mole per Liter", "mmol/mL", "mol/L"]}, {"conceptId": "C85737", "definition": "Moles per day.", "preferredTerm": "Mole per Day", "submissionValue": "mol/day", "synonyms": ["mol/d"]}, {"conceptId": "C85738", "definition": "Moles per hour.", "preferredTerm": "Mole per Hour", "submissionValue": "mol/h"}, {"conceptId": "C85739", "definition": "Moles per minute.", "preferredTerm": "Mole per Minute", "submissionValue": "mol/min"}, {"conceptId": "C69188", "definition": "A unit of volume equal to one billionth of a liter (10E-9 liter).(NCI)", "preferredTerm": "Nanoliter", "submissionValue": "nL", "synonyms": ["Nanoliter"]}, {"conceptId": "C85760", "definition": "Nanounits per milliliter.", "preferredTerm": "Nanounit per Milliliter", "submissionValue": "nU/mL", "synonyms": ["mcU/L", "nU/mL", "uU/L"]}, {"conceptId": "C48516", "definition": "A unit of mass equal to one billionth (10E-9) of a gram, or one millionth (10E-6) of a milligram.(NCI)", "preferredTerm": "Nanogram", "submissionValue": "ng", "synonyms": ["Nanogram"]}, {"conceptId": "C85741", "definition": "Nanograms per day.", "preferredTerm": "Nanogram per Day", "submissionValue": "ng/day", "synonyms": ["ng/d"]}, {"conceptId": "C85742", "definition": "Nanograms per hour.", "preferredTerm": "Nanogram per Hour", "submissionValue": "ng/h"}, {"conceptId": "C85743", "definition": "Nanograms per kilogram per minute.", "preferredTerm": "Nanogram per Kilogram per Minute", "submissionValue": "ng/kg/min", "synonyms": ["ng/kg/min", "ng/min/kg", "pg/g/min", "pg/min/g"]}, {"conceptId": "C67306", "definition": "A unit of mass concentration defined as the concentration of one microgram of a substance per unit volume of the mixture equal to one liter. The concept also refers to the unit of mass density (volumic mass) defined as the density of substance which mass equal to one microgram occupies the volume one liter.(NCI)", "preferredTerm": "Microgram per Liter", "submissionValue": "ng/mL", "synonyms": ["Microgram per Liter", "Milligram per Cubic Meter", "Nanogram per Milliliter", "mcg/L", "mg/m3", "ng/mL", "ug/L"]}, {"conceptId": "C105477", "definition": "Nanograms per milliliter (concentration), divided by milligrams per kilogram (dose normalized by body weight).", "preferredTerm": "Nanogram Per Milliliter Per Milligram Per Kilogram", "submissionValue": "ng/mL/(mg/kg)"}, {"conceptId": "C105478", "definition": "Nanograms per milliliter (concentration), divided by milligrams per kilogram per day (daily dose normalized by body weight).", "preferredTerm": "Nanogram Per Milliliter Per Milligram Per Kilogram Per Day", "submissionValue": "ng/mL/(mg/kg/day)"}, {"conceptId": "C67430", "definition": "Nanograms per milliliter per hour.", "preferredTerm": "Nanogram per Milliliter per Hour", "submissionValue": "ng/mL/h", "synonyms": ["ng/h/mL", "ng/mL/h", "ug/L/h"]}, {"conceptId": "C85746", "definition": "Nanograms per milliliter per kilogram.", "preferredTerm": "Nanogram per Milliliter per Kilogram", "submissionValue": "ng/mL/kg", "synonyms": ["ng/kg/mL", "ng/mL/kg"]}, {"conceptId": "C85747", "definition": "Nanograms per milliliter (concentration), divided by milligrams (dose).", "preferredTerm": "Nanogram per Milliliter per Milligram", "submissionValue": "ng/mL/mg", "synonyms": ["ng/mL/mg", "ng/mg/mL"]}, {"conceptId": "C85744", "definition": "Nanograms per milligram of creatinine.", "preferredTerm": "Nanogram per Milligram of Creatinine", "submissionValue": "ng/mg of Creatinine", "synonyms": ["ng/mg of Creatinine", "ug/g of Creatinine"]}, {"conceptId": "C85749", "definition": "Nanograms per minute.", "preferredTerm": "Nanogram per Minute", "submissionValue": "ng/min"}, {"conceptId": "C48517", "definition": "A unit of amount of substance equal to one billionth (10E-9) of a mole.(NCI)", "preferredTerm": "Nanomole", "submissionValue": "nmol", "synonyms": ["Nanomole"]}, {"conceptId": "C67432", "definition": "A unit of concentration (molarity unit) equal to one billionth of a mole (10E-9 mole) of solute in one liter of solution.(NCI)", "preferredTerm": "Nanomole per Liter", "submissionValue": "nmol/L", "synonyms": ["Nanomole per Liter"]}, {"conceptId": "C85755", "definition": "Nanomoles per liter per micromole.", "preferredTerm": "Nanomole per Liter per Micromole", "submissionValue": "nmol/L/umol", "synonyms": ["nmol/L/mcmol", "nmol/L/umol", "nmol/mcmol/L", "nmol/umol/L"]}, {"conceptId": "C85751", "definition": "Nanomoles per day.", "preferredTerm": "Nanomole per Day", "submissionValue": "nmol/day", "synonyms": ["nmol/d"]}, {"conceptId": "C85752", "definition": "Nanomoles per gram.", "preferredTerm": "Nanomole per Gram", "submissionValue": "nmol/g", "synonyms": ["nmol/g", "pmol/mg", "umol/kg"]}, {"conceptId": "C85753", "definition": "Nanomoles per hour.", "preferredTerm": "Nanomole per Hour", "submissionValue": "nmol/h"}, {"conceptId": "C85754", "definition": "Nanomoles per kilogram.", "preferredTerm": "Nanomole per Kilogram", "submissionValue": "nmol/kg", "synonyms": ["nmol/kg", "pmol/g"]}, {"conceptId": "C85757", "definition": "Nanomoles per milliliter per hour.", "preferredTerm": "Nanomole per Milliliter per Hour", "submissionValue": "nmol/mL/h", "synonyms": ["nmol/h/mL", "nmol/mL/h", "umol/L/h"]}, {"conceptId": "C85758", "definition": "Nanomoles per minute.", "preferredTerm": "Nanomole per Minute", "submissionValue": "nmol/min"}, {"conceptId": "C67331", "definition": "Picograms per deciliter.", "preferredTerm": "Picogram per Deciliter", "submissionValue": "pg/dL", "synonyms": ["Picogram per Deciliter"]}, {"conceptId": "C85778", "definition": "Picograms per day.", "preferredTerm": "Picogram per Day", "submissionValue": "pg/day", "synonyms": ["pg/d"]}, {"conceptId": "C85779", "definition": "Picograms per hour.", "preferredTerm": "Picogram per Hour", "submissionValue": "pg/h"}, {"conceptId": "C67327", "definition": "A unit of mass concentration defined as the concentration of one nanogram of a substance per one liter of the mixture, or one picogram of a substance in unit volume of the mixture equal to one milliliter, or one microgram of a substance per one cubic meter of the mixture. The concept also refers to the metric unit of mass density (volumic mass) defined as the density of substance which mass equal to one nanogram occupies the volume one liter.(NCI)", "preferredTerm": "Nanogram per Liter", "submissionValue": "pg/mL", "synonyms": ["Microgram per Cubic Meter", "ng/L", "pg/mL", "ug/m3"]}, {"conceptId": "C105479", "definition": "Picograms per milliliter (concentration), divided by milligrams per kilogram (dose normalized by body weight).", "preferredTerm": "Picogram Per Milliliter Per Milligram Per Kilogram", "submissionValue": "pg/mL/(mg/kg)"}, {"conceptId": "C105480", "definition": "Picograms per milliliter (concentration), divided by milligrams per kilogram per day (daily dose normalized by body weight).", "preferredTerm": "Picogram Per Milliliter Per Milligram Per Kilogram Per Day", "submissionValue": "pg/mL/(mg/kg/day)"}, {"conceptId": "C85781", "definition": "Picograms per milliliter (concentration), divided by micrograms (dose).", "preferredTerm": "Picogram per Milliliter per Microgram", "submissionValue": "pg/mL/ug", "synonyms": ["pg/mL/mcg", "pg/mcg/mL", "pg/ug/mL"]}, {"conceptId": "C67396", "definition": "A unit of a mass fraction expressed as a number of micrograms of substance per kilogram of mixture. The unit is also used as a dose calculation unit.(NCI)", "preferredTerm": "Microgram per Kilogram", "submissionValue": "pg/mg", "synonyms": ["Microgram per Kilogram", "mcg/kg", "ng/g", "ug/kg"]}, {"conceptId": "C85780", "definition": "Picograms per milligram creatinine.", "preferredTerm": "Picogram per Milligram of Creatinine", "submissionValue": "pg/mg Creatinine", "synonyms": ["ng/g of Creatinine", "pg/mg of Creatinine"]}, {"conceptId": "C85782", "definition": "Picograms per minute.", "preferredTerm": "Picogram per Minute", "submissionValue": "pg/min"}, {"conceptId": "C67434", "definition": "A unit of concentration (molarity unit) equal to one trillionth of a mole (10E-12 mole) in one liter of solution.(NCI)", "preferredTerm": "Picomole per Liter", "submissionValue": "pmol/L", "synonyms": ["Femtomole per Milliliter", "Picomole per Liter", "fmol/mL"]}, {"conceptId": "C85784", "definition": "Picomoles per liter (concentration), divided by micrograms (dose).", "preferredTerm": "Picomole per Liter per Microgram", "submissionValue": "pmol/L/ug", "synonyms": ["pmol/L/mcg", "pmol/mcg/L", "pmol/ug/L"]}, {"conceptId": "C67405", "definition": "Microinternational units per milliliter.", "preferredTerm": "Microinternational Unit per Milliliter", "submissionValue": "uIU/mL", "synonyms": ["Micro-International Unit per milliliter", "mIU/L", "mcIU/mL", "uIU/mL"]}, {"conceptId": "C48153", "definition": "A unit of volume accepted for use with the SI and equal to one millionth of a liter (10E-6 liter).(NCI)", "preferredTerm": "Microliter", "submissionValue": "uL", "synonyms": ["Microliter", "mcL", "mm3"]}, {"conceptId": "C48152", "definition": "The unit of mass equal to one millionth of a gram or one thousandth of a milligram.(NCI)", "preferredTerm": "Microgram", "submissionValue": "ug", "synonyms": ["Microgram", "mcg"]}, {"conceptId": "C71205", "definition": "A unit of mass flow rate equivalent to the rate at which one millionth of a gram of matter travels to a given object or space over a period of time equal to twenty four hours. Microgram per day is also a dose administration rate unit equal to the rate at which one millionth of a gram of a product is administered per unit of time equal to twenty four hours.(NCI)", "preferredTerm": "Microgram per Day", "submissionValue": "ug/day", "synonyms": ["Microgram per Day", "mcg/day"]}, {"conceptId": "C67394", "definition": "A unit of mass flow rate equivalent to the rate at which one millionth of a gram of matter travels to a given object or space over a period of time equal to one hour.(NCI)", "preferredTerm": "Microgram per Hour", "submissionValue": "ug/h", "synonyms": ["Micrograms per Hour", "mcg/h"]}, {"conceptId": "C85703", "definition": "Micrograms per inhalation.", "preferredTerm": "Microgram per Inhalation", "submissionValue": "ug/inh", "synonyms": ["mcg/inh"]}, {"conceptId": "C64572", "definition": "A unit of mass concentration equal to the concentration of one gram of a substance per unit volume of the mixture equal to one cubic meter. The concept also refers to the metric unit of mass density (volumic mass) defined as the density of substance which mass equal to one gram occupies the volume one cubic meter.(NCI)", "preferredTerm": "Microgram per Milliliter", "submissionValue": "ug/mL", "synonyms": ["Gram per Cubic Meter", "Microgram per Milliliter", "Milligram per Liter", "g/m3", "mcg/mL", "mg/L", "ng/uL", "ug/mL"]}, {"conceptId": "C105473", "definition": "Micrograms per milliliter (concentration), divided by milligrams per kilogram (dose normalized by body weight).", "preferredTerm": "Microgram Per Milliliter Per Milligram Per Kilogram", "submissionValue": "ug/mL/(mg/kg)"}, {"conceptId": "C105474", "definition": "Micrograms per milliliter (concentration), divided by milligrams per kilogram per day (daily dose normalized by body weight).", "preferredTerm": "Microgram Per Milliliter Per Milligram Per Kilogram Per Day", "submissionValue": "ug/mL/(mg/kg/day)"}, {"conceptId": "C85710", "definition": "Micrograms per milliliter (concentration), divided by milligrams (dose).", "preferredTerm": "Milligram per Liter per Milligram", "submissionValue": "ug/mL/mg"}, {"conceptId": "C71211", "definition": "A unit of mass flow rate equivalent to the rate at which one millionth of a gram of matter travels to a given object or space over a period of time equal to one minute. Microgram per minute is also a dose administration rate unit equal to the rate at which one millionth of a gram of a product is administered per unit of time equal to one minute.(NCI)", "preferredTerm": "Microgram per Minute", "submissionValue": "ug/min", "synonyms": ["Micrograms per Minute", "mcg/min"]}, {"conceptId": "C85704", "definition": "Micrograms per puff.", "preferredTerm": "Microgram per Puff", "submissionValue": "ug/puff", "synonyms": ["mcg/puff"]}, {"conceptId": "C48509", "definition": "A unit of amount of substance equal to one millionth (10E-6) of a mole.(NCI)", "preferredTerm": "Micromole", "submissionValue": "umol", "synonyms": ["Micromole", "mcmol"]}, {"conceptId": "C85756", "definition": "A unit of concentration (molarity unit) equal to one micromole of solute per one liter of solution.", "preferredTerm": "Nanomole per Milliliter", "submissionValue": "umol/L"}, {"conceptId": "C67406", "definition": "A unit of amount of substance flow rate equivalent to the rate at which one millionth of a mole of substance travels to a given object or space over a period of time equal to 24 hours.(NCI)", "preferredTerm": "Micromole per 24 Hours", "submissionValue": "umol/day", "synonyms": ["Micromoles per Day", "mcmol/day"]}, {"conceptId": "C85707", "definition": "Micromoles per hour.", "preferredTerm": "Micromole per Hour", "submissionValue": "umol/h", "synonyms": ["mcmol/h", "umol/h"]}, {"conceptId": "C85708", "definition": "Micromoles per minute.", "preferredTerm": "Micromole per Minute", "submissionValue": "umol/min", "synonyms": ["mcmol/min", "umol/min"]}]}