{"_links": {"parentPackage": {"href": "/mdr/ct/packages/sendct-2014-09-26", "title": "SEND Controlled Terminology Package 19 Effective 2014-09-26", "type": "Terminology"}, "rootItem": {"href": "/mdr/root/ct/sendct/codelists/C88025", "title": "Version-agnostic anchor resource for codelist C88025", "type": "Root Value Domain"}, "self": {"href": "/mdr/ct/packages/sendct-2014-09-26/codelists/C88025", "title": "CDISC SEND Tumor Findings Results Terminology", "type": "Code List"}}, "conceptId": "C88025", "definition": "The terminology that includes concepts relevant to benign or malignant tissue growth.", "extensible": "true", "name": "Neoplasm Type", "preferredTerm": "CDISC SEND Tumor Findings Results Terminology", "submissionValue": "NEOPLASM", "synonyms": ["Neoplasm Type"], "terms": [{"conceptId": "C116215", "definition": "A benign tumor of the pancreas with morphologic characteristics of endocrine, acinar and ductal cells. (INHAND)", "preferredTerm": "Experimental Organism Benign Acinar-islet Cell Tumor", "submissionValue": "ACINAR-ISLET CELL TUMOR, BENIGN"}, {"conceptId": "C6878", "definition": "A malignant pancreatic neoplasm characterized by the presence of a mixture of acinar and islet cell elements.", "preferredTerm": "Mixed Acinar-Neuroendocrine Carcinoma of the Pancreas", "submissionValue": "ACINAR-ISLET CELL TUMOR, MALIGNANT"}, {"conceptId": "C7644", "definition": "A low-grade malignant neoplasm composed of epithelial cells and a spindle cell osteo-fibrous proliferation.", "preferredTerm": "Adamantinoma", "submissionValue": "ADAMANTINOMA, MALIGNANT", "synonyms": ["ADAMANTINOMA"]}, {"conceptId": "C4200", "definition": "A malignant neoplasm arising from glandular cells that includes focal or extensive areas of squamous metaplasia.", "preferredTerm": "Adenocarcinoma with Squamous Metaplasia", "submissionValue": "ADENOACANTHOMA, MALIGNANT", "synonyms": ["ADENOACANTHOMA"]}, {"conceptId": "C3766", "definition": "A malignant neoplasm comprising glandular epithelial clear cells.", "preferredTerm": "Clear Cell Adenocarcinoma", "submissionValue": "ADENOCARCINOMA, CLEAR CELL, MALIGNANT", "synonyms": ["CLEAR CELL CARCINOMA", "MESONEPHROID CLEAR CELL ADENOCARCINOMA", "MESONEPHROID CLEAR CELL CARCINOMA"]}, {"conceptId": "C7359", "definition": "A malignant glandular neoplasm of the uterine lining.", "preferredTerm": "Endometrial Adenocarcinoma", "submissionValue": "ADENOCARCINOMA, ENDOMETRIAL, MALIGNANT", "synonyms": ["ADENOCARCINOMA OF ENDOMETRIUM", "ADENOCARCINOMA OF THE ENDOMETRIUM"]}, {"conceptId": "C2852", "definition": "A malignant neoplasm arising from glandular cells.", "preferredTerm": "Adenocarcinoma", "submissionValue": "ADENOCARCINOMA, MALIGNANT"}, {"conceptId": "C26712", "definition": "An adenocarcinoma comprising neoplastic glandular cells containing intracytoplasmic mucin.", "preferredTerm": "Mucinous Adenocarcinoma", "submissionValue": "ADENOCARCINOMA, MUCINOUS, MALIGNANT", "synonyms": ["COLLOID ADENOCARCINOMA", "COLLOID CARCINOMA", "GELATINOUS ADENOCARCINOMA", "GELATINOUS CARCINOMA", "MUCINOUS CARCINOMA", "MUCOID ADENOCARCINOMA", "MUCOID CARCINOMA", "MUCOUS ADENOCARCINOMA", "MUCOUS CARCINOMA"]}, {"conceptId": "C2853", "definition": "An adenocarcinoma with papillary growth pattern.", "preferredTerm": "Papillary Adenocarcinoma", "submissionValue": "ADENOCARCINOMA, PAPILLARY, MALIGNANT"}, {"conceptId": "C40310", "definition": "An adenocarcinoma with sebaceous differentiation.", "preferredTerm": "Sebaceous Carcinoma", "submissionValue": "ADENOCARCINOMA, SEBACEOUS, MALIGNANT", "synonyms": ["CARCINOMA OF SEBACEOUS GLAND", "CARCINOMA OF THE SEBACEOUS GLAND", "SEBACEOUS GLAND CARCINOMA"]}, {"conceptId": "C8984", "definition": "Benign mixed neoplasm comprised of epithelial/glandular and mesenchymal structures.", "preferredTerm": "Adenofibroma", "submissionValue": "ADENOFIBROMA, BENIGN", "synonyms": ["BENIGN MIXED MUELLERIAN TUMOR"]}, {"conceptId": "C4159", "definition": "Benign mixed neoplasm comprised of epithelial/glandular and lipomatous structures.", "preferredTerm": "Lipoadenoma", "submissionValue": "ADENOLIPOMA, BENIGN"}, {"conceptId": "C4196", "definition": "A benign glandular epithelial neoplasm comprising secretory cells forming acinar patterns.", "preferredTerm": "Acinar Cell Adenoma", "submissionValue": "ADENOMA, ACINAR CELL, BENIGN", "synonyms": ["ACINAR ADENOMA", "ACINIC CELL ADENOMA"]}, {"conceptId": "C7580", "definition": "A benign epithelial neoplasm arising from the sebaceous or sweat glands.", "preferredTerm": "Skin Appendage Adenoma", "submissionValue": "ADENOMA, ADNEXAL, BENIGN", "synonyms": ["ADENOMA OF ADNEXA", "ADENOMA OF SKIN APPENDAGE", "ADNEXAL ADENOMA"]}, {"conceptId": "C9003", "definition": "A benign neoplasm arising from any of the adrenal cortical layers.", "preferredTerm": "Adrenal Cortex Adenoma", "submissionValue": "ADENOMA, ADRENOCORTICAL, BENIGN", "synonyms": ["ADENOMA OF ADRENAL CORTEX", "ADENOMA OF ADRENAL GLAND", "ADENOMA OF THE ADRENAL CORTEX", "ADENOMA OF THE ADRENAL GLAND", "ADRENAL ADENOMA", "ADRENAL CORTICAL ADENOMA", "ADRENAL GLAND ADENOMA", "ADRENOCORTICAL ADENOMA", "BENIGN ADENOMA OF ADRENAL GLAND", "BENIGN ADENOMA OF THE ADRENAL GLAND", "BENIGN ADRENAL ADENOMA", "BENIGN ADRENAL GLAND ADENOMA", "CORTICAL CELL ADENOMA"]}, {"conceptId": "C3329", "definition": "A benign neoplasm of the anterior lobe of the pituitary gland.", "preferredTerm": "Pituitary Gland Adenoma", "submissionValue": "ADENOMA, ANTERIOR LOBE PITUITARY GLAND, BENIGN", "synonyms": ["ADENOMA OF PITUITARY", "ADENOMA OF PITUITARY GLAND", "ADENOMA OF THE PITUITARY", "ADENOMA OF THE PITUITARY GLAND", "PITUITARY ADENOMA"]}, {"conceptId": "C111198", "definition": "A benign epithelial neoplasm with a uniform, monomorphic appearance that is dominated by basal cells.", "preferredTerm": "Experimental Organism Basal Cell Adenoma", "submissionValue": "ADENOMA, BASAL CELL, BENIGN", "synonyms": ["BASAL CELL ADENOMA", "BENIGN BASAL CELL TUMOR"]}, {"conceptId": "C2855", "definition": "A benign neoplasm arising from epithelium.", "preferredTerm": "Adenoma", "submissionValue": "ADENOMA, BENIGN"}, {"conceptId": "C3494", "definition": "A benign neoplasia of the lung, arising from bronchial epithelium.", "preferredTerm": "Lung Papillary Adenoma", "submissionValue": "ADENOMA, BRONCHIAL, BENIGN"}, {"conceptId": "C4140", "definition": "A benign lung neoplasm arising from the alveolar/bronchiolar epithelium.", "preferredTerm": "Alveolar Adenoma", "submissionValue": "ADENOMA, BRONCHIOLOALVEOLAR, BENIGN", "synonyms": ["ADENOMA OF ALVEOLI", "ADENOMA OF THE ALVEOLI"]}, {"conceptId": "C46101", "definition": "A benign neoplasm arising from C-cells of the thyroid gland.", "preferredTerm": "Neoplastic C-Cell Hyperplasia", "submissionValue": "ADENOMA, C-CELL, BENIGN", "synonyms": ["PARAFOLLICULAR CELL ADENOMA"]}, {"conceptId": "C6088", "definition": "A benign epithelial neoplasm derived from ceruminous glands in the external auditory canal.", "preferredTerm": "External Auditory Canal Ceruminous Adenoma", "submissionValue": "ADENOMA, CERUMINOUS GLAND, BENIGN", "synonyms": ["CERUMINOMA", "CERUMINOUS ADENOMA", "CERUMINOUS ADENOMA OF EXTERNAL AUDITORY CANAL", "CERUMINOUS ADENOMA OF THE EXTERNAL AUDITORY CANAL"]}, {"conceptId": "C4151", "definition": "A benign neoplasm comprising glands containing epithelial clear cells.", "preferredTerm": "Clear Cell Adenoma", "submissionValue": "ADENOMA, CLEAR CELL, BENIGN"}, {"conceptId": "C3502", "definition": "A benign neoplasm arising from follicular cells of the thyroid gland.", "preferredTerm": "Thyroid Gland Follicular Adenoma", "submissionValue": "ADENOMA, FOLLICULAR CELL, BENIGN", "synonyms": ["ADENOMA OF THE THYROID", "ADENOMA OF THE THYROID GLAND", "ADENOMA OF THYROID", "ADENOMA OF THYROID GLAND", "FOLLICULAR ADENOMA", "FOLLICULAR ADENOMA OF THE THYROID", "FOLLICULAR ADENOMA OF THE THYROID GLAND", "FOLLICULAR ADENOMA OF THYROID", "FOLLICULAR ADENOMA OF THYROID GLAND", "THYROID ADENOMA", "THYROID FOLLICULAR ADENOMA", "THYROID GLAND ADENOMA"]}, {"conceptId": "C3758", "definition": "A benign epithelial neoplasm arising from hepatocytes.", "preferredTerm": "Hepatocellular Adenoma", "submissionValue": "ADENOMA, HEPATOCELLULAR, BENIGN", "synonyms": ["ADENOMA OF LIVER CELLS", "ADENOMA OF THE LIVER CELLS", "HCA", "LIVER CELL ADENOMA"]}, {"conceptId": "C7126", "definition": "A benign neoplasm arising from the intrahepatic bile duct.", "preferredTerm": "Intrahepatic Bile Duct Adenoma", "submissionValue": "ADENOMA, HEPATOCHOLANGIOCELLULAR, BENIGN"}, {"conceptId": "C114108", "definition": "A benign neoplasm arising from the islet cells of the pancreas.", "preferredTerm": "Experimental Organism Islet Cell Adenoma Neoplasm", "submissionValue": "ADENOMA, ISLET CELL, BENIGN", "synonyms": ["ISLET CELL ADENOMA"]}, {"conceptId": "C46119", "definition": "A benign epithelial neoplasm of the thyroid gland comprising follicular cells with cytoplasmic clearing.", "preferredTerm": "Thyroid Gland Clear Cell Follicular Adenoma", "submissionValue": "ADENOMA, LIGHT CELL, BENIGN"}, {"conceptId": "C2973", "definition": "A benign, cystic epithelial neoplasm comprising cells containing intracytoplasmic mucin.", "preferredTerm": "Mucinous Cystadenoma", "submissionValue": "ADENOMA, MUCINOUS, BENIGN", "synonyms": ["MUCINOUS ADENOMA", "MUCINOUS CYSTOMA", "PSEUDOMUCINOUS CYSTADENOMA"]}, {"conceptId": "C79951", "definition": "A benign epithelial neoplasm characterized by the presence of papillary epithelial patterns.", "preferredTerm": "Papillary Adenoma", "submissionValue": "ADENOMA, PAPILLARY, BENIGN"}, {"conceptId": "C60490", "definition": "A benign epithelial neoplasm arising from the pars distalis of the anterior pituitary gland.", "preferredTerm": "Rat Pars Distalis Adenoma", "submissionValue": "ADENOMA, PARS DISTALIS, BENIGN", "synonyms": ["Rat Pars Distalis Adenoma"]}, {"conceptId": "C60493", "definition": "A benign epithelial neoplasm arising from the pars intermedia of the anterior pituitary gland.", "preferredTerm": "Rat Pars Intermedia Adenoma", "submissionValue": "ADENOMA, PARS INTERMEDIA, BENIGN", "synonyms": ["Rat Pars Intermedia Adenoma"]}, {"conceptId": "C98723", "definition": "A benign neoplasm of the pituitary gland.", "preferredTerm": "Experimental Organism Pituitary Gland Adenoma", "submissionValue": "ADENOMA, PITUITARY GLAND, BENIGN"}, {"conceptId": "C8383", "definition": "A benign neoplasm arising from the renal cortex.", "preferredTerm": "Renal Adenoma", "submissionValue": "ADENOMA, RENAL CELL, BENIGN", "synonyms": ["RENAL TUBULE ADENOMA"]}, {"conceptId": "C39956", "definition": "A benign epithelial neoplasm arising from the rete testis.", "preferredTerm": "Rete Testis Adenoma", "submissionValue": "ADENOMA, RETE TESTIS, BENIGN"}, {"conceptId": "C4174", "definition": "A benign neoplasm arising from sebaceous glands.", "preferredTerm": "Sebaceous Adenoma", "submissionValue": "ADENOMA, SEBACEOUS, BENIGN", "synonyms": ["ADENOMA OF SEBACEOUS GLAND", "ADENOMA OF THE SEBACEOUS GLAND", "SEBACEOUS GLAND ADENOMA", "SKIN APPENDAGE SEBACEOUS ADENOMA"]}, {"conceptId": "C92180", "definition": "A benign tubular adenoma with Sertoli cell differentiation.", "preferredTerm": "Rat Sertoliform Tubular Adenoma", "submissionValue": "ADENOMA, SERTOLIFORM TUBULAR, BENIGN", "synonyms": ["Rat Sertoliform Tubular Adenoma"]}, {"conceptId": "C7560", "definition": "A benign epithelias neoplasm arising from sweat glands.", "preferredTerm": "Sweat Gland Adenoma", "submissionValue": "ADENOMA, SWEAT GLAND, BENIGN", "synonyms": ["ADENOMA OF SWEAT GLAND", "ADENOMA OF THE SWEAT GLAND"]}, {"conceptId": "C4133", "definition": "A benign neoplasm arising from glandular epithelium, characterized by a tubular architectural pattern.", "preferredTerm": "Tubular Adenoma", "submissionValue": "ADENOMA, TUBULAR CELL, BENIGN"}, {"conceptId": "C79953", "definition": "A benign ovarian epithelial neoplasm characterized by the presence of tubular structures and interstitial stroma.", "preferredTerm": "Tubulostromal Adenoma", "submissionValue": "ADENOMA, TUBULOSTROMAL, BENIGN"}, {"conceptId": "C98800", "definition": "A benign neoplasm of the rodent Zymbal's gland with sebaceous and/or squamous differentiation.", "preferredTerm": "Zymbal's Gland Adenoma", "submissionValue": "ADENOMA, ZYMBAL'S GLAND, BENIGN"}, {"conceptId": "C3726", "definition": "A benign neoplasm characterized by the presence of a glandular and a mesenchymal component.", "preferredTerm": "Adenomyoma", "submissionValue": "ADENOMYOMA, BENIGN"}, {"conceptId": "C83488", "definition": "A benign neoplasm located beneath the adrenal capsule.", "preferredTerm": "Benign Subcapsular Adrenal Tumor", "submissionValue": "ADRENAL TUMOR, SUBCAPSULAR, BENIGN", "synonyms": ["SUBCAPSULAR SINGLE CELL ADENOMA, ADRENAL"]}, {"conceptId": "C83489", "definition": "A malignant neoplasm located beneath the adrenal capsule.", "preferredTerm": "Malignant Subcapsular Adrenal Tumor", "submissionValue": "ADRENAL TUMOR, SUBCAPSULAR, MALIGNANT", "synonyms": ["SUBCAPSULAR SINGLE CELL CARCINOMA, ADRENAL"]}, {"conceptId": "C82973", "definition": "A neoplasm located beneath the adrenal capsule in which the malignancy status has not been established.", "preferredTerm": "Subcapsular Adrenal Tumor", "submissionValue": "ADRENAL TUMOR, SUBCAPSULAR, UNDETERMINED", "synonyms": ["SUBCAPSULAR CELL TUMOR, ADRENAL"]}, {"conceptId": "C2858", "definition": "A neoplasm of the adrenal cortex in which the malignancy status has not been established.", "preferredTerm": "Adrenal Cortex Neoplasm", "submissionValue": "ADRENOCORTICAL NEOPLASM, UNDETERMINED", "synonyms": ["ADRENAL CORTEX TUMOR", "ADRENOCORTICAL NEOPLASM", "ADRENOCORTICAL TUMOR"]}, {"conceptId": "C7111", "definition": "A benign odontogenic neoplasm arising from the epithelial component of the embryonic tooth.", "preferredTerm": "Benign Ameloblastoma", "submissionValue": "AMELOBLASTOMA, BENIGN"}, {"conceptId": "C54297", "definition": "A malignant odontogenic neoplasm arising from the epithelial component of the embryonic tooth.", "preferredTerm": "Metastasizing Ameloblastoma", "submissionValue": "AMELOBLASTOMA, MALIGNANT", "synonyms": ["MALIGNANT AMELOBLASTOMA"]}, {"conceptId": "C4313", "definition": "A odontogenic neoplasm arising from the epithelial component of the embryonic tooth of undetermined malignancy status.", "preferredTerm": "Ameloblastoma", "submissionValue": "AMELOBLASTOMA, UNDETERMINED"}, {"conceptId": "C3799", "definition": "A benign, morphologic variant of fibroma characterized by the presence of numerous dilated vascular channels.", "preferredTerm": "Angiofibroma", "submissionValue": "ANGIOFIBROMA, BENIGN", "synonyms": ["ANGIOFIBROMATOUS HYPERPLASIA", "FIBROANGIOMA, BENIGN", "FIBROUS PAPULE", "TELANGIECTATIC FIBROMA"]}, {"conceptId": "C3733", "definition": "A lipoma characterized by prominent vascularization.", "preferredTerm": "Angiolipoma", "submissionValue": "ANGIOLIPOMA, BENIGN", "synonyms": ["ANGIOLIPOMA"]}, {"conceptId": "C4209", "definition": "A benign Sertoli-Leydig neoplasm of the ovary characterized by the presence of Sertoli cells in tubules without evidence of significant nuclear atypia or mitotic activity.", "preferredTerm": "Well Differentiated Ovarian Sertoli-Leydig Cell Tumor", "submissionValue": "ARRHENOBLASTOMA, BENIGN", "synonyms": ["ARRHENOBLASTOMA, BENIGN"]}, {"conceptId": "C4210", "definition": "A malignant Sertoli-Leydig neoplasm of the ovary characterized by the presence of a sarcomatoid stroma which contains primitive gonadal stromal cells.", "preferredTerm": "Poorly Differentiated Ovarian Sertoli-Leydig Cell Tumor", "submissionValue": "ARRHENOBLASTOMA, MALIGNANT", "synonyms": ["ARRHENOBLASTOMA, MALIGNANT"]}, {"conceptId": "C9477", "definition": "A malignant neoplasm of the brain or spinal cord originating from astrocytes, exhibiting poor differentiation (anaplasia).", "preferredTerm": "Anaplastic Astrocytoma", "submissionValue": "ASTROCYTOMA, ANAPLASTIC, MALIGNANT", "synonyms": ["GRADE III ASTROCYTIC NEOPLASM", "GRADE III ASTROCYTIC TUMOR", "GRADE III ASTROCYTOMA", "MALIGNANT ASTROCYTOMA"]}, {"conceptId": "C7173", "definition": "A malignant astrocytic neoplasm characterized by a high degree of cellular differentiation, slow growth, and diffuse infiltration of neighboring brain structures.", "preferredTerm": "Diffuse Astrocytoma", "submissionValue": "ASTROCYTOMA, DIFFUSE, MALIGNANT", "synonyms": ["ASTROCYTOMA, DIFFUSE"]}, {"conceptId": "C4047", "definition": "A benign neoplasm of the brain or spinal cord arising from astrocytes associated with single or multiple cysts.", "preferredTerm": "Pilocytic Astrocytoma", "submissionValue": "ASTROCYTOMA, PILOCYTIC, BENIGN", "synonyms": ["ASTROCYTOMA, BENIGN", "GRADE I ASTROCYTIC NEOPLASM", "GRADE I ASTROCYTIC TUMOR", "GRADE I ASTROCYTOMA"]}, {"conceptId": "C60781", "definition": "A neoplasm of the brain or spinal cord exhibiting astrocytic differentiation, but in which the malignancy status has not been established.", "preferredTerm": "Astrocytoma", "submissionValue": "ASTROCYTOMA, UNDETERMINED"}, {"conceptId": "C103391", "definition": "A benign epithelial neoplasm arising from primary epithelial germ cells of the piliary complex.", "preferredTerm": "Experimental Organism Benign Basalioma", "submissionValue": "BASALIOMA, BENIGN", "synonyms": ["BASALIOMA"]}, {"conceptId": "C4614", "definition": "A benign papillary neoplasm of the skin.", "preferredTerm": "Skin Papilloma", "submissionValue": "BASOSQUAMOUS TUMOR, BENIGN", "synonyms": ["CUTANEOUS PAPILLOMA", "PAPILLOMA OF SKIN", "PAPILLOMA OF THE SKIN"]}, {"conceptId": "C2922", "definition": "A basal cell carcinoma (skin neoplasm) which displays squamous differentiation.", "preferredTerm": "Skin Basosquamous Cell Carcinoma", "submissionValue": "BASOSQUAMOUS TUMOR, MALIGNANT", "synonyms": ["BASOSQUAMOUS CARCINOMA", "BASOSQUAMOUS CELL CARCINOMA", "SKIN MIXED BASAL AND SQUAMOUS CELL CARCINOMA"]}, {"conceptId": "C72074", "definition": "A malignant neuroendocrine neoplasm arising from enterochromaffin cells in the gastrointestinal tract and (less common) in the bronchi.", "preferredTerm": "Atypical Carcinoid Tumor", "submissionValue": "CARCINOID TUMOR, MALIGNANT", "synonyms": ["MALIGNANT CARCINOID TUMOR"]}, {"conceptId": "C2915", "definition": "A neuroendocrine neoplasm arising from enterochromaffin cells in the gastrointestinal tract and (less common) the bronchi with undetermined malignancy status.", "preferredTerm": "Carcinoid Tumor", "submissionValue": "CARCINOID TUMOR, UNDETERMINED", "synonyms": ["CARCINOID", "CARCINOID NEOPLASM", "WELL-DIFFERENTIATED ENDOCRINE NEOPLASM"]}, {"conceptId": "C114109", "definition": "A malignant epithelial neoplasm of the anterior pituitary gland in which the neoplastic cells stain positive with acidic dyes.", "preferredTerm": "Experimental Organism Acidophil Carcinoma Neoplasm", "submissionValue": "CARCINOMA, ACIDOPHIL, MALIGNANT", "synonyms": ["ACIDOPHIL ADENOCARCINOMA", "ACIDOPHIL CARCINOMA", "EOSINOPHIL ADENOCARCINOMA", "EOSINOPHIL CARCINOMA"]}, {"conceptId": "C3768", "definition": "A malignant glandular epithelial neoplasm comprising secretory cells forming acinar patterns.", "preferredTerm": "Acinar Cell Carcinoma", "submissionValue": "CARCINOMA, ACINAR CELL, MALIGNANT", "synonyms": ["ACINAR ADENOCARCINOMA", "ACINAR CARCINOMA", "ACINAR CELL ADENOCARCINOMA", "ACINIC CELL ADENOCARCINOMA", "ACINIC CELL CARCINOMA"]}, {"conceptId": "C3727", "definition": "An epithelial neoplasm composed of malignant glandular and malignant squamous cells.", "preferredTerm": "Adenosquamous Carcinoma", "submissionValue": "CARCINOMA, ADENOSQUAMOUS, MALIGNANT", "synonyms": ["MIXED ADENOCARCINOMA AND EPIDERMOID CARCINOMA", "MIXED ADENOCARCINOMA AND EPIDERMOID CELL CARCINOMA", "MIXED ADENOCARCINOMA AND SQUAMOUS CARCINOMA", "MIXED ADENOCARCINOMA AND SQUAMOUS CELL CARCINOMA"]}, {"conceptId": "C3775", "definition": "A malignant epithelial neoplasm arising from sebaceous or sweat glands or from hair follicles.", "preferredTerm": "Adnexal Carcinoma", "submissionValue": "CARCINOMA, ADNEXAL, MALIGNANT", "synonyms": ["CARCINOMA OF ADNEXA", "CARCINOMA OF SKIN APPENDAGE", "SKIN APPENDAGE CARCINOMA"]}, {"conceptId": "C9325", "definition": "A malignant epithelial neoplasm arising from adrenal cortical cells.", "preferredTerm": "Adrenal Cortex Carcinoma", "submissionValue": "CARCINOMA, ADRENOCORTICAL, MALIGNANT", "synonyms": ["ADENOCARCINOMA, ADRENOCORTICAL, MALIGNANT", "ADRENAL CORTEX ADENOCARCINOMA", "ADRENAL CORTEX CANCER", "ADRENAL CORTICAL ADENOCARCINOMA", "ADRENAL CORTICAL CARCINOMA", "ADRENOCORTICAL CARCINOMA", "CORTICAL CELL CARCINOMA"]}, {"conceptId": "C111199", "definition": "A malignant epithelial neoplasm arising from basal cells.", "preferredTerm": "Experimental Organism Basal Cell Carcinoma", "submissionValue": "CARCINOMA, BASAL CELL, MALIGNANT", "synonyms": ["BASAL CELL CANCER", "BASAL CELL CARCINOMA", "BASAL CELL EPITHELIOMA", "BASAL CELL SKIN CARCINOMA", "BCC"]}, {"conceptId": "C35875", "definition": "A malignant neoplasia of the lung, arising from bronchial epithelium.", "preferredTerm": "Bronchogenic Carcinoma", "submissionValue": "CARCINOMA, BRONCHIAL, MALIGNANT"}, {"conceptId": "C2923", "definition": "A malignant lung neoplasm originating from the alveolar/bronchiolar epithelium.", "preferredTerm": "Bronchioloalveolar Carcinoma", "submissionValue": "CARCINOMA, BRONCHIOLOALVEOLAR, MALIGNANT", "synonyms": ["BAC", "BRONCHIOALVEOLAR ADENOCARCINOMA OF LUNG", "BRONCHIOALVEOLAR ADENOCARCINOMA OF THE LUNG", "BRONCHIOALVEOLAR LUNG CARCINOMA", "BRONCHIOLO-ALVEOLAR CARCINOMA OF LUNG", "BRONCHIOLO-ALVEOLAR CARCINOMA OF THE LUNG", "BRONCHIOLO-ALVEOLAR LUNG CARCINOMA", "BRONCHIOLOALVEOLAR ADENOCARCINOMA OF LUNG", "BRONCHIOLOALVEOLAR ADENOCARCINOMA OF THE LUNG", "BRONCHIOLOALVEOLAR LUNG ADENOCARCINOMA"]}, {"conceptId": "C3879", "definition": "A neuroendocrine malignant epithelial neoplasm arising from C-cells of the thyroid gland.", "preferredTerm": "Thyroid Gland Medullary Carcinoma", "submissionValue": "CARCINOMA, C-CELL, MALIGNANT", "synonyms": ["C CELL CARCINOMA", "MEDULLARY CARCINOMA", "MEDULLARY CARCINOMA OF THE THYROID", "MEDULLARY CARCINOMA OF THE THYROID GLAND", "MEDULLARY CARCINOMA OF THYROID", "MEDULLARY CARCINOMA OF THYROID GLAND", "MEDULLARY THYROID CANCER", "MEDULLARY THYROID CARCINOMA", "MEDULLARY THYROID GLAND CARCINOMA", "MTC", "PARAFOLLICULAR CELL CARCINOMA", "THYROID GLAND NEUROENDOCRINE CARCINOMA", "THYROID MEDULLARY CARCINOMA"]}, {"conceptId": "C4176", "definition": "A malignant neoplasm derived from ceruminous glands in the external auditory canal.", "preferredTerm": "Ceruminous Adenocarcinoma", "submissionValue": "CARCINOMA, CERUMINOUS GLAND, MALIGNANT"}, {"conceptId": "C4715", "definition": "A malignant neoplasm arising from the choroid plexus of the brain.", "preferredTerm": "Choroid Plexus Carcinoma", "submissionValue": "CARCINOMA, CHOROID PLEXUS, MALIGNANT", "synonyms": ["ANAPLASTIC CHOROID PLEXUS PAPILLOMA", "CANCER OF CHOROID PLEXUS", "CANCER OF THE CHOROID PLEXUS", "CARCINOMA OF CHOROID PLEXUS", "CARCINOMA OF THE CHOROID PLEXUS", "CHOROID PLEXUS CANCER"]}, {"conceptId": "C3752", "definition": "A non-seminomatous malignant germ cell neoplasm of the testis or ovary.", "preferredTerm": "Embryonal Carcinoma", "submissionValue": "CARCINOMA, EMBRYONAL, MALIGNANT", "synonyms": ["CARCINOMA, EMBRYONAL, MALIGNANT"]}, {"conceptId": "C7558", "definition": "A malignant epithelial neoplasm arising from the lining of the uterine body cavity.", "preferredTerm": "Endometrial Carcinoma", "submissionValue": "CARCINOMA, ENDOMETRIAL, MALIGNANT", "synonyms": ["CARCINOMA OF ENDOMETRIUM", "CARCINOMA OF THE ENDOMETRIUM"]}, {"conceptId": "C8054", "definition": "A malignant neoplasia arising from follicular cells of the thyroid gland.", "preferredTerm": "Thyroid Gland Follicular Carcinoma", "submissionValue": "CARCINOMA, FOLLICULAR CELL, MALIGNANT", "synonyms": ["FOLLICULAR ADENOCARCINOMA", "FOLLICULAR CANCER OF THE THYROID", "FOLLICULAR CANCER OF THE THYROID GLAND", "FOLLICULAR CANCER OF THYROID", "FOLLICULAR CANCER OF THYROID GLAND", "FOLLICULAR CARCINOMA", "FOLLICULAR CARCINOMA OF THE THYROID", "FOLLICULAR CARCINOMA OF THE THYROID GLAND", "FOLLICULAR CARCINOMA OF THYROID", "FOLLICULAR CARCINOMA OF THYROID GLAND", "FOLLICULAR THYROID CANCER", "FOLLICULAR THYROID CARCINOMA", "FOLLICULAR THYROID GLAND CARCINOMA", "THYROID FOLLICULAR CARCINOMA", "WELL-DIFFERENTIATED FOLLICULAR ADENOCARCINOMA", "WELL-DIFFERENTIATED FOLLICULAR CARCINOMA"]}, {"conceptId": "C3099", "definition": "A malignant neoplasm arising from hepatocytes.", "preferredTerm": "Hepatocellular Carcinoma", "submissionValue": "CARCINOMA, HEPATOCELLULAR, MALIGNANT", "synonyms": ["CARCINOMA OF LIVER CELLS", "CARCINOMA OF THE LIVER CELLS", "HCC", "HEPATOMA", "LIVER CELL CARCINOMA", "PRIMARY CARCINOMA OF LIVER CELLS", "PRIMARY CARCINOMA OF THE LIVER CELLS"]}, {"conceptId": "C103393", "definition": "A malignant mixed neoplasm of the liver comprising neoplastic hepatocytes and bile duct epithelial cells; both elements displaying evidence of malignancy.", "preferredTerm": "Experimental Organism Malignant Hepatocholangiocellular Carcinoma", "submissionValue": "CARCINOMA, HEPATOCHOLANGIOCELLULAR, MALIGNANT", "synonyms": ["HEPATOCHOLANGIOCELLULAR CARCINOMA"]}, {"conceptId": "C2917", "definition": "A malignant epithelial neoplasm confined to the epithelial layer and without evidence of further tissue invasion.", "preferredTerm": "Carcinoma In Situ", "submissionValue": "CARCINOMA, IN SITU, MALIGNANT", "synonyms": ["CIS", "EPITHELIAL TUMOR, IN SITU, MALIGNANT", "INTRAEPITHELIAL CARCINOMA", "NON-INVASIVE CARCINOMA"]}, {"conceptId": "C3770", "definition": "A malignant endocrine neoplasm arising from islets of Langerhans of the pancreas.", "preferredTerm": "Pancreatic Neuroendocrine Carcinoma", "submissionValue": "CARCINOMA, ISLET CELL, MALIGNANT", "synonyms": ["ISLET CELL CANCER", "ISLET CELL CARCINOMA", "MALIGNANT ISLET CELL TUMOR", "MALIGNANT PANCREATIC ENDOCRINE TUMOR", "PANCREATIC NEUROENDOCRINE CARCINOMA"]}, {"conceptId": "C2916", "definition": "A malignant epithelial neoplasm.", "preferredTerm": "Carcinoma", "submissionValue": "CARCINOMA, MALIGNANT", "synonyms": ["EPITHELIAL CARCINOMA", "EPITHELIOMA MALIGNANT", "MALIGNANT EPITHELIAL NEOPLASM", "MALIGNANT EPITHELIAL TUMOR", "MALIGNANT EPITHELIOMA"]}, {"conceptId": "C3773", "definition": "A malignant neuroendocrine neoplasm comprising cells containing secretory granules.", "preferredTerm": "Neuroendocrine Carcinoma", "submissionValue": "CARCINOMA, NEUROENDOCRINE CELL, MALIGNANT", "synonyms": ["NEUROENDOCRINE CARCINOMA", "NEUROENDOCRINE CELL CARCINOMA", "NEUROENDOCRINE TUMOR, MALIGNANT"]}, {"conceptId": "C60491", "definition": "A malignant epithelial neoplasm arising from the pars distalis of the pituitary gland.", "preferredTerm": "Rat Pars Distalis Carcinoma", "submissionValue": "CARCINOMA, PARS DISTALIS, MALIGNANT", "synonyms": ["Rat Pars Distalis Carcinoma"]}, {"conceptId": "C92183", "definition": "A malignant epithelial neoplasm arising from the pars intermedia of the pituitary gland.", "preferredTerm": "Rat Pars Intermedia Carcinoma", "submissionValue": "CARCINOMA, PARS INTERMEDIA, MALIGNANT", "synonyms": ["Rat Pars Intermedia Carcinoma"]}, {"conceptId": "C9385", "definition": "A malignant neoplasm arising from renal parenchyma.", "preferredTerm": "Renal Cell Carcinoma", "submissionValue": "CARCINOMA, RENAL CELL, MALIGNANT", "synonyms": ["ADENOCARCINOMA OF KIDNEY", "ADENOCARCINOMA OF THE KIDNEY", "KIDNEY ADENOCARCINOMA", "RCC", "RENAL CELL ADENOCARCINOMA", "RENAL CELL CANCER", "RENAL CELL CARCINOMA, STAGE UNSPECIFIED"]}, {"conceptId": "C39807", "definition": "A malignant neoplasm of the kidney, characterized by the presence of tubules.", "preferredTerm": "Mucinous Tubular and Spindle Cell Carcinoma of the Kidney", "submissionValue": "CARCINOMA, RENAL, TUBULAR, MALIGNANT", "synonyms": ["MUCINOUS TUBULAR AND SPINDLE CELL CARCINOMA OF THE KIDNEY"]}, {"conceptId": "C27004", "definition": "A malignant epithelial neoplasm characterized by the presence of spindle cells.", "preferredTerm": "Sarcomatoid Carcinoma", "submissionValue": "CARCINOMA, SPINDLE CELL, MALIGNANT", "synonyms": ["PSEUDOSARCOMATOUS CARCINOMA", "SPINDLE CELL CARCINOMA"]}, {"conceptId": "C27093", "definition": "A malignant epithelial neoplasm confined to the squamous epithelium, without invasion of underlying tissues.", "preferredTerm": "Stage 0 Squamous Cell Carcinoma", "submissionValue": "CARCINOMA, SQUAMOUS CELL, IN SITU, MALIGNANT", "synonyms": ["EPIDERMOID CARCINOMA IN SITU", "EPIDERMOID CELL CARCINOMA IN SITU", "GRADE 3 SQUAMOUS INTRAEPITHELIAL NEOPLASIA", "GRADE III SQUAMOUS INTRAEPITHELIAL NEOPLASIA", "INTRAEPITHELIAL SQUAMOUS CELL CARCINOMA", "SQUAMOUS CARCINOMA IN SITU", "SQUAMOUS CELL CARCINOMA IN SITU"]}, {"conceptId": "C2929", "definition": "A malignant neoplasm arising from squamous epithelial cells.", "preferredTerm": "Squamous Cell Carcinoma", "submissionValue": "CARCINOMA, SQUAMOUS CELL, MALIGNANT", "synonyms": ["EPIDERMOID CARCINOMA", "EPIDERMOID CELL CANCER", "MALIGNANT EPIDERMOID CELL NEOPLASM", "MALIGNANT EPIDERMOID CELL TUMOR", "MALIGNANT SQUAMOUS CELL NEOPLASM", "MALIGNANT SQUAMOUS CELL TUMOR", "SQUAMOUS CARCINOMA", "SQUAMOUS CELL CANCER", "SQUAMOUS CELL EPITHELIOMA"]}, {"conceptId": "C6938", "definition": "A malignant neoplasm arising from sweat glands.", "preferredTerm": "Sweat Gland Carcinoma", "submissionValue": "CARCINOMA, SWEAT GLAND, MALIGNANT", "synonyms": ["CARCINOMA OF SWEAT GLAND", "CARCINOMA OF THE SWEAT GLAND"]}, {"conceptId": "C2930", "definition": "A malignant neoplasm arising from transitional epithelium, usually affecting the urinary bladder, ureter, or renal pelvis.", "preferredTerm": "Transitional Cell Carcinoma", "submissionValue": "CARCINOMA, TRANSITIONAL CELL, MALIGNANT", "synonyms": ["TRANSITIONAL CARCINOMA"]}, {"conceptId": "C65192", "definition": "A malignant glandular neoplasm exhibiting tubular structures.", "preferredTerm": "Tubular Adenocarcinoma", "submissionValue": "CARCINOMA, TUBULAR CELL, MALIGNANT"}, {"conceptId": "C80356", "definition": "A malignant epithelial neoplasm of the ovary with tubular and stromal neoplastic components.", "preferredTerm": "Tubulostromal Adenocarcinoma", "submissionValue": "CARCINOMA, TUBULOSTROMAL, MALIGNANT"}, {"conceptId": "C3692", "definition": "A malignant epithelial neoplasm exhibiting poor differentiation (anaplasia).", "preferredTerm": "Undifferentiated Carcinoma", "submissionValue": "CARCINOMA, UNDIFFERENTIATED, MALIGNANT", "synonyms": ["ANAPLASTIC CARCINOMA", "CARCINOMA, UNDIFFERENTIATED"]}, {"conceptId": "C98801", "definition": "A malignant neoplasm of the rodent Zymbal's gland with sebaceous and/or squamous differentiation.", "preferredTerm": "Zymbal's Gland Carcinoma", "submissionValue": "CARCINOMA, ZYMBAL'S GLAND"}, {"conceptId": "C34448", "definition": "A malignant neoplasm comprising a mixture of carcinomatous and sarcomatous elements.", "preferredTerm": "Carcinosarcoma", "submissionValue": "CARCINOSARCOMA, MALIGNANT"}, {"conceptId": "C5358", "definition": "A benign peripheral nervous system neoplasm that is composed of well-differentiated Schwann cells and affects the heart.", "preferredTerm": "Benign Cardiac Schwannoma", "submissionValue": "CARDIAC SCHWANNOMA, BENIGN", "synonyms": ["SCHWANNOMA, ENDOCARDIAL, BENIGN"]}, {"conceptId": "C79950", "definition": "A benign neoplasm of the chemoreceptor system (e.g. carotid body, glomus jugulare, glomus vagale).", "preferredTerm": "Benign Carotid Body Paraganglioma", "submissionValue": "CHEMODECTOMA, BENIGN", "synonyms": ["BENIGN CHEMODECTOMA"]}, {"conceptId": "C3574", "definition": "A malignant neoplasm of the chemoreceptor system (e.g. carotid body, glomus jugulare, glomus vagale).", "preferredTerm": "Malignant Carotid Body Paraganglioma", "submissionValue": "CHEMODECTOMA, MALIGNANT", "synonyms": ["MALIGNANT CAROTID BODY NEOPLASM", "MALIGNANT CAROTID BODY TUMOR", "MALIGNANT NEOPLASM OF CAROTID BODY", "MALIGNANT NEOPLASM OF THE CAROTID BODY", "MALIGNANT TUMOR OF CAROTID BODY", "MALIGNANT TUMOR OF THE CAROTID BODY"]}, {"conceptId": "C2932", "definition": "A neoplasm of the chemoreceptor system (e.g. carotid body, glomus jugulare, glomus vagale) for which the malignancy status has not be established.", "preferredTerm": "Carotid Body Paraganglioma", "submissionValue": "CHEMODECTOMA, UNDETERMINED", "synonyms": ["CAROTID BODY CHEMODECTOMA", "CAROTID BODY TUMOR", "CHEMODECTOMA", "PARAGANGLIOMA OF CAROTID BODY", "PARAGANGLIOMA OF THE CAROTID BODY", "TUMOR OF CAROTID BODY", "TUMOR OF THE CAROTID BODY"]}, {"conceptId": "C35417", "definition": "A malignant neoplasm of the liver arising from/comprising cells resembling those of bile ducts.", "preferredTerm": "Intrahepatic Cholangiocarcinoma", "submissionValue": "CHOLANGIOCARCINOMA, INTRAHEPATIC, MALIGNANT", "synonyms": ["INTRAHEPATIC BILE DUCT CARCINOMA", "INTRAHEPATIC CARCINOMA OF BILE DUCT", "INTRAHEPATIC CARCINOMA OF THE BILE DUCT"]}, {"conceptId": "C4436", "definition": "A malignant neoplasm arising from/comprising cells resembling those of bile ducts.", "preferredTerm": "Cholangiocarcinoma", "submissionValue": "CHOLANGIOCARCINOMA, MALIGNANT", "synonyms": ["CHOLANGIOCELLULAR CARCINOMA"]}, {"conceptId": "C2942", "definition": "A benign neoplasm arising from/comprising cells resembling those of bile ducts.", "preferredTerm": "Bile Duct Adenoma", "submissionValue": "CHOLANGIOMA, BENIGN", "synonyms": ["ADENOMA OF BILE DUCT", "ADENOMA OF THE BILE DUCT", "CHOLANGIOADENOMA", "CHOLANGIOMA", "HEPATOCHOLANGIOCELLULAR ADENOMA", "HEPATOCHOLANGIOMA"]}, {"conceptId": "C53459", "definition": "A benign, well circumscribed neoplasm arising from the hyaline cartilage in soft tissue or bone. It is characterized by the presence of chondrocytes.", "preferredTerm": "Chondroma", "submissionValue": "CHONDROMA, BENIGN"}, {"conceptId": "C2946", "definition": "A malignant mesenchymal neoplasm arising from cartilage-forming tissues.", "preferredTerm": "Chondrosarcoma", "submissionValue": "CHONDROSARCOMA, MALIGNANT"}, {"conceptId": "C60334", "definition": "A benign bone neoplasm arising from the remnants of the fetal notochord.", "preferredTerm": "Rat Benign Chordoma", "submissionValue": "CHORDOMA, BENIGN"}, {"conceptId": "C2947", "definition": "A malignant bone neoplasm arising from the remnants of the fetal notochord.", "preferredTerm": "Chordoma", "submissionValue": "CHORDOMA, MALIGNANT"}, {"conceptId": "C2948", "definition": "A malignant neoplasm arising from placental trophoblast cells. They generally arise in the uterus.", "preferredTerm": "Choriocarcinoma", "submissionValue": "CHORIOCARCINOMA, MALIGNANT", "synonyms": ["CHORIOEPITHELIOMA"]}, {"conceptId": "C53684", "definition": "A benign neoplasm arising from connective and soft tissues that does not invade adjacent tissues or metastasize to other anatomic sites.", "preferredTerm": "Benign Connective and Soft Tissue Neoplasm", "submissionValue": "CONNECTIVE AND SOFT TISSUE NEOPLASM, BENIGN", "synonyms": ["BENIGN CONNECTIVE AND SOFT TISSUE NEOPLASM", "BENIGN CONNECTIVE AND SOFT TISSUE TUMOR", "BENIGN MESENCHYMAL CELL NEOPLASM", "BENIGN NEOPLASM OF THE SOFT TISSUE AND BONE", "BENIGN TUMOR OF THE SOFT TISSUE AND BONE"]}, {"conceptId": "C2964", "definition": "A benign epithelial neoplasm of the sellar region, presumably derived from Rathke pouch epithelium.", "preferredTerm": "Craniopharyngioma", "submissionValue": "CRANIOPHARYNGIOMA, BENIGN", "synonyms": ["CYSTOMA", "NEOPLASM OF RATHKE'S POUCH", "RATHKE POUCH NEOPLASM", "RATHKE POUCH TUMOR", "RATHKE'S POUCH NEOPLASM", "RATHKE'S POUCH TUMOR", "TUMOR OF RATHKE'S POUCH"]}, {"conceptId": "C79949", "definition": "A malignant epithelial neoplasm of the sellar region, presumably derived from Rathke pouch epithelium.", "preferredTerm": "Carcinoma Arising from Craniopharyngioma", "submissionValue": "CRANIOPHARYNGIOMA, MALIGNANT", "synonyms": ["CARCINOMA ARISING FROM CRANIOPHARYNGIOMA"]}, {"conceptId": "C2971", "definition": "A malignant cystic epithelial neoplasm arising from glandular epithelium.", "preferredTerm": "Cystadenocarcinoma", "submissionValue": "CYSTADENOCARCINOMA, MALIGNANT"}, {"conceptId": "C3777", "definition": "A malignant cystic epithelial neoplasm arising from glandular epithelium exhibiting papillary structures.", "preferredTerm": "Papillary Cystadenocarcinoma", "submissionValue": "CYSTADENOCARCINOMA, PAPILLARY, MALIGNANT"}, {"conceptId": "C2972", "definition": "A benign cystic epithelial neoplasm arising from glandular epithelium.", "preferredTerm": "Cystadenoma", "submissionValue": "CYSTADENOMA, BENIGN", "synonyms": ["CYSTOMA"]}, {"conceptId": "C2974", "definition": "A benign cystic epithelial neoplasm arising from glandular epithelium exhibiting papillary structures.", "preferredTerm": "Papillary Cystadenoma", "submissionValue": "CYSTADENOMA, PAPILLARY, BENIGN"}, {"conceptId": "C3555", "definition": "A malignant neoplasm arising from decidua (placental) cells.", "preferredTerm": "Malignant Placental Neoplasm", "submissionValue": "DECIDUOMA, MALIGNANT", "synonyms": ["MALIGNANT NEOPLASM OF PLACENTA", "MALIGNANT NEOPLASM OF THE PLACENTA", "MALIGNANT PLACENTAL NEOPLASM", "MALIGNANT PLACENTAL TUMOR", "MALIGNANT TUMOR OF PLACENTA", "MALIGNANT TUMOR OF THE PLACENTA"]}, {"conceptId": "C4858", "definition": "A neoplasm arising from decidua (placental) cells in which the malignancy status has not been established.", "preferredTerm": "Placental Neoplasm", "submissionValue": "DECIDUOMA, UNDETERMINED", "synonyms": ["NEOPLASM OF PLACENTA", "NEOPLASM OF THE PLACENTA", "PLACENTA NEOPLASM", "PLACENTA NEOPLASMS", "PLACENTA TUMOR", "PLACENTA TUMORS", "PLACENTAL TUMOR", "PLACENTAL TUMORS", "TUMOR OF PLACENTA", "TUMOR OF THE PLACENTA"]}, {"conceptId": "C9011", "definition": "A benign neoplasm comprised of a cyst, lined by mature epidermis-like tissue with dermal appendages.", "preferredTerm": "Dermoid Cyst", "submissionValue": "DERMOID CYST, BENIGN", "synonyms": ["BENIGN CYSTIC TERATOMA", "DERMOID", "MATURE CYSTIC TERATOMA"]}, {"conceptId": "C2996", "definition": "A malignant germ cell neoplasm characterized by the presence of a monotonous primitive germ cell population, primarily in the ovary.", "preferredTerm": "Dysgerminoma", "submissionValue": "DYSGERMINOMA, MALIGNANT"}, {"conceptId": "C4049", "definition": "A malignant neoplasm of ependymal origin with anaplastic cellular morphology.", "preferredTerm": "Anaplastic Ependymoma", "submissionValue": "EPENDYMOMA, ANAPLASTIC, MALIGNANT", "synonyms": ["ANAPLASTIC EPENDYMAL NEOPLASM", "ANAPLASTIC EPENDYMAL TUMOR", "MALIGNANT EPENDYMOMA", "UNDIFFERENTIATED EPENDYMAL NEOPLASM", "UNDIFFERENTIATED EPENDYMAL TUMOR", "UNDIFFERENTIATED EPENDYMOMA", "WHO GRADE III EPENDYMAL NEOPLASM", "WHO GRADE III EPENDYMAL TUMOR"]}, {"conceptId": "C3697", "definition": "A benign neoplasm of ependymal origin.", "preferredTerm": "Myxopapillary Ependymoma", "submissionValue": "EPENDYMOMA, BENIGN"}, {"conceptId": "C3017", "definition": "A neoplasm of ependymal origin, for which the malignancy status has not been established.", "preferredTerm": "Ependymoma", "submissionValue": "EPENDYMOMA, UNDETERMINED", "synonyms": ["WHO GRADE II EPENDYMAL NEOPLASM", "WHO GRADE II EPENDYMAL TUMOR"]}, {"conceptId": "C4092", "definition": "A benign neoplasm arising from epithelial cells of the skin.", "preferredTerm": "Benign Epithelial Neoplasm", "submissionValue": "EPITHELIOMA, BENIGN", "synonyms": ["BENIGN EPITHELIAL TUMOR", "BENIGN EPITHELIOMA", "BENIGN NEOPLASM OF EPITHELIUM", "BENIGN NEOPLASM OF THE EPITHELIUM", "BENIGN TUMOR OF EPITHELIUM", "BENIGN TUMOR OF THE EPITHELIUM"]}, {"conceptId": "C80349", "definition": "A benign cystic epithelial neoplasm featuring a central keratin mass surrounded by squamous epithelium.", "preferredTerm": "Cystic Keratinizing Epithelioma", "submissionValue": "EPITHELIOMA, CYSTIC KERATINIZING, BENIGN"}, {"conceptId": "C84356", "definition": "A benign cystic epithelial neoplasm characterized by the absence of keratin production.", "preferredTerm": "Non-Keratinizing Epithelioma", "submissionValue": "EPITHELIOMA, NON-KERATINIZING, BENIGN"}, {"conceptId": "C2928", "definition": "A malignant neoplasm originating from glandular cells with a fibrous or fibroblastic component.", "preferredTerm": "Scirrhous Adenocarcinoma", "submissionValue": "FIBROADENOCARCINOMA, MALIGNANT", "synonyms": ["ADENOCARCINOMA WITH PRODUCTIVE FIBROSIS", "FIBROCARCINOMA", "SCIRRHOUS CARCINOMA"]}, {"conceptId": "C3744", "definition": "A benign neoplasm originating from glandular cells with a fibrous or fibroblastic component.", "preferredTerm": "Fibroadenoma", "submissionValue": "FIBROADENOMA, BENIGN", "synonyms": ["BREAST FIBROADENOMA", "FIBROADENOMA OF BREAST", "FIBROADENOMA OF THE BREAST"]}, {"conceptId": "C4249", "definition": "A benign neoplasm comprising mature adipocytes, characterized by areas of abundant fibrous tissue.", "preferredTerm": "Fibrolipoma", "submissionValue": "FIBROLIPOMA, BENIGN"}, {"conceptId": "C3041", "definition": "A benign neoplasm arising from fibrous tissue.", "preferredTerm": "Fibroma", "submissionValue": "FIBROMA, BENIGN"}, {"conceptId": "C4314", "definition": "A benign intraosseous neoplasm arising from tooth-forming tissues in the mandible and maxilla, characterized by the presence of islands of odontogenic epithelium.", "preferredTerm": "Odontogenic Fibroma", "submissionValue": "FIBROMA, ODONTOGENIC, BENIGN", "synonyms": ["CENTRAL ODONTOGENIC FIBROMA"]}, {"conceptId": "C8422", "definition": "A benign fibrous neoplasm characterized by a mineralized component (woven bone, lamellar bone, or cementum-like material).", "preferredTerm": "Ossifying Fibroma", "submissionValue": "FIBROMA, OSSIFYING, BENIGN", "synonyms": ["CEMENTIFYING FIBROMA", "CEMENTO-OSSIFYING FIBROMA", "OSSIFYING FIBROMA"]}, {"conceptId": "C66760", "definition": "A benign soft-tissue neoplasm of uncertain lineage, characterized by the presence of neoplastic spindle-shaped to round cells and a fibromyxoid stroma.", "preferredTerm": "Fibromyxoid Neoplasm", "submissionValue": "FIBROMYXOMA, BENIGN", "synonyms": ["FIBROMYXOMA"]}, {"conceptId": "C3337", "definition": "A benign polypoid tumor comprising fibrous tissue and epithelium.", "preferredTerm": "Fibroepithelial Polyp", "submissionValue": "FIBROPAPILLOMA, BENIGN"}, {"conceptId": "C3043", "definition": "A malignant mesenchymal neoplasm of the soft tissue and bone.", "preferredTerm": "Fibrosarcoma", "submissionValue": "FIBROSARCOMA, MALIGNANT"}, {"conceptId": "C3788", "definition": "A neuroepithelial neoplasm comprised of neoplastic ganglion cells and neoplastic glial cells, in which the malignancy status has not been established.", "preferredTerm": "Ganglioglioma", "submissionValue": "GANGLIOGLIOMA, UNDETERMINED"}, {"conceptId": "C3790", "definition": "A malignant neoplasm characterized by the presence of neuroblastic and ganglion cells and a stroma with Schwannian differentiation.", "preferredTerm": "Ganglioneuroblastoma", "submissionValue": "GANGLIONEUROBLASTOMA, MALIGNANT"}, {"conceptId": "C3049", "definition": "A benign neoplasm characterized by the presence of ganglion cells and spindle cell proliferation, located primarily in the brain, ganglia, or adrenal medulla.", "preferredTerm": "Ganglioneuroma", "submissionValue": "GANGLIONEUROMA, BENIGN", "synonyms": ["NEURAL CREST TUMOR, BENIGN"]}, {"conceptId": "C27477", "definition": "A benign neoplasm of bone comprised of giant cells (osteoclast-like) and mononuclear cells.", "preferredTerm": "Benign Giant Cell Tumor of Bone", "submissionValue": "GIANT CELL TUMOR, BENIGN", "synonyms": ["BENIGN BONE GIANT CELL TUMOR", "OSTEOCLASTOMA, BENIGN"]}, {"conceptId": "C4090", "definition": "A malignant neoplasm of bone comprised of giant cells (osteoclast-like) and mononuclear cells.", "preferredTerm": "Malignant Giant Cell Neoplasm", "submissionValue": "GIANT CELL TUMOR, MALIGNANT", "synonyms": ["MALIGNANT GIANT CELL TUMOR"]}, {"conceptId": "C3055", "definition": "A neoplasm of bone comprised of giant cells (osteoclast-like) and mononuclear cells, for which the malignancy status has not been established.", "preferredTerm": "Giant Cell Tumor", "submissionValue": "GIANT CELL TUMOR, UNDETERMINED", "synonyms": ["TUMOR OF GIANT CELL", "TUMOR OF THE GIANT CELL"]}, {"conceptId": "C4822", "definition": "A malignant neuroglial neoplasm. The term can apply to several primary neoplasm of the brain and spinal cord, including astrocytoma and oligodendroglioma in addition to others.", "preferredTerm": "Malignant Glioma", "submissionValue": "GLIOMA, MALIGNANT", "synonyms": ["MALIGNANT GLIAL NEOPLASM", "MALIGNANT GLIAL TUMOR", "MALIGNANT NEUROGLIAL NEOPLASM", "MALIGNANT NEUROGLIAL TUMOR"]}, {"conceptId": "C3903", "definition": "A malignant neoplasm comprising two or more glial cell types (e.g., astrocytes, ependymal cells, oligodendrocytes).", "preferredTerm": "Mixed Glioma", "submissionValue": "GLIOMA, MIXED, MALIGNANT", "synonyms": ["GLIOMA, MIXED", "MIXED GLIAL NEOPLASM", "MIXED GLIAL TUMOR", "MIXED NEUROGLIAL NEOPLASM", "MIXED NEUROGLIAL TUMOR"]}, {"conceptId": "C3252", "definition": "A benign neoplasm, comprised of large cells with cytoplasmatic granules, occurring in various organs/tissues.", "preferredTerm": "Benign Granular Cell Tumor", "submissionValue": "GRANULAR CELL TUMOR, BENIGN", "synonyms": ["BENIGN GRANULAR CELL MYOBLASTOMA", "BENIGN GRANULAR CELL NEOPLASM", "BENIGN GRANULAR CELL TUMOR", "MYOBLASTOMA"]}, {"conceptId": "C4336", "definition": "A malignant neoplasm, comprised of large cells with cytoplasmatic granules, occurring in various organs/tissues.", "preferredTerm": "Malignant Granular Cell Tumor", "submissionValue": "GRANULAR CELL TUMOR, MALIGNANT", "synonyms": ["MALIGNANT GRANULAR CELL MYOBLASTOMA", "MALIGNANT GRANULAR CELL NEOPLASM", "MYOBLASTOMA, MALIGNANT"]}, {"conceptId": "C60340", "definition": "A benign neoplasm of the ovary, originating from granulosa cells.", "preferredTerm": "Rat Benign Granulosa Cell Tumor", "submissionValue": "GRANULOSA CELL TUMOR, BENIGN"}, {"conceptId": "C4205", "definition": "A malignant neoplasm of the ovary, originating from granulosa cells.", "preferredTerm": "Malignant Granulosa Cell Tumor", "submissionValue": "GRANULOSA CELL TUMOR, MALIGNANT", "synonyms": ["MALIGNANT GRANULOSA CELL TUMOR"]}, {"conceptId": "C3070", "definition": "A neoplasm of the ovary (or testis), originating from granulosa cells for which the malignancy status has not been established.", "preferredTerm": "Granulosa Cell Tumor", "submissionValue": "GRANULOSA CELL TUMOR, UNDETERMINED", "synonyms": ["GRANULOSA CELL NEOPLASM"]}, {"conceptId": "C27520", "definition": "A benign neoplasm that arises from the hair follicle.", "preferredTerm": "Benign Hair Follicle Neoplasm", "submissionValue": "HAIR FOLLICLE NEOPLASM, BENIGN", "synonyms": ["BENIGN FOLLICULAR NEOPLASM", "BENIGN FOLLICULAR TUMOR", "BENIGN HAIR FOLLICLE TUMOR"]}, {"conceptId": "C43310", "definition": "A malignant neoplasm that arises from the hair follicle.", "preferredTerm": "Malignant Hair Follicle Neoplasm", "submissionValue": "HAIR FOLLICLE NEOPLASM, MALIGNANT", "synonyms": ["MALIGNANT HAIR FOLLICLE TUMOR"]}, {"conceptId": "C7367", "definition": "A neoplasm that arises from the hair follicle, for which the malignancy status has not been established.", "preferredTerm": "Hair Follicle Neoplasm", "submissionValue": "HAIR FOLLICLE NEOPLASM, UNDETERMINED", "synonyms": ["HAIR FOLLICLE TUMOR", "HAIR MATRIX NEOPLASM", "HAIR MATRIX TUMOR", "NEOPLASM OF HAIR FOLLICLE", "NEOPLASM OF THE HAIR FOLLICLE"]}, {"conceptId": "C3085", "definition": "A benign vascular neoplasm characterized by the formation of capillary-sized or cavernous vascular channels.", "preferredTerm": "Hemangioma", "submissionValue": "HEMANGIOMA, BENIGN", "synonyms": ["ANGIOMA", "BENIGN ANGIOMA", "BENIGN HEMANGIOMA"]}, {"conceptId": "C4300", "definition": "A benign neoplasm originating from vascular pericytes (cells in the periphery of vessels).", "preferredTerm": "Benign Hemangiopericytoma", "submissionValue": "HEMANGIOPERICYTOMA, BENIGN"}, {"conceptId": "C4301", "definition": "A malignant neoplasm originating from vascular pericytes (cells in the periphery of vessels).", "preferredTerm": "Malignant Hemangiopericytoma", "submissionValue": "HEMANGIOPERICYTOMA, MALIGNANT", "synonyms": ["MALIGNANT HEMANGIOPERICYTOMA NOS"]}, {"conceptId": "C3087", "definition": "A neoplasm originating from vascular pericytes (cells in the periphery of vessels), for which the malignancy status has not been established.", "preferredTerm": "Hemangiopericytoma", "submissionValue": "HEMANGIOPERICYTOMA, UNDETERMINED"}, {"conceptId": "C3088", "definition": "A malignant vascular neoplasm arising from endothelial cells.", "preferredTerm": "Angiosarcoma", "submissionValue": "HEMANGIOSARCOMA, MALIGNANT", "synonyms": ["HEMANGIOSARCOMA"]}, {"conceptId": "C3728", "definition": "A malignant liver neoplasm composed of immature hepatocytic elements.", "preferredTerm": "Hepatoblastoma", "submissionValue": "HEPATOBLASTOMA, MALIGNANT", "synonyms": ["HBL", "PEDIATRIC EMBRYONAL HEPATOMA", "PEDIATRIC HEPATOBLASTOMA"]}, {"conceptId": "C3702", "definition": "A benign neoplasm of the brown adipose tissue.", "preferredTerm": "Hibernoma", "submissionValue": "HIBERNOMA, BENIGN", "synonyms": ["BROWN FAT NEOPLASM", "BROWN FAT TUMOR", "FETAL FAT CELL LIPOMA"]}, {"conceptId": "C103394", "definition": "A malignant neoplasm arising from the brown adipose tissue in animals, usually in the subcutis and the thoracic cavity.", "preferredTerm": "Experimental Organism Malignant Hibernoma", "submissionValue": "HIBERNOMA, MALIGNANT", "synonyms": ["MALIGNANT HIBERNOMA"]}, {"conceptId": "C98708", "definition": "A benign dermal neoplasm comprising of round cells, resembling histiocytes. The tumor commonly occurs in young dogs and may regress spontaneously.", "preferredTerm": "Benign Histiocytoma", "submissionValue": "HISTIOCYTOMA, BENIGN"}, {"conceptId": "C3739", "definition": "A benign neoplasm composed of a fibroblastic and a histiocytic component.", "preferredTerm": "Benign Fibrous Histiocytoma", "submissionValue": "HISTIOCYTOMA, FIBROUS, BENIGN", "synonyms": ["FIBROUS HISTIOCYTOMA"]}, {"conceptId": "C4247", "definition": "A malignant neoplasm composed of a fibroblastic and a histiocytic component.", "preferredTerm": "Unclassified Pleomorphic Sarcoma", "submissionValue": "HISTIOCYTOMA, FIBROUS, MALIGNANT", "synonyms": ["FIBROXANTHOSARCOMA", "MALIGNANT FIBROUS HISTIOCYTOMA OF SOFT TISSUE AND BONE", "MALIGNANT FIBROUS HISTIOCYTOMA OF THE SOFT TISSUE AND BONE", "MALIGNANT FIBROXANTHOMA", "MFH"]}, {"conceptId": "C8402", "definition": "A neoplasm composed of a fibroblastic and a histiocytic component, for which the malignancy status has not been established.", "preferredTerm": "Fibrohistiocytic Neoplasm", "submissionValue": "HISTIOCYTOMA, FIBROUS, UNDETERMINED", "synonyms": ["FIBROHISTIOCYTIC TUMOR"]}, {"conceptId": "C35765", "definition": "A neoplasm composed of histiocytic cells, for which the malignancy status has not been established.", "preferredTerm": "Histiocytoma", "submissionValue": "HISTIOCYTOMA, UNDETERMINED"}, {"conceptId": "C80351", "definition": "A benign neoplasm of the liver composed of hepatic stellate cells (Ito cells).", "preferredTerm": "Benign Ito Cell Tumor", "submissionValue": "ITO CELL TUMOR, BENIGN", "synonyms": ["BENIGN SPONGIOTIC PERICYTOMA"]}, {"conceptId": "C80352", "definition": "A malignant neoplasm of the liver composed of hepatic stellate cells (Ito cells).", "preferredTerm": "Malignant Ito Cell Tumor", "submissionValue": "ITO CELL TUMOR, MALIGNANT", "synonyms": ["MALIGNANT SPONGIOTIC PERICYTOMA"]}, {"conceptId": "C117977", "definition": "A benign neoplasm in the superficial dermis with direct association to the epidermis, composed of well differentiated squamous epithelium and a central cavity filled with concentric layers of keratin; a pore (opening in the epidermis) may be present.", "preferredTerm": "Experimental Organism Benign Keratoacanthoma", "submissionValue": "KERATOACANTHOMA, BENIGN"}, {"conceptId": "C3146", "definition": "An epithelial skin neoplasm, composed of squamous cells, for which the malignancy status has not been established.", "preferredTerm": "Keratoacanthoma", "submissionValue": "KERATOACANTHOMA, UNDETERMINED"}, {"conceptId": "C81854", "definition": "A benign neoplasm of the gastro-intestinal tract, originating from smooth muscle cells.", "preferredTerm": "Benign Epithelioid Cell Type Gastrointestinal Stromal Tumor", "submissionValue": "LEIOMYOBLASTOMA, BENIGN"}, {"conceptId": "C81855", "definition": "A malignant neoplasm of the gastro-intestinal tract, originating from smooth muscle cells.", "preferredTerm": "Malignant Epithelioid Cell Type Gastrointestinal Stromal Tumor", "submissionValue": "LEIOMYOBLASTOMA, MALIGNANT"}, {"conceptId": "C3486", "definition": "A neoplasm of the gastro-intestinal tract, originating from smooth muscle cells, for which the malignancy status has not been established.", "preferredTerm": "Epithelioid Cell Type Gastrointestinal Stromal Tumor", "submissionValue": "LEIOMYOBLASTOMA, UNDETERMINED", "synonyms": ["EPITHELIOID CELL TYPE GIST", "LEIOMYOBLASTOMA", "STOUT'S LEIOMYOBLASTOMA"]}, {"conceptId": "C3157", "definition": "A benign neoplasm, originating from smooth muscle cells.", "preferredTerm": "Leiomyoma", "submissionValue": "LEIOMYOMA, BENIGN", "synonyms": ["FIBROID", "FIBROID NEOPLASM", "FIBROID TUMOR", "LEIOMYOMATOUS NEOPLASM", "LEIOMYOMATOUS TUMOR"]}, {"conceptId": "C3158", "definition": "A malignant neoplasm, originating from smooth muscle cells.", "preferredTerm": "Leiomyosarcoma", "submissionValue": "LEIOMYOSARCOMA, MALIGNANT", "synonyms": ["LEIOMYOSARCOMAS"]}, {"conceptId": "C8923", "definition": "A progressive, proliferative disease of blood cells, originating from immature erythroid cells.", "preferredTerm": "Acute Erythroid Leukemia", "submissionValue": "LEUKEMIA, ERYTHROID, MALIGNANT", "synonyms": ["ACUTE ERYTHROBLASTIC LEUKEMIA", "ERYTHROBLASTIC LEUKEMIA", "FAB M6", "M6 ACUTE MYELOID LEUKEMIA"]}, {"conceptId": "C3172", "definition": "A progressive, proliferative disease of blood cells, originating from immature granulocytes.", "preferredTerm": "Myeloid Leukemia", "submissionValue": "LEUKEMIA, GRANULOCYTIC, MALIGNANT", "synonyms": ["LEUKEMIA GRANULOCYTIC", "LEUKEMIA MYELOID", "MYELOCYTIC LEUKEMIA", "MYELOGENOUS LEUKEMIA", "NON-LYMPHOBLASTIC LEUKEMIA", "NON-LYMPHOCYTIC LEUKEMIA"]}, {"conceptId": "C4664", "definition": "A progressive, proliferative disease of blood cells which are large and granular, originating from lymphoid cells.", "preferredTerm": "T-Cell Large Granular Lymphocyte Leukemia", "submissionValue": "LEUKEMIA, LARGE GRANULAR LYMPHOCYTIC, MALIGNANT", "synonyms": ["LARGE CELL GRANULAR LYMPHOGENOUS LEUKEMIA", "LARGE CELL GRANULAR LYMPHOID LEUKEMIA", "LARGE GRANULAR LYMPHOCYTIC LEUKEMIA", "LARGE GRANULAR LYMPHOCYTOSIS", "LGLL", "T GAMMA LYMPHOPROLIFERATIVE DISORDER", "T-CELL LARGE GRANULAR LYMPHOCYTIC LEUKEMIA", "T-GAMMA LYMPHOPROLIFERATIVE DISORDER", "TGAMMA LARGE GRANULAR LYMPHOCYTE LEUKEMIA"]}, {"conceptId": "C3167", "definition": "A progressive, proliferative disease of blood cells, originating from immature lymphoid cells.", "preferredTerm": "Acute Lymphoblastic Leukemia", "submissionValue": "LEUKEMIA, LYMPHOBLASTIC, MALIGNANT", "synonyms": ["ACUTE LYMPHOCYTIC LEUKAEMIA", "ACUTE LYMPHOCYTIC LEUKEMIAS", "ACUTE LYMPHOGENOUS LEUKEMIA", "ACUTE LYMPHOID LEUKEMIA", "ALL", "ALL - ACUTE LYMPHOCYTIC LEUKEMIA", "LYMPHOBLASTIC LEUKEMIA", "PRECURSOR CELL LYMPHOBLASTIC LEUKEMIA", "PRECURSOR LYMPHOBLASIC LEUKEMIA"]}, {"conceptId": "C7539", "definition": "A progressive, proliferative disease of blood cells, originating from lymphoid cells.", "preferredTerm": "Lymphoid Leukemia", "submissionValue": "LEUKEMIA, LYMPHOCYTIC, MALIGNANT", "synonyms": ["LYMPHOCYTIC LEUKEMIA", "LYMPHOGENOUS LEUKEMIA"]}, {"conceptId": "C3161", "definition": "A progressive, proliferative disease of blood cells, originating from myeloid or lymphoid stem cells.", "preferredTerm": "Leukemia", "submissionValue": "LEUKEMIA, MALIGNANT", "synonyms": ["BLOOD (LEUKEMIA)", "LEUKEMIA NOS", "LEUKEMIAS", "LEUKEMIAS, GENERAL"]}, {"conceptId": "C3170", "definition": "A progressive, proliferative disease of blood cells, originating from immature megakaryocytes.", "preferredTerm": "Acute Megakaryoblastic Leukemia", "submissionValue": "LEUKEMIA, MEGAKARYOCYTIC, MALIGNANT", "synonyms": ["ACUTE M7 MYELOID LEUKEMIA", "ACUTE MEGAKARYOBLASTIC LEUKEMIA (FAB TYPE M7)", "ACUTE MEGAKARYOCYTIC LEUKEMIA", "FAB M7"]}, {"conceptId": "C4861", "definition": "A progressive, proliferative disease of blood cells, originating from immature monocytes.", "preferredTerm": "Acute Monocytic Leukemia", "submissionValue": "LEUKEMIA, MONOCYTIC, MALIGNANT", "synonyms": ["ACUTE MONOCYTIC LEUKEMIA (FAB M5B)", "MONOCYTIC LEUKEMIA"]}, {"conceptId": "C4212", "definition": "A benign neoplasm of the testis originating from interstitial (Leydig) cells.", "preferredTerm": "Benign Leydig Cell Tumor", "submissionValue": "LEYDIG CELL TUMOR, BENIGN", "synonyms": ["ADENOMA, INTERSTITIAL", "BENIGN INTERSTITIAL CELL NEOPLASM", "BENIGN INTERSTITIAL CELL TUMOR", "BENIGN LEYDIG CELL NEOPLASM"]}, {"conceptId": "C4213", "definition": "A malignant neoplasm of the testis originating from interstitial (Leydig) cells.", "preferredTerm": "Malignant Leydig Cell Tumor", "submissionValue": "LEYDIG CELL TUMOR, MALIGNANT", "synonyms": ["MALIGNANT INTERSTITIAL CELL NEOPLASM", "MALIGNANT INTERSTITIAL CELL TUMOR", "MALIGNANT LEYDIG CELL NEOPLASM"]}, {"conceptId": "C3188", "definition": "A neoplasm of the testis originating from interstitial (Leydig) cells, for which the malignancy status has not been established.", "preferredTerm": "Leydig Cell Tumor", "submissionValue": "LEYDIG CELL TUMOR, UNDETERMINED", "synonyms": ["INTERSTITIAL CELL NEOPLASM", "INTERSTITIAL CELL TUMOR", "LEYDIG CELL NEOPLASM", "LEYDIG CELL TUMOR"]}, {"conceptId": "C3192", "definition": "A benign neoplasm composed of adipose tissue.", "preferredTerm": "Lipoma", "submissionValue": "LIPOMA, BENIGN"}, {"conceptId": "C3194", "definition": "A malignant neoplasm composed of adipose tissue.", "preferredTerm": "Liposarcoma", "submissionValue": "LIPOSARCOMA, MALIGNANT"}, {"conceptId": "C3202", "definition": "A benign neoplasm of the ovary, composed of leuteinized granulosa-theca cells.", "preferredTerm": "Ovarian Stromal Luteoma", "submissionValue": "LUTEOMA, BENIGN", "synonyms": ["LUTEAL CELL NEOPLASM", "LUTEAL CELL TUMOR", "LUTEINOMA", "LUTEOMA", "OVARIAN STROMA LUTEOMA"]}, {"conceptId": "C8965", "definition": "A benign neoplasm arising from the lymphatics.", "preferredTerm": "Lymphangioma", "submissionValue": "LYMPHANGIOMA, BENIGN"}, {"conceptId": "C3205", "definition": "A malignant neoplasm arising from the endothelial cells of the lymphatic vessels.", "preferredTerm": "Lymphangiosarcoma", "submissionValue": "LYMPHANGIOSARCOMA, MALIGNANT", "synonyms": ["LYMPHANGIOENDOTHELIAL SARCOMA", "MALIGNANT LYMPHANGIOENDOTHELIOMA"]}, {"conceptId": "C3209", "definition": "A neoplasm of lymphoid cells which has at least a partial follicular pattern.", "preferredTerm": "Follicular Lymphoma", "submissionValue": "LYMPHOMA, FOLLICULAR, MALIGNANT", "synonyms": ["FOLLICLE CENTER LYMPHOMA", "FOLLICULAR CENTRE CELL LYMPHOMA", "FOLLICULAR NON-HODGKIN LYMPHOMA", "FOLLICULAR NON-HODGKIN'S LYMPHOMA", "LYMPHOMA, FOLLICULAR CENTRE CELL"]}, {"conceptId": "C114110", "definition": "A malignant neoplasm of large lymphocytes, which resemble histiocytes.", "preferredTerm": "Experimental Organism Histiocytic Lymphoma Neoplasm", "submissionValue": "LYMPHOMA, HISTIOCYTIC, MALIGNANT", "synonyms": ["LYMPHOMA, LARGE CELL, MALIGNANT"]}, {"conceptId": "C3461", "definition": "A malignant neoplasm composed of immunoblasts (large B cells).", "preferredTerm": "Immunoblastic Lymphoma", "submissionValue": "LYMPHOMA, IMMUNOBLASTIC, MALIGNANT"}, {"conceptId": "C9360", "definition": "A malignant neoplasm composed of lymphoblasts (lymphoid precursor cells).", "preferredTerm": "Lymphoblastic Lymphoma", "submissionValue": "LYMPHOMA, LYMPHOBLASTIC, MALIGNANT", "synonyms": ["PRECURSOR CELL LYMPHOBLASTIC LYMPHOMA", "PRECURSOR LYMPHOBLASTIC LYMPHOMA"]}, {"conceptId": "C3212", "definition": "A malignant neoplasm composed of lymphocytes (B-cells), lymphoplasmacytoid cells, and plasma cells.", "preferredTerm": "Lymphoplasmacytic Lymphoma", "submissionValue": "LYMPHOMA, LYMPHOPLASMACYTIC, MALIGNANT", "synonyms": ["IMMUNOCYTOMA, LYMPHOPLASMACYTIC TYPE", "LYMPHOMA, PLASMACYTIC", "LYMPHOPLASMACYTOID LYMPHOMA"]}, {"conceptId": "C3208", "definition": "A malignant neoplasm composed of lymphocytes of B- or T/NK-cell phenotype.", "preferredTerm": "Lymphoma", "submissionValue": "LYMPHOMA, MALIGNANT", "synonyms": ["LYMPHOMA (HODGKIN AND NON-HODGKIN)", "LYMPHOMA (HODGKIN'S AND NON-HODGKIN'S)", "MALIGNANT LYMPHOMA"]}, {"conceptId": "C114111", "definition": "A malignant neoplasm composed of a mixed lymphocyte population.", "preferredTerm": "Experimental Organism Mixed Lymphoma Neoplasm", "submissionValue": "LYMPHOMA, MIXED, MALIGNANT", "synonyms": ["DIFFUSE MIXED LARGE AND SMALL CELL LYMPHOMA"]}, {"conceptId": "C7540", "definition": "A malignant neoplasm composed of small lymphocytes.", "preferredTerm": "Small Lymphocytic Lymphoma", "submissionValue": "LYMPHOMA, SMALL LYMPHOCYTIC, MALIGNANT", "synonyms": ["B-CELL SMALL LYMPHOCYTIC LYMPHOMA", "LYMPHOMA, LYMPHOCYTIC, MALIGNANT", "SLL", "SMALL B-CELL LYMPHOCYTIC LYMPHOMA"]}, {"conceptId": "C114112", "definition": "An antiquated term referring to a malignant lymphoma that is diffused and composed of small and large lymphocytes.", "preferredTerm": "Experimental Organism Lymphosarcoma Neoplasm", "submissionValue": "LYMPHOSARCOMA, MALIGNANT"}, {"conceptId": "C3217", "definition": "A benign neoplasm composed of mast cells.", "preferredTerm": "Benign Mastocytoma", "submissionValue": "MAST CELL TUMOR, BENIGN"}, {"conceptId": "C8991", "definition": "A malignant neoplasm composed of mast cells.", "preferredTerm": "Malignant Mastocytosis", "submissionValue": "MAST CELL TUMOR, MALIGNANT"}, {"conceptId": "C9295", "definition": "A neoplasm composed of mast cells, for which the malignancy status has not been determined.", "preferredTerm": "Mast Cell Neoplasm", "submissionValue": "MAST CELL TUMOR, UNDETERMINED", "synonyms": ["MAST CELL PROLIFERATIVE DISEASE", "MAST CELL TUMOR", "NEOPLASM OF MAST CELLS", "NEOPLASM OF THE MAST CELLS", "TUMOR OF MAST CELLS", "TUMOR OF THE MAST CELLS"]}, {"conceptId": "C3222", "definition": "A malignant, invasive embryonal neoplasm arising from the cerebellum.", "preferredTerm": "Medulloblastoma", "submissionValue": "MEDULLOBLASTOMA, MALIGNANT", "synonyms": ["MEDULLOBLASTOMAS"]}, {"conceptId": "C3802", "definition": "A malignant neoplasm composed of melanocytes, which lack melanin.", "preferredTerm": "Amelanotic Melanoma", "submissionValue": "MELANOMA, AMELANOTIC, MALIGNANT"}, {"conceptId": "C98709", "definition": "A benign neoplasm or hamartoma composed of melanocytes.", "preferredTerm": "Benign Melanocytoma", "submissionValue": "MELANOMA, BENIGN", "synonyms": ["BENIGN MELANOCYTOMA", "MELANOCYTOMA, BENIGN"]}, {"conceptId": "C3224", "definition": "A malignant neoplasm composed of melanocytes.", "preferredTerm": "Melanoma", "submissionValue": "MELANOMA, MALIGNANT", "synonyms": ["MALIGNANT MELANOMA"]}, {"conceptId": "C7712", "definition": "A malignant neoplasm of the uvea composed of melanocytes.", "preferredTerm": "Uveal Melanoma", "submissionValue": "MELANOMA, UVEAL, MALIGNANT", "synonyms": ["INTRAOCULAR MELANOMA", "MELANOMA OF THE UVEA", "MELANOMA OF UVEA"]}, {"conceptId": "C4051", "definition": "A malignant neoplasm of the meninges, exhibiting poor differentiation (anaplasia).", "preferredTerm": "Anaplastic (Malignant) Meningioma", "submissionValue": "MENINGIOMA, ANAPLASTIC, MALIGNANT", "synonyms": ["ANAPLASTIC MENINGIOMA", "MALIGNANT MENINGIOMA", "MENINGIOMA, MALIGNANT"]}, {"conceptId": "C4055", "definition": "A benign neoplasm of the meninges.", "preferredTerm": "Benign Meningioma", "submissionValue": "MENINGIOMA, BENIGN", "synonyms": ["MENINGIOMA, BENIGN"]}, {"conceptId": "C38938", "definition": "A malignant neoplasm of the meninges.", "preferredTerm": "Grade III Meningioma", "submissionValue": "MENINGIOMA, MALIGNANT", "synonyms": ["GRADE 3 MENINGIOMA", "GRADE III MENINGIOMA", "WHO GRADE III MENINGIOMA"]}, {"conceptId": "C3230", "definition": "A neoplasm of the meninges, for which the status of malignancy has not been determined.", "preferredTerm": "Meningioma", "submissionValue": "MENINGIOMA, UNDETERMINED"}, {"conceptId": "C4267", "definition": "A benign soft-tissue neoplasm comprising two or more non-fibroblastic mesenchymal lines of differentiation.", "preferredTerm": "Benign Mesenchymoma", "submissionValue": "MESENCHYMAL TUMOR, BENIGN"}, {"conceptId": "C64118", "definition": "A malignant soft-tissue neoplasm comprising two or more non-fibroblastic mesenchymal lines of differentiation.", "preferredTerm": "Malignant Mesenchymal Tumor of the Rat Kidney", "submissionValue": "MESENCHYMAL TUMOR, MALIGNANT"}, {"conceptId": "C3762", "definition": "A benign neoplasm arising from mesothelial cells.", "preferredTerm": "Adenomatoid Tumor", "submissionValue": "MESOTHELIOMA, BENIGN", "synonyms": ["ADENOMATOID TUMOR, BENIGN", "BENIGN LOCALIZED EPITHELIAL MESOTHELIOMA", "BENIGN MESOTHELIAL NEOPLASM", "BENIGN MESOTHELIAL TUMOR", "BENIGN MESOTHELIOMA", "BENIGN NEOPLASM OF MESOTHELIUM", "BENIGN NEOPLASM OF THE MESOTHELIUM", "BENIGN TUMOR OF MESOTHELIUM", "BENIGN TUMOR OF THE MESOTHELIUM", "MESOTHELIOMA, BENIGN"]}, {"conceptId": "C4456", "definition": "A malignant neoplasm originating from mesothelial cells of the pleura or peritoneum.", "preferredTerm": "Malignant Mesothelioma", "submissionValue": "MESOTHELIOMA, MALIGNANT", "synonyms": ["MALIGNANT MESOTHELIAL NEOPLASM", "MALIGNANT MESOTHELIAL TUMOR", "MALIGNANT NEOPLASM OF MESOTHELIUM", "MALIGNANT NEOPLASM OF THE MESOTHELIUM", "MALIGNANT TUMOR OF MESOTHELIUM", "MALIGNANT TUMOR OF THE MESOTHELIUM"]}, {"conceptId": "C3234", "definition": "A neoplasm originating from mesothelial cells of the pleura or peritoneum, for which the malignancy status has not been established.", "preferredTerm": "Mesothelioma", "submissionValue": "MESOTHELIOMA, UNDETERMINED"}, {"conceptId": "C4050", "definition": "A benign neoplasm of the central nervous system with an astrocytic and oligodendrocytic component.", "preferredTerm": "Oligoastrocytoma", "submissionValue": "MIXED GLIOMA, BENIGN"}, {"conceptId": "C8602", "definition": "A benign neoplasm composed of epithelial and/or myoepithelial cells and a mesenchymal component.", "preferredTerm": "Pleomorphic Adenoma", "submissionValue": "MIXED TUMOR, BENIGN"}, {"conceptId": "C3729", "definition": "A malignant neoplasm composed of epithelial and/or myoepithelial cells and a mesenchymal component. A general term for which the transformed cell types have not been specified.", "preferredTerm": "Malignant Mixed Neoplasm", "submissionValue": "MIXED TUMOR, MALIGNANT", "synonyms": ["MALIGNANT MIXED TUMOR"]}, {"conceptId": "C6930", "definition": "A neoplasm composed of an epithelial component and/or a mesenchymal component, for which the malignancy status has not been established. A general term for which the transformed cell types have not been specified.", "preferredTerm": "Mixed Neoplasm", "submissionValue": "MIXED TUMOR, UNDETERMINED", "synonyms": ["MIXED TUMOR", "TUMOR, MIXED"]}, {"conceptId": "C8975", "definition": "A malignant neoplasm of the female reproductive system (mostly uterus and ovaries) originating from the Muellerian ducts and composed of carcinomatous and sarcomatous elements.", "preferredTerm": "Malignant Mixed Mesodermal (Mullerian) Tumor", "submissionValue": "MUELLERIAN TUMOR, MIXED, MALIGNANT", "synonyms": ["MALIGNANT MIXED MESODERMAL TUMOR", "MALIGNANT MIXED MULLERIAN TUMOR", "MMMT"]}, {"conceptId": "C3736", "definition": "A benign tumor of the adrenal gland composed of adipocytes and hematopoietic/lymphoid cells.", "preferredTerm": "Adrenal Gland Myelolipoma", "submissionValue": "MYELOLIPOMA, BENIGN", "synonyms": ["MYELOLIPOMA"]}, {"conceptId": "C3242", "definition": "A malignant neoplasm of the bone marrow composed of plasma cells.", "preferredTerm": "Plasma Cell Myeloma", "submissionValue": "MYELOMA, PLASMA CELL, MALIGNANT", "synonyms": ["MULTIPLE MYELOMA", "MYELOMA"]}, {"conceptId": "C7442", "definition": "A benign neoplasm composed of myoepithelial cells.", "preferredTerm": "Benign Myoepithelioma", "submissionValue": "MYOEPITHELIOMA, BENIGN"}, {"conceptId": "C7596", "definition": "A malignant neoplasm composed of myoepithelial cells.", "preferredTerm": "Malignant Myoepithelioma", "submissionValue": "MYOEPITHELIOMA, MALIGNANT", "synonyms": ["MALIGNANT MYOEPITHELIOMA", "MYOEPITHELIAL CARCINOMA"]}, {"conceptId": "C6577", "definition": "A benign soft tissue neoplasm with a myxoid stroma formation.", "preferredTerm": "Myxoma", "submissionValue": "MYXOMA, BENIGN"}, {"conceptId": "C3255", "definition": "A malignant soft tissue neoplasm with a myxoid stroma formation.", "preferredTerm": "Myxosarcoma", "submissionValue": "MYXOSARCOMA, MALIGNANT"}, {"conceptId": "C3677", "definition": "A general term used to describe autonomous growth of tissue where the originating cell type has not been characterized. The term benign indicates the absence of morphologic features associated with malignancy (for instance severe atypia, nuclear pleomorphism, tumor cell necrosis, and abnormal mitoses).", "preferredTerm": "Benign Neoplasm", "submissionValue": "NEOPLASM, BENIGN", "synonyms": ["BENIGN TUMOR", "BENIGN UNCLASSIFIABLE TUMOR"]}, {"conceptId": "C9305", "definition": "A general term for autonomous tissue growth exhibiting morphologic features of malignancy (e.g. severe atypia, nuclear pleomorphism, tumor cell necrosis, abnormal mitoses, tissue invasiveness) and for which the transformed cell type has not been specifically identified.", "preferredTerm": "Malignant Neoplasm", "submissionValue": "NEOPLASM, MALIGNANT", "synonyms": ["CA", "CANCER", "MALIGNANCY", "MALIGNANT TUMOR"]}, {"conceptId": "C3262", "definition": "A general term for autonomous tissue growth in which the malignancy status has not been established and for which the transformed cell type has not been specifically identified.", "preferredTerm": "Neoplasm", "submissionValue": "NEOPLASM, UNDETERMINED"}, {"conceptId": "C114235", "definition": "A benign embryonal neoplasm of the kidney.", "preferredTerm": "Experimental Organism Benign Nephroblastoma Neoplasm", "submissionValue": "NEPHROBLASTOMA, BENIGN"}, {"conceptId": "C40407", "definition": "A malignant embryonal neoplasm of the kidney.", "preferredTerm": "Nephroblastoma", "submissionValue": "NEPHROBLASTOMA, MALIGNANT", "synonyms": ["EMBRYONAL NEPHROMA", "NEPHROBLASTOMA", "RENAL WILMS' TUMOR", "WILMS TUMOR OF THE KIDNEY", "WILMS' TUMOR OF THE KIDNEY"]}, {"conceptId": "C6963", "definition": "A neoplasm composed of cells of neuroendocrine origin for which the malignancy status has not been established.", "preferredTerm": "Neuroblastic Tumor", "submissionValue": "NEURAL CREST TUMOR, UNDETERMINED"}, {"conceptId": "C3270", "definition": "A malignant neoplasm composed of neuroblastic cells.", "preferredTerm": "Neuroblastoma", "submissionValue": "NEUROBLASTOMA, MALIGNANT", "synonyms": ["NEURAL CREST TUMOR, MALIGNANT", "NEUROBLASTOMA (SCHWANNIAN STROMA-POOR)"]}, {"conceptId": "C3789", "definition": "A malignant neoplasm of the olfactory receptor cells, composed of neuroblastic cells.", "preferredTerm": "Olfactory Neuroblastoma", "submissionValue": "NEUROBLASTOMA, OLFACTORY, MALIGNANT", "synonyms": ["ESTHESIONEUROBLASTOMA", "ESTHESIONEUROEPITHELIOMA", "OLFACTORY ESTHESIONEUROBLASTOMA", "OLFACTORY NEUROEPITHELIOMA"]}, {"conceptId": "C3272", "definition": "An intraneural or extraneural neoplasm arising from nerve tissues and neural sheaths, composed of perineurial-like fibroblasts and Schwann cells.", "preferredTerm": "Neurofibroma", "submissionValue": "NEUROFIBROMA, BENIGN"}, {"conceptId": "C3059", "definition": "A neoplasm of the central nervous system composed of glial cells (astrocytes, oligodendrocytes, ependymal cells), for which the malignancy status has not been determined.", "preferredTerm": "Glioma", "submissionValue": "NEUROGLIAL TUMOR, UNDETERMINED", "synonyms": ["GLIAL NEOPLASM", "GLIAL TUMOR", "GLIOMA", "NEOPLASM OF NEUROGLIA", "NEOPLASM OF THE NEUROGLIA", "NEOPLASMS OF NEUROGLIA", "NEUROGLIAL NEOPLASM", "NEUROGLIAL NEOPLASMS", "TUMOR OF NEUROGLIA", "TUMOR OF THE NEUROGLIA", "TUMORS OF NEUROGLIA"]}, {"conceptId": "C116214", "definition": "A malignant tumor that arises in the brain stem or adjacent cranial nerves, consisting of variable populations of cells with neuronal and myoblast differentiation. (INHAND)", "preferredTerm": "Experimental Organism Malignant Neuromyoblastoma", "submissionValue": "NEUROMYOBLASTOMA, MALIGNANT"}, {"conceptId": "C4306", "definition": "A benign neoplasm arising from tooth-forming tissues.", "preferredTerm": "Benign Odontogenic Neoplasm", "submissionValue": "ODONTOGENIC TUMOR, BENIGN", "synonyms": ["BENIGN ODONTOGENIC TUMOR"]}, {"conceptId": "C3286", "definition": "A neoplasm arising from tooth-forming tissues, for which the malignancy status has not been established.", "preferredTerm": "Odontogenic Neoplasm", "submissionValue": "ODONTOGENIC TUMOR, UNDETERMINED", "synonyms": ["ODONTOGENIC TUMOR"]}, {"conceptId": "C3710", "definition": "A benign neoplasm arising from tooth-forming tissues with-enamel organ differentiation (but without enamel formation).", "preferredTerm": "Ameloblastic Fibro-Odontoma", "submissionValue": "ODONTOMA, AMELOBLASTIC, BENIGN", "synonyms": ["AMELOBLASTIC FIBROODONTOMA", "FIBROAMELOBLASTIC ODONTOMA"]}, {"conceptId": "C7492", "definition": "A malignant neoplasm arising from tooth-forming tissues with-enamel organ differentiation (but without enamel formation).", "preferredTerm": "Ameloblastic Carcinoma", "submissionValue": "ODONTOMA, AMELOBLASTIC, MALIGNANT"}, {"conceptId": "C3287", "definition": "A benign neoplasm of tooth origin.", "preferredTerm": "Odontoma", "submissionValue": "ODONTOMA, BENIGN", "synonyms": ["FIBRO-ODONTOMA", "FIBROODONTOMA"]}, {"conceptId": "C4812", "definition": "A malignant neoplasm of tooth origin.", "preferredTerm": "Malignant Odontogenic Neoplasm", "submissionValue": "ODONTOMA, MALIGNANT", "synonyms": ["MALIGNANT ODONTOGENIC TUMOR", "ODONTOGENIC CARCINOMA", "ODONTOGENIC CARCINOSARCOMA"]}, {"conceptId": "C4326", "definition": "A malignant neoplasm of the central nervous system arising from oligodendrocytes, exhibiting poor differentiation (anaplasia).", "preferredTerm": "Anaplastic Oligodendroglioma", "submissionValue": "OLIGODENDROGLIOMA, ANAPLASTIC, MALIGNANT", "synonyms": ["MALIGNANT", "MALIGNANT OLIGODENDROGLIOMA", "OLIGODENDROGLIOMA", "UNDIFFERENTIATED OLIGODENDROGLIOMA", "WHO GRADE III OLIGODENDROGLIAL NEOPLASM", "WHO GRADE III OLIGODENDROGLIAL TUMOR"]}, {"conceptId": "C3288", "definition": "A neoplasm of the central nervous system arising from oligodendrocytes, for which the malignancy status has not been determined.", "preferredTerm": "Oligodendroglioma", "submissionValue": "OLIGODENDROGLIOMA, UNDETERMINED", "synonyms": ["WELL DIFFERENTIATED OLIGODENDROGLIAL TUMOR", "WELL DIFFERENTIATED OLIGODENDROGLIOMA", "WHO GRADE II OLIGODENDROGLIAL NEOPLASM", "WHO GRADE II OLIGODENDROGLIAL TUMOR"]}, {"conceptId": "C7072", "definition": "A benign neoplasm composed of large cells with abundant eosinophilic granular cytoplasm (oncocytes).", "preferredTerm": "Oncocytic Neoplasm", "submissionValue": "ONCOCYTOMA, BENIGN", "synonyms": ["ONCOCYTIC TUMOR", "ONCOCYTOMA"]}, {"conceptId": "C3679", "definition": "A malignant neoplasm composed of large epithelial cells with abundant granular eosinophilic cytoplasm (oncocytes).", "preferredTerm": "Oxyphilic Adenocarcinoma", "submissionValue": "ONCOCYTOMA, MALIGNANT", "synonyms": ["HURTHLE CELL ADENOCARCINOMA", "HURTHLE CELL CARCINOMA", "ONCOCYTIC ADENOCARCINOMA", "ONCOCYTIC CARCINOMA"]}, {"conceptId": "C3294", "definition": "A benign neoplasm of bone, characterized by the formation of osteoid tissue and large osteoblast-like cells.", "preferredTerm": "Osteoblastoma", "submissionValue": "OSTEOBLASTOMA, BENIGN", "synonyms": ["GIANT OSTEOID OSTEOMA", "OSSIFYING GIANT CELL TUMOR"]}, {"conceptId": "C3295", "definition": "A benign cartiliginous neoplasm arising from the metaphysis of bone.", "preferredTerm": "Osteochondroma", "submissionValue": "OSTEOCHONDROMA, BENIGN"}, {"conceptId": "C7155", "definition": "A malignant cartiliginous neoplasm of bone.", "preferredTerm": "Conventional Chondrosarcoma", "submissionValue": "OSTEOCHONDROSARCOMA, MALIGNANT", "synonyms": ["CONVENTIONAL CHONDROSARCOMA OF BONE", "PRIMARY BONE CHONDROSARCOMA", "PRIMARY CHONDROSARCOMA", "PRIMARY CHONDROSARCOMA OF BONE", "PRIMARY CHONDROSARCOMA OF THE BONE"]}, {"conceptId": "C4304", "definition": "A malignant neoplasm of bone comprised of osteoclast-like giant cells and mononuclear cells.", "preferredTerm": "Malignant Giant Cell Tumor of Bone", "submissionValue": "OSTEOCLASTOMA, MALIGNANT", "synonyms": ["DEDIFFERENTIATED GIANT CELL TUMOR", "GIANT CELL BONE SARCOMA", "GIANT CELL SARCOMA OF BONE", "GIANT CELL SARCOMA OF THE BONE"]}, {"conceptId": "C3738", "definition": "A neoplasm of bone comprised of osteoclast-like giant cells and mononuclear cells, for which the malignancy status has not been established.", "preferredTerm": "Giant Cell Tumor of Bone", "submissionValue": "OSTEOCLASTOMA, UNDETERMINED", "synonyms": ["BONE GIANT CELL NEOPLASM", "BONE GIANT CELL TUMOR", "GIANT CELL NEOPLASM OF BONE"]}, {"conceptId": "C3740", "definition": "A benign neoplasm characterized by osteolysis and the presence of a rich collagenous stroma and spindle cells.", "preferredTerm": "Bone Desmoplastic Fibroma", "submissionValue": "OSTEOFIBROMA, BENIGN", "synonyms": ["DESMOID TUMOR OF BONE", "DESMOPLASTIC FIBROMA", "DESMOPLASTIC FIBROMA OF BONE", "DESMOPLASTIC FIBROMA OF THE BONE", "OSSEOUS DESMOPLASTIC FIBROMA"]}, {"conceptId": "C103392", "definition": "A benign neoplasm, morphologically a fibroma with osseous components.", "preferredTerm": "Experimental Organism Benign Bone Osteofibroma", "submissionValue": "OSTEOFIBROMA, BONE, BENIGN", "synonyms": ["OSTEOFIBROMA, BONE"]}, {"conceptId": "C3296", "definition": "A benign well-differentiated neoplasm of bone.", "preferredTerm": "Osteoma", "submissionValue": "OSTEOMA, BENIGN"}, {"conceptId": "C8810", "definition": "A malignant bone-forming neoplasm, arising in tissue other than bone.", "preferredTerm": "Extraskeletal Osteosarcoma", "submissionValue": "OSTEOSARCOMA, EXTRASKELETAL, MALIGNANT", "synonyms": ["EXTRAOSSEOUS OSTEOSARCOMA", "EXTRASKELETAL OSTEOGENIC SARCOMA", "SOFT TISSUE OSTEOSARCOMA"]}, {"conceptId": "C9145", "definition": "A malignant neoplasm usually arising from bone.", "preferredTerm": "Osteosarcoma", "submissionValue": "OSTEOSARCOMA, MALIGNANT", "synonyms": ["OSTEOGENIC SARCOMA"]}, {"conceptId": "C6803", "definition": "A benign neoplasm of the ovary, originating from the sex-cord stroma.", "preferredTerm": "Benign Ovarian Sex Cord-Stromal Tumor", "submissionValue": "OVARIAN SEX CORD-STROMAL TUMOR, BENIGN", "synonyms": ["BENIGN OVARIAN SEX CORD-STROMAL NEOPLASM", "BENIGN SEX CORD-STROMAL NEOPLASM OF OVARY", "BENIGN SEX CORD-STROMAL NEOPLASM OF THE OVARY", "BENIGN SEX CORD-STROMAL TUMOR OF OVARY", "BENIGN SEX CORD-STROMAL TUMOR OF THE OVARY", "SEX CORD STROMAL TUMOR, BENIGN"]}, {"conceptId": "C7440", "definition": "A benign epithelial neoplasm that projects above the surrounding epithelial surface.", "preferredTerm": "Papilloma", "submissionValue": "PAPILLOMA, BENIGN"}, {"conceptId": "C3698", "definition": "A benign neoplasm of the choroid plexus of the central nervous system.", "preferredTerm": "Choroid Plexus Papilloma", "submissionValue": "PAPILLOMA, CHOROID PLEXUS, BENIGN", "synonyms": ["PAPILLOMA OF CHOROID PLEXUS", "PAPILLOMA OF THE CHOROID PLEXUS"]}, {"conceptId": "C3712", "definition": "A benign epithelial neoplasm characterized by a papillary growth pattern and a proliferation of neoplastic squamous cells.", "preferredTerm": "Squamous Papilloma", "submissionValue": "PAPILLOMA, SQUAMOUS CELL, BENIGN", "synonyms": ["EPIDERMOID CELL PAPILLOMA", "EPIDERMOID PAPILLOMA", "KERATOTIC PAPILLOMA", "SQUAMOUS CELL PAPILLOMA"]}, {"conceptId": "C4115", "definition": "A benign papillary neoplasm composed of transitional cells.", "preferredTerm": "Transitional Cell Papilloma", "submissionValue": "PAPILLOMA, TRANSITIONAL CELL, BENIGN", "synonyms": ["TRANSITIONAL PAPILLOMA"]}, {"conceptId": "C48314", "definition": "A benign neoplasm arising from paraganglia located along nerves composed of neoplastic neuroectodermal chromaffin cells.", "preferredTerm": "Benign Paraganglioma", "submissionValue": "PARAGANGLIOMA, BENIGN", "synonyms": ["BENIGN NEUROENDOCRINE CELL TUMOR", "BENIGN PARAGANGLIONIC NEOPLASM"]}, {"conceptId": "C8559", "definition": "A malignant neoplasm arising from paraganglia located along nerves composed of neoplastic neuroectodermal chromaffin cells.", "preferredTerm": "Malignant Paraganglioma", "submissionValue": "PARAGANGLIOMA, MALIGNANT", "synonyms": ["MALIGNANT", "MALIGNANT NEOPLASM OF PARAGANGLION", "MALIGNANT NEOPLASM OF THE PARAGANGLION", "MALIGNANT PARAGANGLION NEOPLASM", "MALIGNANT PARAGANGLION TUMOR", "MALIGNANT PARAGANGLIONIC NEOPLASM", "MALIGNANT PARAGANGLIONIC TUMOR", "MALIGNANT TUMOR OF PARAGANGLION", "MALIGNANT TUMOR OF THE PARAGANGLION", "PARAGANGLION NEOPLASM"]}, {"conceptId": "C3308", "definition": "A neoplasm arising from paraganglia located along nerves composed of neoplastic neuroectodermal chromaffin cells, for which the malignancy status has not been established.", "preferredTerm": "Paraganglioma", "submissionValue": "PARAGANGLIOMA, UNDETERMINED", "synonyms": ["NEOPLASM OF PARAGANGLION", "NEOPLASM OF THE PARAGANGLION", "PARAGANGLION NEOPLASM", "PARAGANGLION TUMOR", "PARAGANGLIONIC NEOPLASM", "PARAGANGLIONIC TUMOR", "TUMOR OF PARAGANGLION", "TUMOR OF THE PARAGANGLION"]}, {"conceptId": "C96805", "definition": "A malignant intrahepatic neoplasm arising from the small interlobular bile ducts.", "preferredTerm": "Peripheral Intrahepatic Cholangiocarcinoma", "submissionValue": "PERIPHERAL CHOLANGIOCARCINOMA, MALIGNANT", "synonyms": ["PERIPHERAL CHOLANGIOCARCINOMA"]}, {"conceptId": "C3798", "definition": "A malignant neoplasm, originating from the sheaths of the peripheral nerve.", "preferredTerm": "Malignant Peripheral Nerve Sheath Tumor", "submissionValue": "PERIPHERAL NERVE SHEATH TUMOR, MALIGNANT", "synonyms": ["MALIGNANT NEOPLASM OF PERIPHERAL NERVE SHEATH", "MALIGNANT NEOPLASM OF THE PERIPHERAL NERVE SHEATH", "MALIGNANT NEURILEMMOMA", "MALIGNANT NEURILEMOMA", "MALIGNANT PERIPHERAL NERVE SHEATH NEOPLASM", "MALIGNANT PERIPHERAL NERVE SHEATH TUMOUR", "MALIGNANT SCHWANNOMA", "MALIGNANT TUMOR OF PERIPHERAL NERVE SHEATH", "MALIGNANT TUMOR OF THE PERIPHERAL NERVE SHEATH", "MPNST", "NEUROFIBROSARCOMA, MALIGNANT"]}, {"conceptId": "C48305", "definition": "A benign neoplasm of the adrenal gland medulla.", "preferredTerm": "Benign Adrenal Gland Pheochromocytoma", "submissionValue": "PHEOCHROMOCYTOMA, BENIGN"}, {"conceptId": "C92181", "definition": "A benign neoplasm of the adrenal gland medulla, composed of medullary and neuroectodermal components.", "preferredTerm": "Benign Adrenal Gland Composite Pheochromocytoma", "submissionValue": "PHEOCHROMOCYTOMA, COMPLEX, BENIGN"}, {"conceptId": "C92184", "definition": "A malignant neoplasm of the adrenal gland medulla, composed of medullary and neuroectodermal components.", "preferredTerm": "Malignant Adrenal Gland Composite Pheochromocytoma", "submissionValue": "PHEOCHROMOCYTOMA, COMPLEX, MALIGNANT"}, {"conceptId": "C48306", "definition": "A neoplasm of the adrenal gland medulla, composed of medullary and neuroectodermal components, for which the malignancy status has not been established.", "preferredTerm": "Adrenal Gland Composite Pheochromocytoma", "submissionValue": "PHEOCHROMOCYTOMA, COMPLEX, UNDETERMINED"}, {"conceptId": "C4220", "definition": "A malignant neoplasm of the adrenal gland medulla.", "preferredTerm": "Malignant Adrenal Gland Pheochromocytoma", "submissionValue": "PHEOCHROMOCYTOMA, MALIGNANT", "synonyms": ["MALIGNANT ADRENAL GLAND CHROMAFFIN NEOPLASM", "MALIGNANT ADRENAL GLAND CHROMAFFIN PARAGANGLIOMA", "MALIGNANT ADRENAL GLAND CHROMAFFIN TUMOR", "MALIGNANT ADRENAL GLAND CHROMAFFINOMA", "MALIGNANT ADRENAL GLAND PARAGANGLIOMA", "MALIGNANT ADRENAL MEDULLARY PARAGANGLIOMA", "MALIGNANT ADRENAL MEDULLARY PHEOCHROMOCYTOMA", "MALIGNANT ADRENAL PHEOCHROMOCYTOMA", "MALIGNANT PHEOCHROMOCYTOMA", "PHEOCHROMOBLASTOMA"]}, {"conceptId": "C3326", "definition": "A neoplasm of the adrenal gland medulla, for which the malignancy status has not been established.", "preferredTerm": "Adrenal Gland Pheochromocytoma", "submissionValue": "PHEOCHROMOCYTOMA, UNDETERMINED", "synonyms": ["ADRENAL GLAND CHROMAFFIN PARAGANGLIOMA", "ADRENAL GLAND CHROMAFFINOMA", "ADRENAL GLAND PARAGANGLIOMA", "ADRENAL MEDULLARY PARAGANGLIOMA", "ADRENAL MEDULLARY PHEOCHROMOCYTOMA", "ADRENAL PHEOCHROMOCYTOMA", "CHROMAFFIN PARAGANGLIOMA OF THE ADRENAL GLAND", "INTRAADRENAL PARAGANGLIOMA", "PCC", "PHAEOCHROMOCYTOMA", "PHEOCHROMOCYTOMA"]}, {"conceptId": "C7368", "definition": "A benign adnexal neoplasm arising from hair-bearing skin surfaces.", "preferredTerm": "Pilomatricoma", "submissionValue": "PILOMATRIXOMA, BENIGN", "synonyms": ["BENIGN HAIR FOLLICLE NEOPLASM", "BENIGN PILOMATRICOMA", "BENIGN PILOMATRIXOMA", "CALCIFYING EPITHERLIOMA OF MALHERBE", "PILOMATRIXOMA"]}, {"conceptId": "C9344", "definition": "A poorly differentiated malignant embryonal neoplasm arising from the pineal region of the brain.", "preferredTerm": "Pineoblastoma", "submissionValue": "PINEOBLASTOMA, MALIGNANT", "synonyms": ["PINEAL GLAND PNET", "PINEAL GLAND PRIMITIVE NEUROECTODERMAL NEOPLASM", "PINEAL GLAND PRIMITIVE NEUROECTODERMAL TUMOR", "PINEAL PNET", "PINEAL PRIMITIVE NEUROECTODERMAL NEOPLASM", "PINEAL PRIMITIVE NEUROECTODERMAL TUMOR", "PNET OF PINEAL GLAND", "PNET OF THE PINEAL GLAND", "PRIMITIVE NEUROECTODERMAL NEOPLASM OF PINEAL GLAND", "PRIMITIVE NEUROECTODERMAL NEOPLASM OF THE PINEAL GLAND", "PRIMITIVE NEUROECTODERMAL TUMOR OF PINEAL GLAND", "PRIMITIVE NEUROECTODERMAL TUMOR OF THE PINEAL GLAND"]}, {"conceptId": "C6966", "definition": "A benign neoplasm of the brain arising from the pineal gland.", "preferredTerm": "Pineocytoma", "submissionValue": "PINEOCYTOMA, BENIGN", "synonyms": ["BENIGN PINEALOMA", "PINEALOMA"]}, {"conceptId": "C7157", "definition": "A neoplasm arising from the posterior lobe of the pituitary gland.", "preferredTerm": "Posterior Pituitary Gland Neoplasm", "submissionValue": "PITUICYTOMA, BENIGN", "synonyms": ["NEUROHYPOPHYSIS NEOPLASM", "NEUROHYPOPHYSIS TUMOR", "POSTERIOR PITUITARY GLAND TUMOR", "POSTERIOR PITUITARY NEOPLASM", "POSTERIOR PITUITARY TUMOR"]}, {"conceptId": "C4665", "definition": "A malignant neoplasm composed of plasma cells.", "preferredTerm": "Plasma Cell Neoplasm", "submissionValue": "PLASMA CELL TUMOR, MALIGNANT", "synonyms": ["PLASMA CELL DYSCRASIA", "PLASMA CELL TUMOR", "PLASMACYTIC NEOPLASM", "PLASMACYTIC TUMOR"]}, {"conceptId": "C3764", "definition": "A neoplasm, originating from glandular epithelium, exhibiting polypoid growth, for which the malignancy status has not been determined.", "preferredTerm": "Adenomatous Polyp", "submissionValue": "POLYP, ADENOMATOUS, UNDETERMINED", "synonyms": ["POLYPOID ADENOMA"]}, {"conceptId": "C112275", "definition": "A benign polypoid neoplasm of an epithelial lining projecting into a lumen or cavity.", "preferredTerm": "Experimental Organism Benign Polyp", "submissionValue": "POLYP, BENIGN"}, {"conceptId": "C6433", "definition": "A benign polypoid neoplasm of the endometrium projecting into the endometrial cavity.", "preferredTerm": "Endometrial Polyp", "submissionValue": "POLYP, ENDOMETRIAL STROMAL, BENIGN", "synonyms": ["ADENOMA, ENDOMETRIAL", "ENDOMETRIAL ADENOMA", "ENDOMETRIAL STROMAL POLYP", "GLANDULAR ENDOMETRIAL POLYP", "POLYP OF ENDOMETRIUM", "POLYP OF THE ENDOMETRIUM", "POLYP, STROMAL"]}, {"conceptId": "C3340", "definition": "A protruding growth attached to the underlying tissue by a broad base or a thin stalk, which can be either inflammatory, hamartomatous, or neoplastic.", "preferredTerm": "Polyp", "submissionValue": "POLYP, UNDETERMINED"}, {"conceptId": "C3664", "definition": "A benign polypoid growth arising from the vaginal wall.", "preferredTerm": "Vaginal Polyp", "submissionValue": "POLYP, VAGINAL, BENIGN", "synonyms": ["POLYP OF THE VAGINA", "POLYP OF VAGINA"]}, {"conceptId": "C4684", "definition": "A malignant lymphoid neoplasm composed of EBV-positive NK/T cells arranged in an angiocentric pattern.", "preferredTerm": "Nasal Type Extranodal NK/T-Cell Lymphoma", "submissionValue": "RETICULOSIS, MALIGNANT", "synonyms": ["ANGIOCENTRIC T-CELL LYMPHOMA"]}, {"conceptId": "C7541", "definition": "A malignant neoplasm originating in the nuclear layer of the retina.", "preferredTerm": "Retinoblastoma", "submissionValue": "RETINOBLASTOMA, MALIGNANT", "synonyms": ["RB"]}, {"conceptId": "C3358", "definition": "A benign neoplasm arising from skeletal muscle, characterized by the presence of rhabdomyoblasts.", "preferredTerm": "Rhabdomyoma", "submissionValue": "RHABDOMYOMA, BENIGN"}, {"conceptId": "C3359", "definition": "A malignant mesenchymal neoplasm arising from skeletal muscle.", "preferredTerm": "Rhabdomyosarcoma", "submissionValue": "RHABDOMYOSARCOMA, MALIGNANT"}, {"conceptId": "C35815", "definition": "A malignant neoplasm composed of myeloblasts, neutrophils and neutrophil precursors.", "preferredTerm": "Granulocytic Sarcoma", "submissionValue": "SARCOMA, GRANULOCYTIC, MALIGNANT"}, {"conceptId": "C27349", "definition": "A malignant neoplasm composed of cells resembling histiocytes.", "preferredTerm": "Histiocytic Sarcoma", "submissionValue": "SARCOMA, HISTIOCYTIC, MALIGNANT"}, {"conceptId": "C8312", "definition": "A malignant mesenchymal neoplasm arising from the leptomeninges.", "preferredTerm": "Leptomeningeal Sarcoma", "submissionValue": "SARCOMA, LEPTOMENINGEAL, MALIGNANT", "synonyms": ["SARCOMA OF LEPTOMENINGES", "SARCOMA OF THE LEPTOMENINGES", "SARCOMA, MENINGEAL"]}, {"conceptId": "C9118", "definition": "A malignant mesenchymal neoplasm. A general term for which the transformed cell type has not been specified.", "preferredTerm": "Sarcoma", "submissionValue": "SARCOMA, MALIGNANT", "synonyms": ["MESENCHYMAL TUMOR, MALIGNANT", "SARCOMA", "SARCOMA OF SOFT TISSUE AND BONE", "SARCOMA OF THE SOFT TISSUE AND BONE"]}, {"conceptId": "C3520", "definition": "A malignant neoplasm composed of myeloblasts or immature myeloid cells. It occurs in extramedullary sites or the bone.", "preferredTerm": "Myeloid Sarcoma", "submissionValue": "SARCOMA, MYELOID, MALIGNANT", "synonyms": ["CHLOROMA", "EXTRAMEDULLARY MYELOID TUMOR"]}, {"conceptId": "C3400", "definition": "A malignant neoplasm that usually arises in the synovial membranes of the joints and the synovial cells of the tendons and bursae.", "preferredTerm": "Synovial Sarcoma", "submissionValue": "SARCOMA, SYNOVIAL, MALIGNANT", "synonyms": ["SS"]}, {"conceptId": "C27096", "definition": "A rare malignant neoplasm of the liver that is most common in youth.", "preferredTerm": "Undifferentiated (Embryonal) Sarcoma", "submissionValue": "SARCOMA, UNDIFFERENTIATED, MALIGNANT", "synonyms": ["EMBRYONAL SARCOMA, UNDIFFERENTIATED"]}, {"conceptId": "C3269", "definition": "A benign neoplasm of the peripheral nervous system composed of well-differentiated Schwann cells.", "preferredTerm": "Schwannoma", "submissionValue": "SCHWANNOMA, BENIGN", "synonyms": ["NEURILEMMOMA", "NEURINOMA", "SCHWANNOMA", "SCHWANNOMA (WHO GRADE I)"]}, {"conceptId": "C112276", "definition": "A benign germ cell neoplasm of the testis.", "preferredTerm": "Experimental Organism Benign Seminoma", "submissionValue": "SEMINOMA, BENIGN"}, {"conceptId": "C9309", "definition": "A malignant germ cell neoplasm of the testis.", "preferredTerm": "Seminoma", "submissionValue": "SEMINOMA, MALIGNANT", "synonyms": ["SEMINOMA", "SEMINOMA, PURE"]}, {"conceptId": "C67012", "definition": "A benign neoplasm of the testis or ovary, originating from Sertoli cells.", "preferredTerm": "Benign Sertoli Cell Tumor", "submissionValue": "SERTOLI CELL TUMOR, BENIGN", "synonyms": ["BENIGN ANDROBLASTOMA"]}, {"conceptId": "C67006", "definition": "A malignant neoplasm of the testis or ovary, originating from Sertoli cells.", "preferredTerm": "Malignant Sertoli Cell Tumor", "submissionValue": "SERTOLI CELL TUMOR, MALIGNANT", "synonyms": ["MALIGNANT ANDROBLASTOMA"]}, {"conceptId": "C98794", "definition": "An ovarian neoplasm comprising Sertoli cells in which the malignancy status has not been established.", "preferredTerm": "Undetermined Sertoli Cell Tumor", "submissionValue": "SERTOLI CELL TUMOR, UNDETERMINED"}, {"conceptId": "C6569", "definition": "A congenital malignant neoplasm of the kidney characterized by the presence of fibroblastic cells.", "preferredTerm": "Congenital Mesoblastic Nephroma", "submissionValue": "STROMAL NEPHROMA, MALIGNANT", "synonyms": ["CMN", "MESOBLASTIC NEPHROMA"]}, {"conceptId": "C8973", "definition": "A malignant, mesenchymal tumor of the uterine stroma.", "preferredTerm": "Endometrioid Stromal Sarcoma", "submissionValue": "STROMAL SARCOMA, ENDOMETRIAL, MALIGNANT", "synonyms": ["ESS"]}, {"conceptId": "C6926", "definition": "A malignant neoplasm characterized by the presence of atypical mesenchymal-stromal cells.", "preferredTerm": "Stromal Sarcoma", "submissionValue": "STROMAL SARCOMA, MALIGNANT", "synonyms": ["STROMAL TUMOR, MALIGNANT"]}, {"conceptId": "C114113", "definition": "A benign neoplasm composed of mesenchymal stromal cells.", "preferredTerm": "Experimental Organism Benign Stromal Tumor Neoplasm", "submissionValue": "STROMAL TUMOR, BENIGN"}, {"conceptId": "C67561", "definition": "A malignant neoplasm originating from the gonadal sex cord stroma.", "preferredTerm": "Malignant Sex Cord-Stromal Tumor", "submissionValue": "STROMAL TUMOR, GONADAL, MALIGNANT", "synonyms": ["SEX CORD STROMAL TUMOR, MALIGNANT"]}, {"conceptId": "C3794", "definition": "A neoplasm originating from the gonadal sex cord stroma, for which the status of malignancy has not been determined.", "preferredTerm": "Sex Cord-Stromal Tumor", "submissionValue": "STROMAL TUMOR, GONADAL, UNDETERMINED", "synonyms": ["SEX CORD-STROMAL NEOPLASM", "SEX CORD-STROMAL TUMOR, UNDETERMINED"]}, {"conceptId": "C3795", "definition": "A benign neoplasm of the brain localized in the vicinity of a ventricular wall and is composed of glial tumor cell clusters embedded in an abundant fibrillary matrix with frequent microcystic changes.", "preferredTerm": "Subependymoma", "submissionValue": "SUBEPENDYMOMA, BENIGN", "synonyms": ["SUBEPENDYMAL GLIOMA", "WHO GRADE I EPENDYMAL NEOPLASM", "WHO GRADE I EPENDYMAL TUMOR"]}, {"conceptId": "C3829", "definition": "A benign neoplasm arising from the synovial membrane.", "preferredTerm": "Benign Synovial Neoplasm", "submissionValue": "SYNOVIOMA, BENIGN", "synonyms": ["BENIGN NEOPLASM OF SYNOVIUM", "BENIGN NEOPLASM OF THE SYNOVIUM", "BENIGN SYNOVIAL TUMOR", "BENIGN SYNOVIOMA", "BENIGN TUMOR OF SYNOVIUM", "BENIGN TUMOR OF THE SYNOVIUM"]}, {"conceptId": "C114114", "definition": "A benign germ-cell neoplasm derived from pluripotent cells and consisting of components from one or more of the three germ-cell layers.", "preferredTerm": "Experimental Organism Benign Teratoma Neoplasm", "submissionValue": "TERATOMA, BENIGN"}, {"conceptId": "C4286", "definition": "A malignant germ-cell neoplasm derived from pluripotent cells and consisting of components from one or more of the three germ-cell layers.", "preferredTerm": "Immature Teratoma", "submissionValue": "TERATOMA, MALIGNANT", "synonyms": ["IMMATURE TERATOMA"]}, {"conceptId": "C3403", "definition": "A germ-cell neoplasm derived from pluripotent cells and consisting of components from one or more of the three germ-cell layers, for which the malignancy status has not been established.", "preferredTerm": "Teratoma", "submissionValue": "TERATOMA, UNDETERMINED"}, {"conceptId": "C5219", "definition": "A benign sex-cord neoplasm of the ovary, originating from theca cells.", "preferredTerm": "Benign Ovarian Thecoma", "submissionValue": "THECOMA, BENIGN", "synonyms": ["BENIGN OVARIAN THECAL CELL NEOPLASM", "BENIGN OVARIAN THECAL CELL TUMOR", "BENIGN THECAL CELL NEOPLASM OF OVARY", "BENIGN THECAL CELL NEOPLASM OF THE OVARY", "BENIGN THECAL CELL TUMOR OF OVARY", "BENIGN THECAL CELL TUMOR OF THE OVARY", "BENIGN THECOMA OF OVARY", "BENIGN THECOMA OF THE OVARY", "THECAL CELL TUMOR, BENIGN"]}, {"conceptId": "C6929", "definition": "A malignant sex-cord neoplasm of the ovary, originating from theca cells.", "preferredTerm": "Malignant Ovarian Thecoma", "submissionValue": "THECOMA, OVARIAN, MALIGNANT", "synonyms": ["MALIGNANT OVARIAN THECAL CELL NEOPLASM", "MALIGNANT OVARIAN THECAL CELL TUMOR", "MALIGNANT THECAL CELL NEOPLASM OF OVARY", "MALIGNANT THECAL CELL NEOPLASM OF THE OVARY", "MALIGNANT THECAL CELL TUMOR OF OVARY", "MALIGNANT THECAL CELL TUMOR OF THE OVARY", "MALIGNANT THECOMA OF OVARY", "MALIGNANT THECOMA OF THE OVARY", "THECOMA, MALIGNANT"]}, {"conceptId": "C114115", "definition": "A benign neoplasm of the thymus, originating from epithelial thymus cells.", "preferredTerm": "Experimental Organism Benign Thymoma Neoplasm", "submissionValue": "THYMOMA, BENIGN"}, {"conceptId": "C7612", "definition": "A malignant neoplasm of the thymus, originating from epithelial thymus cells.", "preferredTerm": "Malignant Thymoma", "submissionValue": "THYMOMA, MALIGNANT"}, {"conceptId": "C3411", "definition": "A neoplasm of the thymus, originating from epithelial thymus cells, for which the malignancy status has not been established.", "preferredTerm": "Thymoma", "submissionValue": "THYMOMA, UNDETERMINED"}, {"conceptId": "C27132", "definition": "A benign hair follicle neoplasm with trichoblastic differentiation.", "preferredTerm": "Trichoblastoma", "submissionValue": "TRICHOEPITHELIOMA, BENIGN", "synonyms": ["BROOKE'S TUMOR", "TRICHOEPITHELIOMA", "TRICHOGENIC ADNEXAL TUMOR", "TRICHOGENIC TRICHOBLASTOMA"]}, {"conceptId": "C84357", "definition": "A benign epithelial neoplasm arising from the yolk sac.", "preferredTerm": "Yolk Sac Adenoma", "submissionValue": "YOLK SAC TUMOR, BENIGN"}, {"conceptId": "C3011", "definition": "A non-seminomatous malignant germ cell tumor composed of primitive germ cells and which produce an eosinophilic substance (alpha-fetoprotein).", "preferredTerm": "Yolk Sac Tumor", "submissionValue": "YOLK SAC TUMOR, MALIGNANT", "synonyms": ["ENDODERMAL SINUS NEOPLASM", "ENDODERMAL SINUS TUMOR", "YOLK SAC NEOPLASM", "YOLK SAC TUMOR SITE UNSPECIFIED"]}]}