{"_links": {"parentPackage": {"href": "/mdr/ct/packages/sendct-2014-09-26", "title": "SEND Controlled Terminology Package 19 Effective 2014-09-26", "type": "Terminology"}, "rootItem": {"href": "/mdr/root/ct/sendct/codelists/C89974", "title": "Version-agnostic anchor resource for codelist C89974", "type": "Root Value Domain"}, "self": {"href": "/mdr/ct/packages/sendct-2014-09-26/codelists/C89974", "title": "CDISC SEND Microscopic Findings Test Code Terminology", "type": "Code List"}}, "conceptId": "C89974", "definition": "Terminology for the test codes concerned with the findings from a specimen that are visible by microscopic analysis.", "extensible": "true", "name": "Microscopic Findings Test Code", "preferredTerm": "CDISC SEND Microscopic Findings Test Code Terminology", "submissionValue": "MITESTCD", "synonyms": ["Microscopic Findings Test Code"], "terms": [{"conceptId": "C90424", "definition": "An assessment by microscope (e.g., light, electron, confocal, etc.).", "preferredTerm": "Microscopic Examination", "submissionValue": "MIEXAM", "synonyms": ["Microscopic Examination"]}]}