{"_links": {"parentPackage": {"href": "/mdr/ct/packages/sendct-2014-09-26", "title": "SEND Controlled Terminology Package 19 Effective 2014-09-26", "type": "Terminology"}, "rootItem": {"href": "/mdr/root/ct/sendct/codelists/C89973", "title": "Version-agnostic anchor resource for codelist C89973", "type": "Root Value Domain"}, "self": {"href": "/mdr/ct/packages/sendct-2014-09-26/codelists/C89973", "title": "CDISC SEND Microscopic Findings Test Name Terminology", "type": "Code List"}}, "conceptId": "C89973", "definition": "Terminology for the test names concerned with the findings from a specimen that are visible by microscopic analysis.", "extensible": "true", "name": "Microscopic Findings Test Name", "preferredTerm": "CDISC SEND Microscopic Findings Test Name Terminology", "submissionValue": "MITEST", "synonyms": ["Microscopic Findings Test Name"], "terms": [{"conceptId": "C90424", "definition": "An assessment by microscope (e.g., light, electron, confocal, etc.).", "preferredTerm": "Microscopic Examination", "submissionValue": "Microscopic Examination", "synonyms": ["Microscopic Examination"]}]}