{"_links": {"parentPackage": {"href": "/mdr/ct/packages/sendct-2014-09-26", "title": "SEND Controlled Terminology Package 19 Effective 2014-09-26", "type": "Terminology"}, "rootItem": {"href": "/mdr/root/ct/sendct/codelists/C89965", "title": "Version-agnostic anchor resource for codelist C89965", "type": "Root Value Domain"}, "self": {"href": "/mdr/ct/packages/sendct-2014-09-26/codelists/C89965", "title": "CDISC SEND Death Diagnosis Test Name Terminology", "type": "Code List"}}, "conceptId": "C89965", "definition": "Terminology for the test names concerned with the circumstance or condition that results in the death of a living being.", "extensible": "false", "name": "Death Diagnosis Test Name", "preferredTerm": "CDISC SEND Death Diagnosis Test Name Terminology", "submissionValue": "DDTEST", "synonyms": ["Death Diagnosis Test Name"], "terms": [{"conceptId": "C81239", "definition": "The circumstance or condition that results in the death of a living being. (NCI)", "preferredTerm": "Cause of Death", "submissionValue": "Death Diagnosis", "synonyms": ["Death Diagnosis"]}]}