{"_links": {"parentPackage": {"href": "/mdr/ct/packages/cdashct-2020-12-18", "title": "CDASH Controlled Terminology Package 44 Effective 2020-12-18", "type": "Terminology"}, "priorVersion": {"href": "/mdr/ct/packages/cdashct-2020-11-06/codelists/C78419", "title": "CDISC CDASH Concomitant Medication Dosing Frequency per Interval Terminology", "type": "Code List"}, "rootItem": {"href": "/mdr/root/ct/cdashct/codelists/C78419", "title": "Version-agnostic anchor resource for codelist C78419", "type": "Root Value Domain"}, "self": {"href": "/mdr/ct/packages/cdashct-2020-12-18/codelists/C78419", "title": "CDISC CDASH Concomitant Medication Dosing Frequency per Interval Terminology", "type": "Code List"}}, "conceptId": "C78419", "definition": "A terminology subset of the CDISC SDTM Frequency codelist created for CDASH Concomitant Medication Dosing Frequency per Interval codelist. (NCI)", "extensible": "true", "name": "Concomitant Medication Dosing Frequency per Interval", "preferredTerm": "CDISC CDASH Concomitant Medication Dosing Frequency per Interval Terminology", "submissionValue": "CMDOSFRQ", "synonyms": ["Concomitant Medication Dosing Frequency per Interval"], "terms": [{"conceptId": "C64496", "definition": "Two times per day, at unspecified times. (NCI)", "preferredTerm": "Twice Daily", "submissionValue": "BID", "synonyms": ["BD", "Twice per day"]}, {"conceptId": "C64499", "definition": "As needed. (NCI)", "preferredTerm": "As Needed", "submissionValue": "PRN", "synonyms": ["As needed"]}, {"conceptId": "C25473", "definition": "A rate of occurrences within a period of time equal to one day.", "preferredTerm": "Daily", "submissionValue": "QD", "synonyms": ["Daily"]}, {"conceptId": "C64530", "definition": "Four times per day. (NCI)", "preferredTerm": "Four Times Daily", "submissionValue": "QID", "synonyms": ["4 times per day"]}, {"conceptId": "C64498", "definition": "Every month. (NCI)", "preferredTerm": "Monthly", "submissionValue": "QM", "synonyms": ["Every Month", "Per Month"]}, {"conceptId": "C64525", "definition": "Every other day. (NCI)", "preferredTerm": "Every Other Day", "submissionValue": "QOD", "synonyms": ["Every Second Day", "Every Two Days", "Every other day", "Q2D"]}, {"conceptId": "C64527", "definition": "Three times per day. (NCI)", "preferredTerm": "Three Times Daily", "submissionValue": "TID", "synonyms": ["3 times per day"]}, {"conceptId": "C17998", "definition": "Not known, not observed, not recorded, or refused. (NCI)", "preferredTerm": "Unknown", "submissionValue": "UNKNOWN", "synonyms": ["U", "UNK", "Unknown"]}]}