{"_links": {"parentPackage": {"href": "/mdr/ct/packages/cdashct-2020-12-18", "title": "CDASH Controlled Terminology Package 44 Effective 2020-12-18", "type": "Terminology"}, "priorVersion": {"href": "/mdr/ct/packages/cdashct-2020-11-06/codelists/C78429", "title": "CDISC CDASH Unit of Measure for Flow Rate Terminology", "type": "Code List"}, "rootItem": {"href": "/mdr/root/ct/cdashct/codelists/C78429", "title": "Version-agnostic anchor resource for codelist C78429", "type": "Root Value Domain"}, "self": {"href": "/mdr/ct/packages/cdashct-2020-12-18/codelists/C78429", "title": "CDISC CDASH Unit of Measure for Flow Rate Terminology", "type": "Code List"}}, "conceptId": "C78429", "definition": "A terminology subset of the CDISC SDTM Unit codelist created for CDASH Unit of Measure for Flow Rate codelist. (NCI)", "extensible": "true", "name": "Unit of Measure for Flow Rate", "preferredTerm": "CDISC CDASH Unit of Measure for Flow Rate Terminology", "submissionValue": "EXFLRTU", "synonyms": ["Unit of Measure for Flow Rate"], "terms": [{"conceptId": "C64777", "definition": "A unit of flow rate equal to one milliliter per minute.", "preferredTerm": "Milliliter per Minute", "submissionValue": "mL/min"}, {"conceptId": "C67420", "definition": "A unit of substance flow rate equal to one millimole per day.", "preferredTerm": "Millimole per 24 Hours", "submissionValue": "mmol/day", "synonyms": ["mmol/24h"]}, {"conceptId": "C71205", "definition": "A unit of mass flow rate equal to one microgram per day.", "preferredTerm": "Microgram per Day", "submissionValue": "ug/day", "synonyms": ["mcg/day"]}, {"conceptId": "C71211", "definition": "A unit of mass flow rate equal to one microgram per minute.", "preferredTerm": "Microgram per Minute", "submissionValue": "ug/min", "synonyms": ["mcg/min"]}, {"conceptId": "C67406", "definition": "A unit of substance flow rate equal to one micromole per day.", "preferredTerm": "Micromole per 24 Hours", "submissionValue": "umol/day", "synonyms": ["mcmol/day"]}]}