{"_links": {"parentPackage": {"href": "/mdr/ct/packages/sdtmct-2014-12-19", "title": "SDTM Controlled Terminology Package 20 Effective 2014-12-19", "type": "Terminology"}, "priorVersion": {"href": "/mdr/ct/packages/sdtmct-2014-09-26/codelists/C101840", "title": "CDISC SDTM Killip Class Responses Terminology", "type": "Code List"}, "rootItem": {"href": "/mdr/root/ct/sdtmct/codelists/C101840", "title": "Version-agnostic anchor resource for codelist C101840", "type": "Root Value Domain"}, "self": {"href": "/mdr/ct/packages/sdtmct-2014-12-19/codelists/C101840", "title": "CDISC SDTM Killip Class Responses Terminology", "type": "Code List"}}, "conceptId": "C101840", "definition": "A terminology codelist based on the classification developed by Killip and Kimball, which classifies patients with myocardial infarction based on routine physical examination parameters, such as the presence or absence of rales, or a decreased systolic blood pressure.", "extensible": "false", "name": "Killip Class Responses", "preferredTerm": "CDISC SDTM Killip Class Responses Terminology", "submissionValue": "KILLIPC", "synonyms": ["Killip Class Responses"], "terms": [{"conceptId": "C77269", "definition": "The absence of rales over the lung fields and absence of third heart sound (S3). (ACC/AHA)", "preferredTerm": "Killip Class I", "submissionValue": "KILLIP CLASS I"}, {"conceptId": "C77270", "definition": "The presence of rales over 50% or less of the lung fields or the presence of a third heart sound (S3).(ACC/AHA)", "preferredTerm": "Killip Class II", "submissionValue": "KILLIP CLASS II"}, {"conceptId": "C77271", "definition": "The presence of rales over more than 50% of the lung fields. (ACC/AHA)", "preferredTerm": "Killip Class III", "submissionValue": "KILLIP CLASS III"}, {"conceptId": "C77272", "definition": "The presence of cardiogenic shock (systolic BP less than 90 mm Hg) for greater than 30 minutes, not responsive to fluid resuscitation alone, and felt to be secondary to cardiac dysfunction. (ACC/AHA)", "preferredTerm": "Killip Class IV", "submissionValue": "KILLIP CLASS IV"}]}