{"_links": {"parentPackage": {"href": "/mdr/ct/packages/sdtmct-2014-12-19", "title": "SDTM Controlled Terminology Package 20 Effective 2014-12-19", "type": "Terminology"}, "priorVersion": {"href": "/mdr/ct/packages/sdtmct-2014-09-26/codelists/C101846", "title": "CDISC SDTM Cardiovascular Test Name Terminology", "type": "Code List"}, "rootItem": {"href": "/mdr/root/ct/sdtmct/codelists/C101846", "title": "Version-agnostic anchor resource for codelist C101846", "type": "Root Value Domain"}, "self": {"href": "/mdr/ct/packages/sdtmct-2014-12-19/codelists/C101846", "title": "CDISC SDTM Cardiovascular Test Name Terminology", "type": "Code List"}}, "conceptId": "C101846", "definition": "A terminology codelist to describe the test name for a physiological examination of the cardiovascular system.", "extensible": "true", "name": "Cardiovascular Test Name", "preferredTerm": "CDISC SDTM Cardiovascular Test Name Terminology", "submissionValue": "CVTEST", "synonyms": ["Cardiovascular Test Name"], "terms": [{"conceptId": "C119245", "definition": "The measure of an individual's cardiac output divided by the individual's body surface area (CI= CO/BSA).", "preferredTerm": "Cardiac Index", "submissionValue": "Cardiac Index", "synonyms": ["Cardiac Index"]}, {"conceptId": "C119246", "definition": "The total volume of blood pumped by the heart over a set period of time, conventionally one minute; it is calculated as heart rate times stroke volume (CO= HR x SV).", "preferredTerm": "Cardiac Output", "submissionValue": "Cardiac Output", "synonyms": ["Cardiac Output"]}, {"conceptId": "C102244", "definition": "The qualitative measurement of the severity of cardiac valvular regurgitation.", "preferredTerm": "Cardiac Valvular Regurgitation Severity", "submissionValue": "Cardiac Valvular Regurgitation Severity", "synonyms": ["Cardiac Valvular Regurgitation Severity"]}, {"conceptId": "C102245", "definition": "The qualitative measurement of the severity of cardiac valvular stenosis.", "preferredTerm": "Cardiac Valvular Stenosis Severity", "submissionValue": "Cardiac Valvular Stenosis Severity", "synonyms": ["Cardiac Valvular Stenosis Severity"]}, {"conceptId": "C100086", "definition": "The pattern of the epicardial vessels supplying the posterolateral and posterior descending coronary arteries.", "preferredTerm": "Coronary Artery Dominance", "submissionValue": "Coronary Artery Dominance", "synonyms": ["Coronary Artery Dominance"]}, {"conceptId": "C80494", "definition": "The percentage of myocardial tissue which exhibits characteristics of inadequate blood flow (ischemia).", "preferredTerm": "Ischemic Myocardium Percentage", "submissionValue": "Ischemic Myocardium Percentage", "synonyms": ["Ischemic Myocardium Percentage"]}, {"conceptId": "C99970", "definition": "The diameter across the left atrium measured at the end of systole.", "preferredTerm": "Left Atrium Dimension", "submissionValue": "Left Atrium Dimension", "synonyms": ["Left Atrium Dimension"]}, {"conceptId": "C99976", "definition": "The diameter across the ventricle at the end of diastole, excluding the thickness of the walls.", "preferredTerm": "Left Ventricle Dimension at End-Diastole", "submissionValue": "Left Ventricle Dimension, End-Diastole", "synonyms": ["Left Ventricle Dimension, End-Diastole"]}, {"conceptId": "C99977", "definition": "The diameter across the ventricle at the end of systole, excluding the thickness of the walls.", "preferredTerm": "Left Ventricular Dimension at End-Systole", "submissionValue": "Left Ventricular Dimension, End-Systole", "synonyms": ["Left Ventricular Dimension, End-Systole"]}, {"conceptId": "C99524", "definition": "The percent or fraction of the left ventricular end diastolic volume ejected in systole. The left ventricular ejection fraction is equal to the left ventricular stroke volume divided by the left ventricular end diastolic volume.", "preferredTerm": "Left Ventricular Ejection Fraction", "submissionValue": "Left Ventricular Ejection Fraction", "synonyms": ["Left Ventricular Ejection Fraction"]}, {"conceptId": "C99996", "definition": "Number of major epicardial vessels with greater than or equal to 70% reduction in diameter or greater than or equal to 50% reduction in cross-sectional area.", "preferredTerm": "Number of Diseased Coronary Artery Vessels", "submissionValue": "Number of Diseased Coronary Vessels", "synonyms": ["Number of Diseased Coronary Vessels"]}, {"conceptId": "C119247", "definition": "The resistance to blood flow through the pulmonary vasculature.", "preferredTerm": "Pulmonary Vascular Resistance", "submissionValue": "Pulmonary Vascular Resistance", "synonyms": ["Pulmonary Vascular Resistance"]}, {"conceptId": "C119248", "definition": "The resistance to blood flow through the systemic vasculature.", "preferredTerm": "Systemic Vascular Resistance", "submissionValue": "Systemic Vascular Resistance", "synonyms": ["Systemic Vascular Resistance"]}]}