{"_links": {"parentPackage": {"href": "/mdr/ct/packages/sdtmct-2014-12-19", "title": "SDTM Controlled Terminology Package 20 Effective 2014-12-19", "type": "Terminology"}, "priorVersion": {"href": "/mdr/ct/packages/sdtmct-2014-09-26/codelists/C102589", "title": "CDISC SDTM Treatment Episode Terminology", "type": "Code List"}, "rootItem": {"href": "/mdr/root/ct/sdtmct/codelists/C102589", "title": "Version-agnostic anchor resource for codelist C102589", "type": "Root Value Domain"}, "self": {"href": "/mdr/ct/packages/sdtmct-2014-12-19/codelists/C102589", "title": "CDISC SDTM Treatment Episode Terminology", "type": "Code List"}}, "conceptId": "C102589", "definition": "Terminology relevant to whether an individual is being treated for a disease for the first time.", "extensible": "false", "name": "Treatment Episode", "preferredTerm": "CDISC SDTM Treatment Episode Terminology", "submissionValue": "TRTEPSD", "synonyms": ["Treatment Episode"], "terms": [{"conceptId": "C25586", "definition": "Having no previous example or precedent or parallel; of a kind not seen before.", "preferredTerm": "New", "submissionValue": "NEW"}, {"conceptId": "C54055", "definition": "The repeated act of the dispensing, applying, or tendering of something to another after an initial treatment.", "preferredTerm": "Retreatment", "submissionValue": "RETREATMENT"}]}