{"_links": {"parentPackage": {"href": "/mdr/ct/packages/sdtmct-2014-12-19", "title": "SDTM Controlled Terminology Package 20 Effective 2014-12-19", "type": "Terminology"}, "priorVersion": {"href": "/mdr/ct/packages/sdtmct-2014-09-26/codelists/C102580", "title": "CDISC SDTM Laboratory Test Standard Character Result Terminology", "type": "Code List"}, "rootItem": {"href": "/mdr/root/ct/sdtmct/codelists/C102580", "title": "Version-agnostic anchor resource for codelist C102580", "type": "Root Value Domain"}, "self": {"href": "/mdr/ct/packages/sdtmct-2014-12-19/codelists/C102580", "title": "CDISC SDTM Laboratory Test Standard Character Result Terminology", "type": "Code List"}}, "conceptId": "C102580", "definition": "Terminology relevant to the standardized results, in character format, for laboratory tests.", "extensible": "true", "name": "Laboratory Test Standard Character Result", "preferredTerm": "CDISC SDTM Laboratory Test Standard Character Result Terminology", "submissionValue": "LBSTRESC", "synonyms": ["Laboratory Test Standard Character Result"], "terms": [{"conceptId": "C14157", "definition": "Straddling the dividing line between two categories.", "preferredTerm": "Borderline", "submissionValue": "BORDERLINE"}, {"conceptId": "C48658", "definition": "Cannot distinguish between two or more possible values in the current context. (NCI)", "preferredTerm": "Indeterminate", "submissionValue": "INDETERMINATE", "synonyms": ["Inconclusive"]}, {"conceptId": "C50913", "definition": "Not valid data.", "preferredTerm": "Invalid Data", "submissionValue": "INVALID"}, {"conceptId": "C38757", "definition": "A finding of normality following an examination or investigation looking for the presence of a microorganism, disease, or condition.", "preferredTerm": "Negative Finding", "submissionValue": "NEGATIVE"}, {"conceptId": "C38758", "definition": "An observation confirming something, such as the presence of a disease, condition, or microorganism.", "preferredTerm": "Positive Finding", "submissionValue": "POSITIVE"}]}