{"_links": {"parentPackage": {"href": "/mdr/ct/packages/sdtmct-2014-12-19", "title": "SDTM Controlled Terminology Package 20 Effective 2014-12-19", "type": "Terminology"}, "priorVersion": {"href": "/mdr/ct/packages/sdtmct-2014-09-26/codelists/C102586", "title": "CDISC SDTM Reason Treatment Not Administered Terminology", "type": "Code List"}, "rootItem": {"href": "/mdr/root/ct/sdtmct/codelists/C102586", "title": "Version-agnostic anchor resource for codelist C102586", "type": "Root Value Domain"}, "self": {"href": "/mdr/ct/packages/sdtmct-2014-12-19/codelists/C102586", "title": "CDISC SDTM Reason Treatment Not Administered Terminology", "type": "Code List"}}, "conceptId": "C102586", "definition": "Terminology relevant to the reason the treatment was not administered.", "extensible": "true", "name": "Reason Treatment Not Administered", "preferredTerm": "CDISC SDTM Reason Treatment Not Administered Terminology", "submissionValue": "RSTRTNA", "synonyms": ["Reason Treatment Not Administered"], "terms": [{"conceptId": "C102663", "definition": "The medication is no longer held or possessed by the subject and is incapable of being recovered or regained.", "preferredTerm": "Medication Lost", "submissionValue": "MEDICATION LOST"}, {"conceptId": "C102682", "definition": "Is not an option.", "preferredTerm": "Not Offered", "submissionValue": "NOT OFFERED"}, {"conceptId": "C49161", "definition": "To decline to do, accept, give, or allow something.", "preferredTerm": "Refuse", "submissionValue": "REFUSE"}, {"conceptId": "C77951", "definition": "The act of changing your residence or place of business.", "preferredTerm": "Relocation", "submissionValue": "RELOCATION"}]}