{"_links": {"parentPackage": {"href": "/mdr/ct/packages/sdtmct-2014-12-19", "title": "SDTM Controlled Terminology Package 20 Effective 2014-12-19", "type": "Terminology"}, "priorVersion": {"href": "/mdr/ct/packages/sdtmct-2014-09-26/codelists/C106478", "title": "CDISC SDTM Reproductive System Findings Test Name Terminology", "type": "Code List"}, "rootItem": {"href": "/mdr/root/ct/sdtmct/codelists/C106478", "title": "Version-agnostic anchor resource for codelist C106478", "type": "Root Value Domain"}, "self": {"href": "/mdr/ct/packages/sdtmct-2014-12-19/codelists/C106478", "title": "CDISC SDTM Reproductive System Findings Test Name Terminology", "type": "Code List"}}, "conceptId": "C106478", "definition": "A terminology codelist for the physiological test names related to the male and female reproductive systems.", "extensible": "true", "name": "Reproductive System Findings Test Name", "preferredTerm": "CDISC SDTM Reproductive System Findings Test Name Terminology", "submissionValue": "RPTEST", "synonyms": ["Reproductive System Findings Test Name"], "terms": [{"conceptId": "C106501", "definition": "The method by which conception or impregnation is prevented.", "preferredTerm": "Birth Control Method", "submissionValue": "Birth Control Method", "synonyms": ["Birth Control Method"]}, {"conceptId": "C106508", "definition": "An indicator as to whether the female subject has the potential to become pregnant. (NCI)", "preferredTerm": "Childbearing Potential", "submissionValue": "Childbearing Potential", "synonyms": ["Childbearing Potential"]}, {"conceptId": "C19666", "definition": "The age at which the first menstruation event occurred. (NCI)", "preferredTerm": "Age at Menarche", "submissionValue": "Menarche Age", "synonyms": ["Menarche Age"]}, {"conceptId": "C106497", "definition": "The age at which permanent cessation of menses occurred. (NCI)", "preferredTerm": "Age at Menopause", "submissionValue": "Menopause Age", "synonyms": ["Menopause Age"]}, {"conceptId": "C106541", "definition": "The status of a female with respect to menopause.", "preferredTerm": "Menopause Status", "submissionValue": "Menopause Status", "synonyms": ["Menopause Status"]}, {"conceptId": "C119549", "definition": "The length of time of the menses cycle, measured from the beginning of one menstrual period to the beginning of the next.", "preferredTerm": "Menstrual Cycle Duration", "submissionValue": "Menstrual Cycle Duration", "synonyms": ["Menstrual Cycle Duration"]}, {"conceptId": "C106550", "definition": "A measurement of the total number of instances in which there has been a spontaneous termination of pregnancy (miscarriage) or elective termination of pregnancy.", "preferredTerm": "Number of Abortions", "submissionValue": "Number of Abortions", "synonyms": ["Number of Abortions"]}, {"conceptId": "C16955", "definition": "A measurement of the total number of live-born offspring a female has delivered.", "preferredTerm": "Parity", "submissionValue": "Number of Live Births", "synonyms": ["Number of Live Births"]}, {"conceptId": "C106551", "definition": "A measurement of the total number of pregnancy events experienced by a female.", "preferredTerm": "Number of Pregnancies", "submissionValue": "Number of Pregnancies", "synonyms": ["Number of Pregnancies"]}, {"conceptId": "C106561", "definition": "An indicator as to whether a female is pregnant during the study period. (NCI)", "preferredTerm": "Pregnant During the Study", "submissionValue": "Pregnant During the Study", "synonyms": ["Pregnant During the Study"]}]}