{"_links": {"parentPackage": {"href": "/mdr/ct/packages/sdtmct-2014-12-19", "title": "SDTM Controlled Terminology Package 20 Effective 2014-12-19", "type": "Terminology"}, "priorVersion": {"href": "/mdr/ct/packages/sdtmct-2014-09-26/codelists/C114116", "title": "CDISC SDTM Morphology Test Name Terminology", "type": "Code List"}, "rootItem": {"href": "/mdr/root/ct/sdtmct/codelists/C114116", "title": "Version-agnostic anchor resource for codelist C114116", "type": "Root Value Domain"}, "self": {"href": "/mdr/ct/packages/sdtmct-2014-12-19/codelists/C114116", "title": "CDISC SDTM Morphology Test Name Terminology", "type": "Code List"}}, "conceptId": "C114116", "definition": "A terminology codelist based on the test names for macroscopic assessments that are seen by the naked eye or observed via procedures such as imaging modalities, endoscopy, or other technologies.", "extensible": "true", "name": "Morphology Test Name", "preferredTerm": "CDISC SDTM Morphology Test Name Terminology", "submissionValue": "MOTEST", "synonyms": ["Morphology Test Name"], "terms": [{"conceptId": "C114183", "definition": "A measurement of change in volume of an organ or anatomical feature as determined by a shift in tissue boundary over time.", "preferredTerm": "Boundary Shift Integral", "submissionValue": "Boundary Shift Integral", "synonyms": ["Boundary Shift Integral"]}, {"conceptId": "C119331", "definition": "An indication as to whether there is a new acute reduction in coronary flow (TIMI grade 0-1) in the absence of dissection, thrombus, spasm, or high-grade residual stenosis at the original PCI lesion site.", "preferredTerm": "Coronary No Reflow at PCI Site Indicator", "submissionValue": "Coronary Artery No Reflow Indicator", "synonyms": ["Coronary Artery No Reflow Indicator"]}, {"conceptId": "C25333", "definition": "The extent downward or inward; the perpendicular measurement from the surface downward to determine deepness. (NCI)", "preferredTerm": "Depth", "submissionValue": "Depth", "synonyms": ["Depth"]}, {"conceptId": "C119332", "definition": "A quantitative measurement of an organ's ability to deform in response to physiological force and return to its normal shape by passive elastic recoil.", "preferredTerm": "Organ Elasticity", "submissionValue": "Elasticity", "synonyms": ["Elasticity"]}, {"conceptId": "C116148", "definition": "An indication as to whether there is re-narrowing of a stent implanted at a lesion site to treat a prior stenosis, to a diameter stenosis of greater than 50% within the stent.", "preferredTerm": "In-Stent Restenosis Indicator", "submissionValue": "In-Stent Restenosis Indicator", "synonyms": ["In-Stent Restenosis Indicator"]}, {"conceptId": "C41255", "definition": "An act or process of elucidation; explication, or explanation of the meaning of the event or thing via the assignment of objects from the domain to the constants of a formal language, truth-values to the proposition symbols, truth-functions to the connectives, other functions to the function symbols, and extensions to the predicates, if any. The assignments are result of human logic application and are not native to the symbols of the formal language.", "preferredTerm": "Interpretation", "submissionValue": "Interpretation", "synonyms": ["Interpretation"]}, {"conceptId": "C116146", "definition": "The difference between the mean minimum lumen diameter (MLD) assessed immediately after an index procedure and the MLD assessed at follow-up angiography.", "preferredTerm": "Late Lumen Loss Measurement", "submissionValue": "Late Loss", "synonyms": ["Late Loss"]}, {"conceptId": "C25334", "definition": "The linear extent in space from one end of something to the other end, or the extent of something from beginning to end. (NCI)", "preferredTerm": "Length", "submissionValue": "Length", "synonyms": ["Length"]}, {"conceptId": "C116147", "definition": "An indication as to whether there is re-narrowing of a lesion site following treatment of a prior stenosis, to a diameter stenosis of greater than 50% at the previously treated lesion site.", "preferredTerm": "Lesion Restenosis Indicator", "submissionValue": "Lesion Restenosis Indicator", "synonyms": ["Lesion Restenosis Indicator"]}, {"conceptId": "C43246", "definition": "The amount of matter in an object.", "preferredTerm": "Mass", "submissionValue": "Mass", "synonyms": ["Mass"]}, {"conceptId": "C116143", "definition": "The mean of the inside diameters of the normal blood vessel segments.", "preferredTerm": "Mean Vessel Diameter", "submissionValue": "Mean Vessel Diameter", "synonyms": ["Mean Vessel Diameter"]}, {"conceptId": "C116144", "definition": "The minimum diameter of the inside of a blood vessel (lumen) derived quantitatively in a single view.", "preferredTerm": "Minimum Vessel Lumen Diameter", "submissionValue": "Minimum Vessel Lumen Diameter", "synonyms": ["Minimum Vessel Lumen Diameter"]}, {"conceptId": "C116145", "definition": "The value calculated as 100 x (1 - MLD/RVD), using the mean quantitative values for minimum lumen diameter (MLD) and reference vessel diameter (RVD).", "preferredTerm": "Percent Diameter Stenosis Measurement", "submissionValue": "Percent Diameter Stenosis", "synonyms": ["Percent Diameter Stenosis"]}, {"conceptId": "C41145", "definition": "The dimension between two surfaces of an object, usually the smallest dimension as opposed to the width or the length.", "preferredTerm": "Thickness", "submissionValue": "Thickness", "synonyms": ["Thickness"]}, {"conceptId": "C25335", "definition": "The amount of three dimensional space occupied by an object or the capacity of a space or container. (NCI)", "preferredTerm": "Volume", "submissionValue": "Volume", "synonyms": ["Volume"]}, {"conceptId": "C25208", "definition": "The vertical force exerted by a mass as a result of gravity. (NCI)", "preferredTerm": "Weight", "submissionValue": "Weight", "synonyms": ["Weight"]}, {"conceptId": "C25345", "definition": "The extent or measurement of something from side to side. (NCI)", "preferredTerm": "Width", "submissionValue": "Width", "synonyms": ["Width"]}]}