{"_links": {"parentPackage": {"href": "/mdr/ct/packages/sdtmct-2014-12-19", "title": "SDTM Controlled Terminology Package 20 Effective 2014-12-19", "type": "Terminology"}, "priorVersion": {"href": "/mdr/ct/packages/sdtmct-2014-09-26/codelists/C116105", "title": "CDISC SDTM Pharmacogenomics Findings Test Name Terminology", "type": "Code List"}, "rootItem": {"href": "/mdr/root/ct/sdtmct/codelists/C116105", "title": "Version-agnostic anchor resource for codelist C116105", "type": "Root Value Domain"}, "self": {"href": "/mdr/ct/packages/sdtmct-2014-12-19/codelists/C116105", "title": "CDISC SDTM Pharmacogenomics Findings Test Name Terminology", "type": "Code List"}}, "conceptId": "C116105", "definition": "Terminology relevant to the test names that describe pharmacogenomics findings.", "extensible": "true", "name": "Pharmacogenomics Findings Test Name", "preferredTerm": "CDISC SDTM Pharmacogenomics Findings Test Name Terminology", "submissionValue": "PFTEST", "synonyms": ["Pharmacogenomics Findings Test Name"], "terms": [{"conceptId": "C16277", "definition": "Mutually exclusive alternative forms of the same gene occupying the same locus on homologous chromosomes, differing in nucleotide sequence and governing the same biochemical and developmental process. (NCI)", "preferredTerm": "Allele", "submissionValue": "Allele", "synonyms": ["Allele"]}]}