{"_links": {"parentPackage": {"href": "/mdr/ct/packages/sdtmct-2014-12-19", "title": "SDTM Controlled Terminology Package 20 Effective 2014-12-19", "type": "Terminology"}, "priorVersion": {"href": "/mdr/ct/packages/sdtmct-2014-09-26/codelists/C74457", "title": "CDISC SDTM Race Terminology", "type": "Code List"}, "rootItem": {"href": "/mdr/root/ct/sdtmct/codelists/C74457", "title": "Version-agnostic anchor resource for codelist C74457", "type": "Root Value Domain"}, "self": {"href": "/mdr/ct/packages/sdtmct-2014-12-19/codelists/C74457", "title": "CDISC SDTM Race Terminology", "type": "Code List"}}, "conceptId": "C74457", "definition": "Terminology codelist used to identify the race of an individual within the Clinical Data Interchange Standards Consortium Study Data Tabulation Model.", "extensible": "false", "name": "Race", "preferredTerm": "CDISC SDTM Race Terminology", "submissionValue": "RACE", "synonyms": ["Race"], "terms": [{"conceptId": "C41259", "definition": "A person having origins in any of the original peoples of North and South America (including Central America), and who maintains tribal affiliation or community attachment. (FDA)", "preferredTerm": "American Indian or Alaska Native", "submissionValue": "AMERICAN INDIAN OR ALASKA NATIVE"}, {"conceptId": "C41260", "definition": "A person having origins in any of the original peoples of the Far East, Southeast Asia, or the Indian subcontinent including, for example, Cambodia, China, India, Japan, Korea, Malaysia, Pakistan, the Philippine Islands, Thailand, and Vietnam. (FDA)", "preferredTerm": "Asian", "submissionValue": "ASIAN"}, {"conceptId": "C16352", "definition": "A person having origins in any of the black racial groups of Africa. Terms such as \"Haitian\" or \"Negro\" can be used in addition to \"Black or African American.\" (FDA)", "preferredTerm": "African American", "submissionValue": "BLACK OR AFRICAN AMERICAN"}, {"conceptId": "C41219", "definition": "Denotes a person having origins in any of the original peoples of Hawaii, Guam, Samoa, or other Pacific Islands. The term covers particularly people who identify themselves as part-Hawaiian, Native Hawaiian, Guamanian or Chamorro, Carolinian, Samoan, Chuu. (FDA)", "preferredTerm": "Native Hawaiian or Other Pacific Islander", "submissionValue": "NATIVE HAWAIIAN OR OTHER PACIFIC ISLANDER"}, {"conceptId": "C41261", "definition": "Denotes a person with European, Middle Eastern, or North African ancestral origin who identifies, or is identified, as White. (FDA)", "preferredTerm": "White", "submissionValue": "WHITE"}]}