{"_links": {"parentPackage": {"href": "/mdr/ct/packages/sdtmct-2014-12-19", "title": "SDTM Controlled Terminology Package 20 Effective 2014-12-19", "type": "Terminology"}, "rootItem": {"href": "/mdr/root/ct/sdtmct/codelists/C89973", "title": "Version-agnostic anchor resource for codelist C89973", "type": "Root Value Domain"}, "self": {"href": "/mdr/ct/packages/sdtmct-2014-12-19/codelists/C89973", "title": "CDISC SEND Microscopic Findings Test Name Terminology", "type": "Code List"}}, "conceptId": "C89973", "definition": "Terminology for the test names concerned with the findings from a specimen that are visible by microscopic analysis.", "extensible": "true", "name": "Microscopic Findings Test Name", "preferredTerm": "CDISC SEND Microscopic Findings Test Name Terminology", "submissionValue": "MITEST", "synonyms": ["Microscopic Findings Test Name"], "terms": [{"conceptId": "C119570", "definition": "The histopathological evaluation of the liver based on the Batts-Ludwig scoring system.", "preferredTerm": "Batts-Ludwig Fibrosis Score", "submissionValue": "Batts-Ludwig Fibrosis Score", "synonyms": ["Batts-Ludwig Fibrosis Score"]}, {"conceptId": "C95149", "definition": "The histopathological evaluation of the liver based on the Ishak scoring system.", "preferredTerm": "Ishak Score", "submissionValue": "Ishak Fibrosis Score", "synonyms": ["Ishak Fibrosis Score"]}, {"conceptId": "C119571", "definition": "The histopathological evaluation of the liver based on the Knodell scoring system.", "preferredTerm": "Knodell Fibrosis Score", "submissionValue": "Knodell Fibrosis Score", "synonyms": ["Knodell Fibrosis Score"]}, {"conceptId": "C119572", "definition": "The histopathological evaluation of the liver based on the Meta-analysis of Histological Data in Viral Hepatitis (Metavir) scoring system.", "preferredTerm": "METAVIR Fibrosis Score", "submissionValue": "Metavir Fibrosis Score", "synonyms": ["Metavir Fibrosis Score"]}, {"conceptId": "C90424", "definition": "An assessment by microscope (e.g., light, electron, confocal, etc.).", "preferredTerm": "Microscopic Examination", "submissionValue": "Microscopic Examination", "synonyms": ["Microscopic Examination"]}, {"conceptId": "C119573", "definition": "The histopathological evaluation of the liver based on the Scheuer scoring system.", "preferredTerm": "Scheuer Fibrosis Score", "submissionValue": "Scheuer Fibrosis Score", "synonyms": ["Scheuer Fibrosis Score"]}]}