{"_links": {"parentPackage": {"href": "/mdr/ct/packages/sdtmct-2014-12-19", "title": "SDTM Controlled Terminology Package 20 Effective 2014-12-19", "type": "Terminology"}, "priorVersion": {"href": "/mdr/ct/packages/sdtmct-2014-09-26/codelists/C96784", "title": "CDISC SDTM Tumor Identification Test Code Terminology", "type": "Code List"}, "rootItem": {"href": "/mdr/root/ct/sdtmct/codelists/C96784", "title": "Version-agnostic anchor resource for codelist C96784", "type": "Root Value Domain"}, "self": {"href": "/mdr/ct/packages/sdtmct-2014-12-19/codelists/C96784", "title": "CDISC SDTM Tumor Identification Test Code Terminology", "type": "Code List"}}, "conceptId": "C96784", "definition": "Terminology relevant to the test codes that describe tumor assessments for identification purposes.", "extensible": "true", "name": "Tumor Identification Test Code", "preferredTerm": "CDISC SDTM Tumor Identification Test Code Terminology", "submissionValue": "TUTESTCD", "synonyms": ["Tumor Identification Test Code"], "terms": [{"conceptId": "C119567", "definition": "An indication that a graft with a lesion has been located and characterized.", "preferredTerm": "Graft Lesion Identification", "submissionValue": "GRLIDENT", "synonyms": ["Graft Lesion Identification"]}, {"conceptId": "C94189", "definition": "An indication that a lesion has been located and characterized.", "preferredTerm": "Lesion Identification", "submissionValue": "LESIDENT", "synonyms": ["Lesion Identification"]}, {"conceptId": "C119568", "definition": "An indication that a limb containing a lesion has been selected and characterized.", "preferredTerm": "Limb Associated Lesion Identification", "submissionValue": "LMLIDENT", "synonyms": ["Limb Lesion Identification"]}, {"conceptId": "C94525", "definition": "An indication that multiple tumors have coalesced into one tumor.", "preferredTerm": "Matted Tumor Mass Present", "submissionValue": "TUMERGE", "synonyms": ["Tumor Merged"]}, {"conceptId": "C94523", "definition": "An indication that a tumor has been located and characterized.", "preferredTerm": "Tumor Identification", "submissionValue": "TUMIDENT", "synonyms": ["Tumor Identification"]}, {"conceptId": "C96642", "definition": "An indication that a single tumor has divided into two or more tumors.", "preferredTerm": "Tumor Split", "submissionValue": "TUSPLIT", "synonyms": ["Tumor Split"]}, {"conceptId": "C119569", "definition": "An indication that a vessel with a lesion has been located and characterized.", "preferredTerm": "Vessel Lesion Identification", "submissionValue": "VSLIDENT", "synonyms": ["Vessel Lesion Identification"]}]}