{"_links": {"parentPackage": {"href": "/mdr/ct/packages/sdtmct-2018-03-30", "title": "SDTM Controlled Terminology Package 33 Effective 2018-03-30", "type": "Terminology"}, "priorVersion": {"href": "/mdr/ct/packages/sdtmct-2017-12-22/codelists/C100138", "title": "CDISC Clinical Classification HAMD 17 Test Code Terminology", "type": "Code List"}, "rootItem": {"href": "/mdr/root/ct/sdtmct/codelists/C100138", "title": "Version-agnostic anchor resource for codelist C100138", "type": "Root Value Domain"}, "self": {"href": "/mdr/ct/packages/sdtmct-2018-03-30/codelists/C100138", "title": "CDISC Clinical Classification HAMD 17 Test Code Terminology", "type": "Code List"}}, "conceptId": "C100138", "definition": "The Hamilton Depression Rating Scale - 17 Item test code.", "extensible": "false", "name": "Hamilton Depression Rating Scale - 17 Item Clinical Classification Test Code", "preferredTerm": "CDISC Clinical Classification HAMD 17 Test Code Terminology", "submissionValue": "HAMD1TC", "synonyms": ["Hamilton Depression Rating Scale - 17 Item Clinical Classification Test Code"], "terms": [{"conceptId": "C100398", "definition": "Hamilton Depression Rating Scale 17 Item - Depressed mood: sadness, hopeless, helpless, worthless.", "preferredTerm": "HAMD-17 - Depressed Mood", "submissionValue": "HAMD101", "synonyms": ["HAMD1-Depressed Mood"]}, {"conceptId": "C100399", "definition": "Hamilton Depression Rating Scale 17 Item - Feelings of guilt.", "preferredTerm": "HAMD-17 - Feelings of Guilt", "submissionValue": "HAMD102", "synonyms": ["HAMD1-Feelings of Guilt"]}, {"conceptId": "C100400", "definition": "Hamilton Depression Rating Scale 17 Item - Suicide.", "preferredTerm": "HAMD-17 - Suicide", "submissionValue": "HAMD103", "synonyms": ["HAMD1-Suicide"]}, {"conceptId": "C100401", "definition": "Hamilton Depression Rating Scale 17 Item - Insomnia: early in the night.", "preferredTerm": "HAMD-17 - Insomnia - Early Night", "submissionValue": "HAMD104", "synonyms": ["HAMD1-Insomnia Early - Early Night"]}, {"conceptId": "C100402", "definition": "Hamilton Depression Rating Scale 17 Item - Insomnia: middle of the night.", "preferredTerm": "HAMD-17 - Insomnia - Middle Night", "submissionValue": "HAMD105", "synonyms": ["HAMD1-Insomnia Middle - Middle Night"]}, {"conceptId": "C100403", "definition": "Hamilton Depression Rating Scale 17 Item - Insomnia: early hours of the morning.", "preferredTerm": "HAMD-17 - Insomnia - Early Morning", "submissionValue": "HAMD106", "synonyms": ["HAMD1-Insomnia Early Hours - Morning"]}, {"conceptId": "C100404", "definition": "Hamilton Depression Rating Scale 17 Item - Work and activities.", "preferredTerm": "HAMD-17 - Work and Activities", "submissionValue": "HAMD107", "synonyms": ["HAMD1-Work and Activities"]}, {"conceptId": "C100405", "definition": "Hamilton Depression Rating Scale 17 Item - Retardation.", "preferredTerm": "HAMD-17 - Retardation", "submissionValue": "HAMD108", "synonyms": ["HAMD1-Retardation"]}, {"conceptId": "C100406", "definition": "Hamilton Depression Rating Scale 17 Item - Agitation.", "preferredTerm": "HAMD-17 - Agitation", "submissionValue": "HAMD109", "synonyms": ["HAMD1-Agitation"]}, {"conceptId": "C100407", "definition": "Hamilton Depression Rating Scale 17 Item - Anxiety psychic.", "preferredTerm": "HAMD-17 - Psychic Anxiety", "submissionValue": "HAMD110", "synonyms": ["HAMD1-Anxiety Psychic"]}, {"conceptId": "C100408", "definition": "Hamilton Depression Rating Scale 17 Item - Anxiety somatic: physiological concomitants of anxiety such as gastro-intestinal (dry mouth, wind, indigestion, diarrhea, cramps, belching), cardiovascular (palpitations, headaches), respiratory (hyperventilation, sighing), urinary frequency, sweating.", "preferredTerm": "HAMD-17 - Somatic Anxiety", "submissionValue": "HAMD111", "synonyms": ["HAMD1-Anxiety Somatic"]}, {"conceptId": "C100409", "definition": "Hamilton Depression Rating Scale 17 Item - Somatic symptoms gastro-intestinal.", "preferredTerm": "HAMD-17 - Gastrointestinal Somatic Symptoms", "submissionValue": "HAMD112", "synonyms": ["HAMD1-Somatic Symptoms GI"]}, {"conceptId": "C100410", "definition": "Hamilton Depression Rating Scale 17 Item - General somatic symptoms.", "preferredTerm": "HAMD-17 - General Somatic Symptoms", "submissionValue": "HAMD113", "synonyms": ["HAMD1-General Somatic Symptoms"]}, {"conceptId": "C100411", "definition": "Hamilton Depression Rating Scale 17 Item - Genital symptoms: symptoms such as loss of libido, menstrual disturbances.", "preferredTerm": "HAMD-17 - Genital Symptoms", "submissionValue": "HAMD114", "synonyms": ["HAMD1-Genital Symptoms"]}, {"conceptId": "C100412", "definition": "Hamilton Depression Rating Scale 17 Item - Hypochondriasis.", "preferredTerm": "HAMD-17 - Hypochondriasis", "submissionValue": "HAMD115", "synonyms": ["HAMD1-Hypochondriasis"]}, {"conceptId": "C100413", "definition": "Hamilton Depression Rating Scale 17 Item - Loss of weight according to the patient.", "preferredTerm": "HAMD-17 - Loss of Weight According to Patient", "submissionValue": "HAMD116A", "synonyms": ["HAMD1-Loss of WT According to Patient"]}, {"conceptId": "C100414", "definition": "Hamilton Depression Rating Scale 17 Item - Loss of weight according to weekly measurements.", "preferredTerm": "HAMD-17 - Loss of Weight According to Weekly Measurements", "submissionValue": "HAMD116B", "synonyms": ["HAMD1-Loss of WT According to WK Meas"]}, {"conceptId": "C100415", "definition": "Hamilton Depression Rating Scale 17 Item - Insight.", "preferredTerm": "HAMD-17 - Insight", "submissionValue": "HAMD117", "synonyms": ["HAMD1-Insight"]}, {"conceptId": "C100416", "definition": "Hamilton Depression Rating Scale 17 Item - Total Score.", "preferredTerm": "HAMD-17 - Total Score", "submissionValue": "HAMD118", "synonyms": ["HAMD1-Total Score"]}]}