{"_links": {"parentPackage": {"href": "/mdr/ct/packages/sdtmct-2018-03-30", "title": "SDTM Controlled Terminology Package 33 Effective 2018-03-30", "type": "Terminology"}, "priorVersion": {"href": "/mdr/ct/packages/sdtmct-2017-12-22/codelists/C100176", "title": "CDISC Questionnaire WPAI:SHP v2.0 Test Code Terminology", "type": "Code List"}, "rootItem": {"href": "/mdr/root/ct/sdtmct/codelists/C100176", "title": "Version-agnostic anchor resource for codelist C100176", "type": "Root Value Domain"}, "self": {"href": "/mdr/ct/packages/sdtmct-2018-03-30/codelists/C100176", "title": "CDISC Questionnaire WPAI:SHP v2.0 Test Code Terminology", "type": "Code List"}}, "conceptId": "C100176", "definition": "Work Productivity and Activity Impairment Questionnaire - Specific Health Problem V2.0 test code.", "extensible": "false", "name": "Work Productivity and Activity Impairment Questionnaire - Specific Health Problem V2.0 Questionnaire Test Code", "preferredTerm": "CDISC Questionnaire WPAI:SHP v2.0 Test Code Terminology", "submissionValue": "WPAI01TC", "synonyms": ["Work Productivity and Activity Impairment Questionnaire - Specific Health Problem V2.0 Questionnaire Test Code"], "terms": [{"conceptId": "C100949", "definition": "Work Productivity and Activity Impairment Questionnaire - Specific Health Problem V2.0 - Are you currently employed (working for pay)?", "preferredTerm": "WPAI:SHP v2.0 - Currently Employed", "submissionValue": "WPAI0101", "synonyms": ["WPAI01-Currently Employed"]}, {"conceptId": "C100950", "definition": "Work Productivity and Activity Impairment Questionnaire - Specific Health Problem V2.0 - During the past seven days, how many hours did you miss from work because of problems associated with your problem?", "preferredTerm": "WPAI:SHP v2.0 - Missed Work Hours Due to Problem", "submissionValue": "WPAI0102", "synonyms": ["WPAI01-Missed Work Hours Due to Problem"]}, {"conceptId": "C100951", "definition": "Work Productivity and Activity Impairment Questionnaire - Specific Health Problem V2.0 - During the past seven days, how many hours did you miss from work because of any other reason, such as vacation, holidays, time off to participate in this study?", "preferredTerm": "WPAI:SHP v2.0 - Missed Work Hours Due to Other Reasons", "submissionValue": "WPAI0103", "synonyms": ["WPAI01-Missed Work Hours Due to Other"]}, {"conceptId": "C100952", "definition": "Work Productivity and Activity Impairment Questionnaire - Specific Health Problem V2.0 - During the past seven days, how many hours did you actually work?", "preferredTerm": "WPAI:SHP v2.0 - Hours Actually Worked", "submissionValue": "WPAI0104", "synonyms": ["WPAI01-Hours Actually Worked"]}, {"conceptId": "C100953", "definition": "Work Productivity and Activity Impairment Questionnaire - Specific Health Problem V2.0 - During the past seven days, how much did your problem affect your productivity while you were working?", "preferredTerm": "WPAI:SHP v2.0 - Problem Affects Productivity", "submissionValue": "WPAI0105", "synonyms": ["WPAI01-Problem Affect Productivity"]}, {"conceptId": "C100954", "definition": "Work Productivity and Activity Impairment Questionnaire - Specific Health Problem V2.0 - During the past seven days, how much did your problem affect your ability to do your regular daily activities, other than work at a job?", "preferredTerm": "WPAI:SHP v2.0 - Problem Affects Regular Daily Activity", "submissionValue": "WPAI0106", "synonyms": ["WPAI01-Problem Affect Reg Daily Activity"]}]}