{"_links": {"parentPackage": {"href": "/mdr/ct/packages/sdtmct-2018-03-30", "title": "SDTM Controlled Terminology Package 33 Effective 2018-03-30", "type": "Terminology"}, "priorVersion": {"href": "/mdr/ct/packages/sdtmct-2017-12-22/codelists/C103477", "title": "CDISC Questionnaire OAB-q Short Form Test Code Terminology", "type": "Code List"}, "rootItem": {"href": "/mdr/root/ct/sdtmct/codelists/C103477", "title": "Version-agnostic anchor resource for codelist C103477", "type": "Root Value Domain"}, "self": {"href": "/mdr/ct/packages/sdtmct-2018-03-30/codelists/C103477", "title": "CDISC Questionnaire OAB-q Short Form Test Code Terminology", "type": "Code List"}}, "conceptId": "C103477", "definition": "The Overactive Bladder Questionnaire Short Form test code.", "extensible": "false", "name": "The Overactive Bladder Questionnaire Short Form Questionnaire Test Code", "preferredTerm": "CDISC Questionnaire OAB-q Short Form Test Code Terminology", "submissionValue": "OABQ02TC", "synonyms": ["The Overactive Bladder Questionnaire Short Form Questionnaire Test Code"], "terms": [{"conceptId": "C103686", "definition": "The Overactive Bladder Questionnaire Short Form - An uncomfortable urge to urinate?", "preferredTerm": "OAB-q Short Form - Uncomfortable Urge to Urinate", "submissionValue": "OABQ0201", "synonyms": ["OABQ02-Uncomfortable Urge to Urinate"]}, {"conceptId": "C103687", "definition": "The Overactive Bladder Questionnaire Short Form - A sudden urge to urinate with little or no warning?", "preferredTerm": "OAB-q Short Form - Sudden Urge to Urinate with Little or No Warning", "submissionValue": "OABQ0202", "synonyms": ["OABQ02-Sudden Urge to Urinate No Warning"]}, {"conceptId": "C103688", "definition": "The Overactive Bladder Questionnaire Short Form - Accidental loss of small amounts of urine?", "preferredTerm": "OAB-q Short Form - Accidental Loss of Urine", "submissionValue": "OABQ0203", "synonyms": ["OABQ02-Accidental Loss of Urine"]}, {"conceptId": "C103689", "definition": "The Overactive Bladder Questionnaire Short Form - Nighttime urination?", "preferredTerm": "OAB-q Short Form - Nighttime Urination", "submissionValue": "OABQ0204", "synonyms": ["OABQ02-Nighttime Urination"]}, {"conceptId": "C103690", "definition": "The Overactive Bladder Questionnaire Short Form - Waking up at night because you had to urinate?", "preferredTerm": "OAB-q Short Form - Waking Up at Night Because You had to Urinate", "submissionValue": "OABQ0205", "synonyms": ["OABQ02-Waking Up at Night had to Urinate"]}, {"conceptId": "C103691", "definition": "The Overactive Bladder Questionnaire Short Form - Urine loss associated with strong desire to urinate?", "preferredTerm": "OAB-q Short Form - Urine Loss Associated with a Strong Desire to Urinate", "submissionValue": "OABQ0206", "synonyms": ["OABQ02-Urine Loss Strong Desire Urinate"]}, {"conceptId": "C103692", "definition": "The Overactive Bladder Questionnaire Short Form - Caused you to plan \"escape routes\" to restrooms in public places?", "preferredTerm": "OAB-q Short Form - Plan 'Escape Routes' to Restrooms", "submissionValue": "OABQ0207", "synonyms": ["OABQ02-Plan 'Escape Routes' to Restrooms"]}, {"conceptId": "C103693", "definition": "The Overactive Bladder Questionnaire Short Form - Made you feel like there is something wrong with you?", "preferredTerm": "OAB-q Short Form - Feel Like There is Something Wrong with You", "submissionValue": "OABQ0208", "synonyms": ["OABQ02-Feel Something is Wrong with You"]}, {"conceptId": "C103694", "definition": "The Overactive Bladder Questionnaire Short Form - Interfered with your ability to get a good night's rest?", "preferredTerm": "OAB-q Short Form - Interfered with a Good Night's Rest", "submissionValue": "OABQ0209", "synonyms": ["OABQ02-Interfered with Good Night's Rest"]}, {"conceptId": "C103695", "definition": "The Overactive Bladder Questionnaire Short Form - Made you frustrated or annoyed about the amount of time you spend in the restroom?", "preferredTerm": "OAB-q Short Form - Frustrated or Annoyed About the Amount of Time You Spend in the Restroom", "submissionValue": "OABQ0210", "synonyms": ["OABQ02-Frustrated about Time in Restroom"]}, {"conceptId": "C103696", "definition": "The Overactive Bladder Questionnaire Short Form - Made you avoid activities away from restrooms (i.e., walks, running, hiking)?", "preferredTerm": "OAB-q Short Form - Avoid Activities Away From Restrooms", "submissionValue": "OABQ0211", "synonyms": ["OABQ02-Avoid Activ Away From Restroom"]}, {"conceptId": "C103697", "definition": "The Overactive Bladder Questionnaire Short Form - Awakened you during sleep?", "preferredTerm": "OAB-q Short Form - Awakened You During Sleep", "submissionValue": "OABQ0212", "synonyms": ["OABQ02-Awakened You During Sleep"]}, {"conceptId": "C103698", "definition": "The Overactive Bladder Questionnaire Short Form - Caused you to decrease your physical activities (exercising, sports, etc.)?", "preferredTerm": "OAB-q Short Form - Decrease Your Physical Activities", "submissionValue": "OABQ0213", "synonyms": ["OABQ02-Decrease Physical Activities"]}, {"conceptId": "C103699", "definition": "The Overactive Bladder Questionnaire Short Form - Caused you to have problems with your partner or spouse?", "preferredTerm": "OAB-q Short Form - Caused Problems with Your Partner or Spouse", "submissionValue": "OABQ0214", "synonyms": ["OABQ02-Caused Problems Partner/Spouse"]}, {"conceptId": "C103700", "definition": "The Overactive Bladder Questionnaire Short Form - Made you uncomfortable while travelling with others because of needing to stop for a restroom?", "preferredTerm": "OAB-q Short Form - Uncomfortable While Traveling With Others", "submissionValue": "OABQ0215", "synonyms": ["OABQ02-Uncomfortable Travel with Others"]}, {"conceptId": "C103701", "definition": "The Overactive Bladder Questionnaire Short Form - Affected your relationships with family and friends?", "preferredTerm": "OAB-q Short Form - Affected Your Relationships with Family and Friends", "submissionValue": "OABQ0216", "synonyms": ["OABQ02-Affected Relationships"]}, {"conceptId": "C103702", "definition": "The Overactive Bladder Questionnaire Short Form - Interfered with getting the amount of sleep you needed?", "preferredTerm": "OAB-q Short Form - Interfered with Getting Sleep", "submissionValue": "OABQ0217", "synonyms": ["OABQ02-Interfered with Getting Sleep"]}, {"conceptId": "C103703", "definition": "The Overactive Bladder Questionnaire Short Form - Caused you embarrassment?", "preferredTerm": "OAB-q Short Form - Caused You Embarrassment", "submissionValue": "OABQ0218", "synonyms": ["OABQ02-Caused You Embarrassment"]}, {"conceptId": "C103704", "definition": "The Overactive Bladder Questionnaire Short Form - Caused you to locate the closest restroom as soon as you arrive at a place you have never been?", "preferredTerm": "OAB-q Short Form - Locate Closest Restroom as Soon as You Arrive", "submissionValue": "OABQ0219", "synonyms": ["OABQ02-Locate Closest Restroom"]}]}