{"_links": {"parentPackage": {"href": "/mdr/ct/packages/sdtmct-2018-03-30", "title": "SDTM Controlled Terminology Package 33 Effective 2018-03-30", "type": "Terminology"}, "priorVersion": {"href": "/mdr/ct/packages/sdtmct-2017-12-22/codelists/C105139", "title": "CDISC Questionnaire ADCS-ADL Test Name Terminology", "type": "Code List"}, "rootItem": {"href": "/mdr/root/ct/sdtmct/codelists/C105139", "title": "Version-agnostic anchor resource for codelist C105139", "type": "Root Value Domain"}, "self": {"href": "/mdr/ct/packages/sdtmct-2018-03-30/codelists/C105139", "title": "CDISC Questionnaire ADCS-ADL Test Name Terminology", "type": "Code List"}}, "conceptId": "C105139", "definition": "Alzheimer's Disease Cooperative Study-Activities of Daily Living Inventory test name.", "extensible": "false", "name": "Alzheimer's Disease Cooperative Study-Activities of Daily Living Inventory Questionnaire Test Name", "preferredTerm": "CDISC Questionnaire ADCS-ADL Test Name Terminology", "submissionValue": "ADL01TN", "synonyms": ["Alzheimer's Disease Cooperative Study-Activities of Daily Living Inventory Questionnaire Test Name"], "terms": [{"conceptId": "C105351", "definition": "Alzheimer's Disease Cooperative Study-Activities of Daily Living Inventory - Check all that were used: dishwasher.", "preferredTerm": "ADCS-ADL - Appliance: Dishwasher", "submissionValue": "ADL01-Appliance: Dishwasher", "synonyms": ["ADL01-Appliance: Dishwasher"]}, {"conceptId": "C105349", "definition": "Alzheimer's Disease Cooperative Study-Activities of Daily Living Inventory - Check all that were used: dryer.", "preferredTerm": "ADCS-ADL - Appliance: Dryer", "submissionValue": "ADL01-Appliance: Dryer", "synonyms": ["ADL01-Appliance: Dryer"]}, {"conceptId": "C105356", "definition": "Alzheimer's Disease Cooperative Study-Activities of Daily Living Inventory - Check all that were used: food processor.", "preferredTerm": "ADCS-ADL - Appliance: Food Processor", "submissionValue": "ADL01-Appliance: Food Processor", "synonyms": ["ADL01-Appliance: Food Processor"]}, {"conceptId": "C105355", "definition": "Alzheimer's Disease Cooperative Study-Activities of Daily Living Inventory - Check all that were used: microwave.", "preferredTerm": "ADCS-ADL - Appliance: Microwave", "submissionValue": "ADL01-Appliance: Microwave", "synonyms": ["ADL01-Appliance: Microwave"]}, {"conceptId": "C105357", "definition": "Alzheimer's Disease Cooperative Study-Activities of Daily Living Inventory - Check all that were used: other.", "preferredTerm": "ADCS-ADL - Appliance: Other", "submissionValue": "ADL01-Appliance: Other", "synonyms": ["ADL01-Appliance: Other"]}, {"conceptId": "C105358", "definition": "Alzheimer's Disease Cooperative Study-Activities of Daily Living Inventory - Check all that were used: other specify.", "preferredTerm": "ADCS-ADL - Appliance: Other Specify", "submissionValue": "ADL01-Appliance: Other Specify", "synonyms": ["ADL01-Appliance: Other Specify"]}, {"conceptId": "C105354", "definition": "Alzheimer's Disease Cooperative Study-Activities of Daily Living Inventory - Check all that were used: range.", "preferredTerm": "ADCS-ADL - Appliance: Range", "submissionValue": "ADL01-Appliance: Range", "synonyms": ["ADL01-Appliance: Range"]}, {"conceptId": "C105352", "definition": "Alzheimer's Disease Cooperative Study-Activities of Daily Living Inventory - Check all that were used: toaster.", "preferredTerm": "ADCS-ADL - Appliance: Toaster", "submissionValue": "ADL01-Appliance: Toaster", "synonyms": ["ADL01-Appliance: Toaster"]}, {"conceptId": "C105353", "definition": "Alzheimer's Disease Cooperative Study-Activities of Daily Living Inventory - Check all that were used: toaster oven.", "preferredTerm": "ADCS-ADL - Appliance: Toaster Oven", "submissionValue": "ADL01-Appliance: Toaster Oven", "synonyms": ["ADL01-Appliance: Toaster Oven"]}, {"conceptId": "C105350", "definition": "Alzheimer's Disease Cooperative Study-Activities of Daily Living Inventory - Check all that were used: vacuum.", "preferredTerm": "ADCS-ADL - Appliance: Vacuum", "submissionValue": "ADL01-Appliance: Vacuum", "synonyms": ["ADL01-Appliance: Vacuum"]}, {"conceptId": "C105348", "definition": "Alzheimer's Disease Cooperative Study-Activities of Daily Living Inventory - Check all that were used: washer.", "preferredTerm": "ADCS-ADL - Appliance: Washer", "submissionValue": "ADL01-Appliance: Washer", "synonyms": ["ADL01-Appliance: Washer"]}, {"conceptId": "C105315", "definition": "Alzheimer's Disease Cooperative Study-Activities of Daily Living Inventory - If yes, which best describes his/her awareness of the meeting ahead of time.", "preferredTerm": "ADCS-ADL - Description of Awareness of Appointment Ahead of Time", "submissionValue": "ADL01-Aware of Appointment Ahead of Time", "synonyms": ["ADL01-Aware of Appointment Ahead of Time"]}, {"conceptId": "C105299", "definition": "Alzheimer's Disease Cooperative Study-Activities of Daily Living Inventory - Did {S} clear the dishes from the table after a meal or snack?", "preferredTerm": "ADCS-ADL - Clear Dishes After Meal or Snack", "submissionValue": "ADL01-Clear Dishes", "synonyms": ["ADL01-Clear Dishes"]}, {"conceptId": "C105300", "definition": "Alzheimer's Disease Cooperative Study-Activities of Daily Living Inventory - If yes, which best describes how he/she usually performed.", "preferredTerm": "ADCS-ADL - Description of Usual Performance of Clearing Dishes", "submissionValue": "ADL01-Clear Dishes Usual Performance", "synonyms": ["ADL01-Clear Dishes Usual Performance"]}, {"conceptId": "C105308", "definition": "Alzheimer's Disease Cooperative Study-Activities of Daily Living Inventory - If yes, which best describes how he/she usually performed.", "preferredTerm": "ADCS-ADL - Description of Usual Performance of Garbage Disposal", "submissionValue": "ADL01-Dispose Garbage Usual Performance", "synonyms": ["ADL01-Dispose Garbage Usual Performance"]}, {"conceptId": "C105307", "definition": "Alzheimer's Disease Cooperative Study-Activities of Daily Living Inventory - In the past 4 weeks, did {S} dispose of garbage or litter in an appropriate place or container at home?", "preferredTerm": "ADCS-ADL - Dispose of Garbage in Appropriate Place at Home", "submissionValue": "ADL01-Dispose of Garbage", "synonyms": ["ADL01-Dispose of Garbage"]}, {"conceptId": "C105301", "definition": "Alzheimer's Disease Cooperative Study-Activities of Daily Living Inventory - In the past 4 weeks, did {S} usually manage to find his/her personal belongings at home?", "preferredTerm": "ADCS-ADL - Find Personal Belongings at Home", "submissionValue": "ADL01-Find Belongings", "synonyms": ["ADL01-Find Belongings"]}, {"conceptId": "C105302", "definition": "Alzheimer's Disease Cooperative Study-Activities of Daily Living Inventory - If yes, which best describes how he/she usually performed.", "preferredTerm": "ADCS-ADL - Description of Usual Performance of Finding Personal Belonging at Home", "submissionValue": "ADL01-Find Belongings Usual Performance", "synonyms": ["ADL01-Find Belongings Usual Performance"]}, {"conceptId": "C105310", "definition": "Alzheimer's Disease Cooperative Study-Activities of Daily Living Inventory - If yes, which best describes his/her optimal performance.", "preferredTerm": "ADCS-ADL - Description of Optimal Performance of Getting Around Outside of Home", "submissionValue": "ADL01-Get Around Optimal Performance", "synonyms": ["ADL01-Get Around Optimal Performance"]}, {"conceptId": "C105309", "definition": "Alzheimer's Disease Cooperative Study-Activities of Daily Living Inventory - In the past 4 weeks, did {S} get around (or travel) outside of his/her home?", "preferredTerm": "ADCS-ADL - Get Around Outside Home", "submissionValue": "ADL01-Get Around Outside Home", "synonyms": ["ADL01-Get Around Outside Home"]}, {"conceptId": "C105311", "definition": "Alzheimer's Disease Cooperative Study-Activities of Daily Living Inventory - In the past 4 weeks, did {S} ever go shopping?", "preferredTerm": "ADCS-ADL - Go Shopping", "submissionValue": "ADL01-Go Shopping", "synonyms": ["ADL01-Go Shopping"]}, {"conceptId": "C105306", "definition": "Alzheimer's Disease Cooperative Study-Activities of Daily Living Inventory - If yes, which best describes his/her highest level of food preparation.", "preferredTerm": "ADCS-ADL - Highest Level of Food Preparation", "submissionValue": "ADL01-Highest Level of Food Preparation", "synonyms": ["ADL01-Highest Level of Food Preparation"]}, {"conceptId": "C105292", "definition": "Alzheimer's Disease Cooperative Study-Activities of Daily Living Inventory - If yes, which best describes his/her highest level of performance.", "preferredTerm": "ADCS-ADL - Description of Highest Performance of Telephone Use", "submissionValue": "ADL01-Highest Telephone Use Performance", "synonyms": ["ADL01-Highest Telephone Use Performance"]}, {"conceptId": "C105345", "definition": "Alzheimer's Disease Cooperative Study-Activities of Daily Living Inventory - If {S} performs hobbies/pastimes only at day care, check here.", "preferredTerm": "ADCS-ADL - Performed Hobbies Only at Day Care", "submissionValue": "ADL01-Hobbies Only at Day Care", "synonyms": ["ADL01-Hobbies Only at Day Care"]}, {"conceptId": "C105312", "definition": "Alzheimer's Disease Cooperative Study-Activities of Daily Living Inventory - Which one best describes how {S} usually selects items.", "preferredTerm": "ADCS-ADL - How Subject Usually Selects Items", "submissionValue": "ADL01-How Usually Selects Items", "synonyms": ["ADL01-How Usually Selects Items"]}, {"conceptId": "C105314", "definition": "Alzheimer's Disease Cooperative Study-Activities of Daily Living Inventory - In the past 4 weeks, did {S} keep appointments or meetings with other people, such as relatives, a doctor, the hairdresser, etc.?", "preferredTerm": "ADCS-ADL - Keep Appointments or Meetings with Others", "submissionValue": "ADL01-Keep Appointments", "synonyms": ["ADL01-Keep Appointments"]}, {"conceptId": "C105317", "definition": "Alzheimer's Disease Cooperative Study-Activities of Daily Living Inventory - Was {S} left away from home, for 15 minutes or longer, during the day?", "preferredTerm": "ADCS-ADL - Left Away From Home for Fifteen Minutes or Longer", "submissionValue": "ADL01-Left Away From Home", "synonyms": ["ADL01-Left Away From Home"]}, {"conceptId": "C105316", "definition": "Alzheimer's Disease Cooperative Study-Activities of Daily Living Inventory - In the past 4 weeks, was {S} ever left on his/her own?", "preferredTerm": "ADCS-ADL - Subject Left on Their Own", "submissionValue": "ADL01-Left On His/Her Own", "synonyms": ["ADL01-Left On His/Her Own"]}, {"conceptId": "C105318", "definition": "Alzheimer's Disease Cooperative Study-Activities of Daily Living Inventory - Was {S} left: at home, for an hour or longer, during the day?", "preferredTerm": "ADCS-ADL - Left at Home for One Hour or Longer", "submissionValue": "ADL01-Left at Home for 1 Hour or Longer", "synonyms": ["ADL01-Left at Home for 1 Hour or Longer"]}, {"conceptId": "C105319", "definition": "Alzheimer's Disease Cooperative Study-Activities of Daily Living Inventory - Was {S} left at home, for less than 1 hour, during the day?", "preferredTerm": "ADCS-ADL - Left at Home for Less Than One Hour", "submissionValue": "ADL01-Left at Home for Less Than 1 Hour", "synonyms": ["ADL01-Left at Home for Less Than 1 Hour"]}, {"conceptId": "C105305", "definition": "Alzheimer's Disease Cooperative Study-Activities of Daily Living Inventory - In the past 4 weeks, did {S} make him/herself a meal or snack at home?", "preferredTerm": "ADCS-ADL - Make a Meal or Snack at Home", "submissionValue": "ADL01-Make a Meal", "synonyms": ["ADL01-Make a Meal"]}, {"conceptId": "C105328", "definition": "Alzheimer's Disease Cooperative Study-Activities of Daily Living Inventory - If yes, which best describes the most complicated things that he/she wrote.", "preferredTerm": "ADCS-ADL - Description of Most Complicated Writings", "submissionValue": "ADL01-Most Complicated Writings", "synonyms": ["ADL01-Most Complicated Writings"]}, {"conceptId": "C105361", "definition": "Alzheimer's Disease Cooperative Study-Activities of Daily Living Inventory - Number of 'Don't Know' Responses.", "preferredTerm": "ADCS-ADL - Number of 'Don't Know' Responses", "submissionValue": "ADL01-Number Don't Know Responses", "synonyms": ["ADL01-Number Don't Know Responses"]}, {"conceptId": "C105303", "definition": "Alzheimer's Disease Cooperative Study-Activities of Daily Living Inventory - In the past 4 weeks, did {S} obtain a hot or cold beverage for him/herself?", "preferredTerm": "ADCS-ADL - Obtain Beverage for Self", "submissionValue": "ADL01-Obtain Beverage", "synonyms": ["ADL01-Obtain Beverage"]}, {"conceptId": "C105304", "definition": "Alzheimer's Disease Cooperative Study-Activities of Daily Living Inventory - If yes, which best describes his/her highest level of performance.", "preferredTerm": "ADCS-ADL - Description of Highest Performance of Obtaining Beverage", "submissionValue": "ADL01-Obtain Beverage Highest Perform", "synonyms": ["ADL01-Obtain Beverage Highest Perform"]}, {"conceptId": "C105287", "definition": "Alzheimer's Disease Cooperative Study-Activities of Daily Living Inventory - Regarding grooming, in the past 4 weeks, which best describes his/her optimal performance.", "preferredTerm": "ADCS-ADL - Description of Optimal Performance of Grooming", "submissionValue": "ADL01-Optimal Grooming Performance", "synonyms": ["ADL01-Optimal Grooming Performance"]}, {"conceptId": "C105284", "definition": "Alzheimer's Disease Cooperative Study-Activities of Daily Living Inventory - Regarding walking (or getting around in a wheelchair), in the past 4 weeks, which best describes his/her optimal performance.", "preferredTerm": "ADCS-ADL - Description of Optimal Performance of Walking", "submissionValue": "ADL01-Optimal Walking Performance", "synonyms": ["ADL01-Optimal Walking Performance"]}, {"conceptId": "C105333", "definition": "Alzheimer's Disease Cooperative Study-Activities of Daily Living Inventory - Which pastimes did he/she perform: art.", "preferredTerm": "ADCS-ADL - Pastime: Art", "submissionValue": "ADL01-Pastime: Art", "synonyms": ["ADL01-Pastime: Art"]}, {"conceptId": "C105331", "definition": "Alzheimer's Disease Cooperative Study-Activities of Daily Living Inventory - Which pastimes did he/she perform: bingo.", "preferredTerm": "ADCS-ADL - Pastime: Bingo", "submissionValue": "ADL01-Pastime: Bingo", "synonyms": ["ADL01-Pastime: Bingo"]}, {"conceptId": "C105330", "definition": "Alzheimer's Disease Cooperative Study-Activities of Daily Living Inventory - Which pastimes did he/she perform: Card or board games.", "preferredTerm": "ADCS-ADL - Pastime: Card or Board Games", "submissionValue": "ADL01-Pastime: Card or Board Games", "synonyms": ["ADL01-Pastime: Card or Board Games"]}, {"conceptId": "C105332", "definition": "Alzheimer's Disease Cooperative Study-Activities of Daily Living Inventory - Which pastimes did he/she perform: crosswords.", "preferredTerm": "ADCS-ADL - Pastime: Crosswords", "submissionValue": "ADL01-Pastime: Crosswords", "synonyms": ["ADL01-Pastime: Crosswords"]}, {"conceptId": "C105342", "definition": "Alzheimer's Disease Cooperative Study-Activities of Daily Living Inventory - Which pastimes did he/she perform: fishing.", "preferredTerm": "ADCS-ADL - Pastime: Fishing", "submissionValue": "ADL01-Pastime: Fishing", "synonyms": ["ADL01-Pastime: Fishing"]}, {"conceptId": "C105338", "definition": "Alzheimer's Disease Cooperative Study-Activities of Daily Living Inventory - Which pastimes did he/she perform: gardening.", "preferredTerm": "ADCS-ADL - Pastime: Gardening", "submissionValue": "ADL01-Pastime: Gardening", "synonyms": ["ADL01-Pastime: Gardening"]}, {"conceptId": "C105339", "definition": "Alzheimer's Disease Cooperative Study-Activities of Daily Living Inventory - Which pastimes did he/she perform: golf.", "preferredTerm": "ADCS-ADL - Pastime: Golf", "submissionValue": "ADL01-Pastime: Golf", "synonyms": ["ADL01-Pastime: Golf"]}, {"conceptId": "C105335", "definition": "Alzheimer's Disease Cooperative Study-Activities of Daily Living Inventory - Which pastimes did he/she perform: knitting.", "preferredTerm": "ADCS-ADL - Pastime: Knitting", "submissionValue": "ADL01-Pastime: Knitting", "synonyms": ["ADL01-Pastime: Knitting"]}, {"conceptId": "C105334", "definition": "Alzheimer's Disease Cooperative Study-Activities of Daily Living Inventory - Which pastimes did he/she perform: musical instrument.", "preferredTerm": "ADCS-ADL - Pastime: Musical Instrument", "submissionValue": "ADL01-Pastime: Musical Instrument", "synonyms": ["ADL01-Pastime: Musical Instrument"]}, {"conceptId": "C105343", "definition": "Alzheimer's Disease Cooperative Study-Activities of Daily Living Inventory - Which pastimes did he/she perform: other.", "preferredTerm": "ADCS-ADL - Pastime: Other", "submissionValue": "ADL01-Pastime: Other", "synonyms": ["ADL01-Pastime: Other"]}, {"conceptId": "C105344", "definition": "Alzheimer's Disease Cooperative Study-Activities of Daily Living Inventory - Which pastimes did he/she perform: other specify.", "preferredTerm": "ADCS-ADL - Pastime: Other Specify", "submissionValue": "ADL01-Pastime: Other Specify", "synonyms": ["ADL01-Pastime: Other Specify"]}, {"conceptId": "C105337", "definition": "Alzheimer's Disease Cooperative Study-Activities of Daily Living Inventory - Which pastimes did he/she perform: reading.", "preferredTerm": "ADCS-ADL - Pastime: Reading", "submissionValue": "ADL01-Pastime: Reading", "synonyms": ["ADL01-Pastime: Reading"]}, {"conceptId": "C105336", "definition": "Alzheimer's Disease Cooperative Study-Activities of Daily Living Inventory - Which pastimes did he/she perform: sewing.", "preferredTerm": "ADCS-ADL - Pastime: Sewing", "submissionValue": "ADL01-Pastime: Sewing", "synonyms": ["ADL01-Pastime: Sewing"]}, {"conceptId": "C105340", "definition": "Alzheimer's Disease Cooperative Study-Activities of Daily Living Inventory - Which pastimes did he/she perform: tennis.", "preferredTerm": "ADCS-ADL - Pastime: Tennis", "submissionValue": "ADL01-Pastime: Tennis", "synonyms": ["ADL01-Pastime: Tennis"]}, {"conceptId": "C105341", "definition": "Alzheimer's Disease Cooperative Study-Activities of Daily Living Inventory - Which pastimes did he/she perform: workshop.", "preferredTerm": "ADCS-ADL - Pastime: Workshop", "submissionValue": "ADL01-Pastime: Workshop", "synonyms": ["ADL01-Pastime: Workshop"]}, {"conceptId": "C105297", "definition": "Alzheimer's Disease Cooperative Study-Activities of Daily Living Inventory - In the past 4 weeks, did {S} ever appear to pay attention to conversation or small talk for at least 5 minutes?", "preferredTerm": "ADCS-ADL - Pay Attention to Conversation", "submissionValue": "ADL01-Pay Attention to Conversation", "synonyms": ["ADL01-Pay Attention to Conversation"]}, {"conceptId": "C105313", "definition": "Alzheimer's Disease Cooperative Study-Activities of Daily Living Inventory - Did {S} usually pay for items without supervision or physical help?", "preferredTerm": "ADCS-ADL - Pay for Items Without Supervision or Physical Help", "submissionValue": "ADL01-Pay Without Supervision", "synonyms": ["ADL01-Pay Without Supervision"]}, {"conceptId": "C105329", "definition": "Alzheimer's Disease Cooperative Study-Activities of Daily Living Inventory - In the past 4 weeks, did {S} perform a pastime, hobby or game?", "preferredTerm": "ADCS-ADL - Perform Pastime, Hobby or Game", "submissionValue": "ADL01-Perform Pastime", "synonyms": ["ADL01-Perform Pastime"]}, {"conceptId": "C105324", "definition": "Alzheimer's Disease Cooperative Study-Activities of Daily Living Inventory - In the past 4 weeks, did {S} read a magazine, newspaper or book for more than 5 minutes at a time?", "preferredTerm": "ADCS-ADL - Read for More Than Five Minutes", "submissionValue": "ADL01-Read More Than 5 Minutes", "synonyms": ["ADL01-Read More Than 5 Minutes"]}, {"conceptId": "C105288", "definition": "Alzheimer's Disease Cooperative Study-Activities of Daily Living Inventory - Regarding dressing in the past 4 weeks: Did {S} select his/her first set of clothes for the day?", "preferredTerm": "ADCS-ADL - Select First Clothes for the Day", "submissionValue": "ADL01-Select First Clothes for the Day", "synonyms": ["ADL01-Select First Clothes for the Day"]}, {"conceptId": "C105294", "definition": "Alzheimer's Disease Cooperative Study-Activities of Daily Living Inventory - Did {S} usually select or ask for different programs or his/her favorite show?", "preferredTerm": "ADCS-ADL - Select or Ask for Television Program", "submissionValue": "ADL01-Select Television Program", "synonyms": ["ADL01-Select Television Program"]}, {"conceptId": "C105326", "definition": "Alzheimer's Disease Cooperative Study-Activities of Daily Living Inventory - Did {S} usually talk about what he/she read 1 hour or longer after reading?", "preferredTerm": "ADCS-ADL - Talk About What Subject Read More Than One Hour After Reading", "submissionValue": "ADL01-Talk 1 Hour or More After Reading", "synonyms": ["ADL01-Talk 1 Hour or More After Reading"]}, {"conceptId": "C105320", "definition": "Alzheimer's Disease Cooperative Study-Activities of Daily Living Inventory - In the past 4 weeks, did {S} talk about current events?", "preferredTerm": "ADCS-ADL - Talk About Current Events", "submissionValue": "ADL01-Talk About Current Events", "synonyms": ["ADL01-Talk About Current Events"]}, {"conceptId": "C105321", "definition": "Alzheimer's Disease Cooperative Study-Activities of Daily Living Inventory - Did {S} talk about events that he/she heard or read about or saw on TV but did not take part in?", "preferredTerm": "ADCS-ADL - Talk About Events on TV that Subject Did not Take Part In", "submissionValue": "ADL01-Talk About Events Heard/Read About", "synonyms": ["ADL01-Talk About Events Heard/Read About"]}, {"conceptId": "C105322", "definition": "Alzheimer's Disease Cooperative Study-Activities of Daily Living Inventory - Did {S} talk about events that he/she took part in outside home involving family, friends, or neighbors?", "preferredTerm": "ADCS-ADL - Talk About Events Outside of Home that Subject Took Part In", "submissionValue": "ADL01-Talk About Outside Events", "synonyms": ["ADL01-Talk About Outside Events"]}, {"conceptId": "C105295", "definition": "Alzheimer's Disease Cooperative Study-Activities of Daily Living Inventory - Did {S} usually talk about the content of a program while watching it?", "preferredTerm": "ADCS-ADL - Talk About TV Content While Watching", "submissionValue": "ADL01-Talk About TV Content While Watch", "synonyms": ["ADL01-Talk About TV Content While Watch"]}, {"conceptId": "C105296", "definition": "Alzheimer's Disease Cooperative Study-Activities of Daily Living Inventory - Did {S} talk about the content of a program within a day (24 hours) after watching it?", "preferredTerm": "ADCS-ADL - Talk About TV Content Within a Day After Watching", "submissionValue": "ADL01-Talk About TV Content Within a Day", "synonyms": ["ADL01-Talk About TV Content Within a Day"]}, {"conceptId": "C105323", "definition": "Alzheimer's Disease Cooperative Study-Activities of Daily Living Inventory - Did {S} talk about events that occurred at home that he/she took part in or watched?", "preferredTerm": "ADCS-ADL - Talk About Events at Home that Subject Took Part in or Watched", "submissionValue": "ADL01-Talk About at Home Events", "synonyms": ["ADL01-Talk About at Home Events"]}, {"conceptId": "C105325", "definition": "Alzheimer's Disease Cooperative Study-Activities of Daily Living Inventory - Did {S} usually talk about details of what he/she read while or shortly (less than 1 hour) after reading?", "preferredTerm": "ADCS-ADL - Talk About What Subject Read Less Than One Hour After Reading", "submissionValue": "ADL01-Talk Within 1 Hour After Reading", "synonyms": ["ADL01-Talk Within 1 Hour After Reading"]}, {"conceptId": "C105360", "definition": "Alzheimer's Disease Cooperative Study-Activities of Daily Living Inventory - Total Score.", "preferredTerm": "ADCS-ADL - Total Score", "submissionValue": "ADL01-Total ADCS-ADL Score", "synonyms": ["ADL01-Total ADCS-ADL Score"]}, {"conceptId": "C105359", "definition": "Alzheimer's Disease Cooperative Study-Activities of Daily Living Inventory - If yes, for the most commonly used appliances, which best describes how {S} usually used them.", "preferredTerm": "ADCS-ADL - Description of Usual Use of Commonly Used Appliances", "submissionValue": "ADL01-Use Common Used Appliances", "synonyms": ["ADL01-Use Common Used Appliances"]}, {"conceptId": "C105347", "definition": "Alzheimer's Disease Cooperative Study-Activities of Daily Living Inventory - In the past 4 weeks, did {S} use a household appliance to do chores?", "preferredTerm": "ADCS-ADL - Use Household Appliance to do Chores", "submissionValue": "ADL01-Use Household Appliance", "synonyms": ["ADL01-Use Household Appliance"]}, {"conceptId": "C105291", "definition": "Alzheimer's Disease Cooperative Study-Activities of Daily Living Inventory - In the past 4 weeks, did {S} use a telephone?", "preferredTerm": "ADCS-ADL - Use a Telephone", "submissionValue": "ADL01-Use a Telephone", "synonyms": ["ADL01-Use a Telephone"]}, {"conceptId": "C105286", "definition": "Alzheimer's Disease Cooperative Study-Activities of Daily Living Inventory - Regarding bathing, in the past 4 weeks, which best describes his/her usual performance.", "preferredTerm": "ADCS-ADL - Description of Usual Performance of Bathing", "submissionValue": "ADL01-Usual Bathing Performance", "synonyms": ["ADL01-Usual Bathing Performance"]}, {"conceptId": "C105285", "definition": "Alzheimer's Disease Cooperative Study-Activities of Daily Living Inventory - Regarding bowel and bladder function at the toilet, which best describes his/her usual performance in the past 4 weeks.", "preferredTerm": "ADCS-ADL - Usual Bowel and Bladder Function at Toilet", "submissionValue": "ADL01-Usual Bowel/Bladder Function", "synonyms": ["ADL01-Usual Bowel/Bladder Function"]}, {"conceptId": "C105346", "definition": "Alzheimer's Disease Cooperative Study-Activities of Daily Living Inventory - If yes, how did {S} usually perform his/her most common pastimes.", "preferredTerm": "ADCS-ADL - Description of Usual Performance of Common Pastimes", "submissionValue": "ADL01-Usual Common Pastimes Performance", "synonyms": ["ADL01-Usual Common Pastimes Performance"]}, {"conceptId": "C105298", "definition": "Alzheimer's Disease Cooperative Study-Activities of Daily Living Inventory - If yes, which best describes his/her usual degree of participation.", "preferredTerm": "ADCS-ADL - Usual Conversation Participation", "submissionValue": "ADL01-Usual Conversation Participation", "synonyms": ["ADL01-Usual Conversation Participation"]}, {"conceptId": "C105289", "definition": "Alzheimer's Disease Cooperative Study-Activities of Daily Living Inventory - If yes, which best describes usual performance.", "preferredTerm": "ADCS-ADL - Description of Usual Performance of Dressing", "submissionValue": "ADL01-Usual Dressing Performance", "synonyms": ["ADL01-Usual Dressing Performance"]}, {"conceptId": "C105283", "definition": "Alzheimer's Disease Cooperative Study-Activities of Daily Living Inventory - Regarding eating: which best describes {S} usual performance during the past 4 weeks?", "preferredTerm": "ADCS-ADL - Description of Usual Performance of Eating", "submissionValue": "ADL01-Usual Eating Performance", "synonyms": ["ADL01-Usual Eating Performance"]}, {"conceptId": "C105290", "definition": "Alzheimer's Disease Cooperative Study-Activities of Daily Living Inventory - Regarding physically getting dressed, which best describes his/her usual performance in the past 4 weeks.", "preferredTerm": "ADCS-ADL - Description of Usual Performance of Physically Getting Dressed", "submissionValue": "ADL01-Usual Physically Dressing Perform", "synonyms": ["ADL01-Usual Physically Dressing Perform"]}, {"conceptId": "C105293", "definition": "Alzheimer's Disease Cooperative Study-Activities of Daily Living Inventory - In the past 4 weeks, did {S} watch television?", "preferredTerm": "ADCS-ADL - Watch Television", "submissionValue": "ADL01-Watch Television", "synonyms": ["ADL01-Watch Television"]}, {"conceptId": "C105327", "definition": "Alzheimer's Disease Cooperative Study-Activities of Daily Living Inventory - In the past 4 weeks, did {S} ever write things down?", "preferredTerm": "ADCS-ADL - Write Things Down", "submissionValue": "ADL01-Write Things Down", "synonyms": ["ADL01-Write Things Down"]}]}