{"_links": {"parentPackage": {"href": "/mdr/ct/packages/sdtmct-2018-03-30", "title": "SDTM Controlled Terminology Package 33 Effective 2018-03-30", "type": "Terminology"}, "priorVersion": {"href": "/mdr/ct/packages/sdtmct-2017-12-22/codelists/C106652", "title": "CDISC Questionnaire ADCS-ADL Severe Dementia Test Name Terminology", "type": "Code List"}, "rootItem": {"href": "/mdr/root/ct/sdtmct/codelists/C106652", "title": "Version-agnostic anchor resource for codelist C106652", "type": "Root Value Domain"}, "self": {"href": "/mdr/ct/packages/sdtmct-2018-03-30/codelists/C106652", "title": "CDISC Questionnaire ADCS-ADL Severe Dementia Test Name Terminology", "type": "Code List"}}, "conceptId": "C106652", "definition": "Alzheimer's Disease Cooperative Study-Activities of Daily Living Inventory Severe Dementia Version test name.", "extensible": "false", "name": "Alzheimer's Disease Cooperative Study-Activities of Daily Living Inventory Severe Dementia Version Questionnaire Test Name", "preferredTerm": "CDISC Questionnaire ADCS-ADL Severe Dementia Test Name Terminology", "submissionValue": "ADL02TN", "synonyms": ["Alzheimer's Disease Cooperative Study-Activities of Daily Living Inventory Severe Dementia Version Questionnaire Test Name"], "terms": [{"conceptId": "C106993", "definition": "Alzheimer's Disease Cooperative Study-Activities of Daily Living Inventory, Severe Dementia Version - Did {S} clear the dishes from the table after a meal or snack?", "preferredTerm": "ADCS-ADL Severe Dementia - Clear Dishes After Meal or Snack", "submissionValue": "ADL02-Clear Dishes", "synonyms": ["ADL02-Clear Dishes"]}, {"conceptId": "C106994", "definition": "Alzheimer's Disease Cooperative Study-Activities of Daily Living Inventory, Severe Dementia Version - If yes, which best describes how {S} usually performed.", "preferredTerm": "ADCS-ADL Severe Dementia - Description of Usual Performance of Clearing Dishes", "submissionValue": "ADL02-Clear Dishes Usual Performance", "synonyms": ["ADL02-Clear Dishes Usual Performance"]}, {"conceptId": "C107000", "definition": "Alzheimer's Disease Cooperative Study-Activities of Daily Living Inventory, Severe Dementia Version - If yes, which best describes how {S} usually performed.", "preferredTerm": "ADCS-ADL Severe Dementia - Description of Usual Performance of Garbage Disposal", "submissionValue": "ADL02-Dispose Garbage Usual Performance", "synonyms": ["ADL02-Dispose Garbage Usual Performance"]}, {"conceptId": "C106999", "definition": "Alzheimer's Disease Cooperative Study-Activities of Daily Living Inventory, Severe Dementia Version - In the past 4 weeks, did {S} dispose of garbage or litter in an appropriate place or container at home?", "preferredTerm": "ADCS-ADL Severe Dementia - Dispose of Garbage in Appropriate Place at Home", "submissionValue": "ADL02-Dispose of Garbage", "synonyms": ["ADL02-Dispose of Garbage"]}, {"conceptId": "C106995", "definition": "Alzheimer's Disease Cooperative Study-Activities of Daily Living Inventory, Severe Dementia Version - In the past 4 weeks, did {S} usually manage to find his/her personal belongings at home?", "preferredTerm": "ADCS-ADL Severe Dementia - Find Personal Belongings at Home", "submissionValue": "ADL02-Find Belongings", "synonyms": ["ADL02-Find Belongings"]}, {"conceptId": "C106996", "definition": "Alzheimer's Disease Cooperative Study-Activities of Daily Living Inventory, Severe Dementia Version - If yes, which best describes how {S} usually performed.", "preferredTerm": "ADCS-ADL Severe Dementia - Description of Usual Performance of Finding Personal Belonging at Home", "submissionValue": "ADL02-Find Belongings Usual Performance", "synonyms": ["ADL02-Find Belongings Usual Performance"]}, {"conceptId": "C107002", "definition": "Alzheimer's Disease Cooperative Study-Activities of Daily Living Inventory, Severe Dementia Version - If yes, which best describes {S} optimal performance.", "preferredTerm": "ADCS-ADL Severe Dementia - Description of Optimal Performance of Getting Around Outside of Home", "submissionValue": "ADL02-Get Around Optimal Performance", "synonyms": ["ADL02-Get Around Optimal Performance"]}, {"conceptId": "C107001", "definition": "Alzheimer's Disease Cooperative Study-Activities of Daily Living Inventory, Severe Dementia Version - In the past 4 weeks, did {S} get around (or travel) outside of his/her home?", "preferredTerm": "ADCS-ADL Severe Dementia - Get Around Outside Home", "submissionValue": "ADL02-Get Around Outside Home", "synonyms": ["ADL02-Get Around Outside Home"]}, {"conceptId": "C106986", "definition": "Alzheimer's Disease Cooperative Study-Activities of Daily Living Inventory, Severe Dementia Version - If yes, which best describes {S} highest level of performance.", "preferredTerm": "ADCS-ADL Severe Dementia - Description of Highest Performance of Telephone Use", "submissionValue": "ADL02-Highest Telephone Use Performance", "synonyms": ["ADL02-Highest Telephone Use Performance"]}, {"conceptId": "C107004", "definition": "Alzheimer's Disease Cooperative Study-Activities of Daily Living Inventory, Severe Dementia Version - Was {S} left: away from home for 15 minutes or longer, during the day?", "preferredTerm": "ADCS-ADL Severe Dementia - Alone Away From Home for Fifteen Minutes or Longer", "submissionValue": "ADL02-Left Away From Home", "synonyms": ["ADL02-Left Away From Home"]}, {"conceptId": "C107003", "definition": "Alzheimer's Disease Cooperative Study-Activities of Daily Living Inventory, Severe Dementia Version - In the past 4 weeks, was {S} ever left on his/her own?", "preferredTerm": "ADCS-ADL Severe Dementia - Subject Left on Their Own", "submissionValue": "ADL02-Left On His/Her Own", "synonyms": ["ADL02-Left On His/Her Own"]}, {"conceptId": "C107005", "definition": "Alzheimer's Disease Cooperative Study-Activities of Daily Living Inventory, Severe Dementia Version - Was {S} left: at home for an hour or longer during the day?", "preferredTerm": "ADCS-ADL Severe Dementia - Alone at Home for One Hour or Longer", "submissionValue": "ADL02-Left at Home for 1 Hour or Longer", "synonyms": ["ADL02-Left at Home for 1 Hour or Longer"]}, {"conceptId": "C107006", "definition": "Alzheimer's Disease Cooperative Study-Activities of Daily Living Inventory, Severe Dementia Version - Was {S} left: at home for less than 1 hour during the day?", "preferredTerm": "ADCS-ADL Severe Dementia - Alone at Home for Less Than One Hour", "submissionValue": "ADL02-Left at Home for Less Than 1 Hour", "synonyms": ["ADL02-Left at Home for Less Than 1 Hour"]}, {"conceptId": "C106997", "definition": "Alzheimer's Disease Cooperative Study-Activities of Daily Living Inventory, Severe Dementia Version - In the past 4 weeks, did {S} obtain a hot or cold beverage for him/herself?", "preferredTerm": "ADCS-ADL Severe Dementia - Obtain Beverage for Self", "submissionValue": "ADL02-Obtain Beverage", "synonyms": ["ADL02-Obtain Beverage"]}, {"conceptId": "C106998", "definition": "Alzheimer's Disease Cooperative Study-Activities of Daily Living Inventory, Severe Dementia Version - If yes, which best describes {S} highest level of performance.", "preferredTerm": "ADCS-ADL Severe Dementia - Description of Highest Performance of Obtaining Beverage", "submissionValue": "ADL02-Obtain Beverage Highest Perform", "synonyms": ["ADL02-Obtain Beverage Highest Perform"]}, {"conceptId": "C106983", "definition": "Alzheimer's Disease Cooperative Study-Activities of Daily Living Inventory, Severe Dementia Version - Regarding grooming, in the past 4 weeks, which best describes {S} optimal performance?", "preferredTerm": "ADCS-ADL Severe Dementia - Description of Optimal Performance of Grooming", "submissionValue": "ADL02-Optimal Grooming Performance", "synonyms": ["ADL02-Optimal Grooming Performance"]}, {"conceptId": "C106980", "definition": "Alzheimer's Disease Cooperative Study-Activities of Daily Living Inventory, Severe Dementia Version - Regarding walking (or getting around in a wheelchair) in the past 4 weeks, which best describes {S} optimal performance?", "preferredTerm": "ADCS-ADL Severe Dementia - Description of Optimal Performance of Walking", "submissionValue": "ADL02-Optimal Walking Performance", "synonyms": ["ADL02-Optimal Walking Performance"]}, {"conceptId": "C106991", "definition": "Alzheimer's Disease Cooperative Study-Activities of Daily Living Inventory, Severe Dementia Version - In the past 4 weeks, did {S} ever appear to pay attention to conversation or small talk for at least 5 minutes?", "preferredTerm": "ADCS-ADL Severe Dementia - Pay Attention to Conversation", "submissionValue": "ADL02-Pay Attention to Conversation", "synonyms": ["ADL02-Pay Attention to Conversation"]}, {"conceptId": "C107007", "definition": "Alzheimer's Disease Cooperative Study-Activities of Daily Living Inventory, Severe Dementia Version - In the past 4 weeks, did {S} usually run water from a faucet to wash {S} hands or face without help?", "preferredTerm": "ADCS-ADL Severe Dementia - Turn On Faucet to Wash Without Help", "submissionValue": "ADL02-Run Water Faucet to Wash", "synonyms": ["ADL02-Run Water Faucet to Wash"]}, {"conceptId": "C106988", "definition": "Alzheimer's Disease Cooperative Study-Activities of Daily Living Inventory, Severe Dementia Version - Did {S} usually select or ask for different programs or {S} favorite show?", "preferredTerm": "ADCS-ADL Severe Dementia - Select or Ask for Television Program", "submissionValue": "ADL02-Select Television Program", "synonyms": ["ADL02-Select Television Program"]}, {"conceptId": "C107011", "definition": "Alzheimer's Disease Cooperative Study-Activities of Daily Living Inventory, Severe Dementia Version - Sum of Items 1-5.", "preferredTerm": "ADCS-ADL Severe Dementia - Sum of Items 1-5", "submissionValue": "ADL02-Sum 1 to 5", "synonyms": ["ADL02-Sum 1 to 5"]}, {"conceptId": "C107014", "definition": "Alzheimer's Disease Cooperative Study-Activities of Daily Living Inventory, Severe Dementia Version - Sum of Items 13-15.", "preferredTerm": "ADCS-ADL Severe Dementia - Sum of Items 13-15", "submissionValue": "ADL02-Sum 13 to 15", "synonyms": ["ADL02-Sum 13 to 15"]}, {"conceptId": "C107015", "definition": "Alzheimer's Disease Cooperative Study-Activities of Daily Living Inventory, Severe Dementia Version - Sum of Items 16-19.", "preferredTerm": "ADCS-ADL Severe Dementia - Sum of Items 16-19", "submissionValue": "ADL02-Sum 16 to 19", "synonyms": ["ADL02-Sum 16 to 19"]}, {"conceptId": "C107012", "definition": "Alzheimer's Disease Cooperative Study-Activities of Daily Living Inventory, Severe Dementia Version - Sum of Items 6-8.", "preferredTerm": "ADCS-ADL Severe Dementia - Sum of Items 6-8", "submissionValue": "ADL02-Sum 6 to 8", "synonyms": ["ADL02-Sum 6 to 8"]}, {"conceptId": "C107013", "definition": "Alzheimer's Disease Cooperative Study-Activities of Daily Living Inventory, Severe Dementia Version - Sum of Items 9-12.", "preferredTerm": "ADCS-ADL Severe Dementia - Sum of Items 9-12", "submissionValue": "ADL02-Sum 9 to 12", "synonyms": ["ADL02-Sum 9 to 12"]}, {"conceptId": "C106989", "definition": "Alzheimer's Disease Cooperative Study-Activities of Daily Living Inventory, Severe Dementia Version - Did {S} usually talk about the content of a program while watching it?", "preferredTerm": "ADCS-ADL Severe Dementia - Talk About TV Content While Watching", "submissionValue": "ADL02-Talk About TV Content While Watch", "synonyms": ["ADL02-Talk About TV Content While Watch"]}, {"conceptId": "C106990", "definition": "Alzheimer's Disease Cooperative Study-Activities of Daily Living Inventory, Severe Dementia Version - Did {S} talk about the content of a program within a day (24 hours) after watching it?", "preferredTerm": "ADCS-ADL Severe Dementia - Talk About TV Content Within a Day After Watching", "submissionValue": "ADL02-Talk About TV Content Within a Day", "synonyms": ["ADL02-Talk About TV Content Within a Day"]}, {"conceptId": "C107016", "definition": "Alzheimer's Disease Cooperative Study-Activities of Daily Living Inventory, Severe Dementia Version - Total Score.", "preferredTerm": "ADCS-ADL Severe Dementia - Total Score", "submissionValue": "ADL02-Total ADCS-ADL Score", "synonyms": ["ADL02-Total ADCS-ADL Score"]}, {"conceptId": "C107008", "definition": "Alzheimer's Disease Cooperative Study-Activities of Daily Living Inventory, Severe Dementia Version - In the past 4 weeks, did {S} usually turn off the faucet after finishing running water without help?", "preferredTerm": "ADCS-ADL Severe Dementia - Turn Off Faucet After Wash Without Help", "submissionValue": "ADL02-Turn Off Faucet", "synonyms": ["ADL02-Turn Off Faucet"]}, {"conceptId": "C107010", "definition": "Alzheimer's Disease Cooperative Study-Activities of Daily Living Inventory, Severe Dementia Version - In the past 4 weeks, did {S} usually turn off lights without help when leaving a room or going to sleep?", "preferredTerm": "ADCS-ADL Severe Dementia - Turn Off Light Without Help Leaving Room", "submissionValue": "ADL02-Turn Off Light", "synonyms": ["ADL02-Turn Off Light"]}, {"conceptId": "C107009", "definition": "Alzheimer's Disease Cooperative Study-Activities of Daily Living Inventory, Severe Dementia Version - In the past 4 weeks, did {S} usually turn on a light without help when entering a dark room or area?", "preferredTerm": "ADCS-ADL Severe Dementia - Turn On Light Without Help Entering Room", "submissionValue": "ADL02-Turn On Light", "synonyms": ["ADL02-Turn On Light"]}, {"conceptId": "C106985", "definition": "Alzheimer's Disease Cooperative Study-Activities of Daily Living Inventory, Severe Dementia Version - In the past 4 weeks, did {S} use a telephone?", "preferredTerm": "ADCS-ADL Severe Dementia - Use a Telephone", "submissionValue": "ADL02-Use a Telephone", "synonyms": ["ADL02-Use a Telephone"]}, {"conceptId": "C106982", "definition": "Alzheimer's Disease Cooperative Study-Activities of Daily Living Inventory, Severe Dementia Version - Regarding bathing, in the past 4 weeks, which best describes {S} usual performance?", "preferredTerm": "ADCS-ADL Severe Dementia - Description of Usual Performance of Bathing", "submissionValue": "ADL02-Usual Bathing Performance", "synonyms": ["ADL02-Usual Bathing Performance"]}, {"conceptId": "C106981", "definition": "Alzheimer's Disease Cooperative Study-Activities of Daily Living Inventory, Severe Dementia Version - Regarding bowel and bladder function at the toilet, which best describes {S} usual performance during the past 4 weeks?", "preferredTerm": "ADCS-ADL Severe Dementia - Usual Bowel and Bladder Function at Toilet", "submissionValue": "ADL02-Usual Bowel/Bladder Function", "synonyms": ["ADL02-Usual Bowel/Bladder Function"]}, {"conceptId": "C106992", "definition": "Alzheimer's Disease Cooperative Study-Activities of Daily Living Inventory, Severe Dementia Version - If yes, which best describes {S} usual degree of participation.", "preferredTerm": "ADCS-ADL Severe Dementia - Usual Conversation Participation", "submissionValue": "ADL02-Usual Conversation Participation", "synonyms": ["ADL02-Usual Conversation Participation"]}, {"conceptId": "C106979", "definition": "Alzheimer's Disease Cooperative Study-Activities of Daily Living Inventory, Severe Dementia Version - Regarding eating, which best describes {S} usual performance during the last 4 weeks?", "preferredTerm": "ADCS-ADL Severe Dementia - Description of Usual Performance of Eating", "submissionValue": "ADL02-Usual Eating Performance", "synonyms": ["ADL02-Usual Eating Performance"]}, {"conceptId": "C106984", "definition": "Alzheimer's Disease Cooperative Study-Activities of Daily Living Inventory, Severe Dementia Version - Regarding physically getting dressed, which best describes {S} usual performance in the past 4 weeks?", "preferredTerm": "ADCS-ADL Severe Dementia - Description of Usual Performance of Physically Getting Dressed", "submissionValue": "ADL02-Usual Physically Dressing Perform", "synonyms": ["ADL02-Usual Physically Dressing Perform"]}, {"conceptId": "C106987", "definition": "Alzheimer's Disease Cooperative Study-Activities of Daily Living Inventory, Severe Dementia Version - In the past 4 weeks, did {S} watch television?", "preferredTerm": "ADCS-ADL Severe Dementia - Watch Television", "submissionValue": "ADL02-Watch Television", "synonyms": ["ADL02-Watch Television"]}]}