{"_links": {"parentPackage": {"href": "/mdr/ct/packages/sdtmct-2018-03-30", "title": "SDTM Controlled Terminology Package 33 Effective 2018-03-30", "type": "Terminology"}, "priorVersion": {"href": "/mdr/ct/packages/sdtmct-2017-12-22/codelists/C115401", "title": "CDISC Questionnaire DRS Test Name Terminology", "type": "Code List"}, "rootItem": {"href": "/mdr/root/ct/sdtmct/codelists/C115401", "title": "Version-agnostic anchor resource for codelist C115401", "type": "Root Value Domain"}, "self": {"href": "/mdr/ct/packages/sdtmct-2018-03-30/codelists/C115401", "title": "CDISC Questionnaire DRS Test Name Terminology", "type": "Code List"}}, "conceptId": "C115401", "definition": "Disability Rating Scale test name.", "extensible": "false", "name": "Disability Rating Scale Questionnaire Test Name", "preferredTerm": "CDISC Questionnaire DRS Test Name Terminology", "submissionValue": "DRS01TN", "synonyms": ["Disability Rating Scale Questionnaire Test Name"], "terms": [{"conceptId": "C115821", "definition": "Disability Rating Scale - Communication ability.", "preferredTerm": "DRS - Communication Ability", "submissionValue": "DRS01-Communication Ability", "synonyms": ["DRS01-Communication Ability"]}, {"conceptId": "C115827", "definition": "Disability Rating Scale - Employability (as a full time worker, homemaker, or student).", "preferredTerm": "DRS - Employability", "submissionValue": "DRS01-Employability", "synonyms": ["DRS01-Employability"]}, {"conceptId": "C115820", "definition": "Disability Rating Scale - Eye opening.", "preferredTerm": "DRS - Eye Opening", "submissionValue": "DRS01-Eye Opening", "synonyms": ["DRS01-Eye Opening"]}, {"conceptId": "C115823", "definition": "Disability Rating Scale - Feeding (cognitive ability only).", "preferredTerm": "DRS - Feeding", "submissionValue": "DRS01-Feeding", "synonyms": ["DRS01-Feeding"]}, {"conceptId": "C115825", "definition": "Disability Rating Scale - Grooming (cognitive ability only).", "preferredTerm": "DRS - Grooming", "submissionValue": "DRS01-Grooming", "synonyms": ["DRS01-Grooming"]}, {"conceptId": "C115826", "definition": "Disability Rating Scale - Level of functioning (physical, mental, emotional or social function).", "preferredTerm": "DRS - Level of Functioning", "submissionValue": "DRS01-Level of Functioning", "synonyms": ["DRS01-Level of Functioning"]}, {"conceptId": "C115822", "definition": "Disability Rating Scale - Motor response.", "preferredTerm": "DRS - Motor Response", "submissionValue": "DRS01-Motor Response", "synonyms": ["DRS01-Motor Response"]}, {"conceptId": "C115824", "definition": "Disability Rating Scale - Toileting (cognitive ability only).", "preferredTerm": "DRS - Toileting", "submissionValue": "DRS01-Toileting", "synonyms": ["DRS01-Toileting"]}]}