{"_links": {"parentPackage": {"href": "/mdr/ct/packages/sdtmct-2018-03-30", "title": "SDTM Controlled Terminology Package 33 Effective 2018-03-30", "type": "Terminology"}, "priorVersion": {"href": "/mdr/ct/packages/sdtmct-2017-12-22/codelists/C120528", "title": "CDISC SDTM Microbiology Test Name Terminology", "type": "Code List"}, "rootItem": {"href": "/mdr/root/ct/sdtmct/codelists/C120528", "title": "Version-agnostic anchor resource for codelist C120528", "type": "Root Value Domain"}, "self": {"href": "/mdr/ct/packages/sdtmct-2018-03-30/codelists/C120528", "title": "CDISC SDTM Microbiology Test Name Terminology", "type": "Code List"}}, "conceptId": "C120528", "definition": "Terminology relevant to the microbiology test names of the CDISC Study Data Tabulation Model.", "extensible": "true", "name": "Microbiology Test Name", "preferredTerm": "CDISC SDTM Microbiology Test Name Terminology", "submissionValue": "MBTEST", "synonyms": ["Microbiology Test Name"], "terms": [{"conceptId": "C128981", "definition": "A measurement of any rod-shaped bacteria that resist decolorizing by acid after accepting an aqueous stain solution, due to the mycolic acids in their cell walls.", "preferredTerm": "Acid-Fast Bacilli Measurement", "submissionValue": "Acid-Fast Bacilli", "synonyms": ["Acid-Fast Bacilli"]}, {"conceptId": "C139113", "definition": "A measurement of the organisms that are not assigned to the species level but are assigned to the Burkholderia genus level in a biological specimen.", "preferredTerm": "Burkholderia Measurement", "submissionValue": "Burkholderia", "synonyms": ["Burkholderia"]}, {"conceptId": "C147456", "definition": "A measurement of the Burkholderia cepacia in a biological specimen.", "preferredTerm": "Burkholderia cepacia Measurement", "submissionValue": "Burkholderia cepacia", "synonyms": ["B. cepacia", "Burkholderia cepacia", "Pseudomonas cepacia"]}, {"conceptId": "C135409", "definition": "A measurement of a targeted deoxyribonucleic acid (DNA) in a biological specimen.", "preferredTerm": "Deoxyribonucleic Acid Measurement", "submissionValue": "Deoxyribonucleic Acid", "synonyms": ["Deoxyribonucleic Acid"]}, {"conceptId": "C135410", "definition": "A measurement of the Ebola virus IgM antibodies in a biological specimen.", "preferredTerm": "Ebola Virus IgM Antibody Measurement", "submissionValue": "Ebola Virus IgM Antibody", "synonyms": ["Ebola Virus IgM Antibody"]}, {"conceptId": "C147458", "definition": "A measurement of the organisms that are not assigned to the species level but are assigned to the Haemophilus genus level in a biological specimen.", "preferredTerm": "Haemophilus Measurement", "submissionValue": "Haemophilus", "synonyms": ["Haemophilus"]}, {"conceptId": "C147457", "definition": "A measurement of the Haemophilus influenza virus in a biological specimen.", "preferredTerm": "Haemophilus influenzae Measurement", "submissionValue": "Haemophilus influenzae", "synonyms": ["H. influenzae", "Haemophilus influenzae"]}, {"conceptId": "C142330", "definition": "A measurement of the Hepatitis C virus RNA in a biological specimen.", "preferredTerm": "Hepatitis C Virus RNA Measurement", "submissionValue": "Hepatitis C Virus RNA", "synonyms": ["Hepatitis C Virus RNA"]}, {"conceptId": "C142331", "definition": "A measurement of the Hepatitis E virus RNA in a biological specimen.", "preferredTerm": "Hepatitis E Virus RNA Measurement", "submissionValue": "Hepatitis E Virus RNA", "synonyms": ["Hepatitis E Virus RNA"]}, {"conceptId": "C120677", "definition": "A measurement of the influenza A antigen in a biological specimen.", "preferredTerm": "Influenza A Antigen Measurement", "submissionValue": "Influenza A Antigen", "synonyms": ["Influenza A Antigen"]}, {"conceptId": "C120678", "definition": "A measurement of the influenza A/B antigen in a biological specimen.", "preferredTerm": "Influenza A/B Antigen Measurement", "submissionValue": "Influenza A/B Antigen", "synonyms": ["Influenza A/B Antigen"]}, {"conceptId": "C120679", "definition": "A measurement of the influenza B antigen in a biological specimen.", "preferredTerm": "Influenza B Antigen Measurement", "submissionValue": "Influenza B Antigen", "synonyms": ["Influenza B Antigen"]}, {"conceptId": "C132416", "definition": "The identification of the type of a microbial organism in a biological specimen.", "preferredTerm": "Microoganism Identification", "submissionValue": "Microbial Organism Identification", "synonyms": ["Microbial Organism Identification"]}, {"conceptId": "C128982", "definition": "A measurement of the organisms that are assigned to the Mycobacterium tuberculosis species in a biological specimen.", "preferredTerm": "Mycobacterium Tuberculosis Measurement", "submissionValue": "Mycobacterium tuberculosis", "synonyms": ["Mycobacterium tuberculosis"]}, {"conceptId": "C128983", "definition": "A measurement of the organisms assignable to the Mycobacterium tuberculosis complex in a biological specimen.", "preferredTerm": "Mycobacterium tuberculosis Complex Measurement", "submissionValue": "Mycobacterium tuberculosis Complex", "synonyms": ["Mycobacterium tuberculosis Complex"]}, {"conceptId": "C147459", "definition": "A measurement of the organisms that are assigned to the Mycobacterium genus but are not tuberculosis or leprosy-causing in a biological specimen.", "preferredTerm": "Nontuberculous Mycobacteria Measurement", "submissionValue": "Nontuberculous Mycobacteria", "synonyms": ["NTM", "Non-tuberculous mycobacteria", "Nontuberculous Mycobacteria"]}, {"conceptId": "C139108", "definition": "A measurement of the mucoid strain of Pseudomonas aeruginosa in a biological specimen.", "preferredTerm": "Mucoid Pseudomonas aeruginosa Measurement", "submissionValue": "P. aeruginosa, Mucoid", "synonyms": ["P. aeruginosa, Mucoid", "Pseudomonas aeruginosa, Mucoid"]}, {"conceptId": "C139107", "definition": "A measurement of the non-mucoid strain of Pseudomonas aeruginosa in a biological specimen.", "preferredTerm": "Non-Mucoid Pseudomonas aeruginosa Measurement", "submissionValue": "P. aeruginosa, Non-mucoid", "synonyms": ["P. aeruginosa, Non-Mucoid", "Pseudomonas aeruginosa, Non-Mucoid"]}, {"conceptId": "C139109", "definition": "A measurement of the small-colony variant strain of Pseudomonas aeruginosa in a biological specimen.", "preferredTerm": "Small-Colony Variant Pseudomonas aeruginosa Measurement", "submissionValue": "P. aeruginosa, Small-colony Variant", "synonyms": ["P. aeruginosa, Small-colony Variant", "Pseudomonas aeruginosa, SCV", "Pseudomonas aeruginosa, Small-colony Variant"]}, {"conceptId": "C132417", "definition": "A measurement of the Plasmodium knowlesi in an asexual replication stage in a biological specimen.", "preferredTerm": "Asexual Plasmodium knowlesi Measurement", "submissionValue": "Plasmodium knowlesi, Asexual", "synonyms": ["Plasmodium knowlesi, Asexual"]}, {"conceptId": "C132418", "definition": "A measurement of the Plasmodium knowlesi in a sexual replication stage in a biological specimen.", "preferredTerm": "Sexual Plasmodium knowlesi Measurement", "submissionValue": "Plasmodium knowlesi, Sexual", "synonyms": ["Plasmodium knowlesi, Sexual"]}, {"conceptId": "C139110", "definition": "A measurement of the methicillin-resistant strain of Staphylococcus aureus in a biological specimen.", "preferredTerm": "Methicillin-resistant Staphylococcus aureus Measurement", "submissionValue": "S. aureus, Methicillin-resistant", "synonyms": ["S. aureus, Methicillin-Resistant", "Staphylococcus aureus, Methicillin-Resistant"]}, {"conceptId": "C139111", "definition": "A measurement of the methicillin-susceptible strain of Staphylococcus aureus in a biological specimen.", "preferredTerm": "Methicillin-susceptible Staphylococcus aureus Measurement", "submissionValue": "S. aureus, Methicillin-susceptible", "synonyms": ["S. aureus, Methicillin-Susceptible", "Staphylococcus aureus, Methicillin-Susceptible"]}, {"conceptId": "C147460", "definition": "A measurement of the Staphylococcus aureus in a biological specimen.", "preferredTerm": "Staphylococcus aureus Measurement", "submissionValue": "Staphylococcus aureus", "synonyms": ["S. aureus", "Staphylococcus aureus"]}, {"conceptId": "C139112", "definition": "A measurement of the organisms that are assigned to the Stenotrophomonas maltophilia species in a biological specimen.", "preferredTerm": "Stenotrophomonas maltophilia Measurement", "submissionValue": "Stenotrophomonas maltophilia", "synonyms": ["Stenotrophomonas maltophilia"]}, {"conceptId": "C132420", "definition": "A measurement of the Zaire ebolavirus present in a biological specimen.", "preferredTerm": "Zaire Ebolavirus Measurement", "submissionValue": "Zaire Ebolavirus", "synonyms": ["Zaire Ebolavirus"]}]}