{"_links": {"parentPackage": {"href": "/mdr/ct/packages/sdtmct-2018-03-30", "title": "SDTM Controlled Terminology Package 33 Effective 2018-03-30", "type": "Terminology"}, "priorVersion": {"href": "/mdr/ct/packages/sdtmct-2017-12-22/codelists/C124297", "title": "CDISC SDTM Biospecimen Events Dictionary Derived Term Terminology", "type": "Code List"}, "rootItem": {"href": "/mdr/root/ct/sdtmct/codelists/C124297", "title": "Version-agnostic anchor resource for codelist C124297", "type": "Root Value Domain"}, "self": {"href": "/mdr/ct/packages/sdtmct-2018-03-30/codelists/C124297", "title": "CDISC SDTM Biospecimen Events Dictionary Derived Term Terminology", "type": "Code List"}}, "conceptId": "C124297", "definition": "A terminology codelist based on the verbatim or preprinted term for the biospecimen events that occur.", "extensible": "true", "name": "Biospecimen Events Dictionary Derived Term", "preferredTerm": "CDISC SDTM Biospecimen Events Dictionary Derived Term Terminology", "submissionValue": "BEDECOD", "synonyms": ["Biospecimen Events Dictionary Derived Term"], "terms": [{"conceptId": "C124326", "definition": "The act of dividing a liquid item into multiple items of smaller volume.", "preferredTerm": "Aliquotting", "submissionValue": "ALIQUOTING"}, {"conceptId": "C25453", "definition": "The act of gathering an item.", "preferredTerm": "Collection", "submissionValue": "COLLECTING"}, {"conceptId": "C85856", "definition": "The act of increasing the density of a substance and decreasing its volume.", "preferredTerm": "Concentrate", "submissionValue": "CONCENTRATING"}, {"conceptId": "C17201", "definition": "The act of maintaining and/or attempting to grow explanted cells in an in vitro environment.", "preferredTerm": "Tissue Culture", "submissionValue": "CULTURING"}, {"conceptId": "C68769", "definition": "The act of ridding of contamination.", "preferredTerm": "Decontamination", "submissionValue": "DECONTAMINATING"}, {"conceptId": "C62100", "definition": "The act of demolishing an item to make it unusable or unanalyzable.", "preferredTerm": "Destruction", "submissionValue": "DESTROYING"}, {"conceptId": "C48163", "definition": "To surround an object with a firm chemical substance such as wax or resin.", "preferredTerm": "Embedding", "submissionValue": "EMBEDDING"}, {"conceptId": "C25219", "definition": "To chemically preserve so as to maintain structural and/or molecular features.", "preferredTerm": "Fixation", "submissionValue": "FIXING"}, {"conceptId": "C63521", "definition": "To freeze rapidly so as to preserve structure and prevent ice crystal formation.", "preferredTerm": "Quick Freeze", "submissionValue": "FLASH FREEZING"}, {"conceptId": "C48160", "definition": "The process whereby cold changes the water component from a liquid to a solid.", "preferredTerm": "Freezing", "submissionValue": "FREEZING"}, {"conceptId": "C128947", "definition": "The act of separating a molecular component from the original specimen.", "preferredTerm": "Specimen Isolation", "submissionValue": "ISOLATING"}, {"conceptId": "C25639", "definition": "Coming into possession of or acting as the receptacle or recipient of an item conveyed by an intermediary to the intended destination, from a sender.", "preferredTerm": "Receive", "submissionValue": "RECEIVING"}, {"conceptId": "C124327", "definition": "To cut a very thin slice of tissue or other substance.", "preferredTerm": "Sectioning", "submissionValue": "SECTIONING"}, {"conceptId": "C40353", "definition": "Being transported or conveyed by an intermediary to a destination, from the sender to the intended receiver.", "preferredTerm": "Shipping", "submissionValue": "SHIPPING"}, {"conceptId": "C23010", "definition": "To dye or tint tissues or other biological samples for the purpose of imaging structures.", "preferredTerm": "Staining Method", "submissionValue": "STAINING"}, {"conceptId": "C60824", "definition": "The act of safekeeping items in a depository.", "preferredTerm": "Storage", "submissionValue": "STORING"}, {"conceptId": "C48165", "definition": "The process whereby heat changes the water component from a solid to a liquid.", "preferredTerm": "Thaw", "submissionValue": "THAWING"}]}