{"_links": {"parentPackage": {"href": "/mdr/ct/packages/sdtmct-2018-03-30", "title": "SDTM Controlled Terminology Package 33 Effective 2018-03-30", "type": "Terminology"}, "priorVersion": {"href": "/mdr/ct/packages/sdtmct-2017-12-22/codelists/C124664", "title": "CDISC Clinical Classification Tanner Scale-Girl Test Code Terminology", "type": "Code List"}, "rootItem": {"href": "/mdr/root/ct/sdtmct/codelists/C124664", "title": "Version-agnostic anchor resource for codelist C124664", "type": "Root Value Domain"}, "self": {"href": "/mdr/ct/packages/sdtmct-2018-03-30/codelists/C124664", "title": "CDISC Clinical Classification Tanner Scale-Girl Test Code Terminology", "type": "Code List"}}, "conceptId": "C124664", "definition": "Tanner Scale Girl test code.", "extensible": "false", "name": "Tanner Scale Girl Clinical Classification Test Code", "preferredTerm": "CDISC Clinical Classification Tanner Scale-Girl Test Code Terminology", "submissionValue": "TANN01TC", "synonyms": ["Tanner Scale Girl Clinical Classification Test Code"], "terms": [{"conceptId": "C124718", "definition": "Tanner Scale Girl - Breast stages.", "preferredTerm": "Tanner Scale-Girl - Breast Stages", "submissionValue": "TANN0101", "synonyms": ["TANN01-Breast Stages"]}, {"conceptId": "C124719", "definition": "Tanner Scale Girl - Pubic hair stages.", "preferredTerm": "Tanner Scale-Girl - Pubic Hair Stages", "submissionValue": "TANN0102", "synonyms": ["TANN01-Pubic Hair Stages"]}]}