{"_links": {"parentPackage": {"href": "/mdr/ct/packages/sdtmct-2018-03-30", "title": "SDTM Controlled Terminology Package 33 Effective 2018-03-30", "type": "Terminology"}, "priorVersion": {"href": "/mdr/ct/packages/sdtmct-2017-12-22/codelists/C124663", "title": "CDISC Clinical Classification Tanner Scale-Girl Test Name Terminology", "type": "Code List"}, "rootItem": {"href": "/mdr/root/ct/sdtmct/codelists/C124663", "title": "Version-agnostic anchor resource for codelist C124663", "type": "Root Value Domain"}, "self": {"href": "/mdr/ct/packages/sdtmct-2018-03-30/codelists/C124663", "title": "CDISC Clinical Classification Tanner Scale-Girl Test Name Terminology", "type": "Code List"}}, "conceptId": "C124663", "definition": "Tanner Scale Girl test name.", "extensible": "false", "name": "Tanner Scale Girl Clinical Classification Test Name", "preferredTerm": "CDISC Clinical Classification Tanner Scale-Girl Test Name Terminology", "submissionValue": "TANN01TN", "synonyms": ["Tanner Scale Girl Clinical Classification Test Name"], "terms": [{"conceptId": "C124718", "definition": "Tanner Scale Girl - Breast stages.", "preferredTerm": "Tanner Scale-Girl - Breast Stages", "submissionValue": "TANN01-Breast Stages", "synonyms": ["TANN01-Breast Stages"]}, {"conceptId": "C124719", "definition": "Tanner Scale Girl - Pubic hair stages.", "preferredTerm": "Tanner Scale-Girl - Pubic Hair Stages", "submissionValue": "TANN01-Pubic Hair Stages", "synonyms": ["TANN01-Pubic Hair Stages"]}]}