{"_links": {"parentPackage": {"href": "/mdr/ct/packages/sdtmct-2018-03-30", "title": "SDTM Controlled Terminology Package 33 Effective 2018-03-30", "type": "Terminology"}, "priorVersion": {"href": "/mdr/ct/packages/sdtmct-2017-12-22/codelists/C124681", "title": "CDISC Clinical Classification GCS NINDS Version Test Name Terminology", "type": "Code List"}, "rootItem": {"href": "/mdr/root/ct/sdtmct/codelists/C124681", "title": "Version-agnostic anchor resource for codelist C124681", "type": "Root Value Domain"}, "self": {"href": "/mdr/ct/packages/sdtmct-2018-03-30/codelists/C124681", "title": "CDISC Clinical Classification GCS NINDS Version Test Name Terminology", "type": "Code List"}}, "conceptId": "C124681", "definition": "Glasgow Coma Scale NINDS Version test name.", "extensible": "false", "name": "Glasgow Coma Scale NINDS Version Clinical Classification Test Name", "preferredTerm": "CDISC Clinical Classification GCS NINDS Version Test Name Terminology", "submissionValue": "GCS01TN", "synonyms": ["Glasgow Coma Scale NINDS Version Clinical Classification Test Name"], "terms": [{"conceptId": "C124724", "definition": "Glasgow Coma Scale - Best eye response.", "preferredTerm": "GCS NINDS Version - Best Eye Response", "submissionValue": "GCS01-Best Eye Response", "synonyms": ["GCS01-Best Eye Response"]}, {"conceptId": "C124730", "definition": "Glasgow Coma Scale - GCS Confounder Type: alcohol/drugs of abuse.", "preferredTerm": "GCS NINDS Version - Confounder: Alcohol or Drug of Abuse", "submissionValue": "GCS01-Confounder: Alcohol/Drug of Abuse", "synonyms": ["GCS01-Confounder: Alcohol/Drug of Abuse"]}, {"conceptId": "C124731", "definition": "Glasgow Coma Scale - GCS Confounder Type: C-spine injury.", "preferredTerm": "GCS NINDS Version - Confounder: C-Spine Injury", "submissionValue": "GCS01-Confounder: C-Spine Injury", "synonyms": ["GCS01-Confounder: C-Spine Injury"]}, {"conceptId": "C124728", "definition": "Glasgow Coma Scale - GCS Confounder Type: GCS accurate.", "preferredTerm": "GCS NINDS Version - Confounder: GCS Accurate", "submissionValue": "GCS01-Confounder: GCS Accurate", "synonyms": ["GCS01-Confounder: GCS Accurate"]}, {"conceptId": "C124733", "definition": "Glasgow Coma Scale - GCS Confounder Type: hypothermia.", "preferredTerm": "GCS NINDS Version - Confounder: Hypothermia", "submissionValue": "GCS01-Confounder: Hypothermia", "synonyms": ["GCS01-Confounder: Hypothermia"]}, {"conceptId": "C124732", "definition": "Glasgow Coma Scale - GCS Confounder Type: hypoxia/hypotension.", "preferredTerm": "GCS NINDS Version - Confounder: Hypoxia or Hypotension", "submissionValue": "GCS01-Confounder: Hypoxia/Hypotension", "synonyms": ["GCS01-Confounder: Hypoxia/Hypotension"]}, {"conceptId": "C124729", "definition": "Glasgow Coma Scale - GCS Confounder Type: paralytic.", "preferredTerm": "GCS NINDS Version - Confounder: Paralytic", "submissionValue": "GCS01-Confounder: Paralytic", "synonyms": ["GCS01-Confounder: Paralytic"]}, {"conceptId": "C124734", "definition": "Glasgow Coma Scale - GCS Confounder Type: sedation.", "preferredTerm": "GCS NINDS Version - Confounder: Sedation", "submissionValue": "GCS01-Confounder: Sedation", "synonyms": ["GCS01-Confounder: Sedation"]}, {"conceptId": "C124735", "definition": "Glasgow Coma Scale - GCS Confounder Type: unknown.", "preferredTerm": "GCS NINDS Version - Confounder: Unknown", "submissionValue": "GCS01-Confounder: Unknown", "synonyms": ["GCS01-Confounder: Unknown"]}, {"conceptId": "C124725", "definition": "Glasgow Coma Scale - Motor response.", "preferredTerm": "GCS NINDS Version - Motor Response", "submissionValue": "GCS01-Motor Response", "synonyms": ["GCS01-Motor Response"]}, {"conceptId": "C124727", "definition": "Glasgow Coma Scale - Total score.", "preferredTerm": "GCS NINDS Version - Total Score", "submissionValue": "GCS01-Total Score", "synonyms": ["GCS01-Total Score"]}, {"conceptId": "C124726", "definition": "Glasgow Coma Scale - Verbal response.", "preferredTerm": "GCS NINDS Version - Verbal Response", "submissionValue": "GCS01-Verbal Response", "synonyms": ["GCS01-Verbal Response"]}]}