{"_links": {"parentPackage": {"href": "/mdr/ct/packages/sdtmct-2018-03-30", "title": "SDTM Controlled Terminology Package 33 Effective 2018-03-30", "type": "Terminology"}, "priorVersion": {"href": "/mdr/ct/packages/sdtmct-2017-12-22/codelists/C124302", "title": "CDISC SDTM Schizophrenia Findings About Test Code Terminology", "type": "Code List"}, "rootItem": {"href": "/mdr/root/ct/sdtmct/codelists/C124302", "title": "Version-agnostic anchor resource for codelist C124302", "type": "Root Value Domain"}, "self": {"href": "/mdr/ct/packages/sdtmct-2018-03-30/codelists/C124302", "title": "CDISC SDTM Schizophrenia Findings About Test Code Terminology", "type": "Code List"}}, "conceptId": "C124302", "definition": "Terminology relevant to the test codes that describe findings about a schizophrenia event or intervention.", "extensible": "true", "name": "Schizophrenia Findings About Test Code", "preferredTerm": "CDISC SDTM Schizophrenia Findings About Test Code Terminology", "submissionValue": "SZFATSCD", "synonyms": ["Schizophrenia Findings About Test Code"], "terms": [{"conceptId": "C124437", "definition": "The agent, stimulus, activity, or event that causes stress with an acute frequency, which has the highest level of severity.", "preferredTerm": "Most Severe Acute Stressor", "submissionValue": "ACUTSTRS", "synonyms": ["Most Severe Acute Stressor"]}, {"conceptId": "C124438", "definition": "The age at which the first episode occurred.", "preferredTerm": "Age at First Episode", "submissionValue": "AGEEPSD1", "synonyms": ["Age At First Episode"]}, {"conceptId": "C124439", "definition": "The age at which the first hospitalization event occurred.", "preferredTerm": "Age at First Hospitalization", "submissionValue": "AGEHOSP1", "synonyms": ["Age At First Hospitalization"]}, {"conceptId": "C124440", "definition": "The age at which the first treatment for the condition occurred.", "preferredTerm": "Age at First Treatment", "submissionValue": "AGETRT1", "synonyms": ["Age At First Treatment"]}, {"conceptId": "C124441", "definition": "The agent, stimulus, activity, or event that causes stress with a chronic frequency, which has the highest level of severity.", "preferredTerm": "Most Severe Chronic Stressor", "submissionValue": "CHRNSTRS", "synonyms": ["Most Severe Chronic Stressor"]}, {"conceptId": "C124442", "definition": "An indication as to whether the subject was admitted to a healthcare clinic.", "preferredTerm": "Clinic Stay Indicator", "submissionValue": "CLININD", "synonyms": ["Clinic Stay Indicator"]}, {"conceptId": "C124281", "definition": "The total number of episodes that have occurred for the condition.", "preferredTerm": "Number of Episodes", "submissionValue": "EPSDNUM", "synonyms": ["Number of Episodes"]}, {"conceptId": "C124443", "definition": "The total number of hospitalization events that have occurred for the condition.", "preferredTerm": "Number of Hospitalizations", "submissionValue": "HOSPNUM", "synonyms": ["Number Of Hospitalizations"]}, {"conceptId": "C35461", "definition": "A description of the series of events, including signs and symptoms, that define the course of a chronic disease over time.", "preferredTerm": "Clinical Course of Disease", "submissionValue": "LONGCRSE", "synonyms": ["Longitudinal Course"]}, {"conceptId": "C127786", "definition": "An indication as to whether something has happened, such as an event or incident.", "preferredTerm": "Occurrence Indicator", "submissionValue": "OCCUR", "synonyms": ["Occurrence Indicator"]}, {"conceptId": "C124444", "definition": "The surroundings or environment within which the subject receives therapeutic treatment for the condition.", "preferredTerm": "Treatment Setting", "submissionValue": "TRTSETT", "synonyms": ["Treatment Setting"]}]}