{"_links": {"parentPackage": {"href": "/mdr/ct/packages/sdtmct-2018-03-30", "title": "SDTM Controlled Terminology Package 33 Effective 2018-03-30", "type": "Terminology"}, "priorVersion": {"href": "/mdr/ct/packages/sdtmct-2017-12-22/codelists/C124308", "title": "CDISC SDTM Treatment Setting Terminology", "type": "Code List"}, "rootItem": {"href": "/mdr/root/ct/sdtmct/codelists/C124308", "title": "Version-agnostic anchor resource for codelist C124308", "type": "Root Value Domain"}, "self": {"href": "/mdr/ct/packages/sdtmct-2018-03-30/codelists/C124308", "title": "CDISC SDTM Treatment Setting Terminology", "type": "Code List"}}, "conceptId": "C124308", "definition": "Terminology relevant to the clinical trial or treatment setting for the therapy of interest.", "extensible": "true", "name": "Treatment Setting", "preferredTerm": "CDISC SDTM Treatment Setting Terminology", "submissionValue": "TRTSET", "synonyms": ["Treatment Setting"], "terms": [{"conceptId": "C124450", "definition": "A clinical trial or treatment setting in which the therapy of interest is considered adjuvant.", "preferredTerm": "Adjuvant Therapy Clinical Trial Setting", "submissionValue": "ADJUVANT"}, {"conceptId": "C124451", "definition": "A clinical trial or treatment setting in which the therapy of interest is used to treat locally advanced disease.", "preferredTerm": "Locally Advanced Disease Clinical Trial Setting", "submissionValue": "LOCALLY ADVANCED"}, {"conceptId": "C124452", "definition": "A clinical trial or treatment setting in which the therapy of interest is used to treat metastatic disease.", "preferredTerm": "Metastatic Disease Clinical Trial Setting", "submissionValue": "METASTATIC"}, {"conceptId": "C124453", "definition": "A clinical trial or treatment setting in which the therapy of interest is considered neo-adjuvant.", "preferredTerm": "Neoadjuvant Therapy Clinical Trial Setting", "submissionValue": "NEO-ADJUVANT"}, {"conceptId": "C124454", "definition": "A clinical trial or treatment setting in which the therapy of interest is considered preventative.", "preferredTerm": "Preventative Therapy Clinical Trial Setting", "submissionValue": "PREVENTATIVE"}]}