{"_links": {"parentPackage": {"href": "/mdr/ct/packages/sdtmct-2018-03-30", "title": "SDTM Controlled Terminology Package 33 Effective 2018-03-30", "type": "Terminology"}, "priorVersion": {"href": "/mdr/ct/packages/sdtmct-2017-12-22/codelists/C124682", "title": "CDISC Clinical Classification GCS NINDS Version Test Code Terminology", "type": "Code List"}, "rootItem": {"href": "/mdr/root/ct/sdtmct/codelists/C124682", "title": "Version-agnostic anchor resource for codelist C124682", "type": "Root Value Domain"}, "self": {"href": "/mdr/ct/packages/sdtmct-2018-03-30/codelists/C124682", "title": "CDISC Clinical Classification GCS NINDS Version Test Code Terminology", "type": "Code List"}}, "conceptId": "C124682", "definition": "Glasgow Coma Scale NINDS Version test code.", "extensible": "false", "name": "Glasgow Coma Scale NINDS Version Clinical Classification Test Code", "preferredTerm": "CDISC Clinical Classification GCS NINDS Version Test Code Terminology", "submissionValue": "GCS01TC", "synonyms": ["Glasgow Coma Scale NINDS Version Clinical Classification Test Code"], "terms": [{"conceptId": "C124724", "definition": "Glasgow Coma Scale - Best eye response.", "preferredTerm": "GCS NINDS Version - Best Eye Response", "submissionValue": "GCS0101", "synonyms": ["GCS01-Best Eye Response"]}, {"conceptId": "C124725", "definition": "Glasgow Coma Scale - Motor response.", "preferredTerm": "GCS NINDS Version - Motor Response", "submissionValue": "GCS0102", "synonyms": ["GCS01-Motor Response"]}, {"conceptId": "C124726", "definition": "Glasgow Coma Scale - Verbal response.", "preferredTerm": "GCS NINDS Version - Verbal Response", "submissionValue": "GCS0103", "synonyms": ["GCS01-Verbal Response"]}, {"conceptId": "C124727", "definition": "Glasgow Coma Scale - Total score.", "preferredTerm": "GCS NINDS Version - Total Score", "submissionValue": "GCS0104", "synonyms": ["GCS01-Total Score"]}, {"conceptId": "C124728", "definition": "Glasgow Coma Scale - GCS Confounder Type: GCS accurate.", "preferredTerm": "GCS NINDS Version - Confounder: GCS Accurate", "submissionValue": "GCS0105A", "synonyms": ["GCS01-Confounder: GCS Accurate"]}, {"conceptId": "C124729", "definition": "Glasgow Coma Scale - GCS Confounder Type: paralytic.", "preferredTerm": "GCS NINDS Version - Confounder: Paralytic", "submissionValue": "GCS0105B", "synonyms": ["GCS01-Confounder: Paralytic"]}, {"conceptId": "C124730", "definition": "Glasgow Coma Scale - GCS Confounder Type: alcohol/drugs of abuse.", "preferredTerm": "GCS NINDS Version - Confounder: Alcohol or Drug of Abuse", "submissionValue": "GCS0105C", "synonyms": ["GCS01-Confounder: Alcohol/Drug of Abuse"]}, {"conceptId": "C124731", "definition": "Glasgow Coma Scale - GCS Confounder Type: C-spine injury.", "preferredTerm": "GCS NINDS Version - Confounder: C-Spine Injury", "submissionValue": "GCS0105D", "synonyms": ["GCS01-Confounder: C-Spine Injury"]}, {"conceptId": "C124732", "definition": "Glasgow Coma Scale - GCS Confounder Type: hypoxia/hypotension.", "preferredTerm": "GCS NINDS Version - Confounder: Hypoxia or Hypotension", "submissionValue": "GCS0105E", "synonyms": ["GCS01-Confounder: Hypoxia/Hypotension"]}, {"conceptId": "C124733", "definition": "Glasgow Coma Scale - GCS Confounder Type: hypothermia.", "preferredTerm": "GCS NINDS Version - Confounder: Hypothermia", "submissionValue": "GCS0105F", "synonyms": ["GCS01-Confounder: Hypothermia"]}, {"conceptId": "C124734", "definition": "Glasgow Coma Scale - GCS Confounder Type: sedation.", "preferredTerm": "GCS NINDS Version - Confounder: Sedation", "submissionValue": "GCS0105G", "synonyms": ["GCS01-Confounder: Sedation"]}, {"conceptId": "C124735", "definition": "Glasgow Coma Scale - GCS Confounder Type: unknown.", "preferredTerm": "GCS NINDS Version - Confounder: Unknown", "submissionValue": "GCS0105H", "synonyms": ["GCS01-Confounder: Unknown"]}]}