{"_links": {"parentPackage": {"href": "/mdr/ct/packages/sdtmct-2018-03-30", "title": "SDTM Controlled Terminology Package 33 Effective 2018-03-30", "type": "Terminology"}, "priorVersion": {"href": "/mdr/ct/packages/sdtmct-2017-12-22/codelists/C125740", "title": "CDISC Questionnaire ASEX-Female Version Test Name Terminology", "type": "Code List"}, "rootItem": {"href": "/mdr/root/ct/sdtmct/codelists/C125740", "title": "Version-agnostic anchor resource for codelist C125740", "type": "Root Value Domain"}, "self": {"href": "/mdr/ct/packages/sdtmct-2018-03-30/codelists/C125740", "title": "CDISC Questionnaire ASEX-Female Version Test Name Terminology", "type": "Code List"}}, "conceptId": "C125740", "definition": "Arizona Sexual Experiences Scale - Female test name.", "extensible": "false", "name": "Arizona Sexual Experiences Scale - Female Questionnaire Test Name", "preferredTerm": "CDISC Questionnaire ASEX-Female Version Test Name Terminology", "submissionValue": "ASEX01TN", "synonyms": ["Arizona Sexual Experiences Scale - Female Questionnaire Test Name"], "terms": [{"conceptId": "C129254", "definition": "Arizona Sexual Experiences Scale Female - Comments.", "preferredTerm": "ASEX-Female Version - Comments", "submissionValue": "ASEX01-Comments", "synonyms": ["ASEX01-Comments"]}, {"conceptId": "C125767", "definition": "Arizona Sexual Experiences Scale Female - Are your orgasms satisfying?", "preferredTerm": "ASEX-Female Version - Orgasms Satisfying", "submissionValue": "ASEX01-Orgasms Satisfying", "synonyms": ["ASEX01-Orgasms Satisfying"]}, {"conceptId": "C125766", "definition": "Arizona Sexual Experiences Scale Female - How easily can you reach an orgasm?", "preferredTerm": "ASEX-Female Version - Reach Orgasm", "submissionValue": "ASEX01-Reach Orgasm", "synonyms": ["ASEX01-Reach Orgasm"]}, {"conceptId": "C125763", "definition": "Arizona Sexual Experiences Scale Female - How strong is your sex drive?", "preferredTerm": "ASEX-Female Version - Sex Drive", "submissionValue": "ASEX01-Sex Drive", "synonyms": ["ASEX01-Sex Drive"]}, {"conceptId": "C125764", "definition": "Arizona Sexual Experiences Scale Female - How easily are you sexually aroused (turned on)?", "preferredTerm": "ASEX-Female Version - Sexually Aroused", "submissionValue": "ASEX01-Sexually Aroused", "synonyms": ["ASEX01-Sexually Aroused"]}, {"conceptId": "C125765", "definition": "Arizona Sexual Experiences Scale Female - How easily does your vagina become moist or wet during sex?", "preferredTerm": "ASEX-Female Version - Vagina Become Moist", "submissionValue": "ASEX01-Vagina Become Moist", "synonyms": ["ASEX01-Vagina Become Moist"]}]}