{"_links": {"parentPackage": {"href": "/mdr/ct/packages/sdtmct-2018-03-30", "title": "SDTM Controlled Terminology Package 33 Effective 2018-03-30", "type": "Terminology"}, "priorVersion": {"href": "/mdr/ct/packages/sdtmct-2017-12-22/codelists/C125922", "title": "CDISC SDTM Microscopic Findings Test Detail Terminology", "type": "Code List"}, "rootItem": {"href": "/mdr/root/ct/sdtmct/codelists/C125922", "title": "Version-agnostic anchor resource for codelist C125922", "type": "Root Value Domain"}, "self": {"href": "/mdr/ct/packages/sdtmct-2018-03-30/codelists/C125922", "title": "CDISC SDTM Microscopic Findings Test Detail Terminology", "type": "Code List"}}, "conceptId": "C125922", "definition": "Terminology relevant to the additional descriptions of the test being performed to produce the microscopic result.", "extensible": "true", "name": "Microscopic Findings Test Details", "preferredTerm": "CDISC SDTM Microscopic Findings Test Detail Terminology", "submissionValue": "MIFTSDTL", "synonyms": ["Microscopic Findings Test Details"], "terms": [{"conceptId": "C135461", "definition": "A grading system developed by the American Joint Committee on Cancer (AJCC) and assigned based on the degree of cellular differentiation within a tumor sample. (American Joint Committee on Cancer. AJCC Cancer Staging Manual. 7th ed. New York, NY: Springer; 2010.)", "preferredTerm": "AJCC Tumor Grade", "submissionValue": "AJCC TUMOR GRADE"}, {"conceptId": "C125985", "definition": "A score developed by Allred et al. (1998) and assigned based on the percent positivity of cells for a particular protein (Allred DC, Harvey JM, Berardo M, Clark GM. Prognostic and predictive factors in breast cancer by immunohistochemical analysis. Mod Pathol. 1998 Feb;11(2):155-68).", "preferredTerm": "Allred Proportion Positive Score", "submissionValue": "ALLRED PROPORTION POSITIVE SCORE"}, {"conceptId": "C125986", "definition": "A score developed by Allred et al. (1998) and assigned based on the average staining intensity of cells for a particular protein (Allred DC, Harvey JM, Berardo M, Clark GM. Prognostic and predictive factors in breast cancer by immunohistochemical analysis. Mod Pathol. 1998 Feb;11(2):155-68).", "preferredTerm": "Allred Average Staining Intensity Score", "submissionValue": "ALLRED STAINING INTENSITY SCORE"}, {"conceptId": "C125987", "definition": "The histopathological evaluation of staining in tissue based on the Allred scoring system (Allred DC, Harvey JM, Berardo M, Clark GM. Prognostic and predictive factors in breast cancer by immunohistochemical analysis. Mod Pathol. 1998 Feb;11(2):155-68).", "preferredTerm": "Allred Total Score", "submissionValue": "ALLRED TOTAL SCORE"}, {"conceptId": "C135462", "definition": "A score originally developed by Solez et al. (1993) and assigned based on the histologic evaluation of kidney allograft biopsies according to the Banff Working Classification of Renal Allograft Pathology.", "preferredTerm": "Banff Renal Quantitative Criteria Score", "submissionValue": "BANFF QUANTITATIVE CRITERIA SCORE RENAL"}, {"conceptId": "C119570", "definition": "The histopathological evaluation of the liver based on the Batts-Ludwig scoring system.", "preferredTerm": "Batts-Ludwig Fibrosis Score", "submissionValue": "BATTS-LUDWIG FIBROSIS SCORE", "synonyms": ["Batts-Ludwig Fibrosis Score"]}, {"conceptId": "C132429", "definition": "The histopathological evaluation of the liver based on the enhanced liver fibrosis scoring system.", "preferredTerm": "Enhanced Liver Fibrosis Score", "submissionValue": "ENHANCED LIVER FIBROSIS SCORE", "synonyms": ["ELF"]}, {"conceptId": "C48603", "definition": "The most prevalent Gleason pattern in a prostate biopsy or prostatectomy specimen. (Gleason, D. F. (1977). The Veteran's Administration Cooperative Urologic Research Group: histologic grading and clinical staging of prostatic carcinoma. In Tannenbaum, M. Urologic Pathology: The Prostate. Philadelphia: Lea and Febiger. pp. 171-198.)", "preferredTerm": "Primary Gleason Pattern", "submissionValue": "GLEASON PRIMARY SCORE"}, {"conceptId": "C48604", "definition": "The second most prevalent Gleason pattern in a prostate biopsy or prostatectomy specimen. (Gleason, D. F. (1977). The Veteran's Administration Cooperative Urologic Research Group: histologic grading and clinical staging of prostatic carcinoma. In Tannenbaum, M. Urologic Pathology: The Prostate. Philadelphia: Lea and Febiger. pp. 171-198.)", "preferredTerm": "Secondary Gleason Pattern", "submissionValue": "GLEASON SECONDARY SCORE"}, {"conceptId": "C48602", "definition": "The sum of the primary and secondary Gleason scores. If three patterns are identified, it is the sum of the primary pattern score and the score of the least well-differentiated pattern. (Gleason, D. F. (1977). The Veteran's Administration Cooperative Urologic Research Group: histologic grading and clinical staging of prostatic carcinoma. In Tannenbaum, M. Urologic Pathology: The Prostate. Philadelphia: Lea and Febiger. pp. 171-198.)", "preferredTerm": "Total Gleason Score for Prostate Cancer", "submissionValue": "GLEASON TOTAL SUM"}, {"conceptId": "C125988", "definition": "The histopathological evaluation of staining in tissue based on the H Score scoring system (McCarty KS Jr, Miller LS, Cox EB, et al. Estrogen receptor analyses: correlation of biochemical and immunohistochemical methods using monoclonal antireceptor antibodies. Arch Pathol Lab Med. 1985;109(8):716-721).", "preferredTerm": "H Score Total Score", "submissionValue": "H SCORE TOTAL SCORE"}, {"conceptId": "C95149", "definition": "The histopathological evaluation of the liver based on the Ishak scoring system.", "preferredTerm": "Ishak Score", "submissionValue": "ISHAK FIBROSIS SCORE", "synonyms": ["Ishak Fibrosis Score"]}, {"conceptId": "C142346", "definition": "A grading system for prostatic adenocarcinoma based on cellular differentiation patterns and Gleason primary and secondary scores (Epstein JI, Egevad L, Amin MB, Delahunt B, Srigley JR, Humphrey PA; Grading Committee. The 2014 International Society of Urological Pathology (ISUP) Consensus Conference on Gleason Grading of Prostatic Carcinoma: Definition of Grading Patterns and Proposal for a New Grading System. Am J Surg Pathol. 2016 Feb;40(2):244-52.)", "preferredTerm": "International Society of Urological Pathology Gleason Grade Group", "submissionValue": "ISUP GLEASON GRADE GROUP"}, {"conceptId": "C119571", "definition": "The histopathological evaluation of the liver based on the Knodell scoring system.", "preferredTerm": "Knodell Fibrosis Score", "submissionValue": "KNODELL FIBROSIS SCORE", "synonyms": ["Knodell Fibrosis Score"]}, {"conceptId": "C119572", "definition": "The histopathological evaluation of the liver based on the Meta-analysis of Histological Data in Viral Hepatitis (Metavir) scoring system.", "preferredTerm": "METAVIR Fibrosis Score", "submissionValue": "METAVIR FIBROSIS SCORE", "synonyms": ["Metavir Fibrosis Score"]}, {"conceptId": "C70460", "definition": "A measurement of the proportion of cells that are positive for a given protein.", "preferredTerm": "Percent of Positive Cells", "submissionValue": "PERCENT POSITIVE CELL"}, {"conceptId": "C125989", "definition": "An assessment of the status of a biological specimen with regards to a given receptor.", "preferredTerm": "Receptor Overall Status", "submissionValue": "RECEPTOR OVERALL STATUS"}, {"conceptId": "C119573", "definition": "The histopathological evaluation of the liver based on the Scheuer scoring system.", "preferredTerm": "Scheuer Fibrosis Score", "submissionValue": "SCHEUER FIBROSIS SCORE", "synonyms": ["Scheuer Fibrosis Score"]}, {"conceptId": "C127762", "definition": "The degree or magnitude of staining within a biological specimen.", "preferredTerm": "Staining Intensity", "submissionValue": "STAINING INTENSITY"}]}