{"_links": {"parentPackage": {"href": "/mdr/ct/packages/sdtmct-2018-03-30", "title": "SDTM Controlled Terminology Package 33 Effective 2018-03-30", "type": "Terminology"}, "priorVersion": {"href": "/mdr/ct/packages/sdtmct-2017-12-22/codelists/C128688", "title": "CDISC SDTM Microbiology Susceptibility Test Code Terminology", "type": "Code List"}, "rootItem": {"href": "/mdr/root/ct/sdtmct/codelists/C128688", "title": "Version-agnostic anchor resource for codelist C128688", "type": "Root Value Domain"}, "self": {"href": "/mdr/ct/packages/sdtmct-2018-03-30/codelists/C128688", "title": "CDISC SDTM Microbiology Susceptibility Test Code Terminology", "type": "Code List"}}, "conceptId": "C128688", "definition": "Terminology relevant to the test codes that define microorganism responses to antimicrobial agents.", "extensible": "true", "name": "Microbiology Susceptibility Test Code", "preferredTerm": "CDISC SDTM Microbiology Susceptibility Test Code Terminology", "submissionValue": "MSTESTCD", "synonyms": ["Microbiology Susceptibility Test Code"], "terms": [{"conceptId": "C147471", "definition": "A measurement of the diameter of the circular region of bacteria growth inhibition that surrounds an antibiotic source on the surface of a cultured plate.", "preferredTerm": "Antibiotic Susceptibility Zone Diameter", "submissionValue": "DIAZOINH", "synonyms": ["Diameter of the Kill Zone", "Diameter of the Zone of Inhibition"]}, {"conceptId": "C116255", "definition": "An indication of reduced or increased susceptibility of a microbial organism, or activity of a biological/biochemical reaction in response to the inhibitory concentration (IC50 and/or IC95) of a specific drug.", "preferredTerm": "Inhibitory Concentration Net Assessment Measurement", "submissionValue": "ICNETAS", "synonyms": ["Inhibitory Concentration Net Assessment"]}, {"conceptId": "C139114", "definition": "A fold change based on the concentration of a specific drug expected to produce 50 percent inhibition of population growth or replication of a microbial organism. (NCI)", "preferredTerm": "Microbial EC50 Fold Change from Baseline", "submissionValue": "MEC50FCB", "synonyms": ["Microbial EC50 Fold Change from Baseline"]}, {"conceptId": "C139115", "definition": "A fold change based on the concentration of a specific drug expected to produce 50 percent inhibition of the population growth or replication of a microbial organism. It is a ratio calculated by the EC50 Subject Result divided by the EC50 Reference Control Result. (NCI)", "preferredTerm": "Microbial EC50 Fold Change from Reference", "submissionValue": "MEC50FCR", "synonyms": ["Microbial EC50 Fold Change from Ref", "Microbial EC50 Fold Change from Reference"]}, {"conceptId": "C139116", "definition": "A reference control sample response based on the concentration of a specific drug expected to produce 50 percent inhibition of the population growth or replication of a microbial organism. (NCI)", "preferredTerm": "Microbial EC50 Reference Control Result", "submissionValue": "MEC50R", "synonyms": ["Microbial EC50 Reference Control Result"]}, {"conceptId": "C139117", "definition": "A measurement of titer of a microbial organism that has been exposed to the concentration of a specific drug expected to produce 50 percent inhibition of the population growth or replication of a microbial organism. (NCI)", "preferredTerm": "Microbial EC50 Subject Result", "submissionValue": "MEC50S", "synonyms": ["Microbial EC50 Subject Result"]}, {"conceptId": "C128985", "definition": "A measurement that specifies the minimum concentration of the agent at which organism growth was inhibited.", "preferredTerm": "Minimum Inhibitory Concentration Test", "submissionValue": "MIC", "synonyms": ["Minimum Inhibitory Concentration"]}, {"conceptId": "C139118", "definition": "A fold change based on the concentration of a specific drug expected to produce 50 percent inhibition on the enzymatic activity of a microbial organism. It is a ratio calculated by the current IC50 Subject Result divided by the IC50 Subject Result from the baseline visit.", "preferredTerm": "Microbial IC50 Fold Change from Baseline", "submissionValue": "MIC50FCB", "synonyms": ["Microbial IC50 Fold Change from Baseline"]}, {"conceptId": "C139119", "definition": "A fold change based on the concentration of a specific drug expected to produce 50 percent inhibition on the enzymatic activity of a microbial organism. It is a ratio calculated by the IC50 Subject Result divided by the IC50 Reference Control Result.", "preferredTerm": "Microbial IC50 Fold Change from Reference", "submissionValue": "MIC50FCR", "synonyms": ["Microbial IC50 Fold Change from Ref", "Microbial IC50 Fold Change from Reference"]}, {"conceptId": "C139120", "definition": "A reference control sample response based on the concentration of a specific drug expected to produce 50 percent inhibition on the enzymatic activity of a microbial organism.", "preferredTerm": "Microbial IC50 Reference Control Result", "submissionValue": "MIC50R", "synonyms": ["Microbial IC50 Reference Control Result"]}, {"conceptId": "C139121", "definition": "A measurement of biological/biochemical reaction of a microbial organism that has been exposed to the concentration of a specific drug expected to produce 50 percent inhibition on the enzymatic activity of a microbial organism.", "preferredTerm": "Microbial IC50 Subject Result", "submissionValue": "MIC50S", "synonyms": ["Microbial IC50 Subject Result"]}, {"conceptId": "C139122", "definition": "A fold change based on the concentration of a specific drug expected to produce 95 percent inhibition on the enzymatic activity of a microbial organism. It is a ratio calculated by the current IC95 Subject Result divided by the IC95 Subject Result from the baseline visit.", "preferredTerm": "Microbial IC95 Fold Change from Baseline", "submissionValue": "MIC95FCB", "synonyms": ["IC95 Fold Change from Baseline", "Microbial IC95 Fold Change from Baseline"]}, {"conceptId": "C139123", "definition": "A fold change based on the concentration of a specific drug expected to produce 95 percent inhibition on the enzymatic activity of a microbial organism. It is a ratio calculated by the IC95 Subject Result divided by the IC95 Reference Control Result.", "preferredTerm": "Microbial IC95 Fold Change from Ref", "submissionValue": "MIC95FCR", "synonyms": ["IC95 Fold Change from Reference", "Microbial IC95 Fold Change from Ref"]}, {"conceptId": "C139124", "definition": "A reference control sample response based on the concentration of a specific drug expected to produce 95 percent inhibition on the enzymatic activity of a microbial organism.", "preferredTerm": "Microbial IC95 Reference Control Result", "submissionValue": "MIC95R", "synonyms": ["IC95 Reference Control Result", "Microbial IC95 Reference Control Result"]}, {"conceptId": "C139125", "definition": "A measurement of biological/biochemical reaction of a microbial organism that has been exposed to the concentration of a specific drug expected to produce 95 percent inhibition on the enzymatic activity of a microbial organism.", "preferredTerm": "Microbial IC95 Subject Result", "submissionValue": "MIC95S", "synonyms": ["IC95 Subject Result", "Microbial IC95 Subject Result"]}, {"conceptId": "C85540", "definition": "A measurement of the response of the microbial organism to a controlled concentration of an antimicrobial agent.", "preferredTerm": "Microbial Susceptibility Test", "submissionValue": "MICROSUS", "synonyms": ["Microbial Susceptibility"]}]}