{"_links": {"parentPackage": {"href": "/mdr/ct/packages/sdtmct-2018-03-30", "title": "SDTM Controlled Terminology Package 33 Effective 2018-03-30", "type": "Terminology"}, "priorVersion": {"href": "/mdr/ct/packages/sdtmct-2017-12-22/codelists/C135688", "title": "CDISC Questionnaire PGI Generic Modification Version Test Code Terminology", "type": "Code List"}, "rootItem": {"href": "/mdr/root/ct/sdtmct/codelists/C135688", "title": "Version-agnostic anchor resource for codelist C135688", "type": "Root Value Domain"}, "self": {"href": "/mdr/ct/packages/sdtmct-2018-03-30/codelists/C135688", "title": "CDISC Questionnaire PGI Generic Modification Version Test Code Terminology", "type": "Code List"}}, "conceptId": "C135688", "definition": "Patient Global Impression Generic Modification Version test code.", "extensible": "false", "name": "Patient Global Impression Generic Modification Version Questionnaire Test Code", "preferredTerm": "CDISC Questionnaire PGI Generic Modification Version Test Code Terminology", "submissionValue": "PGI01TC", "synonyms": ["Patient Global Impression Generic Modification Version Questionnaire Test Code"], "terms": [{"conceptId": "C135817", "definition": "Patient Global Impression - Considering all the ways your condition impacts you, how severe is your condition at this time?", "preferredTerm": "PGI Generic Modification Version - Severity", "submissionValue": "PGI0101", "synonyms": ["PGI01-Severity"]}, {"conceptId": "C135818", "definition": "Patient Global Impression - Compared to <previously assessed protocol specified time point> how much has your condition changed?", "preferredTerm": "PGI Generic Modification Version - Change", "submissionValue": "PGI0102", "synonyms": ["PGI01-Change"]}, {"conceptId": "C135819", "definition": "Patient Global Impression - Compared to <previously assessed protocol specified time point> how much has your condition improved?", "preferredTerm": "PGI Generic Modification Version - Improvement", "submissionValue": "PGI0103", "synonyms": ["PGI01-Improvement"]}, {"conceptId": "C142226", "definition": "Patient Global Impression - How was your overall health?", "preferredTerm": "PGI Generic Modification Version - Overall Health", "submissionValue": "PGI0104", "synonyms": ["PGI01-Overall Health"]}]}