{"_links": {"parentPackage": {"href": "/mdr/ct/packages/sdtmct-2018-03-30", "title": "SDTM Controlled Terminology Package 33 Effective 2018-03-30", "type": "Terminology"}, "priorVersion": {"href": "/mdr/ct/packages/sdtmct-2017-12-22/codelists/C138223", "title": "CDISC Questionnaire FKSI-15 Test Code Terminology", "type": "Code List"}, "rootItem": {"href": "/mdr/root/ct/sdtmct/codelists/C138223", "title": "Version-agnostic anchor resource for codelist C138223", "type": "Root Value Domain"}, "self": {"href": "/mdr/ct/packages/sdtmct-2018-03-30/codelists/C138223", "title": "CDISC Questionnaire FKSI-15 Test Code Terminology", "type": "Code List"}}, "conceptId": "C138223", "definition": "Functional Assessment of Cancer Therapy-Kidney Symptom Index-15 test code.", "extensible": "false", "name": "Functional Assessment of Cancer Therapy-Kidney Symptom Index-15 Questionnaire Test Code", "preferredTerm": "CDISC Questionnaire FKSI-15 Test Code Terminology", "submissionValue": "FAC039TC", "synonyms": ["Functional Assessment of Cancer Therapy-Kidney Symptom Index-15 Questionnaire Test Code"], "terms": [{"conceptId": "C138444", "definition": "Functional Assessment of Cancer Therapy-Kidney Symptom Index-15 - I have a lack of energy.", "preferredTerm": "FKSI-15 - I Have a Lack of Energy", "submissionValue": "FAC03901", "synonyms": ["FAC039-I Have a Lack of Energy"]}, {"conceptId": "C138445", "definition": "Functional Assessment of Cancer Therapy-Kidney Symptom Index-15 - I am bothered by side effects of treatment.", "preferredTerm": "FKSI-15 - Bothered by Treatment Side Effect", "submissionValue": "FAC03902", "synonyms": ["FAC039-Bothered by Treatment Side Effect"]}, {"conceptId": "C138446", "definition": "Functional Assessment of Cancer Therapy-Kidney Symptom Index-15 - I have pain.", "preferredTerm": "FKSI-15 - I Have Pain", "submissionValue": "FAC03903", "synonyms": ["FAC039-I Have Pain"]}, {"conceptId": "C138447", "definition": "Functional Assessment of Cancer Therapy-Kidney Symptom Index-15 - I am losing weight.", "preferredTerm": "FKSI-15 - I Am Losing Weight", "submissionValue": "FAC03904", "synonyms": ["FAC039-I Am Losing Weight"]}, {"conceptId": "C138448", "definition": "Functional Assessment of Cancer Therapy-Kidney Symptom Index-15 - I have bone pain.", "preferredTerm": "FKSI-15 - I Have Bone Pain", "submissionValue": "FAC03905", "synonyms": ["FAC039-I Have Bone Pain"]}, {"conceptId": "C138449", "definition": "Functional Assessment of Cancer Therapy-Kidney Symptom Index-15 - I feel fatigued.", "preferredTerm": "FKSI-15 - I Feel Fatigued", "submissionValue": "FAC03906", "synonyms": ["FAC039-I Feel Fatigued"]}, {"conceptId": "C138450", "definition": "Functional Assessment of Cancer Therapy-Kidney Symptom Index-15 - I am able to enjoy life.", "preferredTerm": "FKSI-15 - I Am Able to Enjoy Life", "submissionValue": "FAC03907", "synonyms": ["FAC039-I Am Able to Enjoy Life"]}, {"conceptId": "C138451", "definition": "Functional Assessment of Cancer Therapy-Kidney Symptom Index-15 - I have been short of breath.", "preferredTerm": "FKSI-15 - I Have Been Short of Breath", "submissionValue": "FAC03908", "synonyms": ["FAC039-I Have Been Short of Breath"]}, {"conceptId": "C138452", "definition": "Functional Assessment of Cancer Therapy-Kidney Symptom Index-15 - I worry that my condition will get worse.", "preferredTerm": "FKSI-15 - Worry My Condition Will Get Worse", "submissionValue": "FAC03909", "synonyms": ["FAC039-Worry My Condition Will Get Worse"]}, {"conceptId": "C138453", "definition": "Functional Assessment of Cancer Therapy-Kidney Symptom Index-15 - I have a good appetite.", "preferredTerm": "FKSI-15 - I Have a Good Appetite", "submissionValue": "FAC03910", "synonyms": ["FAC039-I Have a Good Appetite"]}, {"conceptId": "C138454", "definition": "Functional Assessment of Cancer Therapy-Kidney Symptom Index-15 - I have been coughing.", "preferredTerm": "FKSI-15 - I Have Been Coughing", "submissionValue": "FAC03911", "synonyms": ["FAC039-I Have Been Coughing"]}, {"conceptId": "C138455", "definition": "Functional Assessment of Cancer Therapy-Kidney Symptom Index-15 - I am bothered by fevers (episodes of high body temperature).", "preferredTerm": "FKSI-15 - I Am Bothered by Fevers", "submissionValue": "FAC03912", "synonyms": ["FAC039-I Am Bothered by Fevers"]}, {"conceptId": "C138456", "definition": "Functional Assessment of Cancer Therapy-Kidney Symptom Index-15 - I am able to work (include work at home).", "preferredTerm": "FKSI-15 - I Am Able to Work", "submissionValue": "FAC03913", "synonyms": ["FAC039-I Am Able to Work"]}, {"conceptId": "C138457", "definition": "Functional Assessment of Cancer Therapy-Kidney Symptom Index-15 - I have had blood in my urine.", "preferredTerm": "FKSI-15 - I Have Had Blood in My Urine", "submissionValue": "FAC03914", "synonyms": ["FAC039-I Have Had Blood in My Urine"]}, {"conceptId": "C138458", "definition": "Functional Assessment of Cancer Therapy-Kidney Symptom Index-15 - I am sleeping well.", "preferredTerm": "FKSI-15 - I Am Sleeping Well", "submissionValue": "FAC03915", "synonyms": ["FAC039-I Am Sleeping Well"]}]}