{"_links": {"parentPackage": {"href": "/mdr/ct/packages/sdtmct-2018-03-30", "title": "SDTM Controlled Terminology Package 33 Effective 2018-03-30", "type": "Terminology"}, "priorVersion": {"href": "/mdr/ct/packages/sdtmct-2017-12-22/codelists/C138218", "title": "CDISC Functional Test PUL 2.0 Test Name Terminology", "type": "Code List"}, "rootItem": {"href": "/mdr/root/ct/sdtmct/codelists/C138218", "title": "Version-agnostic anchor resource for codelist C138218", "type": "Root Value Domain"}, "self": {"href": "/mdr/ct/packages/sdtmct-2018-03-30/codelists/C138218", "title": "CDISC Functional Test PUL 2.0 Test Name Terminology", "type": "Code List"}}, "conceptId": "C138218", "definition": "Performance of the Upper Limb Module for DMD Version 2.0 test name.", "extensible": "false", "name": "Performance of the Upper Limb Module for DMD Version 2.0 Functional Test Test Name", "preferredTerm": "CDISC Functional Test PUL 2.0 Test Name Terminology", "submissionValue": "PUL02TN", "synonyms": ["Performance of the Upper Limb Module for DMD Version 2.0 Functional Test Test Name"], "terms": [{"conceptId": "C138427", "definition": "Performance of the Upper Limb Module for DMD Version 2.0 - Distal wrist and hand dimension score.", "preferredTerm": "PUL 2.0 - Distal Wrist or Hand Dimension", "submissionValue": "PUL02-Distal Wrist/Hand Dimension", "synonyms": ["PUL02-Distal Wrist/Hand Dimension"]}, {"conceptId": "C138397", "definition": "Performance of the Upper Limb Module for DMD Version 2.0 - Entry item.", "preferredTerm": "PUL 2.0 - Entry Item", "submissionValue": "PUL02-Entry Item", "synonyms": ["PUL02-Entry Item"]}, {"conceptId": "C138403", "definition": "Performance of the Upper Limb Module for DMD Version 2.0 - Shoulder flexion above shoulder with 1 kg weight.", "preferredTerm": "PUL 2.0 - Flexion Above Shoulder Height 1kg", "submissionValue": "PUL02-Flexion Above Shoulder Height 1kg", "synonyms": ["PUL02-Flexion Above Shoulder Height 1kg"]}, {"conceptId": "C138402", "definition": "Performance of the Upper Limb Module for DMD Version 2.0 - Shoulder flexion above shoulder height with 500g weight.", "preferredTerm": "PUL 2.0 - Flexion Above Shoulder Height 500g", "submissionValue": "PUL02-Flexion Above Shoulder Height 500g", "synonyms": ["PUL02-Flexion Above Shoulder Height 500g"]}, {"conceptId": "C138400", "definition": "Performance of the Upper Limb Module for DMD Version 2.0 - Shoulder flexion to shoulder height (no weights).", "preferredTerm": "PUL 2.0 - Flexion Shoulder Height No Weights", "submissionValue": "PUL02-Flexion Shoulder Height No Weights", "synonyms": ["PUL02-Flexion Shoulder Height No Weights"]}, {"conceptId": "C138401", "definition": "Performance of the Upper Limb Module for DMD Version 2.0 - Shoulder flexion to shoulder height with 500g weight.", "preferredTerm": "PUL 2.0 - Flexion to Shoulder Height 500g", "submissionValue": "PUL02-Flexion to Shoulder Height 500g", "synonyms": ["PUL02-Flexion to Shoulder Height 500g"]}, {"conceptId": "C138404", "definition": "Performance of the Upper Limb Module for DMD Version 2.0 - Hand(s) to mouth.", "preferredTerm": "PUL 2.0 - Hand(s) to Mouth", "submissionValue": "PUL02-Hand(s) to Mouth", "synonyms": ["PUL02-Hand(s) to Mouth"]}, {"conceptId": "C138405", "definition": "Performance of the Upper Limb Module for DMD Version 2.0 - Hands to table from lap.", "preferredTerm": "PUL 2.0 - Hands to Table From Lap", "submissionValue": "PUL02-Hands to Table From Lap", "synonyms": ["PUL02-Hands to Table From Lap"]}, {"conceptId": "C138425", "definition": "Performance of the Upper Limb Module for DMD Version 2.0 - High level shoulder dimension score.", "preferredTerm": "PUL 2.0 - High Level Shoulder Dimension", "submissionValue": "PUL02-High Level Shoulder Dimension", "synonyms": ["PUL02-High Level Shoulder Dimension"]}, {"conceptId": "C138424", "definition": "Performance of the Upper Limb Module for DMD Version 2.0 - Left available supination ROM.", "preferredTerm": "PUL 2.0 - Left Available Supination ROM", "submissionValue": "PUL02-Left Available Supination ROM", "synonyms": ["PUL02-Left Available Supination ROM"]}, {"conceptId": "C138422", "definition": "Performance of the Upper Limb Module for DMD Version 2.0 - Left elbow extension ROM.", "preferredTerm": "PUL 2.0 - Left Elbow Extension ROM", "submissionValue": "PUL02-Left Elbow Extension ROM", "synonyms": ["PUL02-Left Elbow Extension ROM"]}, {"conceptId": "C138409", "definition": "Performance of the Upper Limb Module for DMD Version 2.0 - Lift heavy can diagonally.", "preferredTerm": "PUL 2.0 - Lift Heavy Can Diagonally", "submissionValue": "PUL02-Lift Heavy Can Diagonally", "synonyms": ["PUL02-Lift Heavy Can Diagonally"]}, {"conceptId": "C138426", "definition": "Performance of the Upper Limb Module for DMD Version 2.0 - Mid level elbow dimension score.", "preferredTerm": "PUL 2.0 - Mid Level Elbow Dimension", "submissionValue": "PUL02-Mid Level Elbow Dimension", "synonyms": ["PUL02-Mid Level Elbow Dimension"]}, {"conceptId": "C138406", "definition": "Performance of the Upper Limb Module for DMD Version 2.0 - Move weight on table 100g.", "preferredTerm": "PUL 2.0 - Move Weight On Table 100g", "submissionValue": "PUL02-Move Weight on Table 100g", "synonyms": ["PUL02-Move Weight on Table 100g"]}, {"conceptId": "C138408", "definition": "Performance of the Upper Limb Module for DMD Version 2.0 - Move weight on table 1kg.", "preferredTerm": "PUL 2.0 - Move Weight On Table 1kg", "submissionValue": "PUL02-Move Weight on Table 1kg", "synonyms": ["PUL02-Move Weight on Table 1kg"]}, {"conceptId": "C138407", "definition": "Performance of the Upper Limb Module for DMD Version 2.0 - Move weight on table 500g.", "preferredTerm": "PUL 2.0 - Move Weight On Table 500g", "submissionValue": "PUL02-Move Weight on Table 500g", "synonyms": ["PUL02-Move Weight on Table 500g"]}, {"conceptId": "C138419", "definition": "Performance of the Upper Limb Module for DMD Version 2.0 - Pick up 10g weight finger pinch.", "preferredTerm": "PUL 2.0 - Pick Up 10g Weight Finger Pinch", "submissionValue": "PUL02-Pick Up 10g Weight Finger Pinch", "synonyms": ["PUL02-Pick Up 10g Weight Finger Pinch"]}, {"conceptId": "C138417", "definition": "Performance of the Upper Limb Module for DMD Version 2.0 - Picking up coins.", "preferredTerm": "PUL 2.0 - Picking Up Coins", "submissionValue": "PUL02-Picking Up Coins", "synonyms": ["PUL02-Picking Up Coins"]}, {"conceptId": "C138418", "definition": "Performance of the Upper Limb Module for DMD Version 2.0 - Placing finger on number diagram.", "preferredTerm": "PUL 2.0 - Placing Finger on Number Diagram", "submissionValue": "PUL02-Placing Finger on Number Diagram", "synonyms": ["PUL02-Placing Finger on Number Diagram"]}, {"conceptId": "C138420", "definition": "Performance of the Upper Limb Module for DMD Version 2.0 - Preferred arm.", "preferredTerm": "PUL 2.0 - Preferred Arm", "submissionValue": "PUL02-Preferred Arm", "synonyms": ["PUL02-Preferred Arm"]}, {"conceptId": "C138415", "definition": "Performance of the Upper Limb Module for DMD Version 2.0 - Push on light.", "preferredTerm": "PUL 2.0 - Push on Light", "submissionValue": "PUL02-Push on Light", "synonyms": ["PUL02-Push on Light"]}, {"conceptId": "C138399", "definition": "Performance of the Upper Limb Module for DMD Version 2.0 - Raise both arms to shoulder height (elbows at shoulder height).", "preferredTerm": "PUL 2.0 - Raise Both Arms to Shoulder Height", "submissionValue": "PUL02-Raise Both Arms to Shoulder Height", "synonyms": ["PUL02-Raise Both Arms to Shoulder Height"]}, {"conceptId": "C138412", "definition": "Performance of the Upper Limb Module for DMD Version 2.0 - Remove lid from container.", "preferredTerm": "PUL 2.0 - Remove Lid From Container", "submissionValue": "PUL02-Remove Lid From Container", "synonyms": ["PUL02-Remove Lid From Container"]}, {"conceptId": "C138423", "definition": "Performance of the Upper Limb Module for DMD Version 2.0 - Right available supination ROM.", "preferredTerm": "PUL 2.0 - Right Available Supination ROM", "submissionValue": "PUL02-Right Available Supination ROM", "synonyms": ["PUL02-Right Available Supination ROM"]}, {"conceptId": "C138421", "definition": "Performance of the Upper Limb Module for DMD Version 2.0 - Right elbow extension ROM.", "preferredTerm": "PUL 2.0 - Right Elbow Extension ROM", "submissionValue": "PUL02-Right Elbow Extension ROM", "synonyms": ["PUL02-Right Elbow Extension ROM"]}, {"conceptId": "C138398", "definition": "Performance of the Upper Limb Module for DMD Version 2.0 - Shoulder abduction both arms above head.", "preferredTerm": "PUL 2.0 - Shoulder Abduction Arms Above Head", "submissionValue": "PUL02-Shoulder Abduction Arms Above Head", "synonyms": ["PUL02-Shoulder Abduction Arms Above Head"]}, {"conceptId": "C138411", "definition": "Performance of the Upper Limb Module for DMD Version 2.0 - Stack of five cans.", "preferredTerm": "PUL 2.0 - Stack of Five Cans", "submissionValue": "PUL02-Stack of Five Cans", "synonyms": ["PUL02-Stack of Five Cans"]}, {"conceptId": "C138410", "definition": "Performance of the Upper Limb Module for DMD Version 2.0 - Stack of three cans.", "preferredTerm": "PUL 2.0 - Stack of Three Cans", "submissionValue": "PUL02-Stack of Three Cans", "synonyms": ["PUL02-Stack of Three Cans"]}, {"conceptId": "C138416", "definition": "Performance of the Upper Limb Module for DMD Version 2.0 - Supination.", "preferredTerm": "PUL 2.0 - Supination", "submissionValue": "PUL02-Supination", "synonyms": ["PUL02-Supination"]}, {"conceptId": "C138413", "definition": "Performance of the Upper Limb Module for DMD Version 2.0 - Tearing paper.", "preferredTerm": "PUL 2.0 - Tearing Paper", "submissionValue": "PUL02-Tearing Paper", "synonyms": ["PUL02-Tearing Paper"]}, {"conceptId": "C138428", "definition": "Performance of the Upper Limb Module for DMD Version 2.0 - Total score.", "preferredTerm": "PUL 2.0 - Total Score", "submissionValue": "PUL02-Total Score", "synonyms": ["PUL02-Total Score"]}, {"conceptId": "C138414", "definition": "Performance of the Upper Limb Module for DMD Version 2.0 - Tracing path.", "preferredTerm": "PUL 2.0 - Tracing Path", "submissionValue": "PUL02-Tracing Path", "synonyms": ["PUL02-Tracing Path"]}]}