{"_links": {"parentPackage": {"href": "/mdr/ct/packages/sdtmct-2018-03-30", "title": "SDTM Controlled Terminology Package 33 Effective 2018-03-30", "type": "Terminology"}, "priorVersion": {"href": "/mdr/ct/packages/sdtmct-2017-12-22/codelists/C138253", "title": "CDISC Questionnaire PedsQL Neuromuscular Module Version 3.0 Parent Report for Young Adults Report Test Code Terminology", "type": "Code List"}, "rootItem": {"href": "/mdr/root/ct/sdtmct/codelists/C138253", "title": "Version-agnostic anchor resource for codelist C138253", "type": "Root Value Domain"}, "self": {"href": "/mdr/ct/packages/sdtmct-2018-03-30/codelists/C138253", "title": "CDISC Questionnaire PedsQL Neuromuscular Module Version 3.0 Parent Report for Young Adults Report Test Code Terminology", "type": "Code List"}}, "conceptId": "C138253", "definition": "Pediatric Quality of Life Neuromuscular Module Version 3 Young Adult Parent Report test code.", "extensible": "false", "name": "Pediatric Quality of Life Neuromuscular Module Version 3 Young Adult Parent Report Questionnaire Test Code", "preferredTerm": "CDISC Questionnaire PedsQL Neuromuscular Module Version 3.0 Parent Report for Young Adults Report Test Code Terminology", "submissionValue": "PQL02TC", "synonyms": ["Pediatric Quality of Life Neuromuscular Module Version 3 Young Adult Parent Report Questionnaire Test Code"], "terms": [{"conceptId": "C138782", "definition": "Pediatric Quality of Life Neuromuscular Module Version 3 Young Adult Parent Report - In the past one month, how much of a problem has this been for your child: It is hard for my child to breathe.", "preferredTerm": "PedsQL Neuromuscular Module Version 3.0 Parent Report for Young Adults Report - Hard to Breathe", "submissionValue": "PQL0201", "synonyms": ["PQL02-Hard to Breathe"]}, {"conceptId": "C138783", "definition": "Pediatric Quality of Life Neuromuscular Module Version 3 Young Adult Parent Report - In the past one month, how much of a problem has this been for your child: My child gets sick easily.", "preferredTerm": "PedsQL Neuromuscular Module Version 3.0 Parent Report for Young Adults Report - Get Sick Easily", "submissionValue": "PQL0202", "synonyms": ["PQL02-Get Sick Easily"]}, {"conceptId": "C138784", "definition": "Pediatric Quality of Life Neuromuscular Module Version 3 Young Adult Parent Report - In the past one month, how much of a problem has this been for your child: My child gets sores and/or rashes.", "preferredTerm": "PedsQL Neuromuscular Module Version 3.0 Parent Report for Young Adults Report - Get Sores and/or Rashes", "submissionValue": "PQL0203", "synonyms": ["PQL02-Get Sores and/or Rashes"]}, {"conceptId": "C138785", "definition": "Pediatric Quality of Life Neuromuscular Module Version 3 Young Adult Parent Report - In the past one month, how much of a problem has this been for your child: My child's legs hurt.", "preferredTerm": "PedsQL Neuromuscular Module Version 3.0 Parent Report for Young Adults Report - Legs Hurt", "submissionValue": "PQL0204", "synonyms": ["PQL02-Legs Hurt"]}, {"conceptId": "C138786", "definition": "Pediatric Quality of Life Neuromuscular Module Version 3 Young Adult Parent Report - In the past one month, how much of a problem has this been for your child: My child feels tired.", "preferredTerm": "PedsQL Neuromuscular Module Version 3.0 Parent Report for Young Adults Report - Feel Tired", "submissionValue": "PQL0205", "synonyms": ["PQL02-Feel Tired"]}, {"conceptId": "C138787", "definition": "Pediatric Quality of Life Neuromuscular Module Version 3 Young Adult Parent Report - In the past one month, how much of a problem has this been for your child: My child's back feels stiff.", "preferredTerm": "PedsQL Neuromuscular Module Version 3.0 Parent Report for Young Adults Report - Back Feels Stiff", "submissionValue": "PQL0206", "synonyms": ["PQL02-Back Feels Stiff"]}, {"conceptId": "C138788", "definition": "Pediatric Quality of Life Neuromuscular Module Version 3 Young Adult Parent Report - In the past one month, how much of a problem has this been for your child: My child wakes up tired.", "preferredTerm": "PedsQL Neuromuscular Module Version 3.0 Parent Report for Young Adults Report - Wake Up Tired", "submissionValue": "PQL0207", "synonyms": ["PQL02-Wake Up Tired"]}, {"conceptId": "C138789", "definition": "Pediatric Quality of Life Neuromuscular Module Version 3 Young Adult Parent Report - In the past one month, how much of a problem has this been for your child: My child's hands are weak.", "preferredTerm": "PedsQL Neuromuscular Module Version 3.0 Parent Report for Young Adults Report - Hands Are Weak", "submissionValue": "PQL0208", "synonyms": ["PQL02-Hands Are Weak"]}, {"conceptId": "C138790", "definition": "Pediatric Quality of Life Neuromuscular Module Version 3 Young Adult Parent Report - In the past one month, how much of a problem has this been for your child: It is hard for my child to use the bathroom.", "preferredTerm": "PedsQL Neuromuscular Module Version 3.0 Parent Report for Young Adults Report - Hard to Use Bathroom", "submissionValue": "PQL0209", "synonyms": ["PQL02-Hard to Use Bathroom"]}, {"conceptId": "C138791", "definition": "Pediatric Quality of Life Neuromuscular Module Version 3 Young Adult Parent Report - In the past one month, how much of a problem has this been for your child: It is hard for my child to gain or lose weight when he or she wants to.", "preferredTerm": "PedsQL Neuromuscular Module Version 3.0 Parent Report for Young Adults Report - Hard to Gain or Lose Weight", "submissionValue": "PQL0210", "synonyms": ["PQL02-Hard to Gain/Lose Weight"]}, {"conceptId": "C138792", "definition": "Pediatric Quality of Life Neuromuscular Module Version 3 Young Adult Parent Report - In the past one month, how much of a problem has this been for your child: It is hard for my child to use his or her hands.", "preferredTerm": "PedsQL Neuromuscular Module Version 3.0 Parent Report for Young Adults Report - Hard to Use Hands", "submissionValue": "PQL0211", "synonyms": ["PQL02-Hard to Use Hands"]}, {"conceptId": "C138793", "definition": "Pediatric Quality of Life Neuromuscular Module Version 3 Young Adult Parent Report - In the past one month, how much of a problem has this been for your child: It is hard for my child to swallow food.", "preferredTerm": "PedsQL Neuromuscular Module Version 3.0 Parent Report for Young Adults Report - Hard to Swallow Food", "submissionValue": "PQL0212", "synonyms": ["PQL02-Hard to Swallow Food"]}, {"conceptId": "C138794", "definition": "Pediatric Quality of Life Neuromuscular Module Version 3 Young Adult Parent Report - In the past one month, how much of a problem has this been for your child: It takes my child a long time to bathe or shower.", "preferredTerm": "PedsQL Neuromuscular Module Version 3.0 Parent Report for Young Adults Report - Long Time to Bathe or Shower", "submissionValue": "PQL0213", "synonyms": ["PQL02-Long Time to Bathe/Shower"]}, {"conceptId": "C138795", "definition": "Pediatric Quality of Life Neuromuscular Module Version 3 Young Adult Parent Report - In the past one month, how much of a problem has this been for your child: My child gets hurt accidentally.", "preferredTerm": "PedsQL Neuromuscular Module Version 3.0 Parent Report for Young Adults Report - Get Hurt Accidentally", "submissionValue": "PQL0214", "synonyms": ["PQL02-Get Hurt Accidentally"]}, {"conceptId": "C138796", "definition": "Pediatric Quality of Life Neuromuscular Module Version 3 Young Adult Parent Report - In the past one month, how much of a problem has this been for your child: My child takes a long time to eat.", "preferredTerm": "PedsQL Neuromuscular Module Version 3.0 Parent Report for Young Adults Report - Take Long Time to Eat", "submissionValue": "PQL0215", "synonyms": ["PQL02-Take Long Time to Eat"]}, {"conceptId": "C138797", "definition": "Pediatric Quality of Life Neuromuscular Module Version 3 Young Adult Parent Report - In the past one month, how much of a problem has this been for your child: It is hard for my child to turn him or herself during the night.", "preferredTerm": "PedsQL Neuromuscular Module Version 3.0 Parent Report for Young Adults Report - Hard to Turn During Night", "submissionValue": "PQL0216", "synonyms": ["PQL02-Hard to Turn During Night"]}, {"conceptId": "C138798", "definition": "Pediatric Quality of Life Neuromuscular Module Version 3 Young Adult Parent Report - In the past one month, how much of a problem has this been for your child: It is hard for my child to go places with his or her equipment.", "preferredTerm": "PedsQL Neuromuscular Module Version 3.0 Parent Report for Young Adults Report - Hard to Go Places With Equipment", "submissionValue": "PQL0217", "synonyms": ["PQL02-Hard to Go Places With Equipment"]}, {"conceptId": "C138799", "definition": "Pediatric Quality of Life Neuromuscular Module Version 3 Young Adult Parent Report - In the past one month, how much of a problem has this been for your child: It is hard for my child to tell the doctors and nurses how he or she feels.", "preferredTerm": "PedsQL Neuromuscular Module Version 3.0 Parent Report for Young Adults Report - Hard Tell Doctors and Nurses How Feel", "submissionValue": "PQL0218", "synonyms": ["PQL02-Hard Tell Doctors/Nurses How Feel"]}, {"conceptId": "C138800", "definition": "Pediatric Quality of Life Neuromuscular Module Version 3 Young Adult Parent Report - In the past one month, how much of a problem has this been for your child: It is hard for my child to ask the doctors and nurses questions.", "preferredTerm": "PedsQL Neuromuscular Module Version 3.0 Parent Report for Young Adults Report - Hard Ask Doctors and Nurses Questions", "submissionValue": "PQL0219", "synonyms": ["PQL02-Hard Ask Doctors/Nurses Questions"]}, {"conceptId": "C138801", "definition": "Pediatric Quality of Life Neuromuscular Module Version 3 Young Adult Parent Report - In the past one month, how much of a problem has this been for your child: It is hard for my child to explain his or her illness to other people.", "preferredTerm": "PedsQL Neuromuscular Module Version 3.0 Parent Report for Young Adults Report - Hard Explain Illness to People", "submissionValue": "PQL0220", "synonyms": ["PQL02-Hard Explain Illness to People"]}, {"conceptId": "C138802", "definition": "Pediatric Quality of Life Neuromuscular Module Version 3 Young Adult Parent Report - In the past one month, how much of a problem has this been for your child: It is hard for our family to plan activities like vacations.", "preferredTerm": "PedsQL Neuromuscular Module Version 3.0 Parent Report for Young Adults Report - Hard for Family to Plan Activities", "submissionValue": "PQL0221", "synonyms": ["PQL02-Hard for Family to Plan Activities"]}, {"conceptId": "C138803", "definition": "Pediatric Quality of Life Neuromuscular Module Version 3 Young Adult Parent Report - In the past one month, how much of a problem has this been for your child: It is hard for our family to get enough rest.", "preferredTerm": "PedsQL Neuromuscular Module Version 3.0 Parent Report for Young Adults Report - Hard for Family to Rest", "submissionValue": "PQL0222", "synonyms": ["PQL02-Hard for Family to Rest"]}, {"conceptId": "C138804", "definition": "Pediatric Quality of Life Neuromuscular Module Version 3 Young Adult Parent Report - In the past one month, how much of a problem has this been for your child: I think money is a problem in our family.", "preferredTerm": "PedsQL Neuromuscular Module Version 3.0 Parent Report for Young Adults Report - Money Problem in Our Family", "submissionValue": "PQL0223", "synonyms": ["PQL02-Money Problem in Our Family"]}, {"conceptId": "C138805", "definition": "Pediatric Quality of Life Neuromuscular Module Version 3 Young Adult Parent Report - In the past one month, how much of a problem has this been for your child: I think our family has a lot of problems.", "preferredTerm": "PedsQL Neuromuscular Module Version 3.0 Parent Report for Young Adults Report - Family Has Lot of Problems", "submissionValue": "PQL0224", "synonyms": ["PQL02-Family Has Lot of Problems"]}, {"conceptId": "C138806", "definition": "Pediatric Quality of Life Neuromuscular Module Version 3 Young Adult Parent Report - In the past one month, how much of a problem has this been for your child: My child does not have the equipment he or she needs.", "preferredTerm": "PedsQL Neuromuscular Module Version 3.0 Parent Report for Young Adults Report - Do Not Have Equipment Need", "submissionValue": "PQL0225", "synonyms": ["PQL02-Do Not Have Equipment Need"]}]}