{"_links": {"parentPackage": {"href": "/mdr/ct/packages/sdtmct-2018-03-30", "title": "SDTM Controlled Terminology Package 33 Effective 2018-03-30", "type": "Terminology"}, "priorVersion": {"href": "/mdr/ct/packages/sdtmct-2017-12-22/codelists/C141658", "title": "CDISC Functional Test Rising From Floor Test Name Terminology", "type": "Code List"}, "rootItem": {"href": "/mdr/root/ct/sdtmct/codelists/C141658", "title": "Version-agnostic anchor resource for codelist C141658", "type": "Root Value Domain"}, "self": {"href": "/mdr/ct/packages/sdtmct-2018-03-30/codelists/C141658", "title": "CDISC Functional Test Rising From Floor Test Name Terminology", "type": "Code List"}}, "conceptId": "C141658", "definition": "Rising From Floor test name.", "extensible": "false", "name": "Rising From Floor Functional Test Test Name", "preferredTerm": "CDISC Functional Test Rising From Floor Test Name Terminology", "submissionValue": "RISEF1TN", "synonyms": ["Rising From Floor Functional Test Test Name"], "terms": [{"conceptId": "C141703", "definition": "Rising From Floor - Test grade.", "preferredTerm": "Rising From Floor - Test Grade", "submissionValue": "RISEF1-Test Grade", "synonyms": ["RISEF1-Test Grade"]}, {"conceptId": "C141702", "definition": "Rising From Floor - Time to rise from supine position.", "preferredTerm": "Rising From Floor - Time to Rise From Floor", "submissionValue": "RISEF1-Time to Rise From Floor", "synonyms": ["RISEF1-Time to Rise From Floor"]}]}