{"_links": {"parentPackage": {"href": "/mdr/ct/packages/sdtmct-2018-03-30", "title": "SDTM Controlled Terminology Package 33 Effective 2018-03-30", "type": "Terminology"}, "rootItem": {"href": "/mdr/root/ct/sdtmct/codelists/C147545", "title": "Version-agnostic anchor resource for codelist C147545", "type": "Root Value Domain"}, "self": {"href": "/mdr/ct/packages/sdtmct-2018-03-30/codelists/C147545", "title": "CDISC Questionnaire Peds-FACIT-F Test Name Terminology", "type": "Code List"}}, "conceptId": "C147545", "definition": "Pediatric Functional Assessment of Chronic Illness Therapy-Fatigue test name.", "extensible": "false", "name": "Pediatric Functional Assessment of Chronic Illness Therapy-Fatigue Questionnaire Test Name", "preferredTerm": "CDISC Questionnaire Peds-FACIT-F Test Name Terminology", "submissionValue": "FAC099TN", "synonyms": ["Pediatric Functional Assessment of Chronic Illness Therapy-Fatigue Questionnaire Test Name"], "terms": [{"conceptId": "C147698", "definition": "Pediatric Functional Assessment of Chronic Illness Therapy-Fatigue - Being tired made me mad (angry).", "preferredTerm": "Peds-FACIT-F - Being Tired Made Me Mad", "submissionValue": "FAC099-Being Tired Made Me Mad", "synonyms": ["FAC099-Being Tired Made Me Mad"]}, {"conceptId": "C147697", "definition": "Pediatric Functional Assessment of Chronic Illness Therapy-Fatigue - Being tired made me sad.", "preferredTerm": "Peds-FACIT-F - Being Tired Made Me Sad", "submissionValue": "FAC099-Being Tired Made Me Sad", "synonyms": ["FAC099-Being Tired Made Me Sad"]}, {"conceptId": "C147688", "definition": "Pediatric Functional Assessment of Chronic Illness Therapy-Fatigue - I could do my usual things at home.", "preferredTerm": "Peds-FACIT-F - Could Do My Usual Things at Home", "submissionValue": "FAC099-Could Do My Usual Things at Home", "synonyms": ["FAC099-Could Do My Usual Things at Home"]}, {"conceptId": "C147693", "definition": "Pediatric Functional Assessment of Chronic Illness Therapy-Fatigue - Being tired made it hard for me to play or go out with my friends as much as I'd like.", "preferredTerm": "Peds-FACIT-F - Hard for Me to Play With Friends", "submissionValue": "FAC099-Hard for Me to Play With Friends", "synonyms": ["FAC099-Hard for Me to Play With Friends"]}, {"conceptId": "C147686", "definition": "Pediatric Functional Assessment of Chronic Illness Therapy-Fatigue - I feel tired.", "preferredTerm": "Peds-FACIT-F - I Feel Tired", "submissionValue": "FAC099-I Feel Tired", "synonyms": ["FAC099-I Feel Tired"]}, {"conceptId": "C147695", "definition": "Pediatric Functional Assessment of Chronic Illness Therapy-Fatigue - I feel weak.", "preferredTerm": "Peds-FACIT-F - I Feel Weak", "submissionValue": "FAC099-I Feel Weak", "synonyms": ["FAC099-I Feel Weak"]}, {"conceptId": "C147687", "definition": "Pediatric Functional Assessment of Chronic Illness Therapy-Fatigue - I have energy (or strength).", "preferredTerm": "Peds-FACIT-F - I Have Energy", "submissionValue": "FAC099-I Have Energy", "synonyms": ["FAC099-I Have Energy"]}, {"conceptId": "C147691", "definition": "Pediatric Functional Assessment of Chronic Illness Therapy-Fatigue - I needed to sleep during the day.", "preferredTerm": "Peds-FACIT-F - I Needed to Sleep During the Day", "submissionValue": "FAC099-I Needed to Sleep During the Day", "synonyms": ["FAC099-I Needed to Sleep During the Day"]}, {"conceptId": "C147696", "definition": "Pediatric Functional Assessment of Chronic Illness Therapy-Fatigue - I was too tired to eat.", "preferredTerm": "Peds-FACIT-F - I Was Too Tired to Eat", "submissionValue": "FAC099-I Was Too Tired to Eat", "synonyms": ["FAC099-I Was Too Tired to Eat"]}, {"conceptId": "C147694", "definition": "Pediatric Functional Assessment of Chronic Illness Therapy-Fatigue - I needed help doing my usual things at home.", "preferredTerm": "Peds-FACIT-F - Needed Help Doing Usual Things", "submissionValue": "FAC099-Needed Help Doing Usual Things", "synonyms": ["FAC099-Needed Help Doing Usual Things"]}, {"conceptId": "C147690", "definition": "Pediatric Functional Assessment of Chronic Illness Therapy-Fatigue - I had trouble finishing things because I was too tired.", "preferredTerm": "Peds-FACIT-F - Trouble Finishing Things", "submissionValue": "FAC099-Trouble Finishing Things", "synonyms": ["FAC099-Trouble Finishing Things"]}, {"conceptId": "C147689", "definition": "Pediatric Functional Assessment of Chronic Illness Therapy-Fatigue - I had trouble starting things because I was too tired.", "preferredTerm": "Peds-FACIT-F - Trouble Starting Things", "submissionValue": "FAC099-Trouble Starting Things", "synonyms": ["FAC099-Trouble Starting Things"]}, {"conceptId": "C147692", "definition": "Pediatric Functional Assessment of Chronic Illness Therapy-Fatigue - I got upset by being too tired to do things I wanted to do.", "preferredTerm": "Peds-FACIT-F - Upset by Being Too Tired", "submissionValue": "FAC099-Upset by Being Too Tired", "synonyms": ["FAC099-Upset by Being Too Tired"]}]}