{"_links": {"parentPackage": {"href": "/mdr/ct/packages/sdtmct-2018-03-30", "title": "SDTM Controlled Terminology Package 33 Effective 2018-03-30", "type": "Terminology"}, "priorVersion": {"href": "/mdr/ct/packages/sdtmct-2017-12-22/codelists/C74561", "title": "CDISC SDTM Skin Type Terminology", "type": "Code List"}, "rootItem": {"href": "/mdr/root/ct/sdtmct/codelists/C74561", "title": "Version-agnostic anchor resource for codelist C74561", "type": "Root Value Domain"}, "self": {"href": "/mdr/ct/packages/sdtmct-2018-03-30/codelists/C74561", "title": "CDISC SDTM Skin Type Terminology", "type": "Code List"}}, "conceptId": "C74561", "definition": "A terminology codelist relevant to the relative oiliness of the skin.", "extensible": "true", "name": "Skin Type Response", "preferredTerm": "CDISC SDTM Skin Type Terminology", "submissionValue": "SKINTYP", "synonyms": ["Skin Type Response"], "terms": [{"conceptId": "C74592", "definition": "The pores are generally fine with a papery thin texture that feels dry to the touch. Usually flaky and dull looking.", "preferredTerm": "Dry Skin", "submissionValue": "DRY"}, {"conceptId": "C74593", "definition": "The pores are visible but not large. The texture is neither fine or thick and it neither feels dry or oily to the touch.", "preferredTerm": "Normal Skin", "submissionValue": "NORMAL"}, {"conceptId": "C74591", "definition": "The pores of the skin are generally large and visible with a coarse or thick texture. It has a tendency to look dull and greasy and feels oily to the touch.", "preferredTerm": "Oily Skin", "submissionValue": "OILY"}]}