{"_links": {"parentPackage": {"href": "/mdr/ct/packages/sdtmct-2018-03-30", "title": "SDTM Controlled Terminology Package 33 Effective 2018-03-30", "type": "Terminology"}, "priorVersion": {"href": "/mdr/ct/packages/sdtmct-2017-12-22/codelists/C76348", "title": "CDISC SDTM Marital Status Terminology", "type": "Code List"}, "rootItem": {"href": "/mdr/root/ct/sdtmct/codelists/C76348", "title": "Version-agnostic anchor resource for codelist C76348", "type": "Root Value Domain"}, "self": {"href": "/mdr/ct/packages/sdtmct-2018-03-30/codelists/C76348", "title": "CDISC SDTM Marital Status Terminology", "type": "Code List"}}, "conceptId": "C76348", "definition": "A terminology codelist relevant to a person's current conjugal status.", "extensible": "true", "name": "Marital Status Response", "preferredTerm": "CDISC SDTM Marital Status Terminology", "submissionValue": "MARISTAT", "synonyms": ["Marital Status Response"], "terms": [{"conceptId": "C76240", "definition": "Marriage contract has been declared null and to not have existed. (HL7)", "preferredTerm": "Annulled", "submissionValue": "ANNULLED"}, {"conceptId": "C51776", "definition": "Marriage contract has been declared dissolved and inactive. (HL7)", "preferredTerm": "Divorced", "submissionValue": "DIVORCED"}, {"conceptId": "C53262", "definition": "Person declares that a domestic partnership relationship exists. (HL7)", "preferredTerm": "Domestic Partnership", "submissionValue": "DOMESTIC PARTNER", "synonyms": ["Domestic Partner"]}, {"conceptId": "C76241", "definition": "Temporary order issued during the course of litigation. (HL7)", "preferredTerm": "Interlocutory Marital Status", "submissionValue": "INTERLOCUTORY"}, {"conceptId": "C51777", "definition": "A person living apart from his/her spouse by legal arrangement. (HL7)", "preferredTerm": "Separated", "submissionValue": "LEGALLY SEPARATED"}, {"conceptId": "C51773", "definition": "A current marriage contract is active. (HL7)", "preferredTerm": "Married", "submissionValue": "MARRIED"}, {"conceptId": "C51774", "definition": "No marriage contract has ever been entered. (HL7)", "preferredTerm": "Never Married", "submissionValue": "NEVER MARRIED"}, {"conceptId": "C76242", "definition": "More than 1 current spouse. (HL7)", "preferredTerm": "Polygamous", "submissionValue": "POLYGAMOUS"}, {"conceptId": "C51775", "definition": "The spouse has died. (HL7)", "preferredTerm": "Widowed", "submissionValue": "WIDOWED"}]}