{"_links": {"parentPackage": {"href": "/mdr/ct/packages/sdtmct-2018-03-30", "title": "SDTM Controlled Terminology Package 33 Effective 2018-03-30", "type": "Terminology"}, "priorVersion": {"href": "/mdr/ct/packages/sdtmct-2017-12-22/codelists/C78735", "title": "CDISC SDTM Evaluator Terminology", "type": "Code List"}, "rootItem": {"href": "/mdr/root/ct/sdtmct/codelists/C78735", "title": "Version-agnostic anchor resource for codelist C78735", "type": "Root Value Domain"}, "self": {"href": "/mdr/ct/packages/sdtmct-2018-03-30/codelists/C78735", "title": "CDISC SDTM Evaluator Terminology", "type": "Code List"}}, "conceptId": "C78735", "definition": "The role that the individual or entity plays with respect to a specific situation or person.", "extensible": "true", "name": "Evaluator", "preferredTerm": "CDISC SDTM Evaluator Terminology", "submissionValue": "EVAL", "synonyms": ["Evaluator"], "terms": [{"conceptId": "C78726", "definition": "An external committee whose purpose is to evaluate study data and decide whether a study endpoint or other criterion has been met. (NCI)", "preferredTerm": "Adjudication Committee", "submissionValue": "ADJUDICATION COMMITTEE"}, {"conceptId": "C96561", "definition": "An individual that presides over and arbitrates between individuals or organizations.", "preferredTerm": "Adjudicator", "submissionValue": "ADJUDICATOR"}, {"conceptId": "C17445", "definition": "The primary person in charge of the care of a patient, usually a family member or a designated health care professional. (NCI)", "preferredTerm": "Caregiver", "submissionValue": "CAREGIVER", "synonyms": ["Caregiver"]}, {"conceptId": "C42708", "definition": "A son or a daughter.", "preferredTerm": "Offspring", "submissionValue": "CHILD"}, {"conceptId": "C25465", "definition": "A person who is employed by a study sponsor or by a contract research organization (CRO), operates independently from the clinical study site and functions as a monitor, and/or auditor, and/or a project director within a particular trial or institution. (NCI)", "preferredTerm": "Clinical Research Associate", "submissionValue": "CLINICAL RESEARCH ASSOCIATE", "synonyms": ["Research Associate"]}, {"conceptId": "C51811", "definition": "A person to whom a clinical investigator delegates routine administrative requirements of a protocol. The duties and responsibilities of a clinical research coordinator may vary across different infrastructures. Generally, the coordinator manages the subject's clinical trial participation and provides a vital linkage between the subject, the investigator, and the sponsor. (NCI)", "preferredTerm": "Clinical Coordinator", "submissionValue": "CLINICAL RESEARCH COORDINATOR"}, {"conceptId": "C70793", "definition": "An entity that is responsible for the initiation, management, and/or financing of a clinical study.", "preferredTerm": "Clinical Study Sponsor", "submissionValue": "CLINICAL STUDY SPONSOR", "synonyms": ["Clinical Study Sponsor", "Sponsor", "Study Sponsor"]}, {"conceptId": "C53262", "definition": "Person declares that a domestic partnership relationship exists. (HL7)", "preferredTerm": "Domestic Partnership", "submissionValue": "DOMESTIC PARTNER", "synonyms": ["Domestic Partner"]}, {"conceptId": "C41256", "definition": "Any of the individuals who are descended from a common progenitor, related by marriage or other legal tie.", "preferredTerm": "Family Member", "submissionValue": "FAMILY MEMBER", "synonyms": ["Family Member"]}, {"conceptId": "C72884", "definition": "A person whom an individual knows, likes, and trusts. (NCI)", "preferredTerm": "Friend", "submissionValue": "FRIEND"}, {"conceptId": "C51828", "definition": "An individual who is authorized under applicable State or local law to consent on behalf of a child or incapable person to general medical care including participation in clinical research. (NCI)", "preferredTerm": "Guardian", "submissionValue": "GUARDIAN"}, {"conceptId": "C53287", "definition": "A person qualified to be engaged in activity directed at preservation of mental and physical health by diseases prevention and treatment as a source of livelihood. (NCI)", "preferredTerm": "Health Care Professional", "submissionValue": "HEALTH CARE PROFESSIONAL"}, {"conceptId": "C78720", "definition": "An individual qualified to perform an evaluation who is masked from a subject's data in order to minimize bias or maximize consistency and quality. (NCI)", "preferredTerm": "Independent Rater", "submissionValue": "INDEPENDENT ASSESSOR"}, {"conceptId": "C63759", "definition": "The person who manages an interview and asks the questions.", "preferredTerm": "Interviewer", "submissionValue": "INTERVIEWER"}, {"conceptId": "C25936", "definition": "A person responsible for the conduct of the clinical trial at a trial site. If a trial is conducted by a team of individuals at the trial site, the investigator is the responsible leader of the team and may be called the principle investigator.", "preferredTerm": "Investigator", "submissionValue": "INVESTIGATOR"}, {"conceptId": "C42709", "definition": "A mother or a father.", "preferredTerm": "Parent", "submissionValue": "PARENT"}, {"conceptId": "C119264", "definition": "A type of directive that gives a person the authority to make decisions for or provide responses on behalf of another individual.", "preferredTerm": "Proxy", "submissionValue": "PROXY"}, {"conceptId": "C25204", "definition": "A person's brother or sister.", "preferredTerm": "Sibling", "submissionValue": "SIBLING"}, {"conceptId": "C119265", "definition": "A gender-neutral term for a person's partner in an intimate or romantic relationship without disclosing or presuming marital status or sexual orientation.", "preferredTerm": "Significant Other", "submissionValue": "SIGNIFICANT OTHER"}, {"conceptId": "C62649", "definition": "A person's partner in marriage. (NCI)", "preferredTerm": "Spouse", "submissionValue": "SPOUSE", "synonyms": ["Spouse"]}, {"conceptId": "C41189", "definition": "An individual who is observed, analyzed, examined, investigated, experimented upon, or/and treated in the course of a particular study.", "preferredTerm": "Study Subject", "submissionValue": "STUDY SUBJECT"}, {"conceptId": "C68608", "definition": "A person or agency that promotes or exchanges goods or services for money. (NCI)", "preferredTerm": "Vendor", "submissionValue": "VENDOR"}]}