{"_links": {"parentPackage": {"href": "/mdr/ct/packages/sdtmct-2018-03-30", "title": "SDTM Controlled Terminology Package 33 Effective 2018-03-30", "type": "Terminology"}, "priorVersion": {"href": "/mdr/ct/packages/sdtmct-2017-12-22/codelists/C85493", "title": "CDISC SDTM Pharmacokinetic Parameter Long Name Terminology", "type": "Code List"}, "rootItem": {"href": "/mdr/root/ct/sdtmct/codelists/C85493", "title": "Version-agnostic anchor resource for codelist C85493", "type": "Root Value Domain"}, "self": {"href": "/mdr/ct/packages/sdtmct-2018-03-30/codelists/C85493", "title": "CDISC SDTM Pharmacokinetic Parameter Long Name Terminology", "type": "Code List"}}, "conceptId": "C85493", "definition": "Parameters used to describe the time-concentration curve.", "extensible": "true", "name": "PK Parameters", "preferredTerm": "CDISC SDTM Pharmacokinetic Parameter Long Name Terminology", "submissionValue": "PKPARM", "synonyms": ["PK Parameters"], "terms": [{"conceptId": "C85763", "definition": "Applies only for intravascular bolus dosing. The area under the curve (AUC) from the first measured concentration value back extrapolated to the concentration value at time zero as a percentage of the area under the curve extrapolated to infinity using the observed value of the last non-zero concentration.", "preferredTerm": "Observed Area Under the Curve Percent Back Extrapolation", "submissionValue": "AUC %Back Extrapolation Obs", "synonyms": ["AUC %Back Extrapolation Obs"]}, {"conceptId": "C85787", "definition": "Applies only for intravascular bolus dosing. The area under the curve (AUC) from the first measured concentration value back extrapolated to the concentration value at time zero as a percentage of the area under the curve extrapolated to infinity using the predicted value of the last non-zero concentration.", "preferredTerm": "Predicted Area Under the Curve Percent Back Extrapolation", "submissionValue": "AUC %Back Extrapolation Pred", "synonyms": ["AUC %Back Extrapolation Pred"]}, {"conceptId": "C85764", "definition": "The area under the curve (AUC) from the last observed non-zero concentration value to infinity as a percentage of the area under the curve extrapolated to infinity.", "preferredTerm": "Observed Area Under the Curve Percent Extrapolation", "submissionValue": "AUC %Extrapolation Obs", "synonyms": ["AUC %Extrapolation Obs"]}, {"conceptId": "C85788", "definition": "The area under the curve (AUC) from the last predicted non-zero concentration value to infinity as a percentage of the area under the curve extrapolated to infinity.", "preferredTerm": "Predicted Area Under the Curve Percent Extrapolation", "submissionValue": "AUC %Extrapolation Pred", "synonyms": ["AUC %Extrapolation Pred"]}, {"conceptId": "C85564", "definition": "The area under the curve (AUC) from the time of dosing to the time of the last observation, regardless of whether the last concentration is measurable or not.", "preferredTerm": "Area Under the Curve All", "submissionValue": "AUC All", "synonyms": ["AUC All"]}, {"conceptId": "C92362", "definition": "The area under the curve (AUC) from the time of dosing to the time of the last observation divided by the body mass index, regardless of whether the last concentration is measurable or not.", "preferredTerm": "AUC All Normalized by Body Mass Index", "submissionValue": "AUC All Norm by BMI", "synonyms": ["AUC All Norm by BMI"]}, {"conceptId": "C92306", "definition": "The area under the curve (AUC) from the time of dosing to the time of the last observation divided by the dose, regardless of whether the last concentration is measurable or not.", "preferredTerm": "AUC All Normalized by Dose", "submissionValue": "AUC All Norm by Dose", "synonyms": ["AUC All Norm by Dose"]}, {"conceptId": "C92307", "definition": "The area under the curve (AUC) from the time of dosing to the time of the last observation divided by the surface area, regardless of whether the last concentration is measurable or not.", "preferredTerm": "AUC All Normalized by Surface Area", "submissionValue": "AUC All Norm by SA", "synonyms": ["AUC All Norm by SA"]}, {"conceptId": "C92308", "definition": "The area under the curve (AUC) from the time of dosing to the time of the last observation divided by the weight, regardless of whether the last concentration is measurable or not.", "preferredTerm": "AUC All Normalized by Weight", "submissionValue": "AUC All Norm by WT", "synonyms": ["AUC All Norm by WT"]}, {"conceptId": "C85761", "definition": "The area under the curve (AUC) extrapolated to infinity, calculated using the observed value of the last non-zero concentration.", "preferredTerm": "Observed Area Under the Curve Infinity", "submissionValue": "AUC Infinity Obs", "synonyms": ["AUC Infinity Obs"]}, {"conceptId": "C92316", "definition": "The area under the curve (AUC) extrapolated to infinity, calculated using the observed value of the last non-zero concentration, divided by the body mass index.", "preferredTerm": "AUC Infinity Observed Normalized by Body Mass Index", "submissionValue": "AUC Infinity Obs Norm by BMI", "synonyms": ["AUC Infinity Obs Norm by BMI"]}, {"conceptId": "C96695", "definition": "The area under the curve (AUC) extrapolated to infinity, calculated using the observed value of the last non-zero concentration, divided by the dose.", "preferredTerm": "AUC Infinity Observed Normalized by Dose", "submissionValue": "AUC Infinity Obs Norm by Dose", "synonyms": ["AUC Infinity Obs Norm by Dose"]}, {"conceptId": "C92317", "definition": "The area under the curve (AUC) extrapolated to infinity, calculated using the observed value of the last non-zero concentration, divided by the surface area.", "preferredTerm": "AUC Infinity Observed Normalized by Surface Area", "submissionValue": "AUC Infinity Obs Norm by SA", "synonyms": ["AUC Infinity Obs Norm by SA"]}, {"conceptId": "C92318", "definition": "The area under the curve (AUC) extrapolated to infinity, calculated using the observed value of the last non-zero concentration, divided by the weight.", "preferredTerm": "AUC Infinity Observed Normalized by Weight", "submissionValue": "AUC Infinity Obs Norm by WT", "synonyms": ["AUC Infinity Obs Norm by WT"]}, {"conceptId": "C85785", "definition": "The area under the curve (AUC) extrapolated to infinity, calculated using the predicted value of the last non-zero concentration.", "preferredTerm": "Predicted Area Under the Curve Infinity", "submissionValue": "AUC Infinity Pred", "synonyms": ["AUC Infinity Pred"]}, {"conceptId": "C92319", "definition": "The area under the curve (AUC) extrapolated to infinity, calculated using the predicted value of the last non-zero concentration, divided by the body mass index.", "preferredTerm": "AUC Infinity Predicted Normalized by Body Mass Index", "submissionValue": "AUC Infinity Pred Norm by BMI", "synonyms": ["AUC Infinity Pred Norm by BMI"]}, {"conceptId": "C85786", "definition": "The area under the curve (AUC) extrapolated to infinity, calculated using the predicted value of the last non-zero concentration, divided by the dose.", "preferredTerm": "Predicted Area Under the Curve Infinity by Dose", "submissionValue": "AUC Infinity Pred Norm by Dose", "synonyms": ["AUC Infinity Pred Norm by Dose"]}, {"conceptId": "C92320", "definition": "The area under the curve (AUC) extrapolated to infinity, calculated using the predicted value of the last non-zero concentration, divided by the surface area.", "preferredTerm": "AUC Infinity Predicted Normalized by Surface Area", "submissionValue": "AUC Infinity Pred Norm by SA", "synonyms": ["AUC Infinity Pred Norm by SA"]}, {"conceptId": "C92321", "definition": "The area under the curve (AUC) extrapolated to infinity, calculated using the predicted value of the last non-zero concentration, divided by the weight.", "preferredTerm": "AUC Infinity Predicted Normalized by Weight", "submissionValue": "AUC Infinity Pred Norm by WT", "synonyms": ["AUC Infinity Pred Norm by WT"]}, {"conceptId": "C85567", "definition": "The area under the curve (AUC) for the defined interval between doses (TAU).", "preferredTerm": "Area Under the Curve Over Dosing Interval", "submissionValue": "AUC Over Dosing Interval", "synonyms": ["AUC Over Dosing Interval"]}, {"conceptId": "C92322", "definition": "The area under the curve (AUC) for the defined interval between doses (TAU) divided by the body mass index.", "preferredTerm": "AUC Over Dosing Interval Normalized by Body Mass Index", "submissionValue": "AUC Over Dosing Interval Norm by BMI", "synonyms": ["AUC Over Dosing Interval Norm by BMI"]}, {"conceptId": "C92323", "definition": "The area under the curve (AUC) for the defined interval between doses (TAU) divided by the dose.", "preferredTerm": "AUC Over Dosing Interval Normalized by Dose", "submissionValue": "AUC Over Dosing Interval Norm by Dose", "synonyms": ["AUC Over Dosing Interval Norm by Dose"]}, {"conceptId": "C92324", "definition": "The area under the curve (AUC) for the defined interval between doses (TAU) divided by the surface area.", "preferredTerm": "AUC Over Dosing Interval Normalized by Surface Area", "submissionValue": "AUC Over Dosing Interval Norm by SA", "synonyms": ["AUC Over Dosing Interval Norm by SA"]}, {"conceptId": "C92325", "definition": "The area under the curve (AUC) for the defined interval between doses (TAU) divided by the weight.", "preferredTerm": "AUC Over Dosing Interval Normalized by Weight", "submissionValue": "AUC Over Dosing Interval Norm by WT", "synonyms": ["AUC Over Dosing Interval Norm by WT"]}, {"conceptId": "C85566", "definition": "The area under the curve (AUC) over the interval from T1 to T2.", "preferredTerm": "Area Under the Curve from T1 to T2", "submissionValue": "AUC from T1 to T2", "synonyms": ["AUC from T1 to T2"]}, {"conceptId": "C92312", "definition": "The area under the curve (AUC) over the interval from T1 to T2 divided by the body mass index.", "preferredTerm": "AUC from T1 to T2 Normalized by Body Mass Index", "submissionValue": "AUC from T1 to T2 Norm by BMI", "synonyms": ["AUC from T1 to T2 Norm by BMI"]}, {"conceptId": "C92313", "definition": "The area under the curve (AUC) over the interval from T1 to T2 divided by the dose.", "preferredTerm": "AUC from T1 to T2 Normalized by Dose", "submissionValue": "AUC from T1 to T2 Norm by Dose", "synonyms": ["AUC from T1 to T2 Norm by Dose"]}, {"conceptId": "C92314", "definition": "The area under the curve (AUC) over the interval from T1 to T2 divided by the surface area.", "preferredTerm": "AUC from T1 to T2 Normalized by Surface Area", "submissionValue": "AUC from T1 to T2 Norm by SA", "synonyms": ["AUC from T1 to T2 Norm by SA"]}, {"conceptId": "C92315", "definition": "The area under the curve (AUC) over the interval from T1 to T2 divided by the weight.", "preferredTerm": "AUC from T1 to T2 Normalized by Weight", "submissionValue": "AUC from T1 to T2 Norm by WT", "synonyms": ["AUC from T1 to T2 Norm by WT"]}, {"conceptId": "C85565", "definition": "The area under the curve (AUC) from the time of dosing to the last measurable concentration.", "preferredTerm": "Area Under the Curve From Dosing to Last Concentration", "submissionValue": "AUC to Last Nonzero Conc", "synonyms": ["AUC to Last Nonzero Conc"]}, {"conceptId": "C92309", "definition": "The area under the curve (AUC) from the time of dosing to the last measurable concentration divided by the body mass index.", "preferredTerm": "AUC Dosing to Last Concentration Normalized by Body Mass Index", "submissionValue": "AUC to Last Nonzero Conc Norm by BMI", "synonyms": ["AUC to Last Nonzero Conc Norm by BMI"]}, {"conceptId": "C92310", "definition": "The area under the curve (AUC) from the time of dosing to the last measurable concentration divided by the dose.", "preferredTerm": "AUC Dosing to Last Concentration Normalized by Dose", "submissionValue": "AUC to Last Nonzero Conc Norm by Dose", "synonyms": ["AUC to Last Nonzero Conc Norm by Dose"]}, {"conceptId": "C92311", "definition": "The area under the curve (AUC) from the time of dosing to the last measurable concentration divided by the surface area.", "preferredTerm": "AUC Dosing to Last Concentration Normalized by Surface Area", "submissionValue": "AUC to Last Nonzero Conc Norm by SA", "synonyms": ["AUC to Last Nonzero Conc Norm by SA"]}, {"conceptId": "C92305", "definition": "The area under the curve (AUC) from the time of dosing to the last measurable concentration divided by the weight.", "preferredTerm": "AUC Dosing to Last Concentration Normalized by Weight", "submissionValue": "AUC to Last Nonzero Conc Norm by WT", "synonyms": ["AUC to Last Nonzero Conc Norm by WT"]}, {"conceptId": "C85766", "definition": "The area under the moment curve (AUMC) from the last observed non-zero concentration value to infinity as a percentage of the area under the moment curve extrapolated to infinity.", "preferredTerm": "Observed Area Under the First Moment Curve Percent Extrapolation", "submissionValue": "AUMC % Extrapolation Obs", "synonyms": ["AUMC % Extrapolation Obs"]}, {"conceptId": "C85790", "definition": "The area under the moment curve (AUMC) from the last predicted non-zero concentration value to infinity as a percentage of the area under the moment curve extrapolated to infinity.", "preferredTerm": "Predicted Area Under the First Moment Curve Percent Extrapolation", "submissionValue": "AUMC % Extrapolation Pred", "synonyms": ["AUMC % Extrapolation Pred"]}, {"conceptId": "C85765", "definition": "The area under the moment curve (AUMC) extrapolated to infinity, calculated using the observed value of the last non-zero concentration.", "preferredTerm": "Observed Area Under the First Moment Curve Infinity", "submissionValue": "AUMC Infinity Obs", "synonyms": ["AUMC Infinity Obs"]}, {"conceptId": "C92330", "definition": "The area under the moment curve (AUMC) extrapolated to infinity, calculated using the observed value of the last non-zero concentration, divided by the body mass index.", "preferredTerm": "AUMC Infinity Observed Normalized by Body Mass Index", "submissionValue": "AUMC Infinity Obs Norm by BMI", "synonyms": ["AUMC Infinity Obs Norm by BMI"]}, {"conceptId": "C92331", "definition": "The area under the moment curve (AUMC) extrapolated to infinity, calculated using the observed value of the last non-zero concentration, divided by the dose.", "preferredTerm": "AUMC Infinity Observed Normalized by Dose", "submissionValue": "AUMC Infinity Obs Norm by Dose", "synonyms": ["AUMC Infinity Obs Norm by Dose"]}, {"conceptId": "C92332", "definition": "The area under the moment curve (AUMC) extrapolated to infinity, calculated using the observed value of the last non-zero concentration, divided by the surface area.", "preferredTerm": "AUMC Infinity Observed Normalized by Surface Area", "submissionValue": "AUMC Infinity Obs Norm by SA", "synonyms": ["AUMC Infinity Obs Norm by SA"]}, {"conceptId": "C92333", "definition": "The area under the moment curve (AUMC) extrapolated to infinity, calculated using the observed value of the last non-zero concentration, divided by the weight.", "preferredTerm": "AUMC Infinity Observed Normalized by Weight", "submissionValue": "AUMC Infinity Obs Norm by WT", "synonyms": ["AUMC Infinity Obs Norm by WT"]}, {"conceptId": "C85789", "definition": "The area under the moment curve (AUMC) extrapolated to infinity, calculated using the predicted value of the last non-zero concentration.", "preferredTerm": "Predicted Area Under the First Moment Curve Infinity", "submissionValue": "AUMC Infinity Pred", "synonyms": ["AUMC Infinity Pred"]}, {"conceptId": "C92334", "definition": "The area under the moment curve (AUMC) extrapolated to infinity, calculated using the predicted value of the last non-zero concentration, divided by the body mass index.", "preferredTerm": "AUMC Infinity Predicted Normalized by Body Mass Index", "submissionValue": "AUMC Infinity Pred Norm by BMI", "synonyms": ["AUMC Infinity Pred Norm by BMI"]}, {"conceptId": "C92335", "definition": "The area under the moment curve (AUMC) extrapolated to infinity, calculated using the predicted value of the last non-zero concentration, divided by the dose.", "preferredTerm": "AUMC Infinity Predicted Normalized by Dose", "submissionValue": "AUMC Infinity Pred Norm by Dose", "synonyms": ["AUMC Infinity Pred Norm by Dose"]}, {"conceptId": "C92336", "definition": "The area under the moment curve (AUMC) extrapolated to infinity, calculated using the predicted value of the last non-zero concentration, divided by the surface area.", "preferredTerm": "AUMC Infinity Predicted Normalized by Surface Area", "submissionValue": "AUMC Infinity Pred Norm by SA", "synonyms": ["AUMC Infinity Pred Norm by SA"]}, {"conceptId": "C92337", "definition": "The area under the moment curve (AUMC) extrapolated to infinity, calculated using the predicted value of the last non-zero concentration, divided by the weight.", "preferredTerm": "AUMC Infinity Predicted Normalized by Weight", "submissionValue": "AUMC Infinity Pred Norm by WT", "synonyms": ["AUMC Infinity Pred Norm by WT"]}, {"conceptId": "C85570", "definition": "The area under the first moment curve (AUMC) for the defined interval between doses (TAU).", "preferredTerm": "Area Under the First Moment Curve Over Dosing Interval", "submissionValue": "AUMC Over Dosing Interval", "synonyms": ["AUMC Over Dosing Interval"]}, {"conceptId": "C92338", "definition": "The area under the first moment curve (AUMC) for the defined interval between doses (TAU) divided by the body mass index.", "preferredTerm": "AUMC Over Dosing Interval Normalized by Body Mass Index", "submissionValue": "AUMC Over Dosing Interval Norm by BMI", "synonyms": ["AUMC Over Dosing Interval Norm by BMI"]}, {"conceptId": "C92339", "definition": "The area under the first moment curve (AUMC) for the defined interval between doses (TAU) divided by the dose.", "preferredTerm": "AUMC Over Dosing Interval Normalized by Dose", "submissionValue": "AUMC Over Dosing Interval Norm by Dose", "synonyms": ["AUMC Over Dosing Interval Norm by Dose"]}, {"conceptId": "C92340", "definition": "The area under the first moment curve (AUMC) for the defined interval between doses (TAU) divided by the surface area.", "preferredTerm": "AUMC Over Dosing Interval Normalized by Surface Area", "submissionValue": "AUMC Over Dosing Interval Norm by SA", "synonyms": ["AUMC Over Dosing Interval Norm by SA"]}, {"conceptId": "C92341", "definition": "The area under the first moment curve (AUMC) for the defined interval between doses (TAU) divided by the weight.", "preferredTerm": "AUMC Over Dosing Interval Normalized by Weight", "submissionValue": "AUMC Over Dosing Interval Norm by WT", "synonyms": ["AUMC Over Dosing Interval Norm by WT"]}, {"conceptId": "C85569", "definition": "The area under the moment curve (AUMC) from the time of dosing to the last measurable concentration.", "preferredTerm": "Area Under the First Moment Curve From Dosing to Last Concentration", "submissionValue": "AUMC to Last Nonzero Conc", "synonyms": ["AUMC to Last Nonzero Conc"]}, {"conceptId": "C92326", "definition": "The area under the moment curve (AUMC) from the time of dosing to the last measurable concentration divided by the body mass index.", "preferredTerm": "AUMC Dosing to Last Concentration Normalized by Body Mass Index", "submissionValue": "AUMC to Last Nonzero Conc Norm by BMI", "synonyms": ["AUMC to Last Nonzero Conc Norm by BMI"]}, {"conceptId": "C92327", "definition": "The area under the moment curve (AUMC) from the time of dosing to the last measurable concentration divided by the dose.", "preferredTerm": "AUMC Dosing to Last Concentration Normalized by Dose", "submissionValue": "AUMC to Last Nonzero Conc Norm by Dose", "synonyms": ["AUMC to Last Nonzero Conc Norm by Dose"]}, {"conceptId": "C92328", "definition": "The area under the moment curve (AUMC) from the time of dosing to the last measurable concentration divided by the surface area.", "preferredTerm": "AUMC Dosing to Last Concentration Normalized by Surface Area", "submissionValue": "AUMC to Last Nonzero Conc Norm by SA", "synonyms": ["AUMC to Last Nonzero Conc Norm by SA"]}, {"conceptId": "C92329", "definition": "The area under the moment curve (AUMC) from the time of dosing to the last measurable concentration divided by the weight.", "preferredTerm": "AUMC Dosing to Last Concentration Normalized by Weight", "submissionValue": "AUMC to Last Nonzero Conc Norm by WT", "synonyms": ["AUMC to Last Nonzero Conc Norm by WT"]}, {"conceptId": "C85768", "definition": "The area under the urinary excretion rate curve (AURC) from the last observed non-zero rate value to infinity as a percentage of the area under the urinary excretion rate curve extrapolated to infinity.", "preferredTerm": "Observed Area Under the Urinary Excretion Rate Curve Percent Extrapolation", "submissionValue": "AURC % Extrapolation Obs", "synonyms": ["AURC % Extrapolation Obs"]}, {"conceptId": "C85792", "definition": "The area under the urinary excretion rate curve (AURC) from the last predicted non-zero rate value to infinity as a percentage of the area under the urinary excretion rate curve extrapolated to infinity.", "preferredTerm": "Predicted Area Under the Urinary Excretion Rate Curve Percent Extrapolation", "submissionValue": "AURC % Extrapolation Pred", "synonyms": ["AURC % Extrapolation Pred"]}, {"conceptId": "C85841", "definition": "The area under the urinary excretion rate curve (AURC) from time zero to the time of the last observation, regardless of whether the last observation is a measurable concentration or not.", "preferredTerm": "Area Under Urinary Excretion Rate Curve All", "submissionValue": "AURC All", "synonyms": ["AURC All"]}, {"conceptId": "C92342", "definition": "The area under the urinary excretion rate curve (AURC) from time zero to the last measurable rate divided by the body mass index.", "preferredTerm": "AURC All Normalized by Body Mass Index", "submissionValue": "AURC All Norm by BMI", "synonyms": ["AURC All Norm by BMI"]}, {"conceptId": "C92343", "definition": "The area under the urinary excretion rate curve (AURC) from time zero to the last measurable rate divided by the dose.", "preferredTerm": "AURC All Normalized by Dose", "submissionValue": "AURC All Norm by Dose", "synonyms": ["AURC All Norm by Dose"]}, {"conceptId": "C92344", "definition": "The area under the urinary excretion rate curve (AURC) from time zero to the last measurable rate divided by the surface area.", "preferredTerm": "AURC All Normalized by Surface Area", "submissionValue": "AURC All Norm by SA", "synonyms": ["AURC All Norm by SA"]}, {"conceptId": "C92345", "definition": "The area under the urinary excretion rate curve (AURC) from time zero to the last measurable rate divided by the weight.", "preferredTerm": "AURC All Normalized by Weight", "submissionValue": "AURC All Norm by WT", "synonyms": ["AURC All Norm by WT"]}, {"conceptId": "C92346", "definition": "The area under the urinary excretion rate curve (AURC) from time zero to the last measurable rate, divided by the body mass index.", "preferredTerm": "AURC Dosing to Last Concentration Normalized by Body Mass Index", "submissionValue": "AURC Dosing to Last Conc Norm by BMI", "synonyms": ["AURC to Last Nonzero Rate Norm by BMI"]}, {"conceptId": "C92347", "definition": "The area under the urinary excretion rate curve (AURC) from time zero to the last measurable rate, divided by the dose.", "preferredTerm": "AURC Dosing to Last Concentration Normalized by Dose", "submissionValue": "AURC Dosing to Last Conc Norm by Dose", "synonyms": ["AURC to Last Nonzero Rate Norm by Dose"]}, {"conceptId": "C92348", "definition": "The area under the urinary excretion rate curve (AURC) from time zero to the last measurable rate, divided by the surface area.", "preferredTerm": "AURC Dosing to Last Concentration Normalized by Surface Area", "submissionValue": "AURC Dosing to Last Conc Norm by SA", "synonyms": ["AURC to Last Nonzero Rate Norm by SA"]}, {"conceptId": "C92349", "definition": "The area under the urinary excretion rate curve (AURC) from time zero to the last measurable rate, divided by the weight.", "preferredTerm": "AURC Dosing to Last Concentration Normalized by Weight", "submissionValue": "AURC Dosing to Last Conc Norm by WT", "synonyms": ["AURC to Last Nonzero Rate Norm by WT"]}, {"conceptId": "C85767", "definition": "The area under the urinary excretion rate curve (AURC) extrapolated to infinity, calculated using the observed value of the last excretion rate.", "preferredTerm": "Observed Area Under the Urinary Excretion Rate Curve infinity", "submissionValue": "AURC Infinity Obs", "synonyms": ["AURC Infinity Obs"]}, {"conceptId": "C92354", "definition": "The area under the urinary excretion rate curve (AURC) extrapolated to infinity, calculated using the observed value of the last excretion rate, divided by the body mass index.", "preferredTerm": "AURC Infinity Observed Normalized by Body Mass Index", "submissionValue": "AURC Infinity Obs Norm by BMI", "synonyms": ["AURC Infinity Obs Norm by BMI"]}, {"conceptId": "C92355", "definition": "The area under the urinary excretion rate curve (AURC) extrapolated to infinity, calculated using the observed value of the last excretion rate, divided by the dose.", "preferredTerm": "AURC Infinity Observed Normalized by Dose", "submissionValue": "AURC Infinity Obs Norm by Dose", "synonyms": ["AURC Infinity Obs Norm by Dose"]}, {"conceptId": "C92356", "definition": "The area under the urinary excretion rate curve (AURC) extrapolated to infinity, calculated using the observed value of the last excretion rate, divided by the surface area.", "preferredTerm": "AURC Infinity Observed Normalized by Surface Area", "submissionValue": "AURC Infinity Obs Norm by SA", "synonyms": ["AURC Infinity Obs Norm by SA"]}, {"conceptId": "C92357", "definition": "The area under the urinary excretion rate curve (AURC) extrapolated to infinity, calculated using the observed value of the last excretion rate, divided by the weight.", "preferredTerm": "AURC Infinity Observed Normalized by Weight", "submissionValue": "AURC Infinity Obs Norm by WT", "synonyms": ["AURC Infinity Obs Norm by WT"]}, {"conceptId": "C85791", "definition": "The area under the urinary excretion rate curve (AURC) extrapolated to infinity, calculated using the predicted value of the last non-zero excretion rate.", "preferredTerm": "Predicted Area Under the Urinary Excretion Rate Curve Infinity", "submissionValue": "AURC Infinity Pred", "synonyms": ["AURC Infinity Pred"]}, {"conceptId": "C92358", "definition": "The area under the urinary excretion rate curve (AURC) extrapolated to infinity, calculated using the predicted value of the last non-zero excretion rate, divded by the body mass index.", "preferredTerm": "AURC Infinity Predicted Normalized by Body Mass Index", "submissionValue": "AURC Infinity Pred Norm by BMI", "synonyms": ["AURC Infinity Pred Norm by BMI"]}, {"conceptId": "C92359", "definition": "The area under the urinary excretion rate curve (AURC) extrapolated to infinity, calculated using the predicted value of the last non-zero excretion rate, divded by the dose.", "preferredTerm": "AURC Infinity Predicted Normalized by Dose", "submissionValue": "AURC Infinity Pred Norm by Dose", "synonyms": ["AURC Infinity Pred Norm by Dose"]}, {"conceptId": "C92360", "definition": "The area under the urinary excretion rate curve (AURC) extrapolated to infinity, calculated using the predicted value of the last non-zero excretion rate, divded by the surface area.", "preferredTerm": "AURC Infinity Predicted Normalized by Surface Area", "submissionValue": "AURC Infinity Pred Norm by SA", "synonyms": ["AURC Infinity Pred Norm by SA"]}, {"conceptId": "C92361", "definition": "The area under the urinary excretion rate curve (AURC) extrapolated to infinity, calculated using the predicted value of the last non-zero excretion rate, divded by the weight.", "preferredTerm": "AURC Infinity Predicted Normalized by Weight", "submissionValue": "AURC Infinity Pred Norm by WT", "synonyms": ["AURC Infinity Pred Norm by WT"]}, {"conceptId": "C85572", "definition": "The area under the urinary excretion rate curve (AURC) over the interval from T1 to T2.", "preferredTerm": "Area Under the Urinary Excretion Rate Curve from T1 to T2", "submissionValue": "AURC from T1 to T2", "synonyms": ["AURC from T1 to T2"]}, {"conceptId": "C92350", "definition": "The area under the urinary excretion rate curve (AURC) over the interval from T1 to T2 divided by the body mass index.", "preferredTerm": "AURC from T1 to T2 Normalized by Body Mass Index", "submissionValue": "AURC from T1 to T2 Norm by BMI", "synonyms": ["AURC from T1 to T2 Norm by BMI"]}, {"conceptId": "C92351", "definition": "The area under the urinary excretion rate curve (AURC) over the interval from T1 to T2 divided by the dose.", "preferredTerm": "AURC from T1 to T2 Normalized by Dose", "submissionValue": "AURC from T1 to T2 Norm by Dose", "synonyms": ["AURC from T1 to T2 Norm by Dose"]}, {"conceptId": "C92352", "definition": "The area under the urinary excretion rate curve (AURC) over the interval from T1 to T2 divided by the surface area.", "preferredTerm": "AURC from T1 to T2 Normalized by Surface Area", "submissionValue": "AURC from T1 to T2 Norm by SA", "synonyms": ["AURC from T1 to T2 Norm by SA"]}, {"conceptId": "C92353", "definition": "The area under the urinary excretion rate curve (AURC) over the interval from T1 to T2 divided by the weight.", "preferredTerm": "AURC from T1 to T2 Normalized by Weight", "submissionValue": "AURC from T1 to T2 Norm by WT", "synonyms": ["AURC from T1 to T2 Norm by WT"]}, {"conceptId": "C85571", "definition": "The area under the urinary excretion rate curve (AURC) from time zero to the time of the last measurable concentration.", "preferredTerm": "Area Under the Urinary Excretion Rate Curve From Dosing to Last Concentration", "submissionValue": "AURC to Last Nonzero Rate", "synonyms": ["AURC to Last Nonzero Rate"]}, {"conceptId": "C132436", "definition": "The area under the curve from T1 to T2 at steady state divided by the area under the curve from T1 to T2 during the initial dosing interval, each divided by the associated dose.", "preferredTerm": "Accumulation Ratio AUC T1 to T2 Normalized by Dose", "submissionValue": "Accum Ratio AUC T1 to T2 norm by dose", "synonyms": ["Accum Ratio AUC T1 to T2 norm by dose"]}, {"conceptId": "C139129", "definition": "The area under the curve (AUC) from the time of dosing to the last measurable concentration divided by the area under the curve from the time of dosing to the last measurable concentration during the initial dosing interval.", "preferredTerm": "Accumulation Ratio AUC to Last Nonzero Concentration", "submissionValue": "Accum Ratio AUC to Last Nonzero Conc", "synonyms": ["Accum Ratio AUC to Last Nonzero Conc"]}, {"conceptId": "C132435", "definition": "The area under the curve (AUCTAU) at steady state divided by the area under the curve (AUCTAU) over the initial dosing interval, each divided by the associated dose.", "preferredTerm": "Accumulation Ratio AUC Over Dosing Interval Normalized by Dose", "submissionValue": "Accum Ratio AUCTAU norm by dose", "synonyms": ["Accum Ratio AUCTAU norm by dose"]}, {"conceptId": "C132437", "definition": "The maximum concentration at steady state divided by the maximum concentration during the initial dosing interval, each divided by the associated dose.", "preferredTerm": "Accumulation Ratio Cmax Normalized by Dose", "submissionValue": "Accum Ratio Cmax norm by dose", "synonyms": ["Accum Ratio Cmax norm by dose"]}, {"conceptId": "C132438", "definition": "The minimum concentration at steady state divided by the minimum concentration during the initial dosing interval, each divided by the associated dose.", "preferredTerm": "Accumulation Ratio Cmin Normalized by Dose", "submissionValue": "Accum Ratio Cmin norm by dose", "synonyms": ["Accum Ratio Cmin norm by dose"]}, {"conceptId": "C132439", "definition": "The trough concentration at steady state divided by the trough concentration during the initial dosing interval, each divided by the associated dose.", "preferredTerm": "Accumulation Ratio Ctrough Normalized by Dose", "submissionValue": "Accum Ratio Ctrough norm by dose", "synonyms": ["Accum Ratio Ctrough norm by dose"]}, {"conceptId": "C114234", "definition": "Predicted accumulation ratio for area under the curve (AUC) calculated using the Lambda z estimated from single dose data.", "preferredTerm": "Accumulation Index using Lambda z", "submissionValue": "Accumulation Index using Lambda z", "synonyms": ["Accumulation Index using Lambda z"]}, {"conceptId": "C122329", "definition": "The area under the curve from T1 to T2 at steady state divided by the area under the curve from T1 to T2 during the initial dosing interval.", "preferredTerm": "Accumulation Ratio Area Under the Curve from T1 to T2", "submissionValue": "Accumulation Ratio AUC from T1 to T2", "synonyms": ["Accumulation Ratio AUC from T1 to T2"]}, {"conceptId": "C102356", "definition": "The area under the curve over the dosing interval at steady state divided by the area under the curve over the initial dosing interval.", "preferredTerm": "Accumulation Ratio Area Under the Curve", "submissionValue": "Accumulation Ratio AUCTAU", "synonyms": ["Accumulation Ratio AUCTAU"]}, {"conceptId": "C102357", "definition": "The maximum concentration at steady state divided by the maximum concentration during the initial dosing interval.", "preferredTerm": "Accumulation Ratio Cmax", "submissionValue": "Accumulation Ratio Cmax", "synonyms": ["Accumulation Ratio Cmax"]}, {"conceptId": "C102358", "definition": "The minimum concentration at steady state divided by the minimum concentration during the initial dosing interval.", "preferredTerm": "Accumulation Ratio Cmin", "submissionValue": "Accumulation Ratio Cmin", "synonyms": ["Accumulation Ratio Cmin"]}, {"conceptId": "C102426", "definition": "The trough concentration at steady state divided by the trough concentration during the initial dosing interval.", "preferredTerm": "Accumulation Ratio Ctrough", "submissionValue": "Accumulation Ratio Ctrough", "synonyms": ["Accumulation Ratio Ctrough"]}, {"conceptId": "C112032", "definition": "The cumulative amount recovered from the specimen type specified in PPSPEC extrapolated to infinity, calculated using the observed value of the last non-zero concentration.", "preferredTerm": "Amount Recovered Infinity Observed", "submissionValue": "Amt Rec Infinity Obs", "synonyms": ["Amt Rec Infinity Obs"]}, {"conceptId": "C112223", "definition": "The cumulative amount recovered from the specimen type specified in PPSPEC extrapolated to infinity, calculated using the observed value of the last non-zero concentration, divided by the body mass index.", "preferredTerm": "Amount Recovered Infinity Observed Normalized by Body Mass Index", "submissionValue": "Amt Rec Infinity Obs Norm by BMI", "synonyms": ["Amt Rec Infinity Obs Norm by BMI"]}, {"conceptId": "C112224", "definition": "The cumulative amount recovered from the specimen type specified in PPSPEC extrapolated to infinity, calculated using the observed value of the last non-zero concentration, divided by the surface area.", "preferredTerm": "Amount Recovered Infinity Observed Normalized by Surface Area", "submissionValue": "Amt Rec Infinity Obs Norm by SA", "synonyms": ["Amt Rec Infinity Obs Norm by SA"]}, {"conceptId": "C112225", "definition": "The cumulative amount recovered from the specimen type specified in PPSPEC extrapolated to infinity, calculated using the observed value of the last non-zero concentration, divided by the weight.", "preferredTerm": "Amount Recovered Infinity Observed Normalized by Weight", "submissionValue": "Amt Rec Infinity Obs Norm by WT", "synonyms": ["Amt Rec Infinity Obs Norm by WT"]}, {"conceptId": "C112033", "definition": "The cumulative amount recovered from the specimen type specified in PPSPEC extrapolated to infinity, calculated using the predicted value of the last non-zero concentration.", "preferredTerm": "Amount Recovered Infinity Predicted", "submissionValue": "Amt Rec Infinity Pred", "synonyms": ["Amt Rec Infinity Pred"]}, {"conceptId": "C112226", "definition": "The cumulative amount recovered from the specimen type specified in PPSPEC extrapolated to infinity, calculated using the predicted value of the last non-zero concentration, divided by the body mass index.", "preferredTerm": "Amount Recovered Infinity Predicted Normalized by Body Mass Index", "submissionValue": "Amt Rec Infinity Pred Norm by BMI", "synonyms": ["Amt Rec Infinity Pred Norm by BMI"]}, {"conceptId": "C112227", "definition": "The cumulative amount recovered from the specimen type specified in PPSPEC extrapolated to infinity, calculated using the predicted value of the last non-zero concentration, divided by the surface area.", "preferredTerm": "Amount Recovered Infinity Predicted Normalized by Surface Area", "submissionValue": "Amt Rec Infinity Pred Norm by SA", "synonyms": ["Amt Rec Infinity Pred Norm by SA"]}, {"conceptId": "C112228", "definition": "The cumulative amount recovered from the specimen type specified in PPSPEC extrapolated to infinity, calculated using the predicted value of the last non-zero concentration, divided by the weight.", "preferredTerm": "Amount Recovered Infinity Predicted Normalized by Weight", "submissionValue": "Amt Rec Infinity Pred Norm by WT", "synonyms": ["Amt Rec Infinity Pred Norm by WT"]}, {"conceptId": "C102363", "definition": "The cumulative amount recovered from the specimen type specified in PPSPEC between doses (TAU).", "preferredTerm": "Amount Recovered Over Dosing Interval", "submissionValue": "Amt Rec Over Dosing Interval", "synonyms": ["Amt Rec Over Dosing Interval"]}, {"conceptId": "C102364", "definition": "The cumulative amount recovered from the specimen type specified in PPSPEC between doses (TAU) divided by body mass index.", "preferredTerm": "Amount Recovered Over Dosing Interval Normalized by Body Mass Index", "submissionValue": "Amt Rec Over Dosing Interval Norm by BMI", "synonyms": ["Amt Rec Over Dosing Interval Norm by BMI"]}, {"conceptId": "C102365", "definition": "The cumulative amount recovered from the specimen type specified in PPSPEC between doses (TAU) divided by surface area.", "preferredTerm": "Amount Recovered Over Dosing Interval Normalized by Surface Area", "submissionValue": "Amt Rec Over Dosing Interval Norm by SA", "synonyms": ["Amt Rec Over Dosing Interval Norm by SA"]}, {"conceptId": "C102366", "definition": "The cumulative amount recovered from the specimen type specified in PPSPEC between doses (TAU) divided by weight.", "preferredTerm": "Amount Recovered Over Dosing Interval Normalized by Weight", "submissionValue": "Amt Rec Over Dosing Interval Norm by WT", "synonyms": ["Amt Rec Over Dosing Interval Norm by WT"]}, {"conceptId": "C102359", "definition": "The cumulative amount recovered from the specimen type specified in PPSPEC over the interval from T1 to T2.", "preferredTerm": "Amount Recovered from T1 to T2", "submissionValue": "Amt Rec from T1 to T2", "synonyms": ["Amt Rec from T1 to T2"]}, {"conceptId": "C102360", "definition": "The cumulative amount recovered from the specimen type specified in PPSPEC over the interval from T1 to T2 divided by body mass index.", "preferredTerm": "Amount Recovered from T1 to T2 Normalized by Body Mass Index", "submissionValue": "Amt Rec from T1 to T2 Norm by BMI", "synonyms": ["Amt Rec from T1 to T2 Norm by BMI"]}, {"conceptId": "C102361", "definition": "The cumulative amount recovered from the specimen type specified in PPSPEC over the interval from T1 to T2 divided by surface area.", "preferredTerm": "Amount Recovered from T1 to T2 Normalized by Surface Area", "submissionValue": "Amt Rec from T1 to T2 Norm by SA", "synonyms": ["Amt Rec from T1 to T2 Norm by SA"]}, {"conceptId": "C102362", "definition": "The cumulative amount recovered from the specimen type specified in PPSPEC over the interval from T1 to T2 divided by weight.", "preferredTerm": "Amount Recovered from T1 to T2 Normalized by Weight", "submissionValue": "Amt Rec from T1 to T2 Norm by WT", "synonyms": ["Amt Rec from T1 to T2 Norm by WT"]}, {"conceptId": "C92367", "definition": "AUCTAU divided by TAU and then divided by the body mass index.", "preferredTerm": "Average Concentration Normalized by Body Mass Index", "submissionValue": "Average Conc Norm by BMI", "synonyms": ["Average Conc Norm by BMI"]}, {"conceptId": "C92368", "definition": "AUCTAU divided by TAU and then divided by the dose.", "preferredTerm": "Average Concentration Normalized by Dose", "submissionValue": "Average Conc Norm by Dose", "synonyms": ["Average Conc Norm by Dose"]}, {"conceptId": "C92369", "definition": "AUCTAU divided by TAU and then divided by the surface area.", "preferredTerm": "Average Concentration Normalized by Surface Area", "submissionValue": "Average Conc Norm by SA", "synonyms": ["Average Conc Norm by SA"]}, {"conceptId": "C92370", "definition": "AUCTAU divided by TAU and then divided by the weight.", "preferredTerm": "Average Concentration Normalized by Weight", "submissionValue": "Average Conc Norm by WT", "synonyms": ["Average Conc Norm by WT"]}, {"conceptId": "C132302", "definition": "The area under the curve over the interval from T1 to T2 (AUCINT) divided by the length of the interval.", "preferredTerm": "Average Concentration from T1 to T2", "submissionValue": "Average Conc from T1 to T2", "synonyms": ["Average Conc from T1 to T2"]}, {"conceptId": "C132440", "definition": "The area under the curve over the interval from T1 to T2 (AUCINT) divided by the length of the interval and then divided by the body mass index.", "preferredTerm": "Average Concentration from T1 to T2 Normalized by Body Mass Index", "submissionValue": "Average Conc from T1 to T2 Norm by BMI", "synonyms": ["Average Conc from T1 to T2 Norm by BMI"]}, {"conceptId": "C132441", "definition": "The area under the curve over the interval from T1 to T2 (AUCINT) divided by the length of the interval and then divided by the dose.", "preferredTerm": "Average Concentration from T1 to T2 Normalized by Dose", "submissionValue": "Average Conc from T1 to T2 Norm by Dose", "synonyms": ["Average Conc from T1 to T2 Norm by Dose"]}, {"conceptId": "C132442", "definition": "The area under the curve over the interval from T1 to T2 (AUCINT) divided by the length of the interval and then divided by the surface area.", "preferredTerm": "Average Concentration from T1 to T2 Normalized by Surface Area", "submissionValue": "Average Conc from T1 to T2 Norm by SA", "synonyms": ["Average Conc from T1 to T2 Norm by SA"]}, {"conceptId": "C132443", "definition": "The area under the curve over the interval from T1 to T2 (AUCINT) divided by the length of the interval and then divided by the weight.", "preferredTerm": "Average Concentration from T1 to T2 Normalized by Weight", "submissionValue": "Average Conc from T1 to T2 Norm by WT", "synonyms": ["Average Conc from T1 to T2 Norm by WT"]}, {"conceptId": "C85575", "definition": "AUCTAU divided by TAU.", "preferredTerm": "Average Concentration", "submissionValue": "Average Concentration", "synonyms": ["Average Concentration"]}, {"conceptId": "C102394", "definition": "Concentration at end of dosing interval.", "preferredTerm": "Trough Concentration", "submissionValue": "Conc Trough", "synonyms": ["Conc Trough"]}, {"conceptId": "C102395", "definition": "The trough concentration divided by body mass index.", "preferredTerm": "Trough Concentration Divided by Body Mass Index", "submissionValue": "Conc Trough by BMI", "synonyms": ["Conc Trough by BMI"]}, {"conceptId": "C102396", "definition": "The trough concentration divided by dose.", "preferredTerm": "Trough Concentration Divided by Dose", "submissionValue": "Conc Trough by Dose", "synonyms": ["Conc Trough by Dose"]}, {"conceptId": "C102397", "definition": "The trough concentration divided by surface area.", "preferredTerm": "Trough Concentration Divided by Surface Area", "submissionValue": "Conc Trough by SA", "synonyms": ["Conc Trough by SA"]}, {"conceptId": "C102398", "definition": "The trough concentration divided by weight.", "preferredTerm": "Trough Concentration Divided by Weight", "submissionValue": "Conc Trough by WT", "synonyms": ["Conc Trough by WT"]}, {"conceptId": "C102367", "definition": "The concentration divided by body mass index.", "preferredTerm": "Concentration Divided by Body Mass Index", "submissionValue": "Conc by BMI", "synonyms": ["Conc by BMI"]}, {"conceptId": "C102368", "definition": "The concentration divided by dose.", "preferredTerm": "Concentration Divided by Dose", "submissionValue": "Conc by Dose", "synonyms": ["Conc by Dose"]}, {"conceptId": "C102369", "definition": "The concentration divided by surface area.", "preferredTerm": "Concentration Divided by Surface Area", "submissionValue": "Conc by SA", "synonyms": ["Conc by SA"]}, {"conceptId": "C102370", "definition": "The concentration divided by weight.", "preferredTerm": "Concentration Divided by Weight", "submissionValue": "Conc by WT", "synonyms": ["Conc by WT"]}, {"conceptId": "C41185", "definition": "The quantity of a specified substance in a unit volume or weight of another substance.", "preferredTerm": "Concentration", "submissionValue": "Concentration", "synonyms": ["Concentration"]}, {"conceptId": "C135489", "definition": "The concentration that occurs at the midpoint time between dosing time and Tmax.", "preferredTerm": "Concentration at Half Tmax", "submissionValue": "Concentration at Half Tmax", "synonyms": ["Concentration at Half Tmax"]}, {"conceptId": "C85821", "definition": "The correlation between time (X) and log concentration (Y) for the points used in the estimation of lambda z.", "preferredTerm": "Time and Log Concentration Correlation", "submissionValue": "Correlation Between TimeX and Log ConcY", "synonyms": ["Correlation Between TimeX and Log ConcY"]}, {"conceptId": "C95007", "definition": "The drug half-life that quantifies the accumulation ratio of a drug following multiple dosing.", "preferredTerm": "Effective Half-life", "submissionValue": "Effective Half-Life", "synonyms": ["Effective Half-Life"]}, {"conceptId": "C105449", "definition": "The excretion rate over the interval from T1 to T2, determined for the specimen type specified in PPSPEC.", "preferredTerm": "Excretion Rate From T1 to T2", "submissionValue": "Excret Rate from T1 to T2", "synonyms": ["Excret Rate from T1 to T2"]}, {"conceptId": "C105450", "definition": "The excretion rate over the interval from T1 to T2 divided by the body mass index, determined for the specimen type specified in PPSPEC.", "preferredTerm": "Excretion Rate From T1 to T2 Normalized by BMI", "submissionValue": "Excret Rate from T1 to T2 Norm by BMI", "synonyms": ["Excret Rate from T1 to T2 Norm by BMI"]}, {"conceptId": "C105451", "definition": "The excretion rate over the interval from T1 to T2 divided by the dose, determined for the specimen type specified in PPSPEC.", "preferredTerm": "Excretion Rate From T1 to T2 Normalized by Dose", "submissionValue": "Excret Rate from T1 to T2 Norm by Dose", "synonyms": ["Excret Rate from T1 to T2 Norm by Dose"]}, {"conceptId": "C105452", "definition": "The excretion rate over the interval from T1 to T2 divided by the surface area, determined for the specimen type specified in PPSPEC.", "preferredTerm": "Excretion Rate From T1 to T2 Normalized by SA", "submissionValue": "Excret Rate from T1 to T2 Norm by SA", "synonyms": ["Excret Rate from T1 to T2 Norm by SA"]}, {"conceptId": "C105453", "definition": "The excretion rate over the interval from T1 to T2 divided by the weight, determined for the specimen type specified in PPSPEC.", "preferredTerm": "Excretion Rate From T1 to T2 Normalized by WT", "submissionValue": "Excret Rate from T1 to T2 Norm by WT", "synonyms": ["Excret Rate from T1 to T2 Norm by WT"]}, {"conceptId": "C85581", "definition": "The difference between Cmin and Cmax standardized to Cavg, between dose time and Tau.", "preferredTerm": "Concentration Variability Between Dose Time and Tau", "submissionValue": "Fluctuation%", "synonyms": ["Fluctuation%"]}, {"conceptId": "C135490", "definition": "The ratio of free drug concentration to the total concentration. (NCI)", "preferredTerm": "Fraction Unbound", "submissionValue": "Fraction Unbound", "synonyms": ["Fraction Unbound"]}, {"conceptId": "C135491", "definition": "The midpoint time between dosing time and Tmax.", "preferredTerm": "Half Tmax", "submissionValue": "Half Tmax", "synonyms": ["Half Tmax"]}, {"conceptId": "C85818", "definition": "Terminal half-life.", "preferredTerm": "Terminal Half Life", "submissionValue": "Half-Life Lambda z", "synonyms": ["Half-Life Lambda z"]}, {"conceptId": "C147483", "definition": "Half-life calculated within a dosing interval.", "preferredTerm": "Half-Life TAU", "submissionValue": "Half-Life TAU", "synonyms": ["Half-Life TAU"]}, {"conceptId": "C112287", "definition": "The clearance of a substance from the blood during a hemodialysis session.", "preferredTerm": "Hemodialysis Clearance", "submissionValue": "Hemodialysis Clearance", "synonyms": ["Hemodialysis Clearance"]}, {"conceptId": "C116213", "definition": "The fractional content of a substance removed from the blood during a hemodialysis session.", "preferredTerm": "Hemodialysis Extraction Ratio", "submissionValue": "Hemodialysis Extraction Ratio", "synonyms": ["Hemodialysis Extraction Ratio"]}, {"conceptId": "C85644", "definition": "Initial concentration. Given only for bolus IV models.", "preferredTerm": "Initial Concentration", "submissionValue": "Initial Conc", "synonyms": ["Initial Conc"]}, {"conceptId": "C92383", "definition": "Initial concentration divided by the body mass index. Given only for bolus IV models.", "preferredTerm": "Initial Concentration Normalized by Body Mass Index", "submissionValue": "Initial Conc Norm by BMI", "synonyms": ["Initial Conc Norm by BMI"]}, {"conceptId": "C92384", "definition": "Initial concentration divided by the dose. Given only for bolus IV models.", "preferredTerm": "Initial Concentration Normalized by Dose", "submissionValue": "Initial Conc Norm by Dose", "synonyms": ["Initial Conc Norm by Dose"]}, {"conceptId": "C92385", "definition": "Initial concentration divided by the surface area. Given only for bolus IV models.", "preferredTerm": "Initial Concentration Normalized by Surface Area", "submissionValue": "Initial Conc Norm by SA", "synonyms": ["Initial Conc Norm by SA"]}, {"conceptId": "C92386", "definition": "Initial concentration divided by the weight. Given only for bolus IV models.", "preferredTerm": "Initial Concentration Normalized by Weight", "submissionValue": "Initial Conc Norm by WT", "synonyms": ["Initial Conc Norm by WT"]}, {"conceptId": "C85652", "definition": "The first order rate constant associated with the terminal (log-linear) portion of the curve.", "preferredTerm": "Lambda Z", "submissionValue": "Lambda z", "synonyms": ["Lambda z"]}, {"conceptId": "C85653", "definition": "The lower limit on time for values to be included in the calculation of Lambda z.", "preferredTerm": "Lambda Z Time Lower Limit", "submissionValue": "Lambda z Lower Limit", "synonyms": ["Lambda z Lower Limit"]}, {"conceptId": "C147479", "definition": "The lower limit on time for values to be included in the calculation of Lambda z, calculated within a dosing interval.", "preferredTerm": "Lambda z Lower Limit TAU", "submissionValue": "Lambda z Lower Limit TAU", "synonyms": ["Lambda z Lower Limit TAU"]}, {"conceptId": "C135492", "definition": "The interval of time covered by the data points used in the terminal disposition phase regression analysis, divided by half life. This yields the terminal disposition phase duration expressed as the number of half lives.", "preferredTerm": "Lambda Z Span", "submissionValue": "Lambda z Span", "synonyms": ["Lambda z Span"]}, {"conceptId": "C147481", "definition": "The first order rate constant associated with the terminal (log-linear) portion of the curve, calculated within a dosing interval.", "preferredTerm": "Lambda z TAU", "submissionValue": "Lambda z TAU", "synonyms": ["Lambda z TAU"]}, {"conceptId": "C85654", "definition": "The upper limit on time for values to be included in the calculation of Lambda z.", "preferredTerm": "Lambda Z Time Upper Limit", "submissionValue": "Lambda z Upper Limit", "synonyms": ["Lambda z Upper Limit"]}, {"conceptId": "C147482", "definition": "The upper limit on time for values to be included in the calculation of Lambda z, calculated within a dosing interval.", "preferredTerm": "Lambda z Upper Limit TAU", "submissionValue": "Lambda z Upper Limit TAU", "synonyms": ["Lambda z Upper Limit TAU"]}, {"conceptId": "C85656", "definition": "The last measurable (positive) excretion rate determined for the specimen type specified in PPSPEC.", "preferredTerm": "Last Measurable Observed Excretion Rate", "submissionValue": "Last Meas Excretion Rate", "synonyms": ["Last Meas Excretion Rate"]}, {"conceptId": "C92391", "definition": "The last measurable (positive) excretion rate divided by the body mass index.", "preferredTerm": "Last Measurable Excretion Rate Normalized by Body Mass Index", "submissionValue": "Last Meas Excretion Rate Norm by BMI", "synonyms": ["Last Meas Excretion Rate Norm by BMI"]}, {"conceptId": "C92392", "definition": "The last measurable (positive) excretion rate divided by the dose.", "preferredTerm": "Last Measurable Excretion Rate Normalized by Dose", "submissionValue": "Last Meas Excretion Rate Norm by Dose", "synonyms": ["Last Meas Excretion Rate Norm by Dose"]}, {"conceptId": "C92393", "definition": "The last measurable (positive) excretion rate divided by the surface area.", "preferredTerm": "Last Measurable Excretion Rate Normalized by Surface Area", "submissionValue": "Last Meas Excretion Rate Norm by SA", "synonyms": ["Last Meas Excretion Rate Norm by SA"]}, {"conceptId": "C92394", "definition": "The last measurable (positive) excretion rate divided by the weight.", "preferredTerm": "Last Measurable Excretion Rate Normalized by Weight", "submissionValue": "Last Meas Excretion Rate Norm by WT", "synonyms": ["Last Meas Excretion Rate Norm by WT"]}, {"conceptId": "C85655", "definition": "The concentration corresponding to Tlast.", "preferredTerm": "Last Concentration", "submissionValue": "Last Nonzero Conc", "synonyms": ["Last Nonzero Conc"]}, {"conceptId": "C92387", "definition": "The concentration corresponding to Tlast divided by the body mass index.", "preferredTerm": "Last Concentration Normalized by Body Mass Index", "submissionValue": "Last Nonzero Conc Norm by BMI", "synonyms": ["Last Nonzero Conc Norm by BMI"]}, {"conceptId": "C92388", "definition": "The concentration corresponding to Tlast divided by the dose.", "preferredTerm": "Last Concentration Normalized by Dose", "submissionValue": "Last Nonzero Conc Norm by Dose", "synonyms": ["Last Nonzero Conc Norm by Dose"]}, {"conceptId": "C92389", "definition": "The concentration corresponding to Tlast divided by the surface area.", "preferredTerm": "Last Concentration Normalized by Surface Area", "submissionValue": "Last Nonzero Conc Norm by SA", "synonyms": ["Last Nonzero Conc Norm by SA"]}, {"conceptId": "C92390", "definition": "The concentration corresponding to Tlast divided by the weight.", "preferredTerm": "Last Concentration Normalized by Weight", "submissionValue": "Last Nonzero Conc Norm by WT", "synonyms": ["Last Nonzero Conc Norm by WT"]}, {"conceptId": "C120724", "definition": "The mean residence time (MRT) extrapolated to infinity for a substance administered by extravascular dosing, calculated using the observed value of the last non-zero concentration. Extravascular MRT includes Mean Absorption Time (MAT).", "preferredTerm": "Mean Residence Time Infinity Observed by Extravascular Dose", "submissionValue": "MRT Extravasc Infinity Obs", "synonyms": ["MRT Extravasc Infinity Obs"]}, {"conceptId": "C120725", "definition": "The mean residence time (MRT) extrapolated to infinity for a substance administered by extravascular dosing, calculated using the predicted value of the last non-zero concentration. Extravascular MRT includes Mean Absorption Time (MAT).", "preferredTerm": "Mean Residence Time Infinity Predicted by Extravascular Dose", "submissionValue": "MRT Extravasc Infinity Pred", "synonyms": ["MRT Extravasc Infinity Pred"]}, {"conceptId": "C120726", "definition": "Mean residence time (MRT) from the time of dosing to the time of the last measurable concentration for a substance administered by extravascular dosing. Extravascular MRT includes Mean Absorption Time (MAT).", "preferredTerm": "Mean Residence Time to Last Nonzero Concentration by Extravascular Dose", "submissionValue": "MRT Extravasc to Last Nonzero Conc", "synonyms": ["MRT Extravasc to Last Nonzero Conc"]}, {"conceptId": "C121134", "definition": "The mean residence time (MRT) extrapolated to infinity for a substance administered by intravascular dosing, calculated using the observed value of the last non-zero concentration.", "preferredTerm": "Mean Residence Time Infinity Observed by Intravascular Dose", "submissionValue": "MRT Intravasc Infinity Obs", "synonyms": ["MRT Intravasc Infinity Obs"]}, {"conceptId": "C121136", "definition": "The mean residence time (MRT) extrapolated to infinity for a substance administered by intravascular dosing, calculated using the predicted value of the last non-zero concentration.", "preferredTerm": "Mean Residence Time Infinity Predicted by Intravascular Dose", "submissionValue": "MRT Intravasc Infinity Pred", "synonyms": ["MRT Intravasc Infinity Pred"]}, {"conceptId": "C121137", "definition": "Mean residence time (MRT) from the time of dosing to the time of the last measurable concentration, for a substance administered by intravascular dosing.", "preferredTerm": "Mean Residence Time to Last Nonzero Concentration by Intravascular Dose", "submissionValue": "MRT Intravasc to Last Nonzero Conc", "synonyms": ["MRT Intravasc to Last Nonzero Conc"]}, {"conceptId": "C70918", "definition": "The maximum concentration occurring at Tmax.", "preferredTerm": "Cmax", "submissionValue": "Max Conc", "synonyms": ["Max Conc"]}, {"conceptId": "C92371", "definition": "The maximum concentration occurring at Tmax, divided by the body mass index.", "preferredTerm": "Maximum Concentration Normalized by Body Mass Index", "submissionValue": "Max Conc Norm by BMI", "synonyms": ["Max Conc Norm by BMI"]}, {"conceptId": "C85698", "definition": "The maximum concentration occurring at Tmax, divided by the dose.", "preferredTerm": "Maximum Concentration Dose Normalized", "submissionValue": "Max Conc Norm by Dose", "synonyms": ["Max Conc Norm by Dose"]}, {"conceptId": "C92372", "definition": "The maximum concentration occurring at Tmax, divided by the surface area.", "preferredTerm": "Maximum Concentration Normalized by Surface Area", "submissionValue": "Max Conc Norm by SA", "synonyms": ["Max Conc Norm by SA"]}, {"conceptId": "C92373", "definition": "The maximum concentration occurring at Tmax, divided by the weight.", "preferredTerm": "Maximum Concentration Normalized by Weight", "submissionValue": "Max Conc Norm by WT", "synonyms": ["Max Conc Norm by WT"]}, {"conceptId": "C85699", "definition": "The maximum excretion rate determined for the specimen type specified in PPSPEC.", "preferredTerm": "Maximum Observed Excretion Rate", "submissionValue": "Max Excretion Rate", "synonyms": ["Max Excretion Rate"]}, {"conceptId": "C92395", "definition": "The maximum excretion rate divided by the body mass index.", "preferredTerm": "Maximum Observed Excretion Rate Normalized by Body Mass Index", "submissionValue": "Max Excretion Rate Norm by BMI", "synonyms": ["Max Excretion Rate Norm by BMI"]}, {"conceptId": "C92396", "definition": "The maximum excretion rate divided by the dose.", "preferredTerm": "Maximum Observed Excretion Rate Normalized by Dose", "submissionValue": "Max Excretion Rate Norm by Dose", "synonyms": ["Max Excretion Rate Norm by Dose"]}, {"conceptId": "C92397", "definition": "The maximum excretion rate divided by the surface area.", "preferredTerm": "Maximum Observed Excretion Rate Normalized by Surface Area", "submissionValue": "Max Excretion Rate Norm by SA", "synonyms": ["Max Excretion Rate Norm by SA"]}, {"conceptId": "C92398", "definition": "The maximum excretion rate divided by the weight.", "preferredTerm": "Maximum Observed Excretion Rate Normalized by Weight", "submissionValue": "Max Excretion Rate Norm by WT", "synonyms": ["Max Excretion Rate Norm by WT"]}, {"conceptId": "C120723", "definition": "Mean absorption time of a substance administered by extravascular dosing.", "preferredTerm": "Mean Absorption Time", "submissionValue": "Mean Absorption Time", "synonyms": ["Mean Absorption Time"]}, {"conceptId": "C85580", "definition": "The midpoint of collection interval associated with last measurable excretion rate.", "preferredTerm": "Collection Interval Midpoint", "submissionValue": "Midpoint of Interval of Last Nonzero ER", "synonyms": ["Midpoint of Interval of Last Nonzero ER"]}, {"conceptId": "C85823", "definition": "The midpoint of collection interval associated with the maximum excretion rate.", "preferredTerm": "Time of Maximum Observed Excretion Rate", "submissionValue": "Midpoint of Interval of Maximum ER", "synonyms": ["Midpoint of Interval of Maximum ER"]}, {"conceptId": "C85579", "definition": "The minimum concentration between dose time and dose time plus Tau (at Tmin).", "preferredTerm": "Cmin", "submissionValue": "Min Conc", "synonyms": ["Min Conc"]}, {"conceptId": "C92374", "definition": "The minimum concentration between dose time and dose time plus Tau (at Tmin) divided by the body mass index.", "preferredTerm": "Minimum Concentration Normalized by Body Mass Index", "submissionValue": "Min Conc Norm by BMI", "synonyms": ["Min Conc Norm by BMI"]}, {"conceptId": "C92375", "definition": "The minimum concentration between dose time and dose time plus Tau (at Tmin) divided by the dose.", "preferredTerm": "Minimum Concentration Normalized by Dose", "submissionValue": "Min Conc Norm by Dose", "synonyms": ["Min Conc Norm by Dose"]}, {"conceptId": "C92376", "definition": "The minimum concentration between dose time and dose time plus Tau (at Tmin) divided by the surface area.", "preferredTerm": "Minimum Concentration Normalized by Surface Area", "submissionValue": "Min Conc Norm by SA", "synonyms": ["Min Conc Norm by SA"]}, {"conceptId": "C92377", "definition": "The minimum concentration between dose time and dose time plus Tau (at Tmin) divided by the weight.", "preferredTerm": "Minimum Concentration Normalized by Weight", "submissionValue": "Min Conc Norm by WT", "synonyms": ["Min Conc Norm by WT"]}, {"conceptId": "C102376", "definition": "The total clearance of a substance from the blood less the renal clearance.", "preferredTerm": "Nonrenal Clearance", "submissionValue": "Nonrenal CL", "synonyms": ["Nonrenal CL"]}, {"conceptId": "C105454", "definition": "The total clearance of a substance from the blood minus the renal clearance divided by the body mass index.", "preferredTerm": "Nonrenal Clearance Normalized by BMI", "submissionValue": "Nonrenal CL Norm by BMI", "synonyms": ["Nonrenal CL Norm by BMI"]}, {"conceptId": "C105455", "definition": "The total clearance of a substance from the blood minus the renal clearance divided by the dose.", "preferredTerm": "Nonrenal Clearance Normalized by Dose", "submissionValue": "Nonrenal CL Norm by Dose", "synonyms": ["Nonrenal CL Norm by Dose"]}, {"conceptId": "C105456", "definition": "The total clearance of a substance from the blood minus the renal clearance divided by the surface area.", "preferredTerm": "Nonrenal Clearance Normalized by SA", "submissionValue": "Nonrenal CL Norm by SA", "synonyms": ["Nonrenal CL Norm by SA"]}, {"conceptId": "C105457", "definition": "The total clearance of a substance from the blood minus the renal clearance divided by the weight.", "preferredTerm": "Nonrenal Clearance Normalized by WT", "submissionValue": "Nonrenal CL Norm by WT", "synonyms": ["Nonrenal CL Norm by WT"]}, {"conceptId": "C85816", "definition": "The number of time points used in computing Lambda z.", "preferredTerm": "Sum of Lambda Z Timepoints", "submissionValue": "Number of Points for Lambda z", "synonyms": ["Number of Points for Lambda z"]}, {"conceptId": "C147480", "definition": "The number of time points used in computing Lambda z determined in a dosing interval.", "preferredTerm": "Number of Points for Lambda z TAU", "submissionValue": "Number of Points for Lambda z TAU", "synonyms": ["Number of Points for Lambda z TAU"]}, {"conceptId": "C112034", "definition": "The percentage of the administered dose that is recovered from the specimen type specified in PPSPEC extrapolated to infinity, calculated using the observed value of the last non-zero concentration.", "preferredTerm": "Percent Recovered Infinity Observed", "submissionValue": "Pct Rec Infinity Obs", "synonyms": ["Pct Rec Infinity Obs"]}, {"conceptId": "C112389", "definition": "The percentage of the administered dose that is recovered from the specimen type specified in PPSPEC extrapolated to infinity, calculated using the observed value of the last non-zero concentration, divided by the body mass index.", "preferredTerm": "Percent Recovered Infinity Observed Normalized by Body Mass Index", "submissionValue": "Pct Rec Infinity Obs Norm by BMI", "synonyms": ["Pct Rec Infinity Obs Norm by BMI"]}, {"conceptId": "C112390", "definition": "The percentage of the administered dose that is recovered from the specimen type specified in PPSPEC extrapolated to infinity, calculated using the observed value of the last non-zero concentration, divided by the surface area.", "preferredTerm": "Percent Recovered Infinity Observed Normalized by Surface Area", "submissionValue": "Pct Rec Infinity Obs Norm by SA", "synonyms": ["Pct Rec Infinity Obs Norm by SA"]}, {"conceptId": "C112391", "definition": "The percentage of the administered dose that is recovered from the specimen type specified in PPSPEC extrapolated to infinity, calculated using the observed value of the last non-zero concentration, divided by the weight.", "preferredTerm": "Percent Recovered Infinity Observed Normalized by Weight", "submissionValue": "Pct Rec Infinity Obs Norm by WT", "synonyms": ["Pct Rec Infinity Obs Norm by WT"]}, {"conceptId": "C112035", "definition": "The percentage of the administered dose that is recovered from the specimen type specified in PPSPEC extrapolated to infinity, calculated using the predicted value of the last non-zero concentration.", "preferredTerm": "Percent Recovered Infinity Predicted", "submissionValue": "Pct Rec Infinity Pred", "synonyms": ["Pct Rec Infinity Pred"]}, {"conceptId": "C112392", "definition": "The percentage of the administered dose that is recovered from the specimen type specified in PPSPEC extrapolated to infinity, calculated using the predicted value of the last non-zero concentration, divided by the body mass index.", "preferredTerm": "Percent Recovered Infinity Predicted Normalized by Body Mass Index", "submissionValue": "Pct Rec Infinity Pred Norm by BMI", "synonyms": ["Pct Rec Infinity Pred Norm by BMI"]}, {"conceptId": "C112393", "definition": "The percentage of the administered dose that is recovered from the specimen type specified in PPSPEC extrapolated to infinity, calculated using the predicted value of the last non-zero concentration, divided by the surface area.", "preferredTerm": "Percent Recovered Infinity Predicted Normalized by Surface Area", "submissionValue": "Pct Rec Infinity Pred Norm by SA", "synonyms": ["Pct Rec Infinity Pred Norm by SA"]}, {"conceptId": "C112394", "definition": "The percentage of the administered dose that is recovered from the specimen type specified in PPSPEC extrapolated to infinity, calculated using the predicted value of the last non-zero concentration, divided by the weight.", "preferredTerm": "Percent Recovered Infinity Predicted Normalized by Weight", "submissionValue": "Pct Rec Infinity Pred Norm by WT", "synonyms": ["Pct Rec Infinity Pred Norm by WT"]}, {"conceptId": "C102386", "definition": "The percentage of the administered dose that is recovered from the specimen type specified in PPSPEC, between doses (TAU).", "preferredTerm": "Percent Recovered Over Dosing Interval", "submissionValue": "Pct Rec Over Dosing Interval", "synonyms": ["Pct Rec Over Dosing Interval"]}, {"conceptId": "C102387", "definition": "The percentage of the administered dose that is recovered from the specimen type specified in PPSPEC, between doses (TAU) divided by the body mass index.", "preferredTerm": "Percent Recovered Over Dosing Interval Normalized by Body Mass Index", "submissionValue": "Pct Rec Over Dosing Interval Norm by BMI", "synonyms": ["Pct Rec Over Dosing Interval Norm by BMI"]}, {"conceptId": "C102388", "definition": "The percentage of the administered dose that is recovered from the specimen type specified in PPSPEC, between doses (TAU) divided by surface area.", "preferredTerm": "Percent Recovered Over Dosing Interval Normalized by Surface Area", "submissionValue": "Pct Rec Over Dosing Interval Norm by SA", "synonyms": ["Pct Rec Over Dosing Interval Norm by SA"]}, {"conceptId": "C102389", "definition": "The percentage of the administered dose that is recovered from the specimen type specified in PPSPEC, between doses (TAU) divided by weight.", "preferredTerm": "Percent Recovered Over Dosing Interval Normalized by Weight", "submissionValue": "Pct Rec Over Dosing Interval Norm by WT", "synonyms": ["Pct Rec Over Dosing Interval Norm by WT"]}, {"conceptId": "C102382", "definition": "The percentage of the administered dose that is recovered from the specimen type specified in PPSPEC, over the interval between T1 and T2.", "preferredTerm": "Percent Recovered from T1 to T2", "submissionValue": "Pct Rec from T1 to T2", "synonyms": ["Pct Rec from T1 to T2"]}, {"conceptId": "C102383", "definition": "The percentage of the administered dose that is recovered from the specimen type specified in PPSPEC, over the interval between T1 and T2 divided by body mass index.", "preferredTerm": "Percent Recovered from T1 to T2 Normalized by Body Mass Index", "submissionValue": "Pct Rec from T1 to T2 Norm by BMI", "synonyms": ["Pct Rec from T1 to T2 Norm by BMI"]}, {"conceptId": "C102384", "definition": "The percentage of the administered dose that is recovered from the specimen type specified in PPSPEC, over the interval between T1 and T2 divided by surface area.", "preferredTerm": "Percent Recovered from T1 to T2 Normalized by Surface Area", "submissionValue": "Pct Rec from T1 to T2 Norm by SA", "synonyms": ["Pct Rec from T1 to T2 Norm by SA"]}, {"conceptId": "C102385", "definition": "The percentage of the administered dose that is recovered from the specimen type specified in PPSPEC, over the interval between T1 and T2 divided by weight.", "preferredTerm": "Percent Recovered from T1 to T2 Normalized by Weight", "submissionValue": "Pct Rec from T1 to T2 Norm by WT", "synonyms": ["Pct Rec from T1 to T2 Norm by WT"]}, {"conceptId": "C102381", "definition": "The maximum concentration during a dosing interval divided by the concentration at the end of the dosing interval.", "preferredTerm": "Peak Trough Ratio", "submissionValue": "Peak Trough Ratio", "synonyms": ["Peak Trough Ratio"]}, {"conceptId": "C85542", "definition": "The goodness of fit statistic for the terminal elimination phase.", "preferredTerm": "R Squared", "submissionValue": "R Squared", "synonyms": ["R Squared"]}, {"conceptId": "C85553", "definition": "The goodness of fit statistic for the terminal elimination phase, adjusted for the number of time points used in the estimation of Lambda z.", "preferredTerm": "Adjusted R Squared", "submissionValue": "R Squared Adjusted", "synonyms": ["R Squared Adjusted"]}, {"conceptId": "C75913", "definition": "The clearance of a substance from the blood by the kidneys.", "preferredTerm": "Renal Clearance", "submissionValue": "Renal CL", "synonyms": ["Renal CL"]}, {"conceptId": "C105458", "definition": "The clearance of a substance from the blood by the kidneys divided by the body mass index.", "preferredTerm": "Renal Clearance Normalized by BMI", "submissionValue": "Renal CL Norm by BMI", "synonyms": ["Renal CL Norm by BMI"]}, {"conceptId": "C105459", "definition": "The clearance of a substance from the blood by the kidneys divided by the dose.", "preferredTerm": "Renal Clearance Normalized by Dose", "submissionValue": "Renal CL Norm by Dose", "synonyms": ["Renal CL Norm by Dose"]}, {"conceptId": "C105460", "definition": "The clearance of a substance from the blood by the kidneys divided by the surface area.", "preferredTerm": "Renal Clearance Normalized by SA", "submissionValue": "Renal CL Norm by SA", "synonyms": ["Renal CL Norm by SA"]}, {"conceptId": "C105461", "definition": "The clearance of a substance from the blood by the kidneys divided by the weight.", "preferredTerm": "Renal Clearance Normalized by WT", "submissionValue": "Renal CL Norm by WT", "synonyms": ["Renal CL Norm by WT"]}, {"conceptId": "C122050", "definition": "The clearance of a substance from the blood by the kidneys, calculated using AUCTAU.", "preferredTerm": "Renal Clearance for Dose Interval", "submissionValue": "Renal CL for Dose Int", "synonyms": ["Renal CL for Dose Int"]}, {"conceptId": "C122334", "definition": "The clearance of a substance from the blood by the kidneys, calculated using AUCTAU, divided by the body mass index.", "preferredTerm": "Renal Clearance for Dose Interval Normalized by Body Mass Index", "submissionValue": "Renal CL for Dose Int Norm by BMI", "synonyms": ["Renal CL for Dose Int Norm by BMI"]}, {"conceptId": "C122335", "definition": "The clearance of a substance from the blood by the kidneys, calculated using AUCTAU, divided by the dose.", "preferredTerm": "Renal Clearance for Dose Interval Normalized by Dose", "submissionValue": "Renal CL for Dose Int Norm by Dose", "synonyms": ["Renal CL for Dose Int Norm by Dose"]}, {"conceptId": "C122336", "definition": "The clearance of a substance from the blood by the kidneys, calculated using AUCTAU, divided by the surface area.", "preferredTerm": "Renal Clearance for Dose Interval Normalized by Surface Area", "submissionValue": "Renal CL for Dose Int Norm by SA", "synonyms": ["Renal CL for Dose Int Norm by SA"]}, {"conceptId": "C122337", "definition": "The clearance of a substance from the blood by the kidneys, calculated using AUCTAU, divided by the weight.", "preferredTerm": "Renal Clearance for Dose Interval Normalized by Weight", "submissionValue": "Renal CL for Dose Int Norm by WT", "synonyms": ["Renal CL for Dose Int Norm by WT"]}, {"conceptId": "C122049", "definition": "The clearance of a substance from the blood by the kidneys over the interval from T1 to T2.", "preferredTerm": "Renal Clearance from T1 to T2", "submissionValue": "Renal CL from T1 to T2", "synonyms": ["Renal CL from T1 to T2"]}, {"conceptId": "C122330", "definition": "The clearance of a substance from the blood by the kidneys over the interval from T1 to T2 divided by the body mass index.", "preferredTerm": "Renal Clearance from T1 to T2 Normalized by Body Mass Index", "submissionValue": "Renal CL from T1 to T2 Norm by BMI", "synonyms": ["Renal CL from T1 to T2 Norm by BMI"]}, {"conceptId": "C122331", "definition": "The clearance of a substance from the blood by the kidneys over the interval from T1 to T2 divided by the dose.", "preferredTerm": "Renal Clearance from T1 to T2 Normalized by Dose", "submissionValue": "Renal CL from T1 to T2 Norm by Dose", "synonyms": ["Renal CL from T1 to T2 Norm by Dose"]}, {"conceptId": "C122332", "definition": "The clearance of a substance from the blood by the kidneys over the interval from T1 to T2 divided by the surface area.", "preferredTerm": "Renal Clearance from T1 to T2 Normalized by Surface Area", "submissionValue": "Renal CL from T1 to T2 Norm by SA", "synonyms": ["Renal CL from T1 to T2 Norm by SA"]}, {"conceptId": "C122333", "definition": "The clearance of a substance from the blood by the kidneys over the interval from T1 to T2 divided by the weight.", "preferredTerm": "Renal Clearance from T1 to T2 Normalized by Weight", "submissionValue": "Renal CL from T1 to T2 Norm by WT", "synonyms": ["Renal CL from T1 to T2 Norm by WT"]}, {"conceptId": "C122338", "definition": "The area under the curve (AUCTAU) at steady state divided by the area under the curve extrapolated to infinity for the initial dosing interval.", "preferredTerm": "Stationarity Ratio Area Under the Curve", "submissionValue": "Stationarity Ratio AUC", "synonyms": ["Stationarity Ratio AUC"]}, {"conceptId": "C85817", "definition": "The sum of urine volumes that are used for PK parameters.", "preferredTerm": "Sum Urine Volume", "submissionValue": "Sum of Urine Vol", "synonyms": ["Sum of Urine Vol"]}, {"conceptId": "C85824", "definition": "The time prior to the first measurable (non-zero) concentration.", "preferredTerm": "Time until First Nonzero Concentration", "submissionValue": "Time Until First Nonzero Conc", "synonyms": ["Time Until First Nonzero Conc"]}, {"conceptId": "C70919", "definition": "The time of maximum observed concentration sampled during a dosing interval.", "preferredTerm": "Tmax", "submissionValue": "Time of CMAX", "synonyms": ["Time of CMAX"]}, {"conceptId": "C85825", "definition": "The time of minimum concentration sampled during a dosing interval.", "preferredTerm": "Tmin", "submissionValue": "Time of CMIN Observation", "synonyms": ["Time of CMIN Observation"]}, {"conceptId": "C85822", "definition": "The time of the last measurable (positive) concentration.", "preferredTerm": "Time of Last Nonzero Concentration", "submissionValue": "Time of Last Nonzero Conc", "synonyms": ["Time of Last Nonzero Conc"]}, {"conceptId": "C85773", "definition": "The total body clearance for intravascular administration, calculated using the observed value of the last non-zero concentration.", "preferredTerm": "Observed Total Body Clearance Rate", "submissionValue": "Total CL Obs", "synonyms": ["Total CL Obs"]}, {"conceptId": "C92403", "definition": "The total body clearance for intravascular administration, calculated using the observed value of the last non-zero concentration, divided by the body mass index.", "preferredTerm": "Total Clearance Observed Normalized by Body Mass Index", "submissionValue": "Total CL Obs Norm by BMI", "synonyms": ["Total CL Obs Norm by BMI"]}, {"conceptId": "C92404", "definition": "The total body clearance for intravascular administration, calculated using the observed value of the last non-zero concentration, divided by the dose.", "preferredTerm": "Total Clearance Observed Normalized by Dose", "submissionValue": "Total CL Obs Norm by Dose", "synonyms": ["Total CL Obs Norm by Dose"]}, {"conceptId": "C92405", "definition": "The total body clearance for intravascular administration, calculated using the observed value of the last non-zero concentration, divided by the surface area.", "preferredTerm": "Total Clearance Observed Normalized by Surface Area", "submissionValue": "Total CL Obs Norm by SA", "synonyms": ["Total CL Obs Norm by SA"]}, {"conceptId": "C92406", "definition": "The total body clearance for intravascular administration, calculated using the observed value of the last non-zero concentration, divided by the weight.", "preferredTerm": "Total Clearance Observed Normalized by Weight", "submissionValue": "Total CL Obs Norm by WT", "synonyms": ["Total CL Obs Norm by WT"]}, {"conceptId": "C85772", "definition": "The total body clearance for extravascular administration divided by the fraction of dose absorbed, calculated using the observed value of the last non-zero concentration.", "preferredTerm": "Observed Total Body Clearance by Fraction of Dose Absorbed", "submissionValue": "Total CL Obs by F", "synonyms": ["Total CL Obs by F"]}, {"conceptId": "C92399", "definition": "The total body clearance for extravascular administration divided by the fraction of dose absorbed, calculated using the observed value of the last non-zero concentration, divided by the body mass index.", "preferredTerm": "Total Clearance Observed by Fraction Dose Normalized by Body Mass Index", "submissionValue": "Total CL Obs by F Norm by BMI", "synonyms": ["Total CL Obs by F Norm by BMI"]}, {"conceptId": "C92400", "definition": "The total body clearance for extravascular administration divided by the fraction of dose absorbed, calculated using the observed value of the last non-zero concentration, divided by the dose.", "preferredTerm": "Total Clearance Observed by Fraction Dose Normalized by Dose", "submissionValue": "Total CL Obs by F Norm by Dose", "synonyms": ["Total CL Obs by F Norm by Dose"]}, {"conceptId": "C92401", "definition": "The total body clearance for extravascular administration divided by the fraction of dose absorbed, calculated using the observed value of the last non-zero concentration, divided by the surface area.", "preferredTerm": "Total Clearance Observed by Fraction Dose Normalized by Surface Area", "submissionValue": "Total CL Obs by F Norm by SA", "synonyms": ["Total CL Obs by F Norm by SA"]}, {"conceptId": "C92402", "definition": "The total body clearance for extravascular administration divided by the fraction of dose absorbed, calculated using the observed value of the last non-zero concentration, divided by the weight.", "preferredTerm": "Total Clearance Observed by Fraction Dose Normalized by Weight", "submissionValue": "Total CL Obs by F Norm by WT", "synonyms": ["Total CL Obs by F Norm by WT"]}, {"conceptId": "C85797", "definition": "The total body clearance for intravascular administration, calculated using the predicted value of the last non-zero concentration.", "preferredTerm": "Predicted Total Body Clearance Rate", "submissionValue": "Total CL Pred", "synonyms": ["Total CL Pred"]}, {"conceptId": "C92421", "definition": "The total body clearance for intravascular administration, calculated using the predicted value of the last non-zero concentration, divided by the body mass index.", "preferredTerm": "Total Clearance Predicted Normalized by Body Mass Index", "submissionValue": "Total CL Pred Norm by BMI", "synonyms": ["Total CL Pred Norm by BMI"]}, {"conceptId": "C92422", "definition": "The total body clearance for intravascular administration, calculated using the predicted value of the last non-zero concentration, divided by the dose.", "preferredTerm": "Total Clearance Predicted Normalized by Dose", "submissionValue": "Total CL Pred Norm by Dose", "synonyms": ["Total CL Pred Norm by Dose"]}, {"conceptId": "C92423", "definition": "The total body clearance for intravascular administration, calculated using the predicted value of the last non-zero concentration, divided by the surface area.", "preferredTerm": "Total Clearance Predicted Normalized by Surface Area", "submissionValue": "Total CL Pred Norm by SA", "synonyms": ["Total CL Pred Norm by SA"]}, {"conceptId": "C92424", "definition": "The total body clearance for intravascular administration, calculated using the predicted value of the last non-zero concentration, divided by the weight.", "preferredTerm": "Total Clearance Predicted Normalized by Weight", "submissionValue": "Total CL Pred Norm by WT", "synonyms": ["Total CL Pred Norm by WT"]}, {"conceptId": "C85796", "definition": "The total body clearance for extravascular administration divided by the fraction of dose absorbed, calculated using the predicted value of the last non-zero concentration.", "preferredTerm": "Predicted Total Body Clearance by Fraction of Dose Absorbed", "submissionValue": "Total CL Pred by F", "synonyms": ["Total CL Pred by F"]}, {"conceptId": "C92417", "definition": "The total body clearance for extravascular administration divided by the fraction of dose absorbed, calculated using the predicted value of the last non-zero concentration, divided by body mass index.", "preferredTerm": "Total Clearance Predicted by Fraction Dose Normalized by Body Mass Index", "submissionValue": "Total CL Pred by F Norm by BMI", "synonyms": ["Total CL Pred by F Norm by BMI"]}, {"conceptId": "C92418", "definition": "The total body clearance for extravascular administration divided by the fraction of dose absorbed, calculated using the predicted value of the last non-zero concentration, divided by the dose.", "preferredTerm": "Total Clearance Predicted by Fraction Dose Normalized by Dose", "submissionValue": "Total CL Pred by F Norm by Dose", "synonyms": ["Total CL Pred by F Norm by Dose"]}, {"conceptId": "C92419", "definition": "The total body clearance for extravascular administration divided by the fraction of dose absorbed, calculated using the predicted value of the last non-zero concentration, divided by the surface area.", "preferredTerm": "Total Clearance Predicted by Fraction Dose Normalized by Surface Area", "submissionValue": "Total CL Pred by F Norm by SA", "synonyms": ["Total CL Pred by F Norm by SA"]}, {"conceptId": "C92420", "definition": "The total body clearance for extravascular administration divided by the fraction of dose absorbed, calculated using the predicted value of the last non-zero concentration, divided by the weight.", "preferredTerm": "Total Clearance Predicted by Fraction Dose Normalized by Weight", "submissionValue": "Total CL Pred by F Norm by WT", "synonyms": ["Total CL Pred by F Norm by WT"]}, {"conceptId": "C114121", "definition": "The total body clearance for extravascular administration divided by the fraction of dose absorbed, calculated using AUCTAU.", "preferredTerm": "Total Body Clearance by Fraction of Dose for Dose Interval", "submissionValue": "Total CL by F for Dose Int", "synonyms": ["Total CL by F for Dose Int"]}, {"conceptId": "C114227", "definition": "The total body clearance for extravascular administration divided by the fraction of dose absorbed, calculated using AUCTAU, divided by the body mass index.", "preferredTerm": "Total Body Clearance by Fraction of Dose for Dose Interval Normalized by Body Mass Index", "submissionValue": "Total CL by F for Dose Int Norm by BMI", "synonyms": ["Total CL by F for Dose Int Norm by BMI"]}, {"conceptId": "C114226", "definition": "The total body clearance for extravascular administration divided by the fraction of dose absorbed, calculated using AUCTAU, divided by the dose.", "preferredTerm": "Total Body Clearance by Fraction of Dose for Dose Interval Normalized by Dose", "submissionValue": "Total CL by F for Dose Int Norm by Dose", "synonyms": ["Total CL by F for Dose Int Norm by Dose"]}, {"conceptId": "C114228", "definition": "The total body clearance for extravascular administration divided by the fraction of dose absorbed, calculated using AUCTAU, divided by the surface area.", "preferredTerm": "Total Body Clearance by Fraction of Dose for Dose Interval Normalized by Surface Area", "submissionValue": "Total CL by F for Dose Int Norm by SA", "synonyms": ["Total CL by F for Dose Int Norm by SA"]}, {"conceptId": "C114229", "definition": "The total body clearance for extravascular administration divided by the fraction of dose absorbed, calculated using AUCTAU, divided by the weight.", "preferredTerm": "Total Body Clearance by Fraction of Dose for Dose Interval Normalized by Weight", "submissionValue": "Total CL by F for Dose Int Norm by WT", "synonyms": ["Total CL by F for Dose Int Norm by WT"]}, {"conceptId": "C114122", "definition": "The total body clearance for intravascular administration, calculated using AUCTAU.", "preferredTerm": "Total Body Clearance for Dose Interval", "submissionValue": "Total CL for Dose Int", "synonyms": ["Total CL for Dose Int"]}, {"conceptId": "C114231", "definition": "The total body clearance for intravascular administration, calculated using AUCTAU, divided by the body mass index.", "preferredTerm": "Total Body Clearance for Dose Interval Normalized by Body Mass Index", "submissionValue": "Total CL for Dose Int Norm by BMI", "synonyms": ["Total CL for Dose Int Norm by BMI"]}, {"conceptId": "C114230", "definition": "The total body clearance for intravascular administration, calculated using AUCTAU, divided by the dose.", "preferredTerm": "Total Body Clearance for Dose Interval Normalized by Dose", "submissionValue": "Total CL for Dose Int Norm by Dose", "synonyms": ["Total CL for Dose Int Norm by Dose"]}, {"conceptId": "C114232", "definition": "The total body clearance for intravascular administration, calculated using AUCTAU, divided by the surface area.", "preferredTerm": "Total Body Clearance for Dose Interval Normalized by Surface Area", "submissionValue": "Total CL for Dose Int Norm by SA", "synonyms": ["Total CL for Dose Int Norm by SA"]}, {"conceptId": "C114233", "definition": "The total body clearance for intravascular administration, calculated using AUCTAU, divided by the weight.", "preferredTerm": "Total Body Clearance for Dose Interval Normalized by Weight", "submissionValue": "Total CL for Dose Int Norm by WT", "synonyms": ["Total CL for Dose Int Norm by WT"]}, {"conceptId": "C122339", "definition": "The concentration at the start of a dosing interval divided by the maximum concentration during the dosing interval.", "preferredTerm": "Trough Peak Ratio", "submissionValue": "Trough Peak Ratio", "synonyms": ["Trough Peak Ratio"]}, {"conceptId": "C102371", "definition": "The initial volume of distribution for a substance administered by bolus intravascular dosing.", "preferredTerm": "Initial Volume of Distribution", "submissionValue": "Vol Dist Initial", "synonyms": ["Vol Dist Initial"]}, {"conceptId": "C102372", "definition": "The initial volume of distribution for a substance administered by bolus intravascular dosing divided by the body mass index.", "preferredTerm": "Initial Volume of Distribution Normalized by Body Mass Index", "submissionValue": "Vol Dist Initial Norm by BMI", "synonyms": ["Vol Dist Initial Norm by BMI"]}, {"conceptId": "C102373", "definition": "The initial volume of distribution for a substance administered by bolus intravascular dosing divided by the dose.", "preferredTerm": "Initial Volume of Distribution Normalized by Dose", "submissionValue": "Vol Dist Initial Norm by Dose", "synonyms": ["Vol Dist Initial Norm by Dose"]}, {"conceptId": "C102374", "definition": "The initial volume of distribution for a substance administered by bolus intravascular dosing divided by the surface area.", "preferredTerm": "Initial Volume of Distribution Normalized by Surface Area", "submissionValue": "Vol Dist Initial Norm by SA", "synonyms": ["Vol Dist Initial Norm by SA"]}, {"conceptId": "C102375", "definition": "The initial volume of distribution for a substance administered by bolus intravascular dosing divided by the weight.", "preferredTerm": "Initial Volume of Distribution Normalized by Weight", "submissionValue": "Vol Dist Initial Norm by WT", "synonyms": ["Vol Dist Initial Norm by WT"]}, {"conceptId": "C85770", "definition": "The volume of distribution at steady state based on the observed CLST for a substance administered by intravascular dosing.", "preferredTerm": "Observed Steady State Volume of Distribution", "submissionValue": "Vol Dist Steady State Obs", "synonyms": ["Vol Dist Steady State Obs"]}, {"conceptId": "C102377", "definition": "The volume of distribution at steady state based on the observed CLST for a substance administered by intravascular dosing divided by the body mass index.", "preferredTerm": "Observed Steady State Volume of Distribution Normalized by Body Mass Index", "submissionValue": "Vol Dist Steady State Obs Norm by BMI", "synonyms": ["Vol Dist Steady State Obs Norm by BMI"]}, {"conceptId": "C102378", "definition": "The volume of distribution at steady state based on the observed CLST for a substance administered by intravascular dosing divided by the dose.", "preferredTerm": "Observed Steady State Volume of Distribution Normalized by Dose", "submissionValue": "Vol Dist Steady State Obs Norm by Dose", "synonyms": ["Vol Dist Steady State Obs Norm by Dose"]}, {"conceptId": "C102379", "definition": "The volume of distribution at steady state based on the observed CLST for a substance administered by intravascular dosing divided by the surface area.", "preferredTerm": "Observed Steady State Volume of Distribution Normalized by Surface Area", "submissionValue": "Vol Dist Steady State Obs Norm by SA", "synonyms": ["Vol Dist Steady State Obs Norm by SA"]}, {"conceptId": "C102380", "definition": "The volume of distribution at steady state based on the observed CLST for a substance administered by intravascular dosing divided by the weight.", "preferredTerm": "Observed Steady State Volume of Distribution Normalized by Weight", "submissionValue": "Vol Dist Steady State Obs Norm by WT", "synonyms": ["Vol Dist Steady State Obs Norm by WT"]}, {"conceptId": "C85794", "definition": "The volume of distribution at steady state based on the predicted CLST for a substance administered by intravascular dosing.", "preferredTerm": "Predicted Steady State Volume of Distribution", "submissionValue": "Vol Dist Steady State Pred", "synonyms": ["Vol Dist Steady State Pred"]}, {"conceptId": "C102390", "definition": "The volume of distribution at steady state based on the predicted CLST for a substance administered by intravascular dosing divided by the body mass index.", "preferredTerm": "Predicted Steady State Volume of Distribution Normalized by Body Mass Index", "submissionValue": "Vol Dist Steady State Pred Norm by BMI", "synonyms": ["Vol Dist Steady State Pred Norm by BMI"]}, {"conceptId": "C102391", "definition": "The volume of distribution at steady state based on the predicted CLST for a substance administered by intravascular dosing divided by the dose.", "preferredTerm": "Predicted Steady State Volume of Distribution Normalized by Dose", "submissionValue": "Vol Dist Steady State Pred Norm by Dose", "synonyms": ["Vol Dist Steady State Pred Norm by Dose"]}, {"conceptId": "C102392", "definition": "The volume of distribution at steady state based on the predicted CLST for a substance administered by intravascular dosing divided by the surface area.", "preferredTerm": "Predicted Steady State Volume of Distribution Normalized by Surface Area", "submissionValue": "Vol Dist Steady State Pred Norm by SA", "synonyms": ["Vol Dist Steady State Pred Norm by SA"]}, {"conceptId": "C102393", "definition": "The volume of distribution at steady state based on the predicted CLST for a substance administered by intravascular dosing divided by the weight.", "preferredTerm": "Predicted Steady State Volume of Distribution Normalized by Weight", "submissionValue": "Vol Dist Steady State Pred Norm by WT", "synonyms": ["Vol Dist Steady State Pred Norm by WT"]}, {"conceptId": "C85774", "definition": "The volume of distribution associated with the terminal slope following intravascular administration, calculated using the observed value of the last non-zero concentration.", "preferredTerm": "Observed Volume of Distribution", "submissionValue": "Vz Obs", "synonyms": ["Vz Obs"]}, {"conceptId": "C92407", "definition": "The volume of distribution associated with the terminal slope following intravascular administration, calculated using the observed value of the last non-zero concentration, divided by the body mass index.", "preferredTerm": "Volume of Distribution Observed Normalized by Body Mass Index", "submissionValue": "Vz Obs Norm by BMI", "synonyms": ["Vz Obs Norm by BMI"]}, {"conceptId": "C102683", "definition": "The volume of distribution associated with the terminal slope following intravascular administration, calculated using the observed value of the last non-zero concentration, divided by the dose.", "preferredTerm": "Observed Volume of Distribution Normalized by Dose", "submissionValue": "Vz Obs Norm by Dose", "synonyms": ["Vz Obs Norm by Dose"]}, {"conceptId": "C92408", "definition": "The volume of distribution associated with the terminal slope following intravascular administration, calculated using the observed value of the last non-zero concentration, divided by the surface area.", "preferredTerm": "Volume of Distribution Observed Normalized by Surface Area", "submissionValue": "Vz Obs Norm by SA", "synonyms": ["Vz Obs Norm by SA"]}, {"conceptId": "C92409", "definition": "The volume of distribution associated with the terminal slope following intravascular administration, calculated using the observed value of the last non-zero concentration, divided by the weight.", "preferredTerm": "Volume of Distribution Observed Normalized by Weight", "submissionValue": "Vz Obs Norm by WT", "synonyms": ["Vz Obs Norm by WT"]}, {"conceptId": "C85775", "definition": "The volume of distribution associated with the terminal slope following extravascular administration divided by the fraction of dose absorbed, calculated using the observed value of the last non-zero concentration.", "preferredTerm": "Observed Volume of Distribution of Absorbed Fraction", "submissionValue": "Vz Obs by F", "synonyms": ["Vz Obs by F"]}, {"conceptId": "C92410", "definition": "The volume of distribution associated with the terminal slope following extravascular administration divided by the fraction of dose absorbed, calculated using the observed value of the last non-zero concentration, divided by the body mass index.", "preferredTerm": "Volume of Distribution of Fraction Dose Observed Normalized by Body Mass Index", "submissionValue": "Vz Obs by F Norm by BMI", "synonyms": ["Vz Obs by F Norm by BMI"]}, {"conceptId": "C102729", "definition": "The volume of distribution associated with the terminal slope following extravascular administration divided by the fraction of dose absorbed, calculated using the observed value of the last non-zero concentration, divided by the dose.", "preferredTerm": "Volume of Distribution of Fraction Dose Observed Normalized by Dose", "submissionValue": "Vz Obs by F Norm by Dose", "synonyms": ["Vz Obs by F Norm by Dose"]}, {"conceptId": "C92411", "definition": "The volume of distribution associated with the terminal slope following extravascular administration divided by the fraction of dose absorbed, calculated using the observed value of the last non-zero concentration, divided by the surface area.", "preferredTerm": "Volume of Distribution of Fraction Dose Observed Normalized by Surface Area", "submissionValue": "Vz Obs by F Norm by SA", "synonyms": ["Vz Obs by F Norm by SA"]}, {"conceptId": "C92412", "definition": "The volume of distribution associated with the terminal slope following extravascular administration divided by the fraction of dose absorbed, calculated using the observed value of the last non-zero concentration, divided by the weight.", "preferredTerm": "Volume of Distribution of Fraction Dose Observed Normalized by Weight", "submissionValue": "Vz Obs by F Norm by WT", "synonyms": ["Vz Obs by F Norm by WT"]}, {"conceptId": "C85798", "definition": "The volume of distribution associated with the terminal slope following intravascular administration, calculated using the predicted value of the last non-zero concentration.", "preferredTerm": "Predicted Volume of Distribution", "submissionValue": "Vz Pred", "synonyms": ["Vz Pred"]}, {"conceptId": "C92425", "definition": "The volume of distribution associated with the terminal slope following intravascular administration, calculated using the predicted value of the last non-zero concentration, divided by the body mass index.", "preferredTerm": "Volume of Distribution Predicted Normalized by Body Mass Index", "submissionValue": "Vz Pred Norm by BMI", "synonyms": ["Vz Pred Norm by BMI"]}, {"conceptId": "C102696", "definition": "The volume of distribution associated with the terminal slope following intravascular administration, calculated using the predicted value of the last non-zero concentration, divided by the dose.", "preferredTerm": "Predicted Volume of Distribution Normalized by Dose", "submissionValue": "Vz Pred Norm by Dose", "synonyms": ["Vz Pred Norm by Dose"]}, {"conceptId": "C92426", "definition": "The volume of distribution associated with the terminal slope following intravascular administration, calculated using the predicted value of the last non-zero concentration, divided by the surface area.", "preferredTerm": "Volume of Distribution Predicted Normalized by Surface Area", "submissionValue": "Vz Pred Norm by SA", "synonyms": ["Vz Pred Norm by SA"]}, {"conceptId": "C92427", "definition": "The volume of distribution associated with the terminal slope following intravascular administration, calculated using the predicted value of the last non-zero concentration, divided by the weight.", "preferredTerm": "Volume of Distribution Predicted Normalized by Weight", "submissionValue": "Vz Pred Norm by WT", "synonyms": ["Vz Pred Norm by WT"]}, {"conceptId": "C85799", "definition": "The volume of distribution associated with the terminal slope following extravascular administration divided by the fraction of dose absorbed, calculated using the predicted value of the last non-zero concentration.", "preferredTerm": "Predicted Volume of Distribution of Absorbed Fraction", "submissionValue": "Vz Pred by F", "synonyms": ["Vz Pred by F"]}, {"conceptId": "C92428", "definition": "The volume of distribution associated with the terminal slope following extravascular administration divided by the fraction of dose absorbed, calculated using the predicted value of the last non-zero concentration, divided by the body mass index.", "preferredTerm": "Volume of Distribution of Fraction Dose Predicted Normalized by Body Mass Index", "submissionValue": "Vz Pred by F Norm by BMI", "synonyms": ["Vz Pred by F Norm by BMI"]}, {"conceptId": "C102730", "definition": "The volume of distribution associated with the terminal slope following extravascular administration divided by the fraction of dose absorbed, calculated using the predicted value of the last non-zero concentration, divided by the dose.", "preferredTerm": "Volume of Distribution of Fraction Dose Predicted Normalized by Dose", "submissionValue": "Vz Pred by F Norm by Dose", "synonyms": ["Vz Pred by F Norm by Dose"]}, {"conceptId": "C92429", "definition": "The volume of distribution associated with the terminal slope following extravascular administration divided by the fraction of dose absorbed, calculated using the predicted value of the last non-zero concentration, divided by the surface area.", "preferredTerm": "Volume of Distribution of Fraction Dose Predicted Normalized by Surface Area", "submissionValue": "Vz Pred by F Norm by SA", "synonyms": ["Vz Pred by F Norm by SA"]}, {"conceptId": "C92430", "definition": "The volume of distribution associated with the terminal slope following extravascular administration divided by the fraction of dose absorbed, calculated using the predicted value of the last non-zero concentration, divided by the weight.", "preferredTerm": "Volume of Distribution of Fraction Dose Predicted Normalized by Weight", "submissionValue": "Vz Pred by F Norm by WT", "synonyms": ["Vz Pred by F Norm by WT"]}, {"conceptId": "C111333", "definition": "The volume of distribution associated with the terminal slope following intravascular administration, calculated using AUCTAU.", "preferredTerm": "Volume of Distribution for Dosing Interval", "submissionValue": "Vz for Dose Int", "synonyms": ["Vz for Dose Int"]}, {"conceptId": "C111369", "definition": "The volume of distribution associated with the terminal slope following intravascular administration, calculated using AUCTAU, divided by the body mass index.", "preferredTerm": "Volume of Distribution for Dosing Interval Normalized by Body Mass Index", "submissionValue": "Vz for Dose Int Norm by BMI", "synonyms": ["Vz for Dose Int Norm by BMI"]}, {"conceptId": "C111370", "definition": "The volume of distribution associated with the terminal slope following intravascular administration, calculated using AUCTAU, divided by the dose.", "preferredTerm": "Volume of Distribution for Dosing Interval Normalized by Dose", "submissionValue": "Vz for Dose Int Norm by Dose", "synonyms": ["Vz for Dose Int Norm by Dose"]}, {"conceptId": "C111371", "definition": "The volume of distribution associated with the terminal slope following intravascular administration, calculated using AUCTAU, divided by the surface area.", "preferredTerm": "Volume of Distribution for Dosing Interval Normalized by Surface Area", "submissionValue": "Vz for Dose Int Norm by SA", "synonyms": ["Vz for Dose Int Norm by SA"]}, {"conceptId": "C111372", "definition": "The volume of distribution associated with the terminal slope following intravascular administration, calculated using AUCTAU, divided by the weight.", "preferredTerm": "Volume of Distribution for Dosing Interval Normalized by Weight", "submissionValue": "Vz for Dose Int Norm by WT", "synonyms": ["Vz for Dose Int Norm by WT"]}, {"conceptId": "C111364", "definition": "The volume of distribution associated with the terminal slope following extravascular administration divided by the fraction of dose absorbed, calculated using AUCTAU.", "preferredTerm": "Volume of Distribution for Dosing Interval by Fraction", "submissionValue": "Vz for Dose Int by F", "synonyms": ["Vz for Dose Int by F"]}, {"conceptId": "C111365", "definition": "The volume of distribution associated with the terminal slope following extravascular administration divided by the fraction of dose absorbed, calculated using AUCTAU, divided by the body mass index.", "preferredTerm": "Volume of Distribution for Dosing Interval by Fraction Normalized by Body Mass Index", "submissionValue": "Vz for Dose Int by F Norm by BMI", "synonyms": ["Vz for Dose Int by F Norm by BMI"]}, {"conceptId": "C111366", "definition": "The volume of distribution associated with the terminal slope following extravascular administration divided by the fraction of dose absorbed, calculated using AUCTAU, divided by the dose.", "preferredTerm": "Volume of Distribution for Dosing Interval by Fraction Normalized by Dose", "submissionValue": "Vz for Dose Int by F Norm by Dose", "synonyms": ["Vz for Dose Int by F Norm by Dose"]}, {"conceptId": "C111367", "definition": "The volume of distribution associated with the terminal slope following extravascular administration divided by the fraction of dose absorbed, calculated using AUCTAU, divided by the surface area.", "preferredTerm": "Volume of Distribution for Dosing Interval by Fraction Normalized by Surface Area", "submissionValue": "Vz for Dose Int by F Norm by SA", "synonyms": ["Vz for Dose Int by F Norm by SA"]}, {"conceptId": "C111368", "definition": "The volume of distribution associated with the terminal slope following extravascular administration divided by the fraction of dose absorbed, calculated using AUCTAU, divided by the weight.", "preferredTerm": "Volume of Distribution for Dosing Interval by Fraction Normalized by Weight", "submissionValue": "Vz for Dose Int by F Norm by WT", "synonyms": ["Vz for Dose Int by F Norm by WT"]}]}