{"_links": {"parentPackage": {"href": "/mdr/ct/packages/qs-ftct-2014-09-26", "title": "QS-FT Controlled Terminology Package 19 Effective 2014-09-26", "type": "Terminology"}, "rootItem": {"href": "/mdr/root/ct/qs-ftct/codelists/C100153", "title": "Version-agnostic anchor resource for codelist C100153", "type": "Root Value Domain"}, "self": {"href": "/mdr/ct/packages/qs-ftct-2014-09-26/codelists/C100153", "title": "CDISC Questionnaire FPSR Test Name Terminology", "type": "Code List"}}, "conceptId": "C100153", "definition": "Faces Pain Scale - Revised test name.", "extensible": "false", "name": "QS-Faces Pain Scale - Revised Test Name", "preferredTerm": "CDISC Questionnaire FPSR Test Name Terminology", "submissionValue": "FPSR TEST", "synonyms": ["QS-Faces Pain Scale - Revised Test Name"], "terms": [{"conceptId": "C101013", "definition": "Faces Pain Scale - Revised - Point to the face that shows how much you hurt [right now].", "preferredTerm": "FPSR - How Much do You Hurt", "submissionValue": "FPSR1-How Much do you Hurt", "synonyms": ["FPSR1-How Much do you Hurt"]}]}