{"_links": {"parentPackage": {"href": "/mdr/ct/packages/qs-ftct-2014-09-26", "title": "QS-FT Controlled Terminology Package 19 Effective 2014-09-26", "type": "Terminology"}, "rootItem": {"href": "/mdr/root/ct/qs-ftct/codelists/C101810", "title": "Version-agnostic anchor resource for codelist C101810", "type": "Root Value Domain"}, "self": {"href": "/mdr/ct/packages/qs-ftct-2014-09-26/codelists/C101810", "title": "CDISC Questionnaire BARS Test Name Terminology", "type": "Code List"}}, "conceptId": "C101810", "definition": "Barnes Akathisia Rating Scale test name.", "extensible": "false", "name": "QS-Barnes Akathisia Rating Scale Test Name", "preferredTerm": "CDISC Questionnaire BARS Test Name Terminology", "submissionValue": "BARS TEST", "synonyms": ["QS-Barnes Akathisia Rating Scale Test Name"], "terms": [{"conceptId": "C102049", "definition": "Barnes Akathisia Rating Scale - Global clinical assessment of akathisia.", "preferredTerm": "BARS - Global Clinical Assessment", "submissionValue": "BARS01-Global Clinical Assessment", "synonyms": ["BARS01-Global Clinical Assessment"]}, {"conceptId": "C102046", "definition": "Barnes Akathisia Rating Scale - Objective.", "preferredTerm": "BARS - Objective", "submissionValue": "BARS01-Objective", "synonyms": ["BARS01-Objective"]}, {"conceptId": "C102047", "definition": "Barnes Akathisia Rating Scale - Subjective, awareness of restlessness.", "preferredTerm": "BARS - Subjective, Awareness", "submissionValue": "BARS01-Subjective, Awareness", "synonyms": ["BARS01-Subjective, Awareness"]}, {"conceptId": "C102048", "definition": "Barnes Akathisia Rating Scale - Subjective, distress related to restlessness.", "preferredTerm": "BARS - Subjective, Distress", "submissionValue": "BARS01-Subjective, Distress", "synonyms": ["BARS01-Subjective, Distress"]}]}