{"_links": {"parentPackage": {"href": "/mdr/ct/packages/qs-ftct-2014-09-26", "title": "QS-FT Controlled Terminology Package 19 Effective 2014-09-26", "type": "Terminology"}, "rootItem": {"href": "/mdr/root/ct/qs-ftct/codelists/C106669", "title": "Version-agnostic anchor resource for codelist C106669", "type": "Root Value Domain"}, "self": {"href": "/mdr/ct/packages/qs-ftct-2014-09-26/codelists/C106669", "title": "CDISC Questionnaire MMRC Test Code Terminology", "type": "Code List"}}, "conceptId": "C106669", "definition": "Modified Medical Research Council Dyspnea Scale test code.", "extensible": "false", "name": "QS-Modified Medical Research Council Dyspnea Scale Questionnaire Test Code", "preferredTerm": "CDISC Questionnaire MMRC Test Code Terminology", "submissionValue": "MMRC TESTCD", "synonyms": ["QS-Modified Medical Research Council Dyspnea Scale Questionnaire Test Code"], "terms": [{"conceptId": "C106852", "definition": "Modified Medical Research Council Dyspnea Scale - Description of breathlessness.", "preferredTerm": "MMRC - Description of Level of Breathlessness", "submissionValue": "MMRC0101", "synonyms": ["MMRC01-Description of Breathlessness"]}]}