{"_links": {"parentPackage": {"href": "/mdr/ct/packages/qs-ftct-2014-09-26", "title": "QS-FT Controlled Terminology Package 19 Effective 2014-09-26", "type": "Terminology"}, "rootItem": {"href": "/mdr/root/ct/qs-ftct/codelists/C106668", "title": "Version-agnostic anchor resource for codelist C106668", "type": "Root Value Domain"}, "self": {"href": "/mdr/ct/packages/qs-ftct-2014-09-26/codelists/C106668", "title": "CDISC Questionnaire MMRC Test Name Terminology", "type": "Code List"}}, "conceptId": "C106668", "definition": "Modified Medical Research Council Dyspnea Scale test name.", "extensible": "false", "name": "QS-Modified Medical Research Council Dyspnea Scale Questionnaire Test Name", "preferredTerm": "CDISC Questionnaire MMRC Test Name Terminology", "submissionValue": "MMRC TEST", "synonyms": ["QS-Modified Medical Research Council Dyspnea Scale Questionnaire Test Name"], "terms": [{"conceptId": "C106852", "definition": "Modified Medical Research Council Dyspnea Scale - Description of breathlessness.", "preferredTerm": "MMRC - Description of Level of Breathlessness", "submissionValue": "MMRC01-Description of Breathlessness", "synonyms": ["MMRC01-Description of Breathlessness"]}]}