{"_links": {"parentPackage": {"href": "/mdr/ct/packages/qs-ftct-2014-09-26", "title": "QS-FT Controlled Terminology Package 19 Effective 2014-09-26", "type": "Terminology"}, "rootItem": {"href": "/mdr/root/ct/qs-ftct/codelists/C111346", "title": "Version-agnostic anchor resource for codelist C111346", "type": "Root Value Domain"}, "self": {"href": "/mdr/ct/packages/qs-ftct-2014-09-26/codelists/C111346", "title": "CDISC Questionnaire FAQ-NACC Version Test Code Terminology", "type": "Code List"}}, "conceptId": "C111346", "definition": "Functional Activities Questionnaire-NACC Version test code.", "extensible": "false", "name": "QS-Functional Activities Questionnaire-NACC Version Test Code", "preferredTerm": "CDISC Questionnaire FAQ-NACC Version Test Code Terminology", "submissionValue": "FAQ-NACC Version TESTCD", "synonyms": ["QS-Functional Activities Questionnaire-NACC Version Test Code"], "terms": [{"conceptId": "C111510", "definition": "Functional Activities Questionnaire-NACC - Writing checks, paying bills, or balancing a checkbook.", "preferredTerm": "FAQ-NACC Version - Write checks, Pay bills, Balance checkbook", "submissionValue": "FAQ0201", "synonyms": ["FAQ02-Write Checks/Pay Bills/Checkbook"]}, {"conceptId": "C111511", "definition": "Functional Activities Questionnaire-NACC - Assembling tax records, business affairs, or other papers.", "preferredTerm": "FAQ-NACC Version - Assemble", "submissionValue": "FAQ0202", "synonyms": ["FAQ02-Assembling"]}, {"conceptId": "C111512", "definition": "Functional Activities Questionnaire-NACC - Shopping alone for clothes, household necessities, or groceries.", "preferredTerm": "FAQ-NACC Version - Shop Alone", "submissionValue": "FAQ0203", "synonyms": ["FAQ02-Shopping Alone"]}, {"conceptId": "C111513", "definition": "Functional Activities Questionnaire-NACC - Playing a game of skill such as bridge or chess, working on a hobby.", "preferredTerm": "FAQ-NACC Version - Play Game of Skill, Work on Hobby", "submissionValue": "FAQ0204", "synonyms": ["FAQ02-Playing a Game of Skill"]}, {"conceptId": "C111514", "definition": "Functional Activities Questionnaire-NACC - Heating water, making a cup of coffee, turning off the stove.", "preferredTerm": "FAQ-NACC Version - Heat water, Make Coffee, Turn Off Stove", "submissionValue": "FAQ0205", "synonyms": ["FAQ02-Heat Water/Make Coffee/Stove Off"]}, {"conceptId": "C111515", "definition": "Functional Activities Questionnaire-NACC - Preparing a balanced meal.", "preferredTerm": "FAQ-NACC Version - Prepare a Meal", "submissionValue": "FAQ0206", "synonyms": ["FAQ02-Preparing a Balanced Meal"]}, {"conceptId": "C111516", "definition": "Functional Activities Questionnaire-NACC - Keeping track of current events.", "preferredTerm": "FAQ-NACC Version - Keep Track of Current Events", "submissionValue": "FAQ0207", "synonyms": ["FAQ02-Keeping Track of Current Events"]}, {"conceptId": "C111517", "definition": "Functional Activities Questionnaire-NACC - Paying attention to and understanding a TV program, book, or magazine.", "preferredTerm": "FAQ-NACC Version - Pay Attention, Understand, Discuss", "submissionValue": "FAQ0208", "synonyms": ["FAQ02-Paying Attention"]}, {"conceptId": "C111518", "definition": "Functional Activities Questionnaire-NACC - Remembering appointments, family occasions, holidays, medications.", "preferredTerm": "FAQ-NACC Version - Remember", "submissionValue": "FAQ0209", "synonyms": ["FAQ02-Remembering"]}, {"conceptId": "C111519", "definition": "Functional Activities Questionnaire-NACC - Traveling out of the neighborhood, driving, or arranging to take public transportation.", "preferredTerm": "FAQ-NACC Version - Travel", "submissionValue": "FAQ0210", "synonyms": ["FAQ02-Traveling"]}]}