{"_links": {"parentPackage": {"href": "/mdr/ct/packages/qs-ftct-2014-09-26", "title": "QS-FT Controlled Terminology Package 19 Effective 2014-09-26", "type": "Terminology"}, "rootItem": {"href": "/mdr/root/ct/qs-ftct/codelists/C111348", "title": "Version-agnostic anchor resource for codelist C111348", "type": "Root Value Domain"}, "self": {"href": "/mdr/ct/packages/qs-ftct-2014-09-26/codelists/C111348", "title": "CDISC Questionnaire MRS Test Code Terminology", "type": "Code List"}}, "conceptId": "C111348", "definition": "Modified Rankin Scale test code.", "extensible": "false", "name": "QS-Modified Rankin Scale Questionnaire Test Code", "preferredTerm": "CDISC Questionnaire MRS Test Code Terminology", "submissionValue": "MRS TESTCD", "synonyms": ["QS-Modified Rankin Scale Questionnaire Test Code"], "terms": [{"conceptId": "C111520", "definition": "Modified Rankin Scale - Modified Rankin Scale Score.", "preferredTerm": "MRS - Modified Rankin Scale Score", "submissionValue": "MRS0101", "synonyms": ["MRS01-Modified Rankin Scale Score"]}]}