{"_links": {"parentPackage": {"href": "/mdr/ct/packages/qs-ftct-2014-09-26", "title": "QS-FT Controlled Terminology Package 19 Effective 2014-09-26", "type": "Terminology"}, "rootItem": {"href": "/mdr/root/ct/qs-ftct/codelists/C112447", "title": "Version-agnostic anchor resource for codelist C112447", "type": "Root Value Domain"}, "self": {"href": "/mdr/ct/packages/qs-ftct-2014-09-26/codelists/C112447", "title": "CDISC Questionnaire PDDS Test Code Terminology", "type": "Code List"}}, "conceptId": "C112447", "definition": "Patient Determined Disease Steps test code.", "extensible": "false", "name": "QS-Patient Determined Disease Steps Questionnaire Test Code", "preferredTerm": "CDISC Questionnaire PDDS Test Code Terminology", "submissionValue": "PDDS TESTCD", "synonyms": ["QS-Patient Determined Disease Steps Questionnaire Test Code"], "terms": [{"conceptId": "C112626", "definition": "Patient Determined Disease Steps - This scale focuses mainly on how well you walk. You might not find a description that reflects your condition exactly, but please mark the one category that describes your situation the closest.", "preferredTerm": "PDDS - Category Describing Situation", "submissionValue": "PDDS0101", "synonyms": ["PDDS01-Category Describing Situation"]}]}