{"_links": {"parentPackage": {"href": "/mdr/ct/packages/qs-ftct-2014-09-26", "title": "QS-FT Controlled Terminology Package 19 Effective 2014-09-26", "type": "Terminology"}, "rootItem": {"href": "/mdr/root/ct/qs-ftct/codelists/C112439", "title": "Version-agnostic anchor resource for codelist C112439", "type": "Root Value Domain"}, "self": {"href": "/mdr/ct/packages/qs-ftct-2014-09-26/codelists/C112439", "title": "CDISC Questionnaire EDSS Test Code Terminology", "type": "Code List"}}, "conceptId": "C112439", "definition": "Kurtzke Expanded Disability Status Scale test code.", "extensible": "false", "name": "QS-Kurtzke Expanded Disability Status Scale Questionnaire Test Code", "preferredTerm": "CDISC Questionnaire EDSS Test Code Terminology", "submissionValue": "EDSS TESTCD", "synonyms": ["QS-Kurtzke Expanded Disability Status Scale Questionnaire Test Code"], "terms": [{"conceptId": "C112550", "definition": "Kurtzke Expanded Disability Status Scale - Expanded disability score.", "preferredTerm": "EDSS - Expanded Disability Score", "submissionValue": "EDSS0101", "synonyms": ["EDSS01-Expanded Disability Score"]}]}