{"_links": {"parentPackage": {"href": "/mdr/ct/packages/qs-ftct-2014-09-26", "title": "QS-FT Controlled Terminology Package 19 Effective 2014-09-26", "type": "Terminology"}, "rootItem": {"href": "/mdr/root/ct/qs-ftct/codelists/C112437", "title": "Version-agnostic anchor resource for codelist C112437", "type": "Root Value Domain"}, "self": {"href": "/mdr/ct/packages/qs-ftct-2014-09-26/codelists/C112437", "title": "CDISC Questionnaire DS Test Code Terminology", "type": "Code List"}}, "conceptId": "C112437", "definition": "Disease Steps test code.", "extensible": "false", "name": "QS-Disease Steps Questionnaire Test Code", "preferredTerm": "CDISC Questionnaire DS Test Code Terminology", "submissionValue": "Disease Steps TESTCD", "synonyms": ["QS-Disease Steps Questionnaire Test Code"], "terms": [{"conceptId": "C112549", "definition": "Disease Steps - Methods: For Disease Steps, classification of a patient is determined by history and neurologic examination as well as course of MS.", "preferredTerm": "DS - Disease Steps Classification", "submissionValue": "DS0101", "synonyms": ["DS01-Disease Steps Classification"]}]}