{"_links": {"parentPackage": {"href": "/mdr/ct/packages/qs-ftct-2014-09-26", "title": "QS-FT Controlled Terminology Package 19 Effective 2014-09-26", "type": "Terminology"}, "rootItem": {"href": "/mdr/root/ct/qs-ftct/codelists/C113853", "title": "Version-agnostic anchor resource for codelist C113853", "type": "Root Value Domain"}, "self": {"href": "/mdr/ct/packages/qs-ftct-2014-09-26/codelists/C113853", "title": "CDISC Questionnaire Bowel Control Scale Test Name Terminology", "type": "Code List"}}, "conceptId": "C113853", "definition": "Bowel Control Scale test name.", "extensible": "false", "name": "QS-Bowel Control Scale Test Name", "preferredTerm": "CDISC Questionnaire Bowel Control Scale Test Name Terminology", "submissionValue": "BWCS TEST", "synonyms": ["QS-Bowel Control Scale Test Name"], "terms": [{"conceptId": "C113959", "definition": "Bowel Control Scale - During the past 4 weeks, how often have you almost lost control of your bowels or almost had an accident?", "preferredTerm": "BWCS - Almost Lost Control of Your Bowels", "submissionValue": "BWCS01-Almost Lost Control of Bowels", "synonyms": ["BWCS01-Almost Lost Control of Bowels"]}, {"conceptId": "C113960", "definition": "Bowel Control Scale - During the past 4 weeks, how often have you altered your activities because of bowel control problems?", "preferredTerm": "BWCS - Altered Activities Because Bowel Control Problems", "submissionValue": "BWCS01-Altered Activity Because Bowels", "synonyms": ["BWCS01-Altered Activity Because Bowels"]}, {"conceptId": "C113957", "definition": "Bowel Control Scale - During the past 4 weeks, how often have you been constipated?", "preferredTerm": "BWCS - Been Constipated", "submissionValue": "BWCS01-Been Constipated", "synonyms": ["BWCS01-Been Constipated"]}, {"conceptId": "C113961", "definition": "Bowel Control Scale - During the past 4 weeks, how much have bowel problems restricted your overall lifestyle?", "preferredTerm": "BWCS - Bowel Problems Restrict Overall Lifestyle", "submissionValue": "BWCS01-Bowels Restricted Lifestyle", "synonyms": ["BWCS01-Bowels Restricted Lifestyle"]}, {"conceptId": "C113958", "definition": "Bowel Control Scale - During the past 4 weeks, how often have you lost control of your bowels or had an accident?", "preferredTerm": "BWCS - Lost Control of Your Bowels", "submissionValue": "BWCS01-Lost Control of Bowels", "synonyms": ["BWCS01-Lost Control of Bowels"]}]}