{"_links": {"parentPackage": {"href": "/mdr/ct/packages/qs-ftct-2014-09-26", "title": "QS-FT Controlled Terminology Package 19 Effective 2014-09-26", "type": "Terminology"}, "rootItem": {"href": "/mdr/root/ct/qs-ftct/codelists/C113845", "title": "Version-agnostic anchor resource for codelist C113845", "type": "Root Value Domain"}, "self": {"href": "/mdr/ct/packages/qs-ftct-2014-09-26/codelists/C113845", "title": "CDISC Questionnaire Borg CR-10 Test Name Terminology", "type": "Code List"}}, "conceptId": "C113845", "definition": "Borg CR-10 scale test name.", "extensible": "false", "name": "QS-Borg CR-10 Scale Test Name", "preferredTerm": "CDISC Questionnaire Borg CR-10 Test Name Terminology", "submissionValue": "Borg CR-10 Scale TEST", "synonyms": ["QS-Borg CR-10 Scale Test Name"], "terms": [{"conceptId": "C113888", "definition": "Borg CR10 Scale - Rating of breathlessness.", "preferredTerm": "Borg CR10 - Rating of Breathlessness", "submissionValue": "BCR101-Rating of Breathlessness", "synonyms": ["BCR101-Rating of Breathlessness"]}]}