{"_links": {"parentPackage": {"href": "/mdr/ct/packages/qs-ftct-2014-09-26", "title": "QS-FT Controlled Terminology Package 19 Effective 2014-09-26", "type": "Terminology"}, "rootItem": {"href": "/mdr/root/ct/qs-ftct/codelists/C115399", "title": "Version-agnostic anchor resource for codelist C115399", "type": "Root Value Domain"}, "self": {"href": "/mdr/ct/packages/qs-ftct-2014-09-26/codelists/C115399", "title": "CDISC Functional Test TUG Test Name Terminology", "type": "Code List"}}, "conceptId": "C115399", "definition": "Timed Up and Go Test test name.", "extensible": "false", "name": "FT-Timed Up and Go Functional Test Test Name", "preferredTerm": "CDISC Functional Test TUG Test Name Terminology", "submissionValue": "TUG TEST", "synonyms": ["FT-Timed Up and Go Functional Test Test Name"], "terms": [{"conceptId": "C115819", "definition": "Timed Up and Go - Time in seconds to complete TUG test.", "preferredTerm": "TUG - Time to Complete TUG Test", "submissionValue": "TUG01-Time to Complete TUG Test", "synonyms": ["TUG01-Time to Complete TUG Test"]}]}