{"_links": {"parentPackage": {"href": "/mdr/ct/packages/qs-ftct-2014-09-26", "title": "QS-FT Controlled Terminology Package 19 Effective 2014-09-26", "type": "Terminology"}, "rootItem": {"href": "/mdr/root/ct/qs-ftct/codelists/C115400", "title": "Version-agnostic anchor resource for codelist C115400", "type": "Root Value Domain"}, "self": {"href": "/mdr/ct/packages/qs-ftct-2014-09-26/codelists/C115400", "title": "CDISC Functional Test TUG Test Code Terminology", "type": "Code List"}}, "conceptId": "C115400", "definition": "Timed Up and Go Test test code.", "extensible": "false", "name": "FT-Timed Up and Go Functional Test Test Code", "preferredTerm": "CDISC Functional Test TUG Test Code Terminology", "submissionValue": "TUG TESTCD", "synonyms": ["FT-Timed Up and Go Functional Test Test Code"], "terms": [{"conceptId": "C115819", "definition": "Timed Up and Go - Time in seconds to complete TUG test.", "preferredTerm": "TUG - Time to Complete TUG Test", "submissionValue": "TUG0101", "synonyms": ["TUG01-Time to Complete TUG Test"]}]}