{"_links": {"parentPackage": {"href": "/mdr/ct/packages/sdtmct-2015-09-25", "title": "SDTM Controlled Terminology Package 23 Effective 2015-09-25", "type": "Terminology"}, "priorVersion": {"href": "/mdr/ct/packages/sdtmct-2015-06-26/codelists/C101833", "title": "CDISC SDTM Findings About Test Name Terminology", "type": "Code List"}, "rootItem": {"href": "/mdr/root/ct/sdtmct/codelists/C101833", "title": "Version-agnostic anchor resource for codelist C101833", "type": "Root Value Domain"}, "self": {"href": "/mdr/ct/packages/sdtmct-2015-09-25/codelists/C101833", "title": "CDISC SDTM Findings About Test Name Terminology", "type": "Code List"}}, "conceptId": "C101833", "definition": "Terminology relevant to the test names that describe findings about an event or intervention.", "extensible": "true", "name": "Findings About Test Name", "preferredTerm": "CDISC SDTM Findings About Test Name Terminology", "submissionValue": "FATEST", "synonyms": ["Findings About Test Name"], "terms": [{"conceptId": "C102626", "definition": "The state or condition of not responding to a pharmacological agent.", "preferredTerm": "Drug Resistance Status", "submissionValue": "Drug Resistance Status", "synonyms": ["Drug Resistance Status"]}]}