{"_links": {"parentPackage": {"href": "/mdr/ct/packages/sdtmct-2015-09-25", "title": "SDTM Controlled Terminology Package 23 Effective 2015-09-25", "type": "Terminology"}, "priorVersion": {"href": "/mdr/ct/packages/sdtmct-2015-06-26/codelists/C101855", "title": "CDISC SDTM Non-system Reason for PCI Delay Terminology", "type": "Code List"}, "rootItem": {"href": "/mdr/root/ct/sdtmct/codelists/C101855", "title": "Version-agnostic anchor resource for codelist C101855", "type": "Root Value Domain"}, "self": {"href": "/mdr/ct/packages/sdtmct-2015-09-25/codelists/C101855", "title": "CDISC SDTM Non-system Reason for PCI Delay Terminology", "type": "Code List"}}, "conceptId": "C101855", "definition": "A terminology codelist that contains reasons for non-system PCI delay.", "extensible": "false", "name": "Non-system Reason for PCI Delay", "preferredTerm": "CDISC SDTM Non-system Reason for PCI Delay Terminology", "submissionValue": "NSYSPCID", "synonyms": ["Non-system Reason for PCI Delay"], "terms": [{"conceptId": "C99920", "definition": "Cardiac arrest which occurs before a percutaneous coronary intervention can take place.", "preferredTerm": "Cardiac Arrest Prior to Percutaneous Coronary Intervention", "submissionValue": "CARDIAC ARREST BEFORE PCI"}, {"conceptId": "C99945", "definition": "Access to the subject's vasculature is troublesome or formidable.", "preferredTerm": "Difficult Vascular Access", "submissionValue": "DIFFICULT VASCULAR ACCESS"}, {"conceptId": "C99946", "definition": "Placement of intracoronary devices across the coronary stenosis is troublesome or formidable.", "preferredTerm": "Difficulty Crossing Culprit Lesion During Percutaneous Coronary Intervention", "submissionValue": "DIFFICULTY CROSSING THE CULPRIT LESION DURING THE PCI PROCEDURE"}, {"conceptId": "C99950", "definition": "Endotracheal intubation which occurs before a percutaneous coronary intervention can take place.", "preferredTerm": "Endotracheal Intubation before Percutaneous Coronary Intervention", "submissionValue": "ENDOTRACHEAL INTUBATION BEFORE PCI", "synonyms": ["Intubation before PCI"]}, {"conceptId": "C17649", "definition": "Different than the one(s) previously specified or mentioned. (NCI)", "preferredTerm": "Other", "submissionValue": "OTHER", "synonyms": ["Other"]}, {"conceptId": "C100016", "definition": "The subject has not provided consent in a timely manner for the procedure to take place.", "preferredTerm": "Subject Delay in Providing Consent", "submissionValue": "SUBJECT DELAY IN PROVIDING CONSENT", "synonyms": ["Patient Delay in Providing Consent"]}]}