{"_links": {"parentPackage": {"href": "/mdr/ct/packages/sdtmct-2015-09-25", "title": "SDTM Controlled Terminology Package 23 Effective 2015-09-25", "type": "Terminology"}, "priorVersion": {"href": "/mdr/ct/packages/sdtmct-2015-06-26/codelists/C102576", "title": "CDISC SDTM Directly Observed Therapy Location Terminology", "type": "Code List"}, "rootItem": {"href": "/mdr/root/ct/sdtmct/codelists/C102576", "title": "Version-agnostic anchor resource for codelist C102576", "type": "Root Value Domain"}, "self": {"href": "/mdr/ct/packages/sdtmct-2015-09-25/codelists/C102576", "title": "CDISC SDTM Directly Observed Therapy Location Terminology", "type": "Code List"}}, "conceptId": "C102576", "definition": "Terminology relevant to the physical location at which the medication or therapy was observed, by the healthcare provider, as being taken by the subject.", "extensible": "false", "name": "Directly Observed Therapy Location", "preferredTerm": "CDISC SDTM Directly Observed Therapy Location Terminology", "submissionValue": "DOBSTLOC", "synonyms": ["Directly Observed Therapy Location"], "terms": [{"conceptId": "C102650", "definition": "A setting outside the clinic or a comparable health care facility, e.g. a doctor's office, the subject's home or workplace, a school, a public park, or a restaurant.", "preferredTerm": "In the Field", "submissionValue": "FIELD"}, {"conceptId": "C21541", "definition": "The buildings and organizations where healthcare services are provided.", "preferredTerm": "Healthcare Facility", "submissionValue": "HEALTH FACILITY"}]}