{"_links": {"parentPackage": {"href": "/mdr/ct/packages/sdtmct-2015-09-25", "title": "SDTM Controlled Terminology Package 23 Effective 2015-09-25", "type": "Terminology"}, "priorVersion": {"href": "/mdr/ct/packages/sdtmct-2015-06-26/codelists/C102578", "title": "CDISC SDTM Disease Outcome Terminology", "type": "Code List"}, "rootItem": {"href": "/mdr/root/ct/sdtmct/codelists/C102578", "title": "Version-agnostic anchor resource for codelist C102578", "type": "Root Value Domain"}, "self": {"href": "/mdr/ct/packages/sdtmct-2015-09-25/codelists/C102578", "title": "CDISC SDTM Disease Outcome Terminology", "type": "Code List"}}, "conceptId": "C102578", "definition": "Terminology relevant to the measurable result or effect of treatment on a disease.", "extensible": "true", "name": "Disease Outcome", "preferredTerm": "CDISC SDTM Disease Outcome Terminology", "submissionValue": "DSSOUT", "synonyms": ["Disease Outcome"], "terms": [{"conceptId": "C102600", "definition": "There are no indicators of bacterial infection in an individual who previously had an infection.", "preferredTerm": "Bacteriological Cure", "submissionValue": "BACTERIOLOGICAL CURE"}, {"conceptId": "C102601", "definition": "There are indicators of bacterial infection in the individual who previously had an infection.", "preferredTerm": "Bacteriological Failure", "submissionValue": "BACTERIOLOGICAL FAILURE"}, {"conceptId": "C102607", "definition": "There are no signs or symptoms of disease in the individual who previously had a disease.", "preferredTerm": "Clinical Cure", "submissionValue": "CLINICAL CURE"}, {"conceptId": "C102608", "definition": "There are still signs or symptoms of disease in the individual who previously had an infection.", "preferredTerm": "Clinical Failure", "submissionValue": "CLINICAL FAILURE"}, {"conceptId": "C38155", "definition": "The return of a disease after a period of remission.", "preferredTerm": "Recurrent Disease", "submissionValue": "RECURRENT DISEASE", "synonyms": ["Recurrent Disease"]}]}