{"_links": {"parentPackage": {"href": "/mdr/ct/packages/sdtmct-2015-09-25", "title": "SDTM Controlled Terminology Package 23 Effective 2015-09-25", "type": "Terminology"}, "priorVersion": {"href": "/mdr/ct/packages/sdtmct-2015-06-26/codelists/C111108", "title": "CDISC SDTM Employment Status Terminology", "type": "Code List"}, "rootItem": {"href": "/mdr/root/ct/sdtmct/codelists/C111108", "title": "Version-agnostic anchor resource for codelist C111108", "type": "Root Value Domain"}, "self": {"href": "/mdr/ct/packages/sdtmct-2015-09-25/codelists/C111108", "title": "CDISC SDTM Employment Status Terminology", "type": "Code List"}}, "conceptId": "C111108", "definition": "Terminology relevant to the state of being engaged in an activity or service for wages or salary.", "extensible": "true", "name": "Employment Status", "preferredTerm": "CDISC SDTM Employment Status Terminology", "submissionValue": "EMPSTAT", "synonyms": ["Employment Status"], "terms": [{"conceptId": "C52658", "definition": "Employment involving the standard or customary working time.", "preferredTerm": "Full Time Employment", "submissionValue": "FULL-TIME"}, {"conceptId": "C75563", "definition": "The state of not having a job.", "preferredTerm": "Unemployment", "submissionValue": "NOT EMPLOYED"}, {"conceptId": "C75562", "definition": "Employment involving less than the standard or customary working time.", "preferredTerm": "Part Time Employment", "submissionValue": "PART-TIME"}]}