{"_links": {"parentPackage": {"href": "/mdr/ct/packages/sdtmct-2015-09-25", "title": "SDTM Controlled Terminology Package 23 Effective 2015-09-25", "type": "Terminology"}, "priorVersion": {"href": "/mdr/ct/packages/sdtmct-2015-06-26/codelists/C114119", "title": "CDISC SDTM Pharmacogenomics Biomarker Medical Statement Terminology", "type": "Code List"}, "rootItem": {"href": "/mdr/root/ct/sdtmct/codelists/C114119", "title": "Version-agnostic anchor resource for codelist C114119", "type": "Root Value Domain"}, "self": {"href": "/mdr/ct/packages/sdtmct-2015-09-25/codelists/C114119", "title": "CDISC SDTM Pharmacogenomics Biomarker Medical Statement Terminology", "type": "Code List"}}, "conceptId": "C114119", "definition": "A terminology codelist relevant to the medical conclusion such as confirmation of a diagnosis or drug resistance based on genetic biological markers.", "extensible": "true", "name": "Pharmacogenomics Biomarker Medical Statement", "preferredTerm": "CDISC SDTM Pharmacogenomics Biomarker Medical Statement Terminology", "submissionValue": "PBSTMT", "synonyms": ["Pharmacogenomics Biomarker Medical Statement"], "terms": [{"conceptId": "C38757", "definition": "A finding of normality following an examination or investigation looking for the presence of a microorganism, disease, or condition.", "preferredTerm": "Negative Finding", "submissionValue": "NEGATIVE"}, {"conceptId": "C38758", "definition": "An observation confirming something, such as the presence of a disease, condition, or microorganism.", "preferredTerm": "Positive Finding", "submissionValue": "POSITIVE"}, {"conceptId": "C85562", "definition": "The growth of microorganisms are not inhibited by the usually achievable concentrations of the antimicrobial agent with normal dosages, and/or microorganisms demonstrate MICs or zone diameters that fall in the range where specific microbial resistance mechanisms (e.g. Beta-lactamases) are likely, and clinical efficacy of the agent against the microorganism has not been reliably shown in treatment studies.", "preferredTerm": "Antimicrobial Resistance Result", "submissionValue": "RESISTANT", "synonyms": ["Resistant"]}, {"conceptId": "C85563", "definition": "The growth of microorganisms are inhibited by the usually achievable concentrations of antimicrobial agent when the recommended dosage is used for the site of infection.", "preferredTerm": "Antimicrobial Susceptibility Result", "submissionValue": "SUSCEPTIBLE", "synonyms": ["Susceptible"]}]}