{"_links": {"parentPackage": {"href": "/mdr/ct/packages/sdtmct-2015-09-25", "title": "SDTM Controlled Terminology Package 23 Effective 2015-09-25", "type": "Terminology"}, "priorVersion": {"href": "/mdr/ct/packages/sdtmct-2015-06-26/codelists/C117741", "title": "CDISC SDTM Multiple Sclerosis Findings About Test Code Terminology", "type": "Code List"}, "rootItem": {"href": "/mdr/root/ct/sdtmct/codelists/C117741", "title": "Version-agnostic anchor resource for codelist C117741", "type": "Root Value Domain"}, "self": {"href": "/mdr/ct/packages/sdtmct-2015-09-25/codelists/C117741", "title": "CDISC SDTM Multiple Sclerosis Findings About Test Code Terminology", "type": "Code List"}}, "conceptId": "C117741", "definition": "Terminology relevant to the test codes that describe multiple sclerosis findings.", "extensible": "true", "name": "Multiple Sclerosis Findings About Test Code", "preferredTerm": "CDISC SDTM Multiple Sclerosis Findings About Test Code Terminology", "submissionValue": "MSFATSCD", "synonyms": ["Multiple Sclerosis Findings About Test Code"], "terms": [{"conceptId": "C117883", "definition": "A description of the diagnostic criteria that the subject fulfilled in order to establish a medical diagnosis.", "preferredTerm": "Which Diagnostic Criteria Met", "submissionValue": "DXCRITMT", "synonyms": ["Diagnostic Criteria Met"]}, {"conceptId": "C117884", "definition": "The anatomical location of the beginning or early stages of a disease.", "preferredTerm": "Location of Disease Onset", "submissionValue": "LOCONSET", "synonyms": ["Localization of Onset"]}, {"conceptId": "C117885", "definition": "A categorization of the number of lesions present in the Central Nervous System at the time of diagnosis of a specific disease.", "preferredTerm": "Focality of Disease Onset", "submissionValue": "OUNIMULT", "synonyms": ["Onset Unifocal or Multifocal"]}]}