{"_links": {"parentPackage": {"href": "/mdr/ct/packages/sdtmct-2015-09-25", "title": "SDTM Controlled Terminology Package 23 Effective 2015-09-25", "type": "Terminology"}, "priorVersion": {"href": "/mdr/ct/packages/sdtmct-2015-06-26/codelists/C120526", "title": "CDISC SDTM Immunogenicity Specimen Assessments Test Name Terminology", "type": "Code List"}, "rootItem": {"href": "/mdr/root/ct/sdtmct/codelists/C120526", "title": "Version-agnostic anchor resource for codelist C120526", "type": "Root Value Domain"}, "self": {"href": "/mdr/ct/packages/sdtmct-2015-09-25/codelists/C120526", "title": "CDISC SDTM Immunogenicity Specimen Assessments Test Name Terminology", "type": "Code List"}}, "conceptId": "C120526", "definition": "Terminology relevant to the immunogenicity specimen test names of the CDISC Study Data Tabulation Model.", "extensible": "true", "name": "Immunogenicity Specimen Assessments Test Name", "preferredTerm": "CDISC SDTM Immunogenicity Specimen Assessments Test Name Terminology", "submissionValue": "ISTEST", "synonyms": ["Immunogenicity Specimen Assessments Test Name"], "terms": [{"conceptId": "C120622", "definition": "A measurement of the H1 specific IgG antibody secreting cells in a biological specimen.", "preferredTerm": "Influenza Hemagglutinin 1 Specific IgG Antibody Secreting Cell Count", "submissionValue": "H1 Specific IgG Antibody Secreting Cells", "synonyms": ["H1 Specific IgG ASCs", "H1 Specific IgG Antibody Secreting Cells"]}, {"conceptId": "C120623", "definition": "A measurement of the H3 specific IgG antibody secreting cells in a biological specimen.", "preferredTerm": "Influenza Hemagglutinin 3 Specific IgG Antibody Secreting Cell Count", "submissionValue": "H3 Specific IgG Antibody Secreting Cells", "synonyms": ["H3 Specific IgG ASCs", "H3 Specific IgG Antibody Secreting Cells"]}, {"conceptId": "C120624", "definition": "A measurement of the total IgG antibody secreting cells in a biological specimen.", "preferredTerm": "Total IgG Antibody Secreting Cell Count", "submissionValue": "Total IgG Antibody Secreting Cells", "synonyms": ["Total IgG ASCs", "Total IgG Antibody Secreting Cells"]}]}