{"_links": {"parentPackage": {"href": "/mdr/ct/packages/sdtmct-2015-09-25", "title": "SDTM Controlled Terminology Package 23 Effective 2015-09-25", "type": "Terminology"}, "priorVersion": {"href": "/mdr/ct/packages/sdtmct-2015-06-26/codelists/C122006", "title": "CDISC SDTM COPD Findings About Test Name Terminology", "type": "Code List"}, "rootItem": {"href": "/mdr/root/ct/sdtmct/codelists/C122006", "title": "Version-agnostic anchor resource for codelist C122006", "type": "Root Value Domain"}, "self": {"href": "/mdr/ct/packages/sdtmct-2015-09-25/codelists/C122006", "title": "CDISC SDTM COPD Findings About Test Name Terminology", "type": "Code List"}}, "conceptId": "C122006", "definition": "Terminology relevant to the test names that describe findings about a COPD event or intervention.", "extensible": "true", "name": "COPD Findings About Test Name", "preferredTerm": "CDISC SDTM COPD Findings About Test Name Terminology", "submissionValue": "CPFATS", "synonyms": ["COPD Findings About Test Name"], "terms": [{"conceptId": "C94596", "definition": "The total amount that a subject is exposed to over time.", "preferredTerm": "Cumulative Exposure", "submissionValue": "Cumulative Exposure", "synonyms": ["Cumulative Exposure"]}]}