{"_links": {"parentPackage": {"href": "/mdr/ct/packages/sdtmct-2015-09-25", "title": "SDTM Controlled Terminology Package 23 Effective 2015-09-25", "type": "Terminology"}, "priorVersion": {"href": "/mdr/ct/packages/sdtmct-2015-06-26/codelists/C66767", "title": "CDISC SDTM Action Taken with Study Treatment Terminology", "type": "Code List"}, "rootItem": {"href": "/mdr/root/ct/sdtmct/codelists/C66767", "title": "Version-agnostic anchor resource for codelist C66767", "type": "Root Value Domain"}, "self": {"href": "/mdr/ct/packages/sdtmct-2015-09-25/codelists/C66767", "title": "CDISC SDTM Action Taken with Study Treatment Terminology", "type": "Code List"}}, "conceptId": "C66767", "definition": "Terminology specifying changes to the study treatment as a result of an adverse event.", "extensible": "false", "name": "Action Taken with Study Treatment", "preferredTerm": "CDISC SDTM Action Taken with Study Treatment Terminology", "submissionValue": "ACN", "synonyms": ["Action Taken with Study Treatment"], "terms": [{"conceptId": "C49503", "definition": "An indication that a medication schedule was modified by addition; either by changing the frequency, strength or amount. (NCI)", "preferredTerm": "Dose Increased", "submissionValue": "DOSE INCREASED"}, {"conceptId": "C49504", "definition": "An indication that a medication schedule was maintained. (NCI)", "preferredTerm": "Dose Not Changed", "submissionValue": "DOSE NOT CHANGED"}, {"conceptId": "C49505", "definition": "An indication that a medication schedule was modified by subtraction, either by changing the frequency, strength or amount. (NCI)", "preferredTerm": "Dose Reduced", "submissionValue": "DOSE REDUCED"}, {"conceptId": "C49501", "definition": "An indication that a medication schedule was modified by temporarily terminating a prescribed regimen of medication. (NCI)", "preferredTerm": "Drug Interrupted", "submissionValue": "DRUG INTERRUPTED"}, {"conceptId": "C49502", "definition": "An indication that a medication schedule was modified through termination of a prescribed regimen of medication. (NCI)", "preferredTerm": "Drug Withdrawn", "submissionValue": "DRUG WITHDRAWN"}, {"conceptId": "C48660", "definition": "Determination of a value is not relevant in the current context. (NCI)", "preferredTerm": "Not Applicable", "submissionValue": "NOT APPLICABLE", "synonyms": ["NA", "Not Applicable"]}, {"conceptId": "C17998", "definition": "Not known, not observed, not recorded, or refused. (NCI)", "preferredTerm": "Unknown", "submissionValue": "UNKNOWN", "synonyms": ["U", "Unknown"]}]}