{"_links": {"parentPackage": {"href": "/mdr/ct/packages/sdtmct-2015-09-25", "title": "SDTM Controlled Terminology Package 23 Effective 2015-09-25", "type": "Terminology"}, "priorVersion": {"href": "/mdr/ct/packages/sdtmct-2015-06-26/codelists/C71148", "title": "CDISC SDTM Body Position Terminology", "type": "Code List"}, "rootItem": {"href": "/mdr/root/ct/sdtmct/codelists/C71148", "title": "Version-agnostic anchor resource for codelist C71148", "type": "Root Value Domain"}, "self": {"href": "/mdr/ct/packages/sdtmct-2015-09-25/codelists/C71148", "title": "CDISC SDTM Body Position Terminology", "type": "Code List"}}, "conceptId": "C71148", "definition": "Terminology codelist used with Body Position within CDISC.", "extensible": "true", "name": "Position", "preferredTerm": "CDISC SDTM Body Position Terminology", "submissionValue": "POSITION", "synonyms": ["Position"], "terms": [{"conceptId": "C77532", "definition": "Lying down. (NCI)", "preferredTerm": "Recumbent Position", "submissionValue": "DECUBITUS", "synonyms": ["Recumbent"]}, {"conceptId": "C62173", "definition": "A semi-sitting position whereby the head of an adjustable bed is elevated to the desired height, about 60-90 cm, to produce angulation of the body, usually 45 degrees to 60 degrees. Knees may or may not be bent. (NCI)", "preferredTerm": "Fowler's Position", "submissionValue": "FOWLERS", "synonyms": ["Fowlers"]}, {"conceptId": "C100758", "definition": "Lying down on one side.", "preferredTerm": "Lateral Decubitus Position", "submissionValue": "LATERAL DECUBITUS", "synonyms": ["Lateral Decubitus"]}, {"conceptId": "C62172", "definition": "A recumbent left lateral side position. (NCI)", "preferredTerm": "Left Lateral Decubitus Position", "submissionValue": "LEFT LATERAL DECUBITUS", "synonyms": ["Left lateral decubitus"]}, {"conceptId": "C62165", "definition": "An anterior recumbent body position whereby the person lies on its stomach and faces downward. (NCI)", "preferredTerm": "Prone Position", "submissionValue": "PRONE", "synonyms": ["Prone"]}, {"conceptId": "C62169", "definition": "A supine position with the person inclined at an angle of 45 degrees so that the head is higher than the pelvis. (NCI)", "preferredTerm": "Reverse Trendelenburg", "submissionValue": "REVERSE TRENDELENBURG", "synonyms": ["Reverse Trendelenburg"]}, {"conceptId": "C62171", "definition": "A recumbent right lateral side position. (NCI)", "preferredTerm": "Right Lateral Decubitus Position", "submissionValue": "RIGHT LATERAL DECUBITUS", "synonyms": ["Right lateral decubitus"]}, {"conceptId": "C62174", "definition": "A semi-sitting or semi-reclined body position whereby the head is elevated on an angle of approximately 30 degrees. (NCI)", "preferredTerm": "Semi-Fowler's Position", "submissionValue": "SEMI-FOWLERS", "synonyms": ["Semi-Fowlers"]}, {"conceptId": "C111310", "definition": "A semi-sitting or semi-reclined body position in which the head is elevated above horizontal. (NCI)", "preferredTerm": "Semi-Recumbent", "submissionValue": "SEMI-RECUMBENT"}, {"conceptId": "C62122", "definition": "The state or act of one who sits; the posture of one who occupies a seat. (NCI)", "preferredTerm": "Sitting", "submissionValue": "SITTING", "synonyms": ["Sitting"]}, {"conceptId": "C92604", "definition": "A position in which the subject's body is supported by a sling.", "preferredTerm": "Patient in Body Sling", "submissionValue": "SLING", "synonyms": ["Sling"]}, {"conceptId": "C62166", "definition": "The act of assuming or maintaining an erect upright position. (NCI)", "preferredTerm": "Standing", "submissionValue": "STANDING", "synonyms": ["Standing"]}, {"conceptId": "C62167", "definition": "A posterior recumbent body position whereby the person lies on its back and faces upward. (NCI)", "preferredTerm": "Supine Position", "submissionValue": "SUPINE", "synonyms": ["Supine"]}, {"conceptId": "C62168", "definition": "A supine position with the person inclined at an angle of 45 degrees so that the pelvis is higher than the head. (NCI)", "preferredTerm": "Trendelenburg", "submissionValue": "TRENDELENBURG", "synonyms": ["Trendelenburg"]}, {"conceptId": "C90480", "definition": "The ability to move body parts and limbs without physical restriction. (NCI)", "preferredTerm": "Unconstrained Body Movement", "submissionValue": "UNCONSTRAINED", "synonyms": ["Unconstrained"]}]}