{"_links": {"parentPackage": {"href": "/mdr/ct/packages/sdtmct-2015-09-25", "title": "SDTM Controlled Terminology Package 23 Effective 2015-09-25", "type": "Terminology"}, "priorVersion": {"href": "/mdr/ct/packages/sdtmct-2015-06-26/codelists/C76351", "title": "CDISC SDTM Skin Classification Terminology", "type": "Code List"}, "rootItem": {"href": "/mdr/root/ct/sdtmct/codelists/C76351", "title": "Version-agnostic anchor resource for codelist C76351", "type": "Root Value Domain"}, "self": {"href": "/mdr/ct/packages/sdtmct-2015-09-25/codelists/C76351", "title": "CDISC SDTM Skin Classification Terminology", "type": "Code List"}}, "conceptId": "C76351", "definition": "A classification system used to categorize the sensitivity of a subject's skin to sunlight.", "extensible": "true", "name": "Skin Classification", "preferredTerm": "CDISC SDTM Skin Classification Terminology", "submissionValue": "SKINCLAS", "synonyms": ["Skin Classification"], "terms": [{"conceptId": "C74569", "definition": "Individuals who never tan and always sunburn if exposed to any appreciable amount of sunlight, primarily red headed individuals and lightly complected blondes. (Reference: Fitzpatrick TB: The validity and practicality of sun-reactive skin types I through VI. Arch. Dermatol. 1998 124: 869-871)", "preferredTerm": "Fitzpatrick Skin Type I", "submissionValue": "TYPEI", "synonyms": ["TYPE1"]}, {"conceptId": "C74570", "definition": "Individuals who frequently burn but are able to tan to a small degree after extended sun exposure. (Reference: Fitzpatrick TB: The validity and practicality of sun-reactive skin types I through VI. Arch. Dermatol. 1998 124: 869-871)", "preferredTerm": "Fitzpatrick Skin Type II", "submissionValue": "TYPEII", "synonyms": ["TYPE2"]}, {"conceptId": "C74571", "definition": "Individuals who burn infrequently and tan readily. (Reference: Fitzpatrick TB: The validity and practicality of sun-reactive skin types I through VI. Arch. Dermatol. 1998 124: 869-871)", "preferredTerm": "Fitzpatrick Skin Type III", "submissionValue": "TYPEIII", "synonyms": ["TYPE3"]}, {"conceptId": "C74572", "definition": "Individuals who rarely burn and tan heavily with moderate sun exposures, especially individuals of Asian, American Indian, Mediterranean and Latin American descent. (Reference: Fitzpatrick TB: The validity and practicality of sun-reactive skin types I through VI. Arch. Dermatol. 1998 124: 869-871)", "preferredTerm": "Fitzpatrick Skin Type IV", "submissionValue": "TYPEIV", "synonyms": ["TYPE4"]}, {"conceptId": "C74573", "definition": "Individuals who have dark constitutive pigmentation but become noticeably darker with sun exposure, especially light complected black individuals, those of Indian descent. (Reference: Fitzpatrick TB: The validity and practicality of sun-reactive skin types I through VI. Arch. Dermatol. 1998 124: 869-871)", "preferredTerm": "Fitzpatrick Skin Type V", "submissionValue": "TYPEV", "synonyms": ["TYPE5"]}, {"conceptId": "C74574", "definition": "Individuals who have the heaviest constitutive pigmentation, especially dark skinned black individuals. (Reference: Fitzpatrick TB: The validity and practicality of sun-reactive skin types I through VI. Arch. Dermatol. 1998 124: 869-871)", "preferredTerm": "Fitzpatrick Skin Type VI", "submissionValue": "TYPEVI", "synonyms": ["TYPE6"]}]}