{"_links": {"parentPackage": {"href": "/mdr/ct/packages/sdtmct-2022-03-25", "title": "SDTM Controlled Terminology Package 49 Effective 2022-03-25", "type": "Terminology"}, "priorVersion": {"href": "/mdr/ct/packages/sdtmct-2021-12-17/codelists/C100164", "title": "CDISC Questionnaire BPI Short Form Test Code Terminology", "type": "Code List"}, "rootItem": {"href": "/mdr/root/ct/sdtmct/codelists/C100164", "title": "Version-agnostic anchor resource for codelist C100164", "type": "Root Value Domain"}, "self": {"href": "/mdr/ct/packages/sdtmct-2022-03-25/codelists/C100164", "title": "CDISC Questionnaire BPI Short Form Test Code Terminology", "type": "Code List"}}, "conceptId": "C100164", "definition": "Brief Pain Inventory Short Form test code.", "extensible": "false", "name": "Brief Pain Inventory Short Form Questionnaire Test Code", "preferredTerm": "CDISC Questionnaire BPI Short Form Test Code Terminology", "submissionValue": "BPI2TC", "synonyms": ["Brief Pain Inventory Short Form Questionnaire Test Code"], "terms": [{"conceptId": "C100356", "definition": "Brief Pain Inventory Short Form - Have you had pain other than these everyday kinds of pain today?", "preferredTerm": "BPI Short Form - Pain Other Than Everyday Kinds", "submissionValue": "BPI201", "synonyms": ["BPI2-Pain Other Than Everyday Kinds"]}, {"conceptId": "C100357", "definition": "Brief Pain Inventory Short Form - On the diagram, shade in the areas where you feel pain.", "preferredTerm": "BPI Short Form - Areas of Pain", "submissionValue": "BPI202A", "synonyms": ["BPI2-Areas of Pain"]}, {"conceptId": "C100358", "definition": "Brief Pain Inventory Short Form - On the diagram, put an X on the area that hurts the most.", "preferredTerm": "BPI Short Form - Area that Hurts Most", "submissionValue": "BPI202B", "synonyms": ["BPI2-Area Hurts Most"]}, {"conceptId": "C100359", "definition": "Brief Pain Inventory Short Form - Please rate your pain by circling the one number that best describes your pain at its worst in the last 24 hours.", "preferredTerm": "BPI Short Form - Pain at its Worst in Last 24 Hours", "submissionValue": "BPI203", "synonyms": ["BPI2-Pain at its Worst in Last 24 Hours"]}, {"conceptId": "C100360", "definition": "Brief Pain Inventory Short Form - Please rate your pain by circling the one number that best describes your pain at its least in the last 24 hours.", "preferredTerm": "BPI Short Form - Pain at its Least in Last 24 Hours", "submissionValue": "BPI204", "synonyms": ["BPI2-Pain at its Least in Last 24 Hours"]}, {"conceptId": "C100361", "definition": "Brief Pain Inventory Short Form - Please rate your pain by circling the one number that best describes your pain on the average.", "preferredTerm": "BPI Short Form - Pain on the Average", "submissionValue": "BPI205", "synonyms": ["BPI2-Pain on the Average"]}, {"conceptId": "C100362", "definition": "Brief Pain Inventory Short Form - Please rate your pain by circling the one number that tells how much pain you have right now.", "preferredTerm": "BPI Short Form - Pain Right Now", "submissionValue": "BPI206", "synonyms": ["BPI2-Pain Right Now"]}, {"conceptId": "C100363", "definition": "Brief Pain Inventory Short Form - What treatments or medications are you receiving for your pain?", "preferredTerm": "BPI Short Form - Treatments or Medications Receiving for Pain", "submissionValue": "BPI207", "synonyms": ["BPI2-Treatments Receiving for Pain"]}, {"conceptId": "C100364", "definition": "Brief Pain Inventory Short Form - In the last 24 hours, how much relief have pain treatments or medications provided? Please circle the one percentage that most shows how much relief you have received.", "preferredTerm": "BPI Short Form - Relief from Pain Treatments Provided", "submissionValue": "BPI208", "synonyms": ["BPI2-Relief Pain Treatments Provided"]}, {"conceptId": "C100365", "definition": "Brief Pain Inventory Short Form - Circle the one number that describes how, during the past 24 hours, pain has interfered with your general activity.", "preferredTerm": "BPI Short Form - Pain Interfered with General Activity", "submissionValue": "BPI209A", "synonyms": ["BPI2-Pain Interfered General Activity"]}, {"conceptId": "C100366", "definition": "Brief Pain Inventory Short Form - Circle the one number that describes how, during the past 24 hours, pain has interfered with your mood.", "preferredTerm": "BPI Short Form - Pain Interfered with Mood", "submissionValue": "BPI209B", "synonyms": ["BPI2-Pain Interfered with Mood"]}, {"conceptId": "C100367", "definition": "Brief Pain Inventory Short Form - Circle the one number that describes how, during the past 24 hours, pain has interfered with your walking ability.", "preferredTerm": "BPI Short Form - Pain Interfered with Walking Ability", "submissionValue": "BPI209C", "synonyms": ["BPI2-Pain Interfered Walking Ability"]}, {"conceptId": "C100368", "definition": "Brief Pain Inventory Short Form - Circle the one number that describes how, during the past 24 hours, pain has interfered with your normal work.", "preferredTerm": "BPI Short Form - Pain Interfered with Normal Work", "submissionValue": "BPI209D", "synonyms": ["BPI2-Pain Interfered with Normal Work"]}, {"conceptId": "C100369", "definition": "Brief Pain Inventory Short Form - Circle the one number that describes how, during the past 24 hours, pain has interfered with your relations with other people.", "preferredTerm": "BPI Short Form - Pain Interfered with Relations", "submissionValue": "BPI209E", "synonyms": ["BPI2-Pain Interfered with Relations"]}, {"conceptId": "C100370", "definition": "Brief Pain Inventory Short Form - Circle the one number that describes how, during the past 24 hours, pain has interfered with your sleep.", "preferredTerm": "BPI Short Form - Pain Interfered with Sleep", "submissionValue": "BPI209F", "synonyms": ["BPI2-Pain Interfered with Sleep"]}, {"conceptId": "C100371", "definition": "Brief Pain Inventory Short Form - Circle the one number that describes how, during the past 24 hours, pain has interfered with your enjoyment of life.", "preferredTerm": "BPI Short Form - Pain Interfered with Enjoyment of Life", "submissionValue": "BPI209G", "synonyms": ["BPI2-Pain Interfered Enjoyment of Life"]}]}