{"_links": {"parentPackage": {"href": "/mdr/ct/packages/sdtmct-2022-03-25", "title": "SDTM Controlled Terminology Package 49 Effective 2022-03-25", "type": "Terminology"}, "priorVersion": {"href": "/mdr/ct/packages/sdtmct-2021-12-17/codelists/C103482", "title": "CDISC Questionnaire PHQ-15 Test Name Terminology", "type": "Code List"}, "rootItem": {"href": "/mdr/root/ct/sdtmct/codelists/C103482", "title": "Version-agnostic anchor resource for codelist C103482", "type": "Root Value Domain"}, "self": {"href": "/mdr/ct/packages/sdtmct-2022-03-25/codelists/C103482", "title": "CDISC Questionnaire PHQ-15 Test Name Terminology", "type": "Code List"}}, "conceptId": "C103482", "definition": "Patient Health Questionnaire - 15 test name.", "extensible": "false", "name": "Patient Health Questionnaire - 15 Item Questionnaire Test Name", "preferredTerm": "CDISC Questionnaire PHQ-15 Test Name Terminology", "submissionValue": "PHQ02TN", "synonyms": ["Patient Health Questionnaire - 15 Item Questionnaire Test Name"], "terms": [{"conceptId": "C103716", "definition": "Patient Health Questionnaire - 15 - Back pain.", "preferredTerm": "PHQ-15 - Back Pain", "submissionValue": "PHQ02-Back Pain", "synonyms": ["PHQ02-Back Pain"]}, {"conceptId": "C103720", "definition": "Patient Health Questionnaire - 15 - Chest pain.", "preferredTerm": "PHQ-15 - Chest Pain", "submissionValue": "PHQ02-Chest Pain", "synonyms": ["PHQ02-Chest Pain"]}, {"conceptId": "C103726", "definition": "Patient Health Questionnaire - 15 - Constipation, loose bowels, or diarrhea.", "preferredTerm": "PHQ-15 - Constipation, Loose Bowels, or Diarrhea", "submissionValue": "PHQ02-Constipation/Loose Bowels/Diarrhea", "synonyms": ["PHQ02-Constipation/Loose Bowels/Diarrhea"]}, {"conceptId": "C103721", "definition": "Patient Health Questionnaire - 15 - Dizziness.", "preferredTerm": "PHQ-15 - Dizziness", "submissionValue": "PHQ02-Dizziness", "synonyms": ["PHQ02-Dizziness"]}, {"conceptId": "C103722", "definition": "Patient Health Questionnaire - 15 - Fainting spells.", "preferredTerm": "PHQ-15 - Fainting Spells", "submissionValue": "PHQ02-Fainting Spells", "synonyms": ["PHQ02-Fainting Spells"]}, {"conceptId": "C103728", "definition": "Patient Health Questionnaire - 15 - Feeling tired or having low energy.", "preferredTerm": "PHQ-15 - Feeling Tired or Having Low Energy", "submissionValue": "PHQ02-Feeling Tired or Having Low Energy", "synonyms": ["PHQ02-Feeling Tired or Having Low Energy"]}, {"conceptId": "C103723", "definition": "Patient Health Questionnaire - 15 - Feeling your heart pound or race.", "preferredTerm": "PHQ-15 - Feeling Your Heart Pound or Race", "submissionValue": "PHQ02-Feeling Your Heart Pound or Race", "synonyms": ["PHQ02-Feeling Your Heart Pound or Race"]}, {"conceptId": "C103719", "definition": "Patient Health Questionnaire - 15 - Headaches.", "preferredTerm": "PHQ-15 - Headaches", "submissionValue": "PHQ02-Headaches", "synonyms": ["PHQ02-Headaches"]}, {"conceptId": "C103718", "definition": "Patient Health Questionnaire - 15 - Menstrual cramps or other problems with your periods [Women only].", "preferredTerm": "PHQ-15 - Menstrual Cramp or Other Problems with Your Periods", "submissionValue": "PHQ02-Menstrual Cramp/Problem Periods", "synonyms": ["PHQ02-Menstrual Cramp/Problem Periods"]}, {"conceptId": "C103727", "definition": "Patient Health Questionnaire - 15 - Nausea, gas, or indigestion.", "preferredTerm": "PHQ-15 - Nausea, Gas, or Indigestion", "submissionValue": "PHQ02-Nausea, Gas, or Indigestion", "synonyms": ["PHQ02-Nausea, Gas, or Indigestion"]}, {"conceptId": "C103717", "definition": "Patient Health Questionnaire - 15 - Pain in your arms, legs, or joints (knees, hips, etc.).", "preferredTerm": "PHQ-15 - Pain In Your Arms, Legs, or Joints", "submissionValue": "PHQ02-Pain In Your Arms, Legs, or Joints", "synonyms": ["PHQ02-Pain In Your Arms, Legs, or Joints"]}, {"conceptId": "C103725", "definition": "Patient Health Questionnaire - 15 - Pain or problems during sexual intercourse.", "preferredTerm": "PHQ-15 - Pain or Problems During Sexual Intercourse", "submissionValue": "PHQ02-Pain/Problems During Intercourse", "synonyms": ["PHQ02-Pain/Problems During Intercourse"]}, {"conceptId": "C103724", "definition": "Patient Health Questionnaire - 15 - Shortness of breath.", "preferredTerm": "PHQ-15 - Shortness of Breath", "submissionValue": "PHQ02-Shortness of Breath", "synonyms": ["PHQ02-Shortness of Breath"]}, {"conceptId": "C103715", "definition": "Patient Health Questionnaire - 15 - Stomach pain.", "preferredTerm": "PHQ-15 - Stomach Pain", "submissionValue": "PHQ02-Stomach Pain", "synonyms": ["PHQ02-Stomach Pain"]}, {"conceptId": "C124782", "definition": "Patient Health Questionnaire - 15 - Total score.", "preferredTerm": "PHQ-15 - Total Score", "submissionValue": "PHQ02-Total Score", "synonyms": ["PHQ02-Total Score"]}, {"conceptId": "C103729", "definition": "Patient Health Questionnaire - 15 - Trouble sleeping.", "preferredTerm": "PHQ-15 - Trouble Sleeping", "submissionValue": "PHQ02-Trouble Sleeping", "synonyms": ["PHQ02-Trouble Sleeping"]}]}