{"_links": {"parentPackage": {"href": "/mdr/ct/packages/sdtmct-2022-03-25", "title": "SDTM Controlled Terminology Package 49 Effective 2022-03-25", "type": "Terminology"}, "priorVersion": {"href": "/mdr/ct/packages/sdtmct-2021-12-17/codelists/C111109", "title": "CDISC SDTM Device Events Category Terminology", "type": "Code List"}, "rootItem": {"href": "/mdr/root/ct/sdtmct/codelists/C111109", "title": "Version-agnostic anchor resource for codelist C111109", "type": "Root Value Domain"}, "self": {"href": "/mdr/ct/packages/sdtmct-2022-03-25/codelists/C111109", "title": "CDISC SDTM Device Events Category Terminology", "type": "Code List"}}, "conceptId": "C111109", "definition": "A terminology codelist based on the category of related records for the device event.", "extensible": "true", "name": "Category of Device Events", "preferredTerm": "CDISC SDTM Device Events Category Terminology", "submissionValue": "DECAT", "synonyms": ["Category of Device Events"], "terms": [{"conceptId": "C62994", "definition": "Issue associated with the failure of the device to perform a self-calibration procedure or process designed to assure the accuracy and proper performance of the device. (FDA)", "preferredTerm": "Failure to Calibrate Problem", "submissionValue": "CALIBRATION FAILURE", "synonyms": ["Calibrate, Failure To", "Failure to Calibrate"]}, {"conceptId": "C63269", "definition": "Issue associated with written programs, codes, and/or software system that affects device performance or communication with another device. (NCI)", "preferredTerm": "Computer Software Problem", "submissionValue": "COMPUTER SOFTWARE ISSUE", "synonyms": ["Software Malfunction"]}, {"conceptId": "C116121", "definition": "Issue associated with the failure of the software to store collected data.", "preferredTerm": "Data Storage Failure", "submissionValue": "DATA STORAGE FAILURE"}, {"conceptId": "C62954", "definition": "Issue associated with any deviations from specifications relating to device operations (e.g. deployment, connection, electrical, computer software, infusion/flow, output, protective-measure, and incompatibility issues).", "preferredTerm": "Medical Device Operational Issue", "submissionValue": "DEVICE OPERATIONAL ISSUE", "synonyms": ["Device Operational Malfunction"]}, {"conceptId": "C112361", "definition": "Issue associated with any deviations from specifications relating to non-study device or equipment operations.", "preferredTerm": "Non-Study Device Issue", "submissionValue": "NON-STUDY EQUIPMENT ISSUE", "synonyms": ["Non-Study Equipment Malfunction"]}, {"conceptId": "C111309", "definition": "An inspection and/or surveillance activity that has been anticipated to occur and was assigned a time or date when that activity is to be performed. (NCI)", "preferredTerm": "Scheduled Maintenance", "submissionValue": "SCHEDULED MAINTENANCE"}, {"conceptId": "C67227", "definition": "All program coding after initial deployment to correct coding errors, enhance the functionality of the software, and perfect the functioning of the software. (NCI)", "preferredTerm": "Software Maintenance", "submissionValue": "SOFTWARE UPDATE"}]}