{"_links": {"parentPackage": {"href": "/mdr/ct/packages/sdtmct-2022-03-25", "title": "SDTM Controlled Terminology Package 49 Effective 2022-03-25", "type": "Terminology"}, "priorVersion": {"href": "/mdr/ct/packages/sdtmct-2021-12-17/codelists/C124679", "title": "CDISC Clinical Classification West Haven Criteria Test Name Terminology", "type": "Code List"}, "rootItem": {"href": "/mdr/root/ct/sdtmct/codelists/C124679", "title": "Version-agnostic anchor resource for codelist C124679", "type": "Root Value Domain"}, "self": {"href": "/mdr/ct/packages/sdtmct-2022-03-25/codelists/C124679", "title": "CDISC Clinical Classification West Haven Criteria Test Name Terminology", "type": "Code List"}}, "conceptId": "C124679", "definition": "West Haven Hepatic Encephalopathy Grade test name.", "extensible": "false", "name": "West Haven Hepatic Encephalopathy Grade Clinical Classification Test Name", "preferredTerm": "CDISC Clinical Classification West Haven Criteria Test Name Terminology", "submissionValue": "WHEG01TN", "synonyms": ["West Haven Hepatic Encephalopathy Grade Clinical Classification Test Name"], "terms": [{"conceptId": "C117747", "definition": "West Haven Hepatic Encephalopathy Grade - Grade.", "preferredTerm": "West Haven Criteria - West Haven Hepatic Encephalopathy Grade", "submissionValue": "WHEG01-WH Hepatic Encephalopathy Grade", "synonyms": ["WHEG01-WH Hepatic Encephalopathy Grade"]}]}