{"_links": {"parentPackage": {"href": "/mdr/ct/packages/sdtmct-2022-03-25", "title": "SDTM Controlled Terminology Package 49 Effective 2022-03-25", "type": "Terminology"}, "priorVersion": {"href": "/mdr/ct/packages/sdtmct-2021-12-17/codelists/C124685", "title": "CDISC Clinical Classification PANSS Test Name Terminology", "type": "Code List"}, "rootItem": {"href": "/mdr/root/ct/sdtmct/codelists/C124685", "title": "Version-agnostic anchor resource for codelist C124685", "type": "Root Value Domain"}, "self": {"href": "/mdr/ct/packages/sdtmct-2022-03-25/codelists/C124685", "title": "CDISC Clinical Classification PANSS Test Name Terminology", "type": "Code List"}}, "conceptId": "C124685", "definition": "Positive and Negative Syndrome Scale test name.", "extensible": "false", "name": "Positive and Negative Syndrome Scale Clinical Classification Test Name", "preferredTerm": "CDISC Clinical Classification PANSS Test Name Terminology", "submissionValue": "PANSS1TN", "synonyms": ["Positive and Negative Syndrome Scale Clinical Classification Test Name"], "terms": [{"conceptId": "C124776", "definition": "Positive and Negative Syndrome Scale - Active social avoidance.", "preferredTerm": "PANSS - Active Social Avoidance", "submissionValue": "PANSS1-Active Social Avoidance", "synonyms": ["PANSS1-Active Social Avoidance"]}, {"conceptId": "C124762", "definition": "Positive and Negative Syndrome Scale - Anxiety.", "preferredTerm": "PANSS - Anxiety", "submissionValue": "PANSS1-Anxiety", "synonyms": ["PANSS1-Anxiety"]}, {"conceptId": "C124754", "definition": "Positive and Negative Syndrome Scale - Blunted affect.", "preferredTerm": "PANSS - Blunted Affect", "submissionValue": "PANSS1-Blunted Affect", "synonyms": ["PANSS1-Blunted Affect"]}, {"conceptId": "C124748", "definition": "Positive and Negative Syndrome Scale - Conceptual disorganization.", "preferredTerm": "PANSS - Conceptual Disorganization", "submissionValue": "PANSS1-Conceptual Disorganization", "synonyms": ["PANSS1-Conceptual Disorganization"]}, {"conceptId": "C124747", "definition": "Positive and Negative Syndrome Scale - Delusions.", "preferredTerm": "PANSS - Delusions", "submissionValue": "PANSS1-Delusions", "synonyms": ["PANSS1-Delusions"]}, {"conceptId": "C124766", "definition": "Positive and Negative Syndrome Scale - Depression.", "preferredTerm": "PANSS - Depression", "submissionValue": "PANSS1-Depression", "synonyms": ["PANSS1-Depression"]}, {"conceptId": "C124758", "definition": "Positive and Negative Syndrome Scale - Difficulty in abstract thinking.", "preferredTerm": "PANSS - Difficulty in Abstract Thinking", "submissionValue": "PANSS1-Difficulty in Abstract Thinking", "synonyms": ["PANSS1-Difficulty in Abstract Thinking"]}, {"conceptId": "C124770", "definition": "Positive and Negative Syndrome Scale - Disorientation.", "preferredTerm": "PANSS - Disorientation", "submissionValue": "PANSS1-Disorientation", "synonyms": ["PANSS1-Disorientation"]}, {"conceptId": "C124773", "definition": "Positive and Negative Syndrome Scale - Disturbance of volition.", "preferredTerm": "PANSS - Disturbance of Volition", "submissionValue": "PANSS1-Disturbance of Volition", "synonyms": ["PANSS1-Disturbance of Volition"]}, {"conceptId": "C124755", "definition": "Positive and Negative Syndrome Scale - Emotional withdrawal.", "preferredTerm": "PANSS - Emotional Withdrawal", "submissionValue": "PANSS1-Emotional Withdrawal", "synonyms": ["PANSS1-Emotional Withdrawal"]}, {"conceptId": "C124750", "definition": "Positive and Negative Syndrome Scale - Excitement.", "preferredTerm": "PANSS - Excitement", "submissionValue": "PANSS1-Excitement", "synonyms": ["PANSS1-Excitement"]}, {"conceptId": "C124751", "definition": "Positive and Negative Syndrome Scale - Grandiosity.", "preferredTerm": "PANSS - Grandiosity", "submissionValue": "PANSS1-Grandiosity", "synonyms": ["PANSS1-Grandiosity"]}, {"conceptId": "C124763", "definition": "Positive and Negative Syndrome Scale - Guilt feelings.", "preferredTerm": "PANSS - Guilt Feelings", "submissionValue": "PANSS1-Guilt Feelings", "synonyms": ["PANSS1-Guilt Feelings"]}, {"conceptId": "C124749", "definition": "Positive and Negative Syndrome Scale - Hallucinatory behavior.", "preferredTerm": "PANSS - Hallucinatory Behavior", "submissionValue": "PANSS1-Hallucinatory Behavior", "synonyms": ["PANSS1-Hallucinatory Behavior"]}, {"conceptId": "C124753", "definition": "Positive and Negative Syndrome Scale - Hostility.", "preferredTerm": "PANSS - Hostility", "submissionValue": "PANSS1-Hostility", "synonyms": ["PANSS1-Hostility"]}, {"conceptId": "C124772", "definition": "Positive and Negative Syndrome Scale - Lack of judgment and insight.", "preferredTerm": "PANSS - Lack of Judgement", "submissionValue": "PANSS1-Lack of Judgment and Insight", "synonyms": ["PANSS1-Lack of Judgment and Insight"]}, {"conceptId": "C124759", "definition": "Positive and Negative Syndrome Scale - Lack of spontaneity and flow of conversation.", "preferredTerm": "PANSS - Lack of Spontaneity", "submissionValue": "PANSS1-Lack of Spontaneity", "synonyms": ["PANSS1-Lack of Spontaneity"]}, {"conceptId": "C124765", "definition": "Positive and Negative Syndrome Scale - Mannerisms and posturing.", "preferredTerm": "PANSS - Mannerisms and Posturing", "submissionValue": "PANSS1-Mannerisms and Posturing", "synonyms": ["PANSS1-Mannerisms and Posturing"]}, {"conceptId": "C124767", "definition": "Positive and Negative Syndrome Scale - Motor retardation.", "preferredTerm": "PANSS - Motor Retardation", "submissionValue": "PANSS1-Motor Retardation", "synonyms": ["PANSS1-Motor Retardation"]}, {"conceptId": "C124757", "definition": "Positive and Negative Syndrome Scale - Passive/apathetic social withdrawal.", "preferredTerm": "PANSS - Passive or Apathetic Social Withdrawal", "submissionValue": "PANSS1-Passive/Apathetic Social Withdraw", "synonyms": ["PANSS1-Passive/Apathetic Social Withdraw"]}, {"conceptId": "C124771", "definition": "Positive and Negative Syndrome Scale - Poor attention.", "preferredTerm": "PANSS - Poor Attention", "submissionValue": "PANSS1-Poor Attention", "synonyms": ["PANSS1-Poor Attention"]}, {"conceptId": "C124774", "definition": "Positive and Negative Syndrome Scale - Poor impulse control.", "preferredTerm": "PANSS - Poor Impulse Control", "submissionValue": "PANSS1-Poor Impulse Control", "synonyms": ["PANSS1-Poor Impulse Control"]}, {"conceptId": "C124756", "definition": "Positive and Negative Syndrome Scale - Poor rapport.", "preferredTerm": "PANSS - Poor Rapport", "submissionValue": "PANSS1-Poor Rapport", "synonyms": ["PANSS1-Poor Rapport"]}, {"conceptId": "C124775", "definition": "Positive and Negative Syndrome Scale - Preoccupation.", "preferredTerm": "PANSS - Preoccupation", "submissionValue": "PANSS1-Preoccupation", "synonyms": ["PANSS1-Preoccupation"]}, {"conceptId": "C124761", "definition": "Positive and Negative Syndrome Scale - Somatic concern.", "preferredTerm": "PANSS - Somatic Concern", "submissionValue": "PANSS1-Somatic Concern", "synonyms": ["PANSS1-Somatic Concern"]}, {"conceptId": "C124760", "definition": "Positive and Negative Syndrome Scale - Stereotyped thinking.", "preferredTerm": "PANSS - Stereotyped Thinking", "submissionValue": "PANSS1-Stereotyped Thinking", "synonyms": ["PANSS1-Stereotyped Thinking"]}, {"conceptId": "C124752", "definition": "Positive and Negative Syndrome Scale - Suspiciousness/persecution.", "preferredTerm": "PANSS - Suspiciousness or Persecution", "submissionValue": "PANSS1-Suspiciousness/Persecution", "synonyms": ["PANSS1-Suspiciousness/Persecution"]}, {"conceptId": "C124764", "definition": "Positive and Negative Syndrome Scale - Tension.", "preferredTerm": "PANSS - Tension", "submissionValue": "PANSS1-Tension", "synonyms": ["PANSS1-Tension"]}, {"conceptId": "C124768", "definition": "Positive and Negative Syndrome Scale - Uncooperativeness.", "preferredTerm": "PANSS - Uncooperativeness", "submissionValue": "PANSS1-Uncooperativeness", "synonyms": ["PANSS1-Uncooperativeness"]}, {"conceptId": "C124769", "definition": "Positive and Negative Syndrome Scale - Unusual thought content.", "preferredTerm": "PANSS - Unusual Thought Content", "submissionValue": "PANSS1-Unusual Thought Content", "synonyms": ["PANSS1-Unusual Thought Content"]}]}