{"_links": {"parentPackage": {"href": "/mdr/ct/packages/sdtmct-2022-03-25", "title": "SDTM Controlled Terminology Package 49 Effective 2022-03-25", "type": "Terminology"}, "priorVersion": {"href": "/mdr/ct/packages/sdtmct-2021-12-17/codelists/C124684", "title": "CDISC Clinical Classification CRS-R Test Code Terminology", "type": "Code List"}, "rootItem": {"href": "/mdr/root/ct/sdtmct/codelists/C124684", "title": "Version-agnostic anchor resource for codelist C124684", "type": "Root Value Domain"}, "self": {"href": "/mdr/ct/packages/sdtmct-2022-03-25/codelists/C124684", "title": "CDISC Clinical Classification CRS-R Test Code Terminology", "type": "Code List"}}, "conceptId": "C124684", "definition": "JFK Coma Recovery Scale-Revised test code.", "extensible": "false", "name": "JFK Coma Recovery Scale-Revised Clinical Classification Test Code", "preferredTerm": "CDISC Clinical Classification CRS-R Test Code Terminology", "submissionValue": "CRSR01TC", "synonyms": ["JFK Coma Recovery Scale-Revised Clinical Classification Test Code"], "terms": [{"conceptId": "C124736", "definition": "JFK Coma Recovery Scale-Revised - Diagnosis.", "preferredTerm": "CRS-R - Diagnosis", "submissionValue": "CRSR0101", "synonyms": ["CRSR01-Diagnosis"]}, {"conceptId": "C124737", "definition": "JFK Coma Recovery Scale-Revised - Etiology.", "preferredTerm": "CRS-R - Etiology", "submissionValue": "CRSR0102", "synonyms": ["CRSR01-Etiology"]}, {"conceptId": "C124738", "definition": "JFK Coma Recovery Scale-Revised - Date of onset.", "preferredTerm": "CRS-R - Date of Onset", "submissionValue": "CRSR0103", "synonyms": ["CRSR01-Date of Onset"]}, {"conceptId": "C124739", "definition": "JFK Coma Recovery Scale-Revised - Date of admission.", "preferredTerm": "CRS-R - Date of Admission", "submissionValue": "CRSR0104", "synonyms": ["CRSR01-Date of Admission"]}, {"conceptId": "C124740", "definition": "JFK Coma Recovery Scale-Revised - Auditory function scale.", "preferredTerm": "CRS-R - Auditory Function Scale", "submissionValue": "CRSR0105", "synonyms": ["CRSR01-Auditory Function Scale"]}, {"conceptId": "C124741", "definition": "JFK Coma Recovery Scale-Revised - Visual function scale.", "preferredTerm": "CRS-R - Visual Function Scale", "submissionValue": "CRSR0106", "synonyms": ["CRSR01-Visual Function Scale"]}, {"conceptId": "C124742", "definition": "JFK Coma Recovery Scale-Revised - Motor function scale.", "preferredTerm": "CRS-R - Motor Function Scale", "submissionValue": "CRSR0107", "synonyms": ["CRSR01-Motor Function Scale"]}, {"conceptId": "C124743", "definition": "JFK Coma Recovery Scale-Revised - Oromotor/verbal function scale.", "preferredTerm": "CRS-R - Oromotor/Verbal Function", "submissionValue": "CRSR0108", "synonyms": ["CRSR01-Oromotor/Verbal Function"]}, {"conceptId": "C124744", "definition": "JFK Coma Recovery Scale-Revised - Communication scale.", "preferredTerm": "CRS-R - Communication Scale", "submissionValue": "CRSR0109", "synonyms": ["CRSR01-Communication Scale"]}, {"conceptId": "C124745", "definition": "JFK Coma Recovery Scale-Revised - Arousal scale.", "preferredTerm": "CRS-R - Arousal Scale", "submissionValue": "CRSR0110", "synonyms": ["CRSR01-Arousal Scale"]}, {"conceptId": "C124746", "definition": "JFK Coma Recovery Scale-Revised - Total score.", "preferredTerm": "CRS-R - Total Score", "submissionValue": "CRSR0111", "synonyms": ["CRSR01-Total Score"]}]}