{"_links": {"parentPackage": {"href": "/mdr/ct/packages/sdtmct-2022-03-25", "title": "SDTM Controlled Terminology Package 49 Effective 2022-03-25", "type": "Terminology"}, "priorVersion": {"href": "/mdr/ct/packages/sdtmct-2021-12-17/codelists/C124678", "title": "CDISC Clinical Classification CDC Classification System for HIV-Infected Adults and Adolescents Test Code Terminology", "type": "Code List"}, "rootItem": {"href": "/mdr/root/ct/sdtmct/codelists/C124678", "title": "Version-agnostic anchor resource for codelist C124678", "type": "Root Value Domain"}, "self": {"href": "/mdr/ct/packages/sdtmct-2022-03-25/codelists/C124678", "title": "CDISC Clinical Classification CDC Classification System for HIV-Infected Adults and Adolescents Test Code Terminology", "type": "Code List"}}, "conceptId": "C124678", "definition": "CDC Classification System for HIV-Infected Adults and Adolescents test code.", "extensible": "false", "name": "CDC Classification System for HIV-Infected Adults and Adolescents Clinical Classification Test Code", "preferredTerm": "CDISC Clinical Classification CDC Classification System for HIV-Infected Adults and Adolescents Test Code Terminology", "submissionValue": "CHIVC1TC", "synonyms": ["CDC Classification System for HIV-Infected Adults and Adolescents Clinical Classification Test Code"], "terms": [{"conceptId": "C124779", "definition": "CDC Classification System for HIV-Infected Adults and Adolescents - CDC HIV infection category.", "preferredTerm": "CDC Classification System for HIV-Infected Adults and Adolescents - CDC HIV Infection Category", "submissionValue": "CHIVC101", "synonyms": ["CHIVC1-CDC HIV Infection Category"]}]}