{"_links": {"parentPackage": {"href": "/mdr/ct/packages/sdtmct-2022-03-25", "title": "SDTM Controlled Terminology Package 49 Effective 2022-03-25", "type": "Terminology"}, "priorVersion": {"href": "/mdr/ct/packages/sdtmct-2021-12-17/codelists/C124305", "title": "CDISC SDTM Subject Status Test Code Terminology", "type": "Code List"}, "rootItem": {"href": "/mdr/root/ct/sdtmct/codelists/C124305", "title": "Version-agnostic anchor resource for codelist C124305", "type": "Root Value Domain"}, "self": {"href": "/mdr/ct/packages/sdtmct-2022-03-25/codelists/C124305", "title": "CDISC SDTM Subject Status Test Code Terminology", "type": "Code List"}}, "conceptId": "C124305", "definition": "Terminology relevant to test codes for the subject's status, which is evaluated periodically to determine if it has changed.", "extensible": "true", "name": "Subject Status Test Code", "preferredTerm": "CDISC SDTM Subject Status Test Code Terminology", "submissionValue": "SSTESTCD", "synonyms": ["Subject Status Test Code"], "terms": [{"conceptId": "C186215", "definition": "The state or condition of the subject's availability to provide information about their health status after they are no longer receiving study treatment.", "preferredTerm": "Follow-Up Availability Status", "submissionValue": "FUAVSTAT", "synonyms": ["Follow-Up Availability Status"]}, {"conceptId": "C25717", "definition": "The state or condition of being living or deceased; also includes the case where the vital status is unknown.", "preferredTerm": "Vital Status", "submissionValue": "SURVSTAT", "synonyms": ["Survival Status"]}]}