{"_links": {"parentPackage": {"href": "/mdr/ct/packages/sdtmct-2022-03-25", "title": "SDTM Controlled Terminology Package 49 Effective 2022-03-25", "type": "Terminology"}, "priorVersion": {"href": "/mdr/ct/packages/sdtmct-2021-12-17/codelists/C124299", "title": "CDISC SDTM Biospecimen Characteristics Test Name Terminology", "type": "Code List"}, "rootItem": {"href": "/mdr/root/ct/sdtmct/codelists/C124299", "title": "Version-agnostic anchor resource for codelist C124299", "type": "Root Value Domain"}, "self": {"href": "/mdr/ct/packages/sdtmct-2022-03-25/codelists/C124299", "title": "CDISC SDTM Biospecimen Characteristics Test Name Terminology", "type": "Code List"}}, "conceptId": "C124299", "definition": "Terminology relevant to the test names that describe the characteristics of biospecimens and extracted samples.", "extensible": "true", "name": "Biospecimen Characteristics Test Name", "preferredTerm": "CDISC SDTM Biospecimen Characteristics Test Name Terminology", "submissionValue": "BSTEST", "synonyms": ["Biospecimen Characteristics Test Name"], "terms": [{"conceptId": "C177932", "definition": "An assessment of ribonucleic acid integrity that is measured by determining the ratio of the nucleotide length of 28S rRNA and 18S rRNA, respectively, in a biological specimen.", "preferredTerm": "28S Ribosomal RNA to 18S Ribosomal RNA Ratio", "submissionValue": "28S/18S", "synonyms": ["28S/18S"]}, {"conceptId": "C139281", "definition": "An assessment of nucleic acid purity that is measured by determining the ratio of light absorbance of the nucleic acid sample at 260nm and 230nm respectively.", "preferredTerm": "A260 to A230 Ratio", "submissionValue": "A260/A230 Ratio", "synonyms": ["A260/A230 Ratio"]}, {"conceptId": "C139280", "definition": "An assessment of nucleic acid purity that is measured by determining the ratio of light absorbance of the nucleic acid sample at 260nm and 280nm respectively.", "preferredTerm": "A260 to A280 Ratio", "submissionValue": "A260/A280 Ratio", "synonyms": ["A260/A280 Ratio"]}, {"conceptId": "C25244", "definition": "The extent of a 2-dimensional surface enclosed within a boundary. (NCI)", "preferredTerm": "Area", "submissionValue": "Area", "synonyms": ["Area"]}, {"conceptId": "C41185", "definition": "The quantity of a specified substance in a unit volume or weight of another substance.", "preferredTerm": "Concentration", "submissionValue": "Concentration", "synonyms": ["Concentration"]}, {"conceptId": "C128948", "definition": "The name of the substance or material that preserves tissues and cells for study.", "preferredTerm": "Name of Fixative", "submissionValue": "Fixative Name", "synonyms": ["Fixative Name"]}, {"conceptId": "C139282", "definition": "The type of fluorescent label or dye that is used in a fluorescence-based assay.", "preferredTerm": "Fluorescent Tag Type", "submissionValue": "Fluorescent Label", "synonyms": ["Fluorescent Label"]}, {"conceptId": "C25334", "definition": "The linear extent in space from one end of something to the other end, or the extent of something from beginning to end. (NCI)", "preferredTerm": "Length", "submissionValue": "Length", "synonyms": ["Length"]}, {"conceptId": "C43246", "definition": "The amount of matter in an object.", "preferredTerm": "Mass", "submissionValue": "Mass", "synonyms": ["Mass"]}, {"conceptId": "C176276", "definition": "The total number of tissue samples within the specimen.", "preferredTerm": "Number of Tissue Samples in Specimen", "submissionValue": "Number of Tissue Samples in Specimen", "synonyms": ["Number of Tissue Samples in Specimen"]}, {"conceptId": "C25283", "definition": "An assessment of excellence, worth, or fitness for use.", "preferredTerm": "Quality", "submissionValue": "Quality", "synonyms": ["Quality"]}, {"conceptId": "C63637", "definition": "A numerical assessment of the integrity of RNA based on the entire electrophoretic trace of the RNA sample, including the presence or absence of degradation products. (NCI)", "preferredTerm": "RNA Integrity Number", "submissionValue": "RNA Integrity Number", "synonyms": ["RNA Integrity Number"]}, {"conceptId": "C139279", "definition": "An indication as to whether the sample contains viable (capable of life or normal growth and development) cells or tissues.", "preferredTerm": "Sample Viability Indicator", "submissionValue": "Sample Viability Indicator", "synonyms": ["Sample Viability Indicator"]}, {"conceptId": "C139278", "definition": "A measurement of the percent of a sample that is viable (capable of life or normal growth and development) for further processing or testing.", "preferredTerm": "Sample Viability Percent Measurement", "submissionValue": "Sample Viability Percent", "synonyms": ["Sample Viability Percent"]}, {"conceptId": "C25681", "definition": "The physical magnitude of something. (NCI)", "preferredTerm": "Size", "submissionValue": "Size", "synonyms": ["Size"]}, {"conceptId": "C25483", "definition": "The three dimensional magnitude of an entity expressed as the three axes of length, width, and height (or thickness).", "preferredTerm": "Dimension", "submissionValue": "Spatial Dimension", "synonyms": ["Dimension", "Spatial Dimension"]}, {"conceptId": "C106569", "definition": "A measurement of the weight of a biological specimen.", "preferredTerm": "Specimen Weight Measurement", "submissionValue": "Specimen Weight", "synonyms": ["Specimen Weight"]}, {"conceptId": "C25206", "definition": "The property of a body or region of space that determines whether or not there will be a net flow of heat into it or out of it from a neighboring body or region and in which direction (if any) the heat will flow, perceptible by living organism as a somatic sensation of cold or heat. It is a measure of the average translational kinetic energy associated with the disordered microscopic motion of atoms and molecules. Temperature is measured in one of the three standard temperature scales: Celsius, Kelvin, and Fahrenheit. (NCI)", "preferredTerm": "Temperature", "submissionValue": "Temperature", "synonyms": ["Temperature"]}, {"conceptId": "C41145", "definition": "The dimension between two surfaces of an object, usually the smallest dimension as opposed to the width or the length.", "preferredTerm": "Thickness", "submissionValue": "Thickness", "synonyms": ["Thickness"]}, {"conceptId": "C127771", "definition": "A relative measurement (ratio or percentage) of the tumor cells to total cells in a biological specimen.", "preferredTerm": "Tumor Cell to Total Cell Ratio Measurement", "submissionValue": "Tumor Cells/Total Cells", "synonyms": ["Tumor Cells/Total Cells"]}, {"conceptId": "C135371", "definition": "A characterization of the tumor tissue sample based upon whether it was taken from a tumor that originated after the disease spread.", "preferredTerm": "Tumor Tissue Origin", "submissionValue": "Tumor Tissue Origin", "synonyms": ["Tumor Tissue Origin"]}, {"conceptId": "C74720", "definition": "A measurement of the volume of a biological specimen.", "preferredTerm": "Volume Measurement", "submissionValue": "Volume", "synonyms": ["Volume"]}, {"conceptId": "C25345", "definition": "The extent or measurement of something from side to side. (NCI)", "preferredTerm": "Width", "submissionValue": "Width", "synonyms": ["Width"]}]}