{"_links": {"parentPackage": {"href": "/mdr/ct/packages/sdtmct-2022-03-25", "title": "SDTM Controlled Terminology Package 49 Effective 2022-03-25", "type": "Terminology"}, "priorVersion": {"href": "/mdr/ct/packages/sdtmct-2021-12-17/codelists/C127356", "title": "CDISC Questionnaire NCCN-FACT-FPSI 17 Version 2 Test Code Terminology", "type": "Code List"}, "rootItem": {"href": "/mdr/root/ct/sdtmct/codelists/C127356", "title": "Version-agnostic anchor resource for codelist C127356", "type": "Root Value Domain"}, "self": {"href": "/mdr/ct/packages/sdtmct-2022-03-25/codelists/C127356", "title": "CDISC Questionnaire NCCN-FACT-FPSI 17 Version 2 Test Code Terminology", "type": "Code List"}}, "conceptId": "C127356", "definition": "The National Comprehensive Cancer Network/Functional Assessment of Cancer Therapy-Prostate Symptom Index 17 Version 2 test code.", "extensible": "false", "name": "The National Comprehensive Cancer Network/Functional Assessment of Cancer Therapy-Prostate Symptom Index 17 Version 2 Questionnaire Test Code", "preferredTerm": "CDISC Questionnaire NCCN-FACT-FPSI 17 Version 2 Test Code Terminology", "submissionValue": "FAC052TC", "synonyms": ["The National Comprehensive Cancer Network/Functional Assessment of Cancer Therapy-Prostate Symptom Index 17 Version 2 Questionnaire Test Code"], "terms": [{"conceptId": "C127448", "definition": "National Comprehensive Cancer Network/Functional Assessment of Cancer Therapy-Prostate Symptom Index 17 Version 2 - I have a lack of energy.", "preferredTerm": "NCCN-FACT-FPSI 17 Version 2 - I Have a Lack of Energy", "submissionValue": "FAC05201", "synonyms": ["FAC052-I Have a Lack of Energy"]}, {"conceptId": "C127449", "definition": "National Comprehensive Cancer Network/Functional Assessment of Cancer Therapy-Prostate Symptom Index 17 Version 2 - I have pain.", "preferredTerm": "NCCN-FACT-FPSI 17 Version 2 - I Have Pain", "submissionValue": "FAC05202", "synonyms": ["FAC052-I Have Pain"]}, {"conceptId": "C127450", "definition": "National Comprehensive Cancer Network/Functional Assessment of Cancer Therapy-Prostate Symptom Index 17 Version 2 - I have difficulty urinating.", "preferredTerm": "NCCN-FACT-FPSI 17 Version 2 - I Have Difficulty Urinating", "submissionValue": "FAC05203", "synonyms": ["FAC052-I Have Difficulty Urinating"]}, {"conceptId": "C127451", "definition": "National Comprehensive Cancer Network/Functional Assessment of Cancer Therapy-Prostate Symptom Index 17 Version 2 - I am losing weight.", "preferredTerm": "NCCN-FACT-FPSI 17 Version 2 - I Am Losing Weight", "submissionValue": "FAC05204", "synonyms": ["FAC052-I Am Losing Weight"]}, {"conceptId": "C127452", "definition": "National Comprehensive Cancer Network/Functional Assessment of Cancer Therapy-Prostate Symptom Index 17 Version 2 - I have bone pain.", "preferredTerm": "NCCN-FACT-FPSI 17 Version 2 - I Have Bone Pain", "submissionValue": "FAC05205", "synonyms": ["FAC052-I Have Bone Pain"]}, {"conceptId": "C127453", "definition": "National Comprehensive Cancer Network/Functional Assessment of Cancer Therapy-Prostate Symptom Index 17 Version 2 - I feel fatigued.", "preferredTerm": "NCCN-FACT-FPSI 17 Version 2 - I Feel Fatigued", "submissionValue": "FAC05206", "synonyms": ["FAC052-I Feel Fatigued"]}, {"conceptId": "C127454", "definition": "National Comprehensive Cancer Network/Functional Assessment of Cancer Therapy-Prostate Symptom Index 17 Version 2 - I have weakness in my legs.", "preferredTerm": "NCCN-FACT-FPSI 17 Version 2 - I Have Weakness in My Legs", "submissionValue": "FAC05207", "synonyms": ["FAC052-I Have Weakness in My Legs"]}, {"conceptId": "C127455", "definition": "National Comprehensive Cancer Network/Functional Assessment of Cancer Therapy-Prostate Symptom Index 17 Version 2 - My pain keeps me from doing things I want to do.", "preferredTerm": "NCCN-FACT-FPSI 17 Version 2 - Pain Keeps Me From Doing Things", "submissionValue": "FAC05208", "synonyms": ["FAC052-Pain Keeps Me From Doing Things"]}, {"conceptId": "C127456", "definition": "National Comprehensive Cancer Network/Functional Assessment of Cancer Therapy-Prostate Symptom Index 17 Version 2 - I have a good appetite.", "preferredTerm": "NCCN-FACT-FPSI 17 Version 2 - I Have a Good Appetite", "submissionValue": "FAC05209", "synonyms": ["FAC052-I Have a Good Appetite"]}, {"conceptId": "C127457", "definition": "National Comprehensive Cancer Network/Functional Assessment of Cancer Therapy-Prostate Symptom Index 17 Version 2 - I am sleeping well.", "preferredTerm": "NCCN-FACT-FPSI 17 Version 2 - I Am Sleeping Well", "submissionValue": "FAC05210", "synonyms": ["FAC052-I Am Sleeping Well"]}, {"conceptId": "C127458", "definition": "National Comprehensive Cancer Network/Functional Assessment of Cancer Therapy-Prostate Symptom Index 17 Version 2 - I worry that my condition will get worse.", "preferredTerm": "NCCN-FACT-FPSI 17 Version 2 - Worry My Condition Will Get Worse", "submissionValue": "FAC05211", "synonyms": ["FAC052-Worry My Condition Will Get Worse"]}, {"conceptId": "C127459", "definition": "National Comprehensive Cancer Network/Functional Assessment of Cancer Therapy-Prostate Symptom Index 17 Version 2 - I have nausea.", "preferredTerm": "NCCN-FACT-FPSI 17 Version 2 - I Have Nausea", "submissionValue": "FAC05212", "synonyms": ["FAC052-I Have Nausea"]}, {"conceptId": "C127460", "definition": "National Comprehensive Cancer Network/Functional Assessment of Cancer Therapy-Prostate Symptom Index 17 Version 2 - I have trouble moving my bowels.", "preferredTerm": "NCCN-FACT-FPSI 17 Version 2 - I Have Trouble Moving My Bowels", "submissionValue": "FAC05213", "synonyms": ["FAC052-I Have Trouble Moving My Bowels"]}, {"conceptId": "C127461", "definition": "National Comprehensive Cancer Network/Functional Assessment of Cancer Therapy-Prostate Symptom Index 17 Version 2 - I am satisfied with my sex life.", "preferredTerm": "NCCN-FACT-FPSI 17 Version 2 - I Am Satisfied With My Sex Life", "submissionValue": "FAC05214", "synonyms": ["FAC052-I Am Satisfied With My Sex Life"]}, {"conceptId": "C127462", "definition": "National Comprehensive Cancer Network/Functional Assessment of Cancer Therapy-Prostate Symptom Index 17 Version 2 - I am bothered by side effects of treatment.", "preferredTerm": "NCCN-FACT-FPSI 17 Version 2 - Bothered by Treatment Side Effect", "submissionValue": "FAC05215", "synonyms": ["FAC052-Bothered by Treatment Side Effect"]}, {"conceptId": "C127463", "definition": "National Comprehensive Cancer Network/Functional Assessment of Cancer Therapy-Prostate Symptom Index 17 Version 2 - I am able to enjoy life.", "preferredTerm": "NCCN-FACT-FPSI 17 Version 2 - I Am Able to Enjoy Life", "submissionValue": "FAC05216", "synonyms": ["FAC052-I Am Able to Enjoy Life"]}, {"conceptId": "C127464", "definition": "National Comprehensive Cancer Network/Functional Assessment of Cancer Therapy-Prostate Symptom Index 17 Version 2 - I am content with the quality of my life right now.", "preferredTerm": "NCCN-FACT-FPSI 17 Version 2 - Content With Quality of My Life", "submissionValue": "FAC05217", "synonyms": ["FAC052-Content With Quality of My Life"]}]}