{"_links": {"parentPackage": {"href": "/mdr/ct/packages/sdtmct-2022-03-25", "title": "SDTM Controlled Terminology Package 49 Effective 2022-03-25", "type": "Terminology"}, "priorVersion": {"href": "/mdr/ct/packages/sdtmct-2021-12-17/codelists/C130244", "title": "CDISC Clinical Classification HAMD 24 Test Name Terminology", "type": "Code List"}, "rootItem": {"href": "/mdr/root/ct/sdtmct/codelists/C130244", "title": "Version-agnostic anchor resource for codelist C130244", "type": "Root Value Domain"}, "self": {"href": "/mdr/ct/packages/sdtmct-2022-03-25/codelists/C130244", "title": "CDISC Clinical Classification HAMD 24 Test Name Terminology", "type": "Code List"}}, "conceptId": "C130244", "definition": "Hamilton Depression Rating Scale - 24 Item test name.", "extensible": "false", "name": "Hamilton Depression Rating Scale - 24 Item Clinical Classification Test Name", "preferredTerm": "CDISC Clinical Classification HAMD 24 Test Name Terminology", "submissionValue": "HAMD3TN", "synonyms": ["Hamilton Depression Rating Scale - 24 Item Clinical Classification Test Name"], "terms": [{"conceptId": "C130344", "definition": "Hamilton Depression Rating Scale 24 Item - Anxiety - psychic.", "preferredTerm": "HAMD 24 - Anxiety, Psychic", "submissionValue": "HAMD3-Anxiety - Psychic", "synonyms": ["HAMD3-Anxiety - Psychic"]}, {"conceptId": "C130345", "definition": "Hamilton Depression Rating Scale 24 Item - Anxiety - somatic.", "preferredTerm": "HAMD 24 - Anxiety, Somatic", "submissionValue": "HAMD3-Anxiety - Somatic", "synonyms": ["HAMD3-Anxiety - Somatic"]}, {"conceptId": "C130353", "definition": "Hamilton Depression Rating Scale 24 Item - Depersonalization/derealization.", "preferredTerm": "HAMD 24 - Depersonalization and Derealisation", "submissionValue": "HAMD3-Depersonalization/Derealization", "synonyms": ["HAMD3-Depersonalization/Derealization"]}, {"conceptId": "C130335", "definition": "Hamilton Depression Rating Scale 24 Item - Depressed mood.", "preferredTerm": "HAMD 24 - Depressed Mood", "submissionValue": "HAMD3-Depressed Mood", "synonyms": ["HAMD3-Depressed Mood"]}, {"conceptId": "C130352", "definition": "Hamilton Depression Rating Scale 24 Item - Diurnal variation.", "preferredTerm": "HAMD 24 - Diurnal Variation", "submissionValue": "HAMD3-Diurnal Variation", "synonyms": ["HAMD3-Diurnal Variation"]}, {"conceptId": "C130346", "definition": "Hamilton Depression Rating Scale 24 Item - Gastrointestinal symptoms (appetite).", "preferredTerm": "HAMD 24 - Gastrointestinal Symptoms (Appetite)", "submissionValue": "HAMD3-GI Symptoms (Appetite)", "synonyms": ["HAMD3-GI Symptoms (Appetite)"]}, {"conceptId": "C130356", "definition": "Hamilton Depression Rating Scale 24 Item - Helplessness.", "preferredTerm": "HAMD 24 - Helplessness", "submissionValue": "HAMD3-Helplessness", "synonyms": ["HAMD3-Helplessness"]}, {"conceptId": "C130357", "definition": "Hamilton Depression Rating Scale 24 Item - Hopelessness.", "preferredTerm": "HAMD 24 - Hopelessness", "submissionValue": "HAMD3-Hopelessness", "synonyms": ["HAMD3-Hopelessness"]}, {"conceptId": "C130349", "definition": "Hamilton Depression Rating Scale 24 Item - Hypochondriasis (somatisation).", "preferredTerm": "HAMD 24 - Hypochondriasis (Somatisation)", "submissionValue": "HAMD3-Hypochondriasis (Somatisation)", "synonyms": ["HAMD3-Hypochondriasis (Somatisation)"]}, {"conceptId": "C130350", "definition": "Hamilton Depression Rating Scale 24 Item - Insight.", "preferredTerm": "HAMD 24 - Insight", "submissionValue": "HAMD3-Insight", "synonyms": ["HAMD3-Insight"]}, {"conceptId": "C130338", "definition": "Hamilton Depression Rating Scale 24 Item - Insomnia - initial.", "preferredTerm": "HAMD 24 - Insomnia - Initial", "submissionValue": "HAMD3-Insomnia - Initial", "synonyms": ["HAMD3-Insomnia - Initial"]}, {"conceptId": "C130340", "definition": "Hamilton Depression Rating Scale 24 Item - Insomnia - late.", "preferredTerm": "HAMD 24 - Insomnia - Late", "submissionValue": "HAMD3-Insomnia - Late", "synonyms": ["HAMD3-Insomnia - Late"]}, {"conceptId": "C130339", "definition": "Hamilton Depression Rating Scale 24 Item - Insomnia - middle.", "preferredTerm": "HAMD 24 - Insomnia - Middle", "submissionValue": "HAMD3-Insomnia - Middle", "synonyms": ["HAMD3-Insomnia - Middle"]}, {"conceptId": "C130336", "definition": "Hamilton Depression Rating Scale 24 Item - Low self-esteem, guilt.", "preferredTerm": "HAMD 24 - Low Self-esteem, Guilt", "submissionValue": "HAMD3-Low Self-Esteem, Guilt", "synonyms": ["HAMD3-Low Self-Esteem, Guilt"]}, {"conceptId": "C130355", "definition": "Hamilton Depression Rating Scale 24 Item - Observational/compulsive symptoms.", "preferredTerm": "HAMD 24 - Obsessional and Compulsive Symptoms", "submissionValue": "HAMD3-Observational/Compulsive Symptoms", "synonyms": ["HAMD3-Observational/Compulsive Symptoms"]}, {"conceptId": "C130354", "definition": "Hamilton Depression Rating Scale 24 Item - Paranoid symptoms.", "preferredTerm": "HAMD 24 - Paranoid Symptoms", "submissionValue": "HAMD3-Paranoid Symptoms", "synonyms": ["HAMD3-Paranoid Symptoms"]}, {"conceptId": "C130343", "definition": "Hamilton Depression Rating Scale 24 Item - Psychomotor agitation.", "preferredTerm": "HAMD 24 - Psychomotor Agitation", "submissionValue": "HAMD3-Psychomotor Agitation", "synonyms": ["HAMD3-Psychomotor Agitation"]}, {"conceptId": "C130342", "definition": "Hamilton Depression Rating Scale 24 Item - Psychomotor retardation.", "preferredTerm": "HAMD 24 - Psychomotor Retardation", "submissionValue": "HAMD3-Psychomotor Retardation", "synonyms": ["HAMD3-Psychomotor Retardation"]}, {"conceptId": "C130348", "definition": "Hamilton Depression Rating Scale 24 Item - Sexual disturbances.", "preferredTerm": "HAMD 24 - Sexual Disturbances", "submissionValue": "HAMD3-Sexual Disturbances", "synonyms": ["HAMD3-Sexual Disturbances"]}, {"conceptId": "C130347", "definition": "Hamilton Depression Rating Scale 24 Item - Somatic symptoms - general.", "preferredTerm": "HAMD 24 - Somatic Symptoms, General", "submissionValue": "HAMD3-Somatic Symptoms - General", "synonyms": ["HAMD3-Somatic Symptoms - General"]}, {"conceptId": "C130337", "definition": "Hamilton Depression Rating Scale 24 Item - Suicidal thoughts.", "preferredTerm": "HAMD 24 - Suicidal Thoughts", "submissionValue": "HAMD3-Suicidal Thoughts", "synonyms": ["HAMD3-Suicidal Thoughts"]}, {"conceptId": "C130359", "definition": "Hamilton Depression Rating Scale 24 Item - Total score.", "preferredTerm": "HAMD 24 - Total Score", "submissionValue": "HAMD3-Total Score", "synonyms": ["HAMD3-Total Score"]}, {"conceptId": "C130351", "definition": "Hamilton Depression Rating Scale 24 Item - Weight loss.", "preferredTerm": "HAMD 24 - Weight Loss", "submissionValue": "HAMD3-Weight Loss", "synonyms": ["HAMD3-Weight Loss"]}, {"conceptId": "C130341", "definition": "Hamilton Depression Rating Scale 24 Item - Work and interests.", "preferredTerm": "HAMD 24 - Work and Interests", "submissionValue": "HAMD3-Work and Interests", "synonyms": ["HAMD3-Work and Interests"]}, {"conceptId": "C130358", "definition": "Hamilton Depression Rating Scale 24 Item - Worthlessness.", "preferredTerm": "HAMD 24 - Worthlessness", "submissionValue": "HAMD3-Worthlessness", "synonyms": ["HAMD3-Worthlessness"]}]}