{"_links": {"parentPackage": {"href": "/mdr/ct/packages/sdtmct-2022-03-25", "title": "SDTM Controlled Terminology Package 49 Effective 2022-03-25", "type": "Terminology"}, "priorVersion": {"href": "/mdr/ct/packages/sdtmct-2021-12-17/codelists/C135012", "title": "CDISC SDTM AJCC Tumor Grade Response Terminology", "type": "Code List"}, "rootItem": {"href": "/mdr/root/ct/sdtmct/codelists/C135012", "title": "Version-agnostic anchor resource for codelist C135012", "type": "Root Value Domain"}, "self": {"href": "/mdr/ct/packages/sdtmct-2022-03-25/codelists/C135012", "title": "CDISC SDTM AJCC Tumor Grade Response Terminology", "type": "Code List"}}, "conceptId": "C135012", "definition": "Terminology relevant to the American Joint Committee on Cancer (AJCC) tumor grading system responses.", "extensible": "false", "name": "AJCC Tumor Grade Response", "preferredTerm": "CDISC SDTM AJCC Tumor Grade Response Terminology", "submissionValue": "AJCCGRD", "synonyms": ["AJCC Tumor Grade Response"], "terms": [{"conceptId": "C28077", "definition": "A morphologic qualifier by the American Joint Cancer Committee (AJCC) indicating that a cancerous lesion is well differentiated.", "preferredTerm": "Grade 1", "submissionValue": "GRADE 1", "synonyms": ["G1"]}, {"conceptId": "C28078", "definition": "A morphologic qualifier by the American Joint Cancer Committee (AJCC) indicating that a cancerous lesion is moderately differentiated.", "preferredTerm": "Grade 2", "submissionValue": "GRADE 2", "synonyms": ["G2"]}, {"conceptId": "C28079", "definition": "A morphologic qualifier by the American Joint Cancer Committee (AJCC) indicating that a cancerous lesion is poorly differentiated.", "preferredTerm": "Grade 3", "submissionValue": "GRADE 3", "synonyms": ["G3"]}, {"conceptId": "C28082", "definition": "A morphologic qualifier by the American Joint Cancer Committee (AJCC) indicating that a cancerous lesion is undifferentiated.", "preferredTerm": "Grade 4", "submissionValue": "GRADE 4", "synonyms": ["G4"]}, {"conceptId": "C113730", "definition": "A morphologic qualifier by the American Joint Cancer Committee (AJCC) indicating that the grade of a cancerous lesion cannot be assessed.", "preferredTerm": "Grade X", "submissionValue": "GRADE X", "synonyms": ["GX"]}]}