{"_links": {"parentPackage": {"href": "/mdr/ct/packages/sdtmct-2022-03-25", "title": "SDTM Controlled Terminology Package 49 Effective 2022-03-25", "type": "Terminology"}, "priorVersion": {"href": "/mdr/ct/packages/sdtmct-2021-12-17/codelists/C138231", "title": "CDISC Questionnaire PedsQL Neuromuscular Module Acute Version 3.0 Parent Report for Child Test Code Terminology", "type": "Code List"}, "rootItem": {"href": "/mdr/root/ct/sdtmct/codelists/C138231", "title": "Version-agnostic anchor resource for codelist C138231", "type": "Root Value Domain"}, "self": {"href": "/mdr/ct/packages/sdtmct-2022-03-25/codelists/C138231", "title": "CDISC Questionnaire PedsQL Neuromuscular Module Acute Version 3.0 Parent Report for Child Test Code Terminology", "type": "Code List"}}, "conceptId": "C138231", "definition": "Pediatric Quality of Life Neuromuscular Module Acute Version 3 Child Parent Report test code.", "extensible": "false", "name": "Pediatric Quality of Life Neuromuscular Module Acute Version 3 Child Parent Report Questionnaire Test Code", "preferredTerm": "CDISC Questionnaire PedsQL Neuromuscular Module Acute Version 3.0 Parent Report for Child Test Code Terminology", "submissionValue": "PQL15TC", "synonyms": ["Pediatric Quality of Life Neuromuscular Module Acute Version 3 Child Parent Report Questionnaire Test Code"], "terms": [{"conceptId": "C138515", "definition": "Pediatric Quality of Life Neuromuscular Module Acute Version 3 Child Parent Report - In the past 7 days, how much of a problem has this been for your child: It is hard for my child to breathe.", "preferredTerm": "PedsQL Neuromuscular Module Acute Version 3.0 Parent Report for Child - Hard to Breathe", "submissionValue": "PQL1501", "synonyms": ["PQL15-Hard to Breathe"]}, {"conceptId": "C138516", "definition": "Pediatric Quality of Life Neuromuscular Module Acute Version 3 Child Parent Report - In the past 7 days, how much of a problem has this been for your child: My child gets sick easily.", "preferredTerm": "PedsQL Neuromuscular Module Acute Version 3.0 Parent Report for Child - Get Sick Easily", "submissionValue": "PQL1502", "synonyms": ["PQL15-Get Sick Easily"]}, {"conceptId": "C138517", "definition": "Pediatric Quality of Life Neuromuscular Module Acute Version 3 Child Parent Report - In the past 7 days, how much of a problem has this been for your child: My child gets sores and/or rashes.", "preferredTerm": "PedsQL Neuromuscular Module Acute Version 3.0 Parent Report for Child - Get Sores and/or Rashes", "submissionValue": "PQL1503", "synonyms": ["PQL15-Get Sores and/or Rashes"]}, {"conceptId": "C138518", "definition": "Pediatric Quality of Life Neuromuscular Module Acute Version 3 Child Parent Report - In the past 7 days, how much of a problem has this been for your child: My child's legs hurt.", "preferredTerm": "PedsQL Neuromuscular Module Acute Version 3.0 Parent Report for Child - Legs Hurt", "submissionValue": "PQL1504", "synonyms": ["PQL15-Legs Hurt"]}, {"conceptId": "C138519", "definition": "Pediatric Quality of Life Neuromuscular Module Acute Version 3 Child Parent Report - In the past 7 days, how much of a problem has this been for your child: My child feels tired.", "preferredTerm": "PedsQL Neuromuscular Module Acute Version 3.0 Parent Report for Child - Feel Tired", "submissionValue": "PQL1505", "synonyms": ["PQL15-Feel Tired"]}, {"conceptId": "C138520", "definition": "Pediatric Quality of Life Neuromuscular Module Acute Version 3 Child Parent Report - In the past 7 days, how much of a problem has this been for your child: My child's back feels stiff.", "preferredTerm": "PedsQL Neuromuscular Module Acute Version 3.0 Parent Report for Child - Back Feels Stiff", "submissionValue": "PQL1506", "synonyms": ["PQL15-Back Feels Stiff"]}, {"conceptId": "C138521", "definition": "Pediatric Quality of Life Neuromuscular Module Acute Version 3 Child Parent Report - In the past 7 days, how much of a problem has this been for your child: My child wakes up tired.", "preferredTerm": "PedsQL Neuromuscular Module Acute Version 3.0 Parent Report for Child - Wake Up Tired", "submissionValue": "PQL1507", "synonyms": ["PQL15-Wake Up Tired"]}, {"conceptId": "C138522", "definition": "Pediatric Quality of Life Neuromuscular Module Acute Version 3 Child Parent Report - In the past 7 days, how much of a problem has this been for your child: My child's hands are weak.", "preferredTerm": "PedsQL Neuromuscular Module Acute Version 3.0 Parent Report for Child - Hands Are Weak", "submissionValue": "PQL1508", "synonyms": ["PQL15-Hands Are Weak"]}, {"conceptId": "C138523", "definition": "Pediatric Quality of Life Neuromuscular Module Acute Version 3 Child Parent Report - In the past 7 days, how much of a problem has this been for your child: It is hard for my child to use the bathroom.", "preferredTerm": "PedsQL Neuromuscular Module Acute Version 3.0 Parent Report for Child - Hard to Use Bathroom", "submissionValue": "PQL1509", "synonyms": ["PQL15-Hard to Use Bathroom"]}, {"conceptId": "C138524", "definition": "Pediatric Quality of Life Neuromuscular Module Acute Version 3 Child Parent Report - In the past 7 days, how much of a problem has this been for your child: It is hard for my child to gain or lose weight when he or she wants to.", "preferredTerm": "PedsQL Neuromuscular Module Acute Version 3.0 Parent Report for Child - Hard to Gain or Lose Weight", "submissionValue": "PQL1510", "synonyms": ["PQL15-Hard to Gain/Lose Weight"]}, {"conceptId": "C138525", "definition": "Pediatric Quality of Life Neuromuscular Module Acute Version 3 Child Parent Report - In the past 7 days, how much of a problem has this been for your child: It is hard for my child to use his or her hands.", "preferredTerm": "PedsQL Neuromuscular Module Acute Version 3.0 Parent Report for Child - Hard to Use Hands", "submissionValue": "PQL1511", "synonyms": ["PQL15-Hard to Use Hands"]}, {"conceptId": "C138526", "definition": "Pediatric Quality of Life Neuromuscular Module Acute Version 3 Child Parent Report - In the past 7 days, how much of a problem has this been for your child: It is hard for my child to swallow food.", "preferredTerm": "PedsQL Neuromuscular Module Acute Version 3.0 Parent Report for Child - Hard to Swallow Food", "submissionValue": "PQL1512", "synonyms": ["PQL15-Hard to Swallow Food"]}, {"conceptId": "C138527", "definition": "Pediatric Quality of Life Neuromuscular Module Acute Version 3 Child Parent Report - In the past 7 days, how much of a problem has this been for your child: It takes my child a long time to bathe or shower.", "preferredTerm": "PedsQL Neuromuscular Module Acute Version 3.0 Parent Report for Child - Long Time to Bathe or Shower", "submissionValue": "PQL1513", "synonyms": ["PQL15-Long Time to Bathe/Shower"]}, {"conceptId": "C138528", "definition": "Pediatric Quality of Life Neuromuscular Module Acute Version 3 Child Parent Report - In the past 7 days, how much of a problem has this been for your child: My child gets hurt accidentally.", "preferredTerm": "PedsQL Neuromuscular Module Acute Version 3.0 Parent Report for Child - Get Hurt Accidentally", "submissionValue": "PQL1514", "synonyms": ["PQL15-Get Hurt Accidentally"]}, {"conceptId": "C138529", "definition": "Pediatric Quality of Life Neuromuscular Module Acute Version 3 Child Parent Report - In the past 7 days, how much of a problem has this been for your child: My child takes a long time to eat.", "preferredTerm": "PedsQL Neuromuscular Module Acute Version 3.0 Parent Report for Child - Take Long Time to Eat", "submissionValue": "PQL1515", "synonyms": ["PQL15-Take Long Time to Eat"]}, {"conceptId": "C138530", "definition": "Pediatric Quality of Life Neuromuscular Module Acute Version 3 Child Parent Report - In the past 7 days, how much of a problem has this been for your child: It is hard for my child to turn him or herself during the night.", "preferredTerm": "PedsQL Neuromuscular Module Acute Version 3.0 Parent Report for Child - Hard to Turn During Night", "submissionValue": "PQL1516", "synonyms": ["PQL15-Hard to Turn During Night"]}, {"conceptId": "C138531", "definition": "Pediatric Quality of Life Neuromuscular Module Acute Version 3 Child Parent Report - In the past 7 days, how much of a problem has this been for your child: It is hard for my child to go places with his or her equipment.", "preferredTerm": "PedsQL Neuromuscular Module Acute Version 3.0 Parent Report for Child - Hard to Go Places With Equipment", "submissionValue": "PQL1517", "synonyms": ["PQL15-Hard to Go Places With Equipment"]}, {"conceptId": "C138532", "definition": "Pediatric Quality of Life Neuromuscular Module Acute Version 3 Child Parent Report - In the past 7 days, how much of a problem has this been for your child: It is hard for my child to tell the doctors and nurses how he or she feels.", "preferredTerm": "PedsQL Neuromuscular Module Acute Version 3.0 Parent Report for Child - Hard Tell Doctors and Nurses How Feel", "submissionValue": "PQL1518", "synonyms": ["PQL15-Hard Tell Doctors/Nurses How Feel"]}, {"conceptId": "C138533", "definition": "Pediatric Quality of Life Neuromuscular Module Acute Version 3 Child Parent Report - In the past 7 days, how much of a problem has this been for your child: It is hard for my child to ask the doctors and nurses questions.", "preferredTerm": "PedsQL Neuromuscular Module Acute Version 3.0 Parent Report for Child - Hard Ask Doctors and Nurses Questions", "submissionValue": "PQL1519", "synonyms": ["PQL15-Hard Ask Doctors/Nurses Questions"]}, {"conceptId": "C138534", "definition": "Pediatric Quality of Life Neuromuscular Module Acute Version 3 Child Parent Report - In the past 7 days, how much of a problem has this been for your child: It is hard for my child to explain his or her illness to other people.", "preferredTerm": "PedsQL Neuromuscular Module Acute Version 3.0 Parent Report for Child - Hard Explain Illness to People", "submissionValue": "PQL1520", "synonyms": ["PQL15-Hard Explain Illness to People"]}, {"conceptId": "C138535", "definition": "Pediatric Quality of Life Neuromuscular Module Acute Version 3 Child Parent Report - In the past 7 days, how much of a problem has this been for your child: It is hard for our family to plan activities like vacations.", "preferredTerm": "PedsQL Neuromuscular Module Acute Version 3.0 Parent Report for Child - Hard for Family to Plan Activities", "submissionValue": "PQL1521", "synonyms": ["PQL15-Hard for Family to Plan Activities"]}, {"conceptId": "C138536", "definition": "Pediatric Quality of Life Neuromuscular Module Acute Version 3 Child Parent Report - In the past 7 days, how much of a problem has this been for your child: It is hard for our family to get enough rest.", "preferredTerm": "PedsQL Neuromuscular Module Acute Version 3.0 Parent Report for Child - Hard for Family to Rest", "submissionValue": "PQL1522", "synonyms": ["PQL15-Hard for Family to Rest"]}, {"conceptId": "C138537", "definition": "Pediatric Quality of Life Neuromuscular Module Acute Version 3 Child Parent Report - In the past 7 days, how much of a problem has this been for your child: I think money is a problem in our family.", "preferredTerm": "PedsQL Neuromuscular Module Acute Version 3.0 Parent Report for Child - Money Problem in Our Family", "submissionValue": "PQL1523", "synonyms": ["PQL15-Money Problem in Our Family"]}, {"conceptId": "C138538", "definition": "Pediatric Quality of Life Neuromuscular Module Acute Version 3 Child Parent Report - In the past 7 days, how much of a problem has this been for your child: I think our family has a lot of problems.", "preferredTerm": "PedsQL Neuromuscular Module Acute Version 3.0 Parent Report for Child - Family Has Lot of Problems", "submissionValue": "PQL1524", "synonyms": ["PQL15-Family Has Lot of Problems"]}, {"conceptId": "C138539", "definition": "Pediatric Quality of Life Neuromuscular Module Acute Version 3 Child Parent Report - In the past 7 days, how much of a problem has this been for your child: My child does not have the equipment he or she needs.", "preferredTerm": "PedsQL Neuromuscular Module Acute Version 3.0 Parent Report for Child - Do Not Have Equipment Need", "submissionValue": "PQL1525", "synonyms": ["PQL15-Do Not Have Equipment Need"]}]}