{"_links": {"parentPackage": {"href": "/mdr/ct/packages/sdtmct-2022-03-25", "title": "SDTM Controlled Terminology Package 49 Effective 2022-03-25", "type": "Terminology"}, "priorVersion": {"href": "/mdr/ct/packages/sdtmct-2021-12-17/codelists/C141658", "title": "CDISC Functional Test Rising From Floor Test Name Terminology", "type": "Code List"}, "rootItem": {"href": "/mdr/root/ct/sdtmct/codelists/C141658", "title": "Version-agnostic anchor resource for codelist C141658", "type": "Root Value Domain"}, "self": {"href": "/mdr/ct/packages/sdtmct-2022-03-25/codelists/C141658", "title": "CDISC Functional Test Rising From Floor Test Name Terminology", "type": "Code List"}}, "conceptId": "C141658", "definition": "Rising From Floor test name.", "extensible": "false", "name": "Rising From Floor Functional Test Test Name", "preferredTerm": "CDISC Functional Test Rising From Floor Test Name Terminology", "submissionValue": "RISEF1TN", "synonyms": ["Rising From Floor Functional Test Test Name"], "terms": [{"conceptId": "C141703", "definition": "Rising From Floor - Test grade.", "preferredTerm": "Rising From Floor - Test Grade", "submissionValue": "RISEF1-Test Grade", "synonyms": ["RISEF1-Test Grade"]}, {"conceptId": "C141702", "definition": "Rising From Floor - If yes, time taken to rise from floor.", "preferredTerm": "Rising From Floor - Time to Rise From Floor", "submissionValue": "RISEF1-Time to Rise From Floor", "synonyms": ["RISEF1-Time to Rise From Floor"]}, {"conceptId": "C174105", "definition": "Rising From Floor - Was Rising From Floor performed?", "preferredTerm": "Rising From Floor - Was Rising From Floor Performed", "submissionValue": "RISEF1-Was Rising From Floor Performed", "synonyms": ["RISEF1-Was Rising From Floor Performed"]}, {"conceptId": "C151073", "definition": "Rising From Floor - If yes, did subject wear orthoses?", "preferredTerm": "Rising From Floor - Wear Orthoses", "submissionValue": "RISEF1-Wear Orthoses", "synonyms": ["RISEF1-Wear Orthoses"]}]}