{"_links": {"parentPackage": {"href": "/mdr/ct/packages/sdtmct-2022-03-25", "title": "SDTM Controlled Terminology Package 49 Effective 2022-03-25", "type": "Terminology"}, "priorVersion": {"href": "/mdr/ct/packages/sdtmct-2021-12-17/codelists/C150772", "title": "CDISC Functional Test Paced Tapping Test Code Terminology", "type": "Code List"}, "rootItem": {"href": "/mdr/root/ct/sdtmct/codelists/C150772", "title": "Version-agnostic anchor resource for codelist C150772", "type": "Root Value Domain"}, "self": {"href": "/mdr/ct/packages/sdtmct-2022-03-25/codelists/C150772", "title": "CDISC Functional Test Paced Tapping Test Code Terminology", "type": "Code List"}}, "conceptId": "C150772", "definition": "Paced Tapping test code.", "extensible": "false", "name": "Paced Tapping Functional Test Test Code", "preferredTerm": "CDISC Functional Test Paced Tapping Test Code Terminology", "submissionValue": "PTAP1TC", "synonyms": ["Paced Tapping Functional Test Test Code"], "terms": [{"conceptId": "C151027", "definition": "Paced Tapping - Total number of trials expected to be administered in the task.", "preferredTerm": "Paced Tapping - Total Trials Expected", "submissionValue": "PTAP101", "synonyms": ["PTAP1-Total Trials Expected"]}, {"conceptId": "C151028", "definition": "Paced Tapping - Total number of trials actually administered in the task.", "preferredTerm": "Paced Tapping - Total Trials Administered", "submissionValue": "PTAP102", "synonyms": ["PTAP1-Total Trials Administered"]}, {"conceptId": "C151029", "definition": "Paced Tapping - Total number of trials actually completed in the task.", "preferredTerm": "Paced Tapping - Total Trials Completed", "submissionValue": "PTAP103", "synonyms": ["PTAP1-Total Trials Completed"]}, {"conceptId": "C151030", "definition": "Paced Tapping - Total number of intertap intervals across all 4 toned tapping phases of each trial administered.", "preferredTerm": "Paced Tapping - Total Interval Tone Admin All", "submissionValue": "PTAP104", "synonyms": ["PTAP1-Total Interval Tone Admin All"]}, {"conceptId": "C151031", "definition": "Paced Tapping - Total number of intertap intervals across the 4 toned tapping phases of each trial, that were trimmed before analysis.", "preferredTerm": "Paced Tapping - Total Interval Tone Trim All", "submissionValue": "PTAP105", "synonyms": ["PTAP1-Total Interval Tone Trim All"]}, {"conceptId": "C151032", "definition": "Paced Tapping - The minimum intertap interval within the tone-paced tapping phase across all trials (in milliseconds).", "preferredTerm": "Paced Tapping - Minimum Interval Tone All", "submissionValue": "PTAP105A", "synonyms": ["PTAP1-Minimum Interval Tone All"]}, {"conceptId": "C151033", "definition": "Paced Tapping - The maximum intertap interval within the tone-paced tapping phase across all trials (in milliseconds).", "preferredTerm": "Paced Tapping - Maximum Interval Tone All", "submissionValue": "PTAP105B", "synonyms": ["PTAP1-Maximum Interval Tone All"]}, {"conceptId": "C151034", "definition": "Paced Tapping - The mean intertap interval within the tone-paced tapping phase across all trials (in milliseconds).", "preferredTerm": "Paced Tapping - Mean Interval Tone All", "submissionValue": "PTAP105C", "synonyms": ["PTAP1-Mean Interval Tone All"]}, {"conceptId": "C151035", "definition": "Paced Tapping - The median intertap interval within the tone-paced tapping phase across all trials (in milliseconds).", "preferredTerm": "Paced Tapping - Median Interval Tone All", "submissionValue": "PTAP105D", "synonyms": ["PTAP1-Median Interval Tone All"]}, {"conceptId": "C151036", "definition": "Paced Tapping - The variance of the intertap interval within the tone-paced tapping phase across all trials (in milliseconds).", "preferredTerm": "Paced Tapping - Variance Interval Tone All", "submissionValue": "PTAP105E", "synonyms": ["PTAP1-Variance Interval Tone All"]}, {"conceptId": "C151037", "definition": "Paced Tapping - The standard deviation of the intertap intervals within the tone-paced tapping phase across all trials.", "preferredTerm": "Paced Tapping - Deviation Interval Tone All", "submissionValue": "PTAP105F", "synonyms": ["PTAP1-Deviation Interval Tone All"]}, {"conceptId": "C151038", "definition": "Paced Tapping - The reciprocal of the standard deviation of the intertap intervals within the tone-paced tapping phase across all trials.", "preferredTerm": "Paced Tapping - Reciprocal Interval Tone All", "submissionValue": "PTAP105G", "synonyms": ["PTAP1-Reciprocal Interval Tone All"]}, {"conceptId": "C151039", "definition": "Paced Tapping - The average signed deviation of the intertap intervals within the tone-paced tapping phase across all trials.", "preferredTerm": "Paced Tapping - Avg Sign Dev Interval Tone All", "submissionValue": "PTAP105H", "synonyms": ["PTAP1-Avg Sign Dev Interval Tone All"]}, {"conceptId": "C151040", "definition": "Paced Tapping - Total number of interlap intervals across all 4 trials administered (self-paced tapping phases).", "preferredTerm": "Paced Tapping - Total Interval Self Admin All", "submissionValue": "PTAP106", "synonyms": ["PTAP1-Total Interval Self Admin All"]}, {"conceptId": "C151041", "definition": "Paced Tapping - Total number of intertap intervals across all 4 trials that were trimmed before analysis (self-paced tapping phases).", "preferredTerm": "Paced Tapping - Total Interval Self Trim All", "submissionValue": "PTAP107", "synonyms": ["PTAP1-Total Interval Self Trim All"]}, {"conceptId": "C151042", "definition": "Paced Tapping - The minimum intertap interval within the self-paced tapping phase across all trials (in milliseconds).", "preferredTerm": "Paced Tapping - Minimum Interval Self All", "submissionValue": "PTAP107A", "synonyms": ["PTAP1-Minimum Interval Self All"]}, {"conceptId": "C151043", "definition": "Paced Tapping - The maximum intertap interval within the self-paced tapping phase across all trials (in milliseconds).", "preferredTerm": "Paced Tapping - Maximum Interval Self All", "submissionValue": "PTAP107B", "synonyms": ["PTAP1-Maximum Interval Self All"]}, {"conceptId": "C151044", "definition": "Paced Tapping - The mean intertap interval within the self-paced tapping phase across all trials (in milliseconds).", "preferredTerm": "Paced Tapping - Mean Interval Self All", "submissionValue": "PTAP107C", "synonyms": ["PTAP1-Mean Interval Self All"]}, {"conceptId": "C151045", "definition": "Paced Tapping - The median intertap interval within the self-paced tapping phase across all trials (in milliseconds).", "preferredTerm": "Paced Tapping - Median Interval Self All", "submissionValue": "PTAP107D", "synonyms": ["PTAP1-Median Interval Self All"]}, {"conceptId": "C151046", "definition": "Paced Tapping - The variance of the intertap interval within the self-paced tapping phase across all trials (in milliseconds).", "preferredTerm": "Paced Tapping - Variance Interval Self All", "submissionValue": "PTAP107E", "synonyms": ["PTAP1-Variance Interval Self All"]}, {"conceptId": "C151047", "definition": "Paced Tapping - The standard deviation of the intertap intervals within the self-paced tapping phase across all trials.", "preferredTerm": "Paced Tapping - Deviation Interval Self All", "submissionValue": "PTAP107F", "synonyms": ["PTAP1-Deviation Interval Self All"]}, {"conceptId": "C151048", "definition": "Paced Tapping - The reciprocal of the standard deviation of the intertap intervals within the self-paced tapping phase across all trials.", "preferredTerm": "Paced Tapping - Reciprocal Interval Self All", "submissionValue": "PTAP107G", "synonyms": ["PTAP1-Reciprocal Interval Self All"]}, {"conceptId": "C151049", "definition": "Paced Tapping - The average signed deviation of the intertap intervals within the self-paced tapping phase across all trials.", "preferredTerm": "Paced Tapping - Avg Sign Dev Interval Self All", "submissionValue": "PTAP107H", "synonyms": ["PTAP1-Avg Sign Dev Interval Self All"]}, {"conceptId": "C151050", "definition": "Paced Tapping - Number of trials expected to be administered in Trial n.", "preferredTerm": "Paced Tapping - Trials Expected in Trial", "submissionValue": "PTAP108", "synonyms": ["PTAP1-Trials Expected in Trial"]}, {"conceptId": "C151051", "definition": "Paced Tapping - Number of trials actually administered in Trial n.", "preferredTerm": "Paced Tapping - Trials Administered in Trial", "submissionValue": "PTAP109", "synonyms": ["PTAP1-Trials Administered in Trial"]}, {"conceptId": "C151052", "definition": "Paced Tapping - Number of trials actually completed in Trial n.", "preferredTerm": "Paced Tapping - Trials Completed in Trial", "submissionValue": "PTAP110", "synonyms": ["PTAP1-Trials Completed in Trial"]}, {"conceptId": "C151053", "definition": "Paced Tapping - Total number of intertap intervals expected for the tone-tapping phase of Trial n.", "preferredTerm": "Paced Tapping - Num Intervals Expected Tone Trial", "submissionValue": "PTAP111", "synonyms": ["PTAP1-Num Intervals Expected Tone Trial"]}, {"conceptId": "C151054", "definition": "Paced Tapping - Total number of intertap intervals within the tone-tapping phase of Trial n, that were trimmed before analysis.", "preferredTerm": "Paced Tapping - Num Intervals Trim Tone Trial", "submissionValue": "PTAP112", "synonyms": ["PTAP1-Num Intervals Trim Tone Trial"]}, {"conceptId": "C151055", "definition": "Paced Tapping - The minimum intertap interval within the tone-tapping phase of Trial n (in milliseconds).", "preferredTerm": "Paced Tapping - Minimum Interval Tone Trial", "submissionValue": "PTAP112A", "synonyms": ["PTAP1-Minimum Interval Tone Trial"]}, {"conceptId": "C151056", "definition": "Paced Tapping - The maximum intertap interval within the tone-tapping phase of Trial n (in milliseconds).", "preferredTerm": "Paced Tapping - Maximum Interval Tone Trial", "submissionValue": "PTAP112B", "synonyms": ["PTAP1-Maximum Interval Tone Trial"]}, {"conceptId": "C151057", "definition": "Paced Tapping - The mean intertap interval within the tone-tapping phase of Trial n (in milliseconds).", "preferredTerm": "Paced Tapping - Mean Interval Tone Trial", "submissionValue": "PTAP112C", "synonyms": ["PTAP1-Mean Interval Tone Trial"]}, {"conceptId": "C151058", "definition": "Paced Tapping - The median intertap interval within the tone-tapping phase of Trial n (in milliseconds).", "preferredTerm": "Paced Tapping - Median Interval Tone Trial", "submissionValue": "PTAP112D", "synonyms": ["PTAP1-Median Interval Tone Trial"]}, {"conceptId": "C151059", "definition": "Paced Tapping - The variance of the intertap interval within the tone-tapping phase of Trial n (in milliseconds).", "preferredTerm": "Paced Tapping - Variance Interval Tone Trial", "submissionValue": "PTAP112E", "synonyms": ["PTAP1-Variance Interval Tone Trial"]}, {"conceptId": "C151060", "definition": "Paced Tapping - The standard deviation of the intertap intervals within the tone-tapping phase of Trial n.", "preferredTerm": "Paced Tapping - Deviation Interval Tone Trial", "submissionValue": "PTAP112F", "synonyms": ["PTAP1-Deviation Interval Tone Trial"]}, {"conceptId": "C151061", "definition": "Paced Tapping - The reciprocal of the standard deviation of the intertap intervals within the tone-tapping phase of Trial n.", "preferredTerm": "Paced Tapping - Reciprocal Interval ToneTrial", "submissionValue": "PTAP112G", "synonyms": ["PTAP1-Reciprocal Interval ToneTrial"]}, {"conceptId": "C151062", "definition": "Paced Tapping - The average signed deviation of the intertap intervals within the tone-tapping phase of Trial n.", "preferredTerm": "Paced Tapping - Avg Sign Dev Interval Tone Trial", "submissionValue": "PTAP112H", "synonyms": ["PTAP1-Avg Sign Dev Interval Tone Trial"]}, {"conceptId": "C151063", "definition": "Paced Tapping - Total number of intertap intervals expected for the self-paced tapping phase of Trial n.", "preferredTerm": "Paced Tapping - Num Intervals Expected Self Trial", "submissionValue": "PTAP113", "synonyms": ["PTAP1-Num Intervals Expected Self Trial"]}, {"conceptId": "C151064", "definition": "Paced Tapping - Total number of intertap intervals within the self-paced tapping phase of Trial n, that were trimmed before analysis.", "preferredTerm": "Paced Tapping - Num Intervals Trim Self Trial", "submissionValue": "PTAP114", "synonyms": ["PTAP1-Num Intervals Trim Self Trial"]}, {"conceptId": "C151065", "definition": "Paced Tapping - The minimum intertap interval within the self-paced tapping phase of Trial n (in milliseconds).", "preferredTerm": "Paced Tapping - Minimum Interval Self Trial", "submissionValue": "PTAP114A", "synonyms": ["PTAP1-Minimum Interval Self Trial"]}, {"conceptId": "C151066", "definition": "Paced Tapping - The maximum intertap interval within the self-paced tapping phase of Trial n (in milliseconds).", "preferredTerm": "Paced Tapping - Maximum Interval Self Trial", "submissionValue": "PTAP114B", "synonyms": ["PTAP1-Maximum Interval Self Trial"]}, {"conceptId": "C151067", "definition": "Paced Tapping - The mean intertap interval within the self-paced tapping phase of Trial n (in milliseconds).", "preferredTerm": "Paced Tapping - Mean Interval Self Trial", "submissionValue": "PTAP114C", "synonyms": ["PTAP1-Mean Interval Self Trial"]}, {"conceptId": "C151068", "definition": "Paced Tapping - The median intertap interval within the self-paced tapping phase of Trial n (in milliseconds).", "preferredTerm": "Paced Tapping - Median Interval Self Trial", "submissionValue": "PTAP114D", "synonyms": ["PTAP1-Median Interval Self Trial"]}, {"conceptId": "C151069", "definition": "Paced Tapping - The variance of the intertap interval within the self-paced tapping phase of Trial n (in milliseconds).", "preferredTerm": "Paced Tapping - Variance Interval Self Trial", "submissionValue": "PTAP114E", "synonyms": ["PTAP1-Variance Interval Self Trial"]}, {"conceptId": "C151070", "definition": "Paced Tapping - The standard deviation of the intertap intervals within the self-paced tapping phase of Trial n.", "preferredTerm": "Paced Tapping - Deviation Interval Self Trial", "submissionValue": "PTAP114F", "synonyms": ["PTAP1-Deviation Interval Self Trial"]}, {"conceptId": "C151071", "definition": "Paced Tapping - The reciprocal of the standard deviation of the intertap intervals within the self-paced tapping phase of Trial n.", "preferredTerm": "Paced Tapping - Reciprocal Interval Self Trial", "submissionValue": "PTAP114G", "synonyms": ["PTAP1-Reciprocal Interval Self Trial"]}, {"conceptId": "C151072", "definition": "Paced Tapping - The average signed deviation of the intertap intervals within the self-paced tapping phase of Trial n.", "preferredTerm": "Paced Tapping - Avg Sign Dev Interval Self Trial", "submissionValue": "PTAP114H", "synonyms": ["PTAP1-Avg Sign Dev Interval Self Trial"]}]}