{"_links": {"parentPackage": {"href": "/mdr/ct/packages/sdtmct-2022-03-25", "title": "SDTM Controlled Terminology Package 49 Effective 2022-03-25", "type": "Terminology"}, "priorVersion": {"href": "/mdr/ct/packages/sdtmct-2021-12-17/codelists/C150813", "title": "CDISC SDTM CDAD Findings About Test Name Terminology", "type": "Code List"}, "rootItem": {"href": "/mdr/root/ct/sdtmct/codelists/C150813", "title": "Version-agnostic anchor resource for codelist C150813", "type": "Root Value Domain"}, "self": {"href": "/mdr/ct/packages/sdtmct-2022-03-25/codelists/C150813", "title": "CDISC SDTM CDAD Findings About Test Name Terminology", "type": "Code List"}}, "conceptId": "C150813", "definition": "Terminology relevant to the test names that describe findings about Clostridium difficile-associated diarrhea event or intervention.", "extensible": "true", "name": "CDAD Findings About Test Name", "preferredTerm": "CDISC SDTM CDAD Findings About Test Name Terminology", "submissionValue": "CDFATS", "synonyms": ["CDAD Findings About Test Name"], "terms": [{"conceptId": "C124281", "definition": "The total number of episodes that have occurred for the condition.", "preferredTerm": "Number of Episodes", "submissionValue": "Number of Episodes", "synonyms": ["Number of Episodes"]}, {"conceptId": "C25676", "definition": "The degree of something undesirable.", "preferredTerm": "Severity", "submissionValue": "Severity/Intensity", "synonyms": ["Severity/Intensity"]}, {"conceptId": "C74720", "definition": "A measurement of the volume of a biological specimen.", "preferredTerm": "Volume Measurement", "submissionValue": "Volume", "synonyms": ["Volume"]}]}