{"_links": {"parentPackage": {"href": "/mdr/ct/packages/sdtmct-2022-03-25", "title": "SDTM Controlled Terminology Package 49 Effective 2022-03-25", "type": "Terminology"}, "priorVersion": {"href": "/mdr/ct/packages/sdtmct-2021-12-17/codelists/C154454", "title": "CDISC Questionnaire NSCLC-SAQ Version 1.0 Test Name Terminology", "type": "Code List"}, "rootItem": {"href": "/mdr/root/ct/sdtmct/codelists/C154454", "title": "Version-agnostic anchor resource for codelist C154454", "type": "Root Value Domain"}, "self": {"href": "/mdr/ct/packages/sdtmct-2022-03-25/codelists/C154454", "title": "CDISC Questionnaire NSCLC-SAQ Version 1.0 Test Name Terminology", "type": "Code List"}}, "conceptId": "C154454", "definition": "Non-Small Cell Lung Cancer Symptom Assessment Questionnaire v1.0 test name.", "extensible": "false", "name": "Non-Small Cell Lung Cancer Symptom Assessment Questionnaire v1.0 Questionnaire Test Name", "preferredTerm": "CDISC Questionnaire NSCLC-SAQ Version 1.0 Test Name Terminology", "submissionValue": "NSCLC1TN", "synonyms": ["Non-Small Cell Lung Cancer Symptom Assessment Questionnaire v1.0 Questionnaire Test Name"], "terms": [{"conceptId": "C176210", "definition": "Non-Small Cell Lung Cancer Symptom Assessment Questionnaire v1.0 - Appetite domain subscore.", "preferredTerm": "NSCLC-SAQ Version 1.0 - Appetite Domain Subscore", "submissionValue": "NSCLC1-Appetite Domain Subscore", "synonyms": ["NSCLC1-Appetite Domain Subscore"]}, {"conceptId": "C176206", "definition": "Non-Small Cell Lung Cancer Symptom Assessment Questionnaire v1.0 - Cough domain subscore.", "preferredTerm": "NSCLC-SAQ Version 1.0 - Cough Domain Subscore", "submissionValue": "NSCLC1-Cough Domain Subscore", "synonyms": ["NSCLC1-Cough Domain Subscore"]}, {"conceptId": "C176209", "definition": "Non-Small Cell Lung Cancer Symptom Assessment Questionnaire v1.0 - Dyspnea domain subscore.", "preferredTerm": "NSCLC-SAQ Version 1.0 - Dyspnea Domain Subscore", "submissionValue": "NSCLC1-Dyspnea Domain Subscore", "synonyms": ["NSCLC1-Dyspnea Domain Subscore"]}, {"conceptId": "C176207", "definition": "Non-Small Cell Lung Cancer Symptom Assessment Questionnaire v1.0 - Fatigue domain subscore.", "preferredTerm": "NSCLC-SAQ Version 1.0 - Fatigue Domain Subscore", "submissionValue": "NSCLC1-Fatigue Domain Subscore", "synonyms": ["NSCLC1-Fatigue Domain Subscore"]}, {"conceptId": "C155625", "definition": "Non-Small Cell Lung Cancer Symptom Assessment Questionnaire v1.0 - How often did you have low energy over the last 7 days?", "preferredTerm": "NSCLC-SAQ Version 1.0 - How Often Low Energy", "submissionValue": "NSCLC1-How Often Low Energy", "synonyms": ["NSCLC1-How Often Low Energy"]}, {"conceptId": "C155627", "definition": "Non-Small Cell Lung Cancer Symptom Assessment Questionnaire v1.0 - How often did you have a poor appetite over the last 7 days?", "preferredTerm": "NSCLC-SAQ Version 1.0 - How Often Poor Appetite", "submissionValue": "NSCLC1-How Often Poor Appetite", "synonyms": ["NSCLC1-How Often Poor Appetite"]}, {"conceptId": "C155626", "definition": "Non-Small Cell Lung Cancer Symptom Assessment Questionnaire v1.0 - How often did you tire easily over the last 7 days?", "preferredTerm": "NSCLC-SAQ Version 1.0 - How Often Tire Easily", "submissionValue": "NSCLC1-How Often Tire Easily", "synonyms": ["NSCLC1-How Often Tire Easily"]}, {"conceptId": "C176208", "definition": "Non-Small Cell Lung Cancer Symptom Assessment Questionnaire v1.0 - Pain domain subscore.", "preferredTerm": "NSCLC-SAQ Version 1.0 - Pain Domain Subscore", "submissionValue": "NSCLC1-Pain Domain Subscore", "synonyms": ["NSCLC1-Pain Domain Subscore"]}, {"conceptId": "C155621", "definition": "Non-Small Cell Lung Cancer Symptom Assessment Questionnaire v1.0 - How would you rate your coughing at its worst over the last 7 days?", "preferredTerm": "NSCLC-SAQ Version 1.0 - Rate Coughing at Worst", "submissionValue": "NSCLC1-Rate Coughing at Worst", "synonyms": ["NSCLC1-Rate Coughing at Worst"]}, {"conceptId": "C155622", "definition": "Non-Small Cell Lung Cancer Symptom Assessment Questionnaire v1.0 - How would you rate the worst pain in your chest over the last 7 days?", "preferredTerm": "NSCLC-SAQ Version 1.0 - Rate Worst Pain in Chest", "submissionValue": "NSCLC1-Rate Worst Pain in Chest", "synonyms": ["NSCLC1-Rate Worst Pain in Chest"]}, {"conceptId": "C155623", "definition": "Non-Small Cell Lung Cancer Symptom Assessment Questionnaire v1.0 - How would you rate the worst pain in areas other than your chest over the last 7 days?", "preferredTerm": "NSCLC-SAQ Version 1.0 - Rate Worst Pain Other Than Chest", "submissionValue": "NSCLC1-Rate Worst Pain Other Than Chest", "synonyms": ["NSCLC1-Rate Worst Pain Other Than Chest"]}, {"conceptId": "C155624", "definition": "Non-Small Cell Lung Cancer Symptom Assessment Questionnaire v1.0 - How often did you feel short of breath during usual activities over the last 7 days?", "preferredTerm": "NSCLC-SAQ Version 1.0 - Short of Breath Usual Activities", "submissionValue": "NSCLC1-Short of Breath Usual Activities", "synonyms": ["NSCLC1-Short of Breath Usual Activities"]}, {"conceptId": "C155628", "definition": "Non-Small Cell Lung Cancer Symptom Assessment Questionnaire v1.0 - Total score.", "preferredTerm": "NSCLC-SAQ Version 1.0 - Total Score", "submissionValue": "NSCLC1-Total Score", "synonyms": ["NSCLC1-Total Score"]}]}