{"_links": {"parentPackage": {"href": "/mdr/ct/packages/sdtmct-2022-03-25", "title": "SDTM Controlled Terminology Package 49 Effective 2022-03-25", "type": "Terminology"}, "priorVersion": {"href": "/mdr/ct/packages/sdtmct-2021-12-17/codelists/C166189", "title": "CDISC Functional Test RFWT Version 1 Test Name Terminology", "type": "Code List"}, "rootItem": {"href": "/mdr/root/ct/sdtmct/codelists/C166189", "title": "Version-agnostic anchor resource for codelist C166189", "type": "Root Value Domain"}, "self": {"href": "/mdr/ct/packages/sdtmct-2022-03-25/codelists/C166189", "title": "CDISC Functional Test RFWT Version 1 Test Name Terminology", "type": "Code List"}}, "conceptId": "C166189", "definition": "Rockport One Mile Walk Test Version 1.0 test name.", "extensible": "false", "name": "Rockport One Mile Walk Test Version 1.0 Functional Test Test Name", "preferredTerm": "CDISC Functional Test RFWT Version 1 Test Name Terminology", "submissionValue": "ROCK01TN", "synonyms": ["Rockport One Mile Walk Test Version 1.0 Functional Test Test Name"], "terms": [{"conceptId": "C166338", "definition": "Rockport One Mile Walk Test - Time to complete one-mile walk.", "preferredTerm": "RFWT Version 1 - Time To Complete One Mile Walk", "submissionValue": "ROCK01-Time To Complete One Mile Walk", "synonyms": ["ROCK01-Time To Complete One Mile Walk"]}]}