{"_links": {"parentPackage": {"href": "/mdr/ct/packages/sdtmct-2022-03-25", "title": "SDTM Controlled Terminology Package 49 Effective 2022-03-25", "type": "Terminology"}, "priorVersion": {"href": "/mdr/ct/packages/sdtmct-2021-12-17/codelists/C172399", "title": "CDISC Questionnaire EORTC QLQ-LC13 Test Name Terminology", "type": "Code List"}, "rootItem": {"href": "/mdr/root/ct/sdtmct/codelists/C172399", "title": "Version-agnostic anchor resource for codelist C172399", "type": "Root Value Domain"}, "self": {"href": "/mdr/ct/packages/sdtmct-2022-03-25/codelists/C172399", "title": "CDISC Questionnaire EORTC QLQ-LC13 Test Name Terminology", "type": "Code List"}}, "conceptId": "C172399", "definition": "European Organisation for the Research and Treatment of Cancer Quality of Life Questionnaire - Lung Cancer Module test name.", "extensible": "false", "name": "European Organisation for the Research and Treatment of Cancer Quality of Life Questionnaire - Lung Cancer Module Questionnaire Test Name", "preferredTerm": "CDISC Questionnaire EORTC QLQ-LC13 Test Name Terminology", "submissionValue": "EOR18TN", "synonyms": ["European Organisation for the Research and Treatment of Cancer Quality of Life Questionnaire - Lung Cancer Module Questionnaire Test Name"], "terms": [{"conceptId": "C172404", "definition": "European Organisation for the Research and Treatment of Cancer Quality of Life Questionnaire - Lung Cancer Module - Did you cough up blood?", "preferredTerm": "EORTC QLQ-LC13 - Did You Cough Up Blood", "submissionValue": "EOR18-Did You Cough Up Blood", "synonyms": ["EOR18-Did You Cough Up Blood"]}, {"conceptId": "C172416", "definition": "European Organisation for the Research and Treatment of Cancer Quality of Life Questionnaire - Lung Cancer Module - Did you take any medicine for pain?", "preferredTerm": "EORTC QLQ-LC13 - Did You Take Any Medicine for Pain", "submissionValue": "EOR18-Did You Take Any Medicine for Pain", "synonyms": ["EOR18-Did You Take Any Medicine for Pain"]}, {"conceptId": "C172408", "definition": "European Organisation for the Research and Treatment of Cancer Quality of Life Questionnaire - Lung Cancer Module - Have you had a sore mouth or tongue?", "preferredTerm": "EORTC QLQ-LC13 - Had a Sore Mouth or Tongue", "submissionValue": "EOR18-Had a Sore Mouth or Tongue", "synonyms": ["EOR18-Had a Sore Mouth or Tongue"]}, {"conceptId": "C172414", "definition": "European Organisation for the Research and Treatment of Cancer Quality of Life Questionnaire - Lung Cancer Module - Have you had pain in other parts of your body?", "preferredTerm": "EORTC QLQ-LC13 - Had Pain in Other Parts of Body", "submissionValue": "EOR18-Had Pain in Other Parts of Body", "synonyms": ["EOR18-Had Pain in Other Parts of Body"]}, {"conceptId": "C172413", "definition": "European Organisation for the Research and Treatment of Cancer Quality of Life Questionnaire - Lung Cancer Module - Have you had pain in your arm or shoulder?", "preferredTerm": "EORTC QLQ-LC13 - Had Pain in Your Arm or Shoulder", "submissionValue": "EOR18-Had Pain in Your Arm or Shoulder", "synonyms": ["EOR18-Had Pain in Your Arm or Shoulder"]}, {"conceptId": "C172410", "definition": "European Organisation for the Research and Treatment of Cancer Quality of Life Questionnaire - Lung Cancer Module - Have you had tingling hands or feet?", "preferredTerm": "EORTC QLQ-LC13 - Had Tingling Hands or Feet", "submissionValue": "EOR18-Had Tingling Hands or Feet", "synonyms": ["EOR18-Had Tingling Hands or Feet"]}, {"conceptId": "C172411", "definition": "European Organisation for the Research and Treatment of Cancer Quality of Life Questionnaire - Lung Cancer Module - Have you had hair loss?", "preferredTerm": "EORTC QLQ-LC13 - Have You Had Hair Loss", "submissionValue": "EOR18-Have You Had Hair Loss", "synonyms": ["EOR18-Have You Had Hair Loss"]}, {"conceptId": "C172412", "definition": "European Organisation for the Research and Treatment of Cancer Quality of Life Questionnaire - Lung Cancer Module - Have you had pain in your chest?", "preferredTerm": "EORTC QLQ-LC13 - Have You Had Pain in Your Chest", "submissionValue": "EOR18-Have You Had Pain in Your Chest", "synonyms": ["EOR18-Have You Had Pain in Your Chest"]}, {"conceptId": "C172409", "definition": "European Organisation for the Research and Treatment of Cancer Quality of Life Questionnaire - Lung Cancer Module - Have you had trouble swallowing?", "preferredTerm": "EORTC QLQ-LC13 - Have You Had Trouble Swallowing", "submissionValue": "EOR18-Have You Had Trouble Swallowing", "synonyms": ["EOR18-Have You Had Trouble Swallowing"]}, {"conceptId": "C172403", "definition": "European Organisation for the Research and Treatment of Cancer Quality of Life Questionnaire - Lung Cancer Module - How much did you cough?", "preferredTerm": "EORTC QLQ-LC13 - How Much Did You Cough", "submissionValue": "EOR18-How Much Did You Cough", "synonyms": ["EOR18-How Much Did You Cough"]}, {"conceptId": "C172417", "definition": "European Organisation for the Research and Treatment of Cancer Quality of Life Questionnaire - Lung Cancer Module - If yes, how much did it help?", "preferredTerm": "EORTC QLQ-LC13 - If Yes, How Much Did It Help", "submissionValue": "EOR18-If Yes, How Much Did It Help", "synonyms": ["EOR18-If Yes, How Much Did It Help"]}, {"conceptId": "C172415", "definition": "European Organisation for the Research and Treatment of Cancer Quality of Life Questionnaire - Lung Cancer Module - If yes, where.", "preferredTerm": "EORTC QLQ-LC13 - If Yes, Where", "submissionValue": "EOR18-If Yes, Where", "synonyms": ["EOR18-If Yes, Where"]}, {"conceptId": "C172407", "definition": "European Organisation for the Research and Treatment of Cancer Quality of Life Questionnaire - Lung Cancer Module - Were you short of breath when you climbed stairs?", "preferredTerm": "EORTC QLQ-LC13 - Short of Breath Climbed Stairs", "submissionValue": "EOR18-Short of Breath Climbed Stairs", "synonyms": ["EOR18-Short of Breath Climbed Stairs"]}, {"conceptId": "C172405", "definition": "European Organisation for the Research and Treatment of Cancer Quality of Life Questionnaire - Lung Cancer Module - Were you short of breath when you rested?", "preferredTerm": "EORTC QLQ-LC13 - Short of Breath When Rested", "submissionValue": "EOR18-Short of Breath When Rested", "synonyms": ["EOR18-Short of Breath When Rested"]}, {"conceptId": "C172406", "definition": "European Organisation for the Research and Treatment of Cancer Quality of Life Questionnaire - Lung Cancer Module - Were you short of breath when you walked?", "preferredTerm": "EORTC QLQ-LC13 - Short of Breath When Walked", "submissionValue": "EOR18-Short of Breath When Walked", "synonyms": ["EOR18-Short of Breath When Walked"]}]}