{"_links": {"parentPackage": {"href": "/mdr/ct/packages/sdtmct-2022-03-25", "title": "SDTM Controlled Terminology Package 49 Effective 2022-03-25", "type": "Terminology"}, "priorVersion": {"href": "/mdr/ct/packages/sdtmct-2021-12-17/codelists/C176047", "title": "CDISC Clinical Classification APGAR Score Version 1 Test Code Terminology", "type": "Code List"}, "rootItem": {"href": "/mdr/root/ct/sdtmct/codelists/C176047", "title": "Version-agnostic anchor resource for codelist C176047", "type": "Root Value Domain"}, "self": {"href": "/mdr/ct/packages/sdtmct-2022-03-25/codelists/C176047", "title": "CDISC Clinical Classification APGAR Score Version 1 Test Code Terminology", "type": "Code List"}}, "conceptId": "C176047", "definition": "Apgar Score V1 test code.", "extensible": "false", "name": "Apgar Score V1 Clinical Classification Test Code", "preferredTerm": "CDISC Clinical Classification APGAR Score Version 1 Test Code Terminology", "submissionValue": "APGR01TC", "synonyms": ["Apgar Score V1 Clinical Classification Test Code"], "terms": [{"conceptId": "C176061", "definition": "Apgar Score V1 - Appearance, skin color, or color score.", "preferredTerm": "Apgar Score Version 1 - Appearance or Color", "submissionValue": "APGR0101", "synonyms": ["APGR01-Appearance/Color"]}, {"conceptId": "C176062", "definition": "Apgar Score V1 - Pulse or heart rate score.", "preferredTerm": "Apgar Score Version 1 - Pulse or Heart Rate", "submissionValue": "APGR0102", "synonyms": ["APGR01-Pulse/Heart Rate"]}, {"conceptId": "C176063", "definition": "Apgar Score V1 - Grimace or reflex irritability score.", "preferredTerm": "Apgar Score Version 1 - Grimace or Reflex Irritability", "submissionValue": "APGR0103", "synonyms": ["APGR01-Grimace/Reflex Irritability"]}, {"conceptId": "C176064", "definition": "Apgar Score V1 - Activity or muscle tone score.", "preferredTerm": "Apgar Score Version 1 - Activity or Muscle Tone", "submissionValue": "APGR0104", "synonyms": ["APGR01-Activity/Muscle Tone"]}, {"conceptId": "C176065", "definition": "Apgar Score V1 - Respiration or respiratory effort score.", "preferredTerm": "Apgar Score Version 1 - Respiration or Respiratory Effort", "submissionValue": "APGR0105", "synonyms": ["APGR01-Respiration/Respiratory Effort"]}, {"conceptId": "C176066", "definition": "Apgar Score V1 - Total Apgar score.", "preferredTerm": "Apgar Score Version 1 - Total Apgar Score", "submissionValue": "APGR0106", "synonyms": ["APGR01-Total Apgar Score"]}]}