{"_links": {"parentPackage": {"href": "/mdr/ct/packages/sdtmct-2022-03-25", "title": "SDTM Controlled Terminology Package 49 Effective 2022-03-25", "type": "Terminology"}, "priorVersion": {"href": "/mdr/ct/packages/sdtmct-2021-12-17/codelists/C179937", "title": "CDISC Questionnaire FAACT Version 4 Test Name Terminology", "type": "Code List"}, "rootItem": {"href": "/mdr/root/ct/sdtmct/codelists/C179937", "title": "Version-agnostic anchor resource for codelist C179937", "type": "Root Value Domain"}, "self": {"href": "/mdr/ct/packages/sdtmct-2022-03-25/codelists/C179937", "title": "CDISC Questionnaire FAACT Version 4 Test Name Terminology", "type": "Code List"}}, "conceptId": "C179937", "definition": "Functional Assessment of Anorexia/Cachexia Treatment Version 4 test name.", "extensible": "false", "name": "Functional Assessment of Anorexia/Cachexia Treatment Version 4 Questionnaire Test Name", "preferredTerm": "CDISC Questionnaire FAACT Version 4 Test Name Terminology", "submissionValue": "FAC065TN", "synonyms": ["Functional Assessment of Anorexia/Cachexia Treatment Version 4 Questionnaire Test Name"], "terms": [{"conceptId": "C180019", "definition": "Functional Assessment of Anorexia/Cachexia Treatment Version 4 - Additional Concerns: Well-Being subscale score.", "preferredTerm": "FAACT Version 4 - Additional Concern Subscale Score", "submissionValue": "FAC065-Additional Concern Subscale Score", "synonyms": ["FAC065-Additional Concern Subscale Score"]}, {"conceptId": "C180004", "definition": "Functional Assessment of Anorexia/Cachexia Treatment Version 4 - The amount I eat is sufficient to meet my needs.", "preferredTerm": "FAACT Version 4 - Amount I Eat Is Sufficient", "submissionValue": "FAC065-Amount I Eat Is Sufficient", "synonyms": ["FAC065-Amount I Eat Is Sufficient"]}, {"conceptId": "C179980", "definition": "Functional Assessment of Anorexia/Cachexia Treatment Version 4 - I am bothered by side effects of treatment.", "preferredTerm": "FAACT Version 4 - Bothered by Treatment Side Effect", "submissionValue": "FAC065-Bothered by Treatment Side Effect", "synonyms": ["FAC065-Bothered by Treatment Side Effect"]}, {"conceptId": "C180002", "definition": "Functional Assessment of Anorexia/Cachexia Treatment Version 4 - I am content with the quality of my life right now.", "preferredTerm": "FAACT Version 4 - Content With Quality of My Life", "submissionValue": "FAC065-Content With Quality of My Life", "synonyms": ["FAC065-Content With Quality of My Life"]}, {"conceptId": "C180017", "definition": "Functional Assessment of Anorexia/Cachexia Treatment Version 4 - Emotional Well-Being: Subscale score.", "preferredTerm": "FAACT Version 4 - Emotional Subscale Score", "submissionValue": "FAC065-Emotional Subscale Score", "synonyms": ["FAC065-Emotional Subscale Score"]}, {"conceptId": "C180001", "definition": "Functional Assessment of Anorexia/Cachexia Treatment Version 4 - I am enjoying the things I usually do for fun.", "preferredTerm": "FAACT Version 4 - Enjoy Things I Usually Do for Fun", "submissionValue": "FAC065-Enjoy Things I Usually Do for Fun", "synonyms": ["FAC065-Enjoy Things I Usually Do for Fun"]}, {"conceptId": "C180021", "definition": "Functional Assessment of Anorexia/Cachexia Treatment Version 4 - FACT-G total score.", "preferredTerm": "FAACT Version 4 - FACT-G Total Score", "submissionValue": "FAC065-FACT-G Total Score", "synonyms": ["FAC065-FACT-G Total Score"]}, {"conceptId": "C180018", "definition": "Functional Assessment of Anorexia/Cachexia Treatment Version 4 - Functional Well-Being: Subscale score.", "preferredTerm": "FAACT Version 4 - Functional Subscale Score", "submissionValue": "FAC065-Functional Subscale Score", "synonyms": ["FAC065-Functional Subscale Score"]}, {"conceptId": "C179984", "definition": "Functional Assessment of Anorexia/Cachexia Treatment Version 4 - I get emotional support from my family.", "preferredTerm": "FAACT Version 4 - Get Emotional Support From Family", "submissionValue": "FAC065-Get Emotional Support From Family", "synonyms": ["FAC065-Get Emotional Support From Family"]}, {"conceptId": "C180009", "definition": "Functional Assessment of Anorexia/Cachexia Treatment Version 4 - I have difficulty eating rich or \"heavy\" foods.", "preferredTerm": "FAACT Version 4 - Have Difficulty Eating Rich Foods", "submissionValue": "FAC065-Have Difficulty Eating Rich Foods", "synonyms": ["FAC065-Have Difficulty Eating Rich Foods"]}, {"conceptId": "C179998", "definition": "Functional Assessment of Anorexia/Cachexia Treatment Version 4 - I am able to enjoy life.", "preferredTerm": "FAACT Version 4 - I Am Able to Enjoy Life", "submissionValue": "FAC065-I Am Able to Enjoy Life", "synonyms": ["FAC065-I Am Able to Enjoy Life"]}, {"conceptId": "C179996", "definition": "Functional Assessment of Anorexia/Cachexia Treatment Version 4 - I am able to work (include work at home).", "preferredTerm": "FAACT Version 4 - I Am Able to Work", "submissionValue": "FAC065-I Am Able to Work", "synonyms": ["FAC065-I Am Able to Work"]}, {"conceptId": "C180007", "definition": "Functional Assessment of Anorexia/Cachexia Treatment Version 4 - I am concerned about how thin I look.", "preferredTerm": "FAACT Version 4 - I Am Concerned How Thin I Look", "submissionValue": "FAC065-I Am Concerned How Thin I Look", "synonyms": ["FAC065-I Am Concerned How Thin I Look"]}, {"conceptId": "C179982", "definition": "Functional Assessment of Anorexia/Cachexia Treatment Version 4 - I am forced to spend time in bed.", "preferredTerm": "FAACT Version 4 - I Am Forced to Spend Time in Bed", "submissionValue": "FAC065-I Am Forced to Spend Time in Bed", "synonyms": ["FAC065-I Am Forced to Spend Time in Bed"]}, {"conceptId": "C179989", "definition": "Functional Assessment of Anorexia/Cachexia Treatment Version 4 - I am satisfied with my sex life.", "preferredTerm": "FAACT Version 4 - I Am Satisfied With My Sex Life", "submissionValue": "FAC065-I Am Satisfied With My Sex Life", "synonyms": ["FAC065-I Am Satisfied With My Sex Life"]}, {"conceptId": "C180000", "definition": "Functional Assessment of Anorexia/Cachexia Treatment Version 4 - I am sleeping well.", "preferredTerm": "FAACT Version 4 - I Am Sleeping Well", "submissionValue": "FAC065-I Am Sleeping Well", "synonyms": ["FAC065-I Am Sleeping Well"]}, {"conceptId": "C180005", "definition": "Functional Assessment of Anorexia/Cachexia Treatment Version 4 - I am worried about my weight.", "preferredTerm": "FAACT Version 4 - I Am Worried About My Weight", "submissionValue": "FAC065-I Am Worried About My Weight", "synonyms": ["FAC065-I Am Worried About My Weight"]}, {"conceptId": "C179983", "definition": "Functional Assessment of Anorexia/Cachexia Treatment Version 4 - I feel close to my friends.", "preferredTerm": "FAACT Version 4 - I Feel Close to My Friends", "submissionValue": "FAC065-I Feel Close to My Friends", "synonyms": ["FAC065-I Feel Close to My Friends"]}, {"conceptId": "C179988", "definition": "Functional Assessment of Anorexia/Cachexia Treatment Version 4 - I feel close to my partner (or the person who is my main support).", "preferredTerm": "FAACT Version 4 - I Feel Close to My Partner", "submissionValue": "FAC065-I Feel Close to My Partner", "synonyms": ["FAC065-I Feel Close to My Partner"]}, {"conceptId": "C179981", "definition": "Functional Assessment of Anorexia/Cachexia Treatment Version 4 - I feel ill.", "preferredTerm": "FAACT Version 4 - I Feel Ill", "submissionValue": "FAC065-I Feel Ill", "synonyms": ["FAC065-I Feel Ill"]}, {"conceptId": "C179993", "definition": "Functional Assessment of Anorexia/Cachexia Treatment Version 4 - I feel nervous.", "preferredTerm": "FAACT Version 4 - I Feel Nervous", "submissionValue": "FAC065-I Feel Nervous", "synonyms": ["FAC065-I Feel Nervous"]}, {"conceptId": "C179990", "definition": "Functional Assessment of Anorexia/Cachexia Treatment Version 4 - I feel sad.", "preferredTerm": "FAACT Version 4 - I Feel Sad", "submissionValue": "FAC065-I Feel Sad", "synonyms": ["FAC065-I Feel Sad"]}, {"conceptId": "C179985", "definition": "Functional Assessment of Anorexia/Cachexia Treatment Version 4 - I get support from my friends.", "preferredTerm": "FAACT Version 4 - I Get Support From My Friends", "submissionValue": "FAC065-I Get Support From My Friends", "synonyms": ["FAC065-I Get Support From My Friends"]}, {"conceptId": "C180003", "definition": "Functional Assessment of Anorexia/Cachexia Treatment Version 4 - I have a good appetite.", "preferredTerm": "FAACT Version 4 - I Have a Good Appetite", "submissionValue": "FAC065-I Have a Good Appetite", "synonyms": ["FAC065-I Have a Good Appetite"]}, {"conceptId": "C179976", "definition": "Functional Assessment of Anorexia/Cachexia Treatment Version 4 - I have a lack of energy.", "preferredTerm": "FAACT Version 4 - I Have a Lack of Energy", "submissionValue": "FAC065-I Have a Lack of Energy", "synonyms": ["FAC065-I Have a Lack of Energy"]}, {"conceptId": "C179999", "definition": "Functional Assessment of Anorexia/Cachexia Treatment Version 4 - I have accepted my illness.", "preferredTerm": "FAACT Version 4 - I Have Accepted My Illness", "submissionValue": "FAC065-I Have Accepted My Illness", "synonyms": ["FAC065-I Have Accepted My Illness"]}, {"conceptId": "C180011", "definition": "Functional Assessment of Anorexia/Cachexia Treatment Version 4 - I have been vomiting.", "preferredTerm": "FAACT Version 4 - I Have Been Vomiting", "submissionValue": "FAC065-I Have Been Vomiting", "synonyms": ["FAC065-I Have Been Vomiting"]}, {"conceptId": "C179977", "definition": "Functional Assessment of Anorexia/Cachexia Treatment Version 4 - I have nausea.", "preferredTerm": "FAACT Version 4 - I Have Nausea", "submissionValue": "FAC065-I Have Nausea", "synonyms": ["FAC065-I Have Nausea"]}, {"conceptId": "C180013", "definition": "Functional Assessment of Anorexia/Cachexia Treatment Version 4 - I have pain in my stomach area.", "preferredTerm": "FAACT Version 4 - I Have Pain in My Stomach Area", "submissionValue": "FAC065-I Have Pain in My Stomach Area", "synonyms": ["FAC065-I Have Pain in My Stomach Area"]}, {"conceptId": "C179979", "definition": "Functional Assessment of Anorexia/Cachexia Treatment Version 4 - I have pain.", "preferredTerm": "FAACT Version 4 - I Have Pain", "submissionValue": "FAC065-I Have Pain", "synonyms": ["FAC065-I Have Pain"]}, {"conceptId": "C180012", "definition": "Functional Assessment of Anorexia/Cachexia Treatment Version 4 - When I eat, I seem to get full quickly.", "preferredTerm": "FAACT Version 4 - I Seem to Get Full Quickly", "submissionValue": "FAC065-I Seem to Get Full Quickly", "synonyms": ["FAC065-I Seem to Get Full Quickly"]}, {"conceptId": "C179994", "definition": "Functional Assessment of Anorexia/Cachexia Treatment Version 4 - I worry about dying.", "preferredTerm": "FAACT Version 4 - I Worry About Dying", "submissionValue": "FAC065-I Worry About Dying", "synonyms": ["FAC065-I Worry About Dying"]}, {"conceptId": "C180008", "definition": "Functional Assessment of Anorexia/Cachexia Treatment Version 4 - My interest in food drops as soon as I try to eat.", "preferredTerm": "FAACT Version 4 - Interest in Food Drops Try to Eat", "submissionValue": "FAC065-Interest in Food Drops Try to Eat", "synonyms": ["FAC065-Interest in Food Drops Try to Eat"]}, {"conceptId": "C179992", "definition": "Functional Assessment of Anorexia/Cachexia Treatment Version 4 - I am losing hope in the fight against my illness.", "preferredTerm": "FAACT Version 4 - Losing Hope Against Illness", "submissionValue": "FAC065-Losing Hope Against Illness", "synonyms": ["FAC065-Losing Hope Against Illness"]}, {"conceptId": "C180006", "definition": "Functional Assessment of Anorexia/Cachexia Treatment Version 4 - Most food tastes unpleasant to me.", "preferredTerm": "FAACT Version 4 - Most Food Tastes Unpleasant to Me", "submissionValue": "FAC065-Most Food Tastes Unpleasant to Me", "synonyms": ["FAC065-Most Food Tastes Unpleasant to Me"]}, {"conceptId": "C179986", "definition": "Functional Assessment of Anorexia/Cachexia Treatment Version 4 - My family accepts my illness.", "preferredTerm": "FAACT Version 4 - My Family Has Accepted My Illness", "submissionValue": "FAC065-My Family Has Accepted My Illness", "synonyms": ["FAC065-My Family Has Accepted My Illness"]}, {"conceptId": "C180010", "definition": "Functional Assessment of Anorexia/Cachexia Treatment Version 4 - My family or friends are pressuring me to eat.", "preferredTerm": "FAACT Version 4 - My Family Pressuring Me to Eat", "submissionValue": "FAC065-My Family Pressuring Me to Eat", "synonyms": ["FAC065-My Family Pressuring Me to Eat"]}, {"conceptId": "C180014", "definition": "Functional Assessment of Anorexia/Cachexia Treatment Version 4 - My general health is improving.", "preferredTerm": "FAACT Version 4 - My General Health Is Improving", "submissionValue": "FAC065-My General Health Is Improving", "synonyms": ["FAC065-My General Health Is Improving"]}, {"conceptId": "C179997", "definition": "Functional Assessment of Anorexia/Cachexia Treatment Version 4 - My work (include work at home) is fulfilling.", "preferredTerm": "FAACT Version 4 - My Work Is Fulfilling", "submissionValue": "FAC065-My Work Is Fulfilling", "synonyms": ["FAC065-My Work Is Fulfilling"]}, {"conceptId": "C180015", "definition": "Functional Assessment of Anorexia/Cachexia Treatment Version 4 - Physical Well-Being: Subscale score.", "preferredTerm": "FAACT Version 4 - Physical Subscale Score", "submissionValue": "FAC065-Physical Subscale Score", "synonyms": ["FAC065-Physical Subscale Score"]}, {"conceptId": "C179987", "definition": "Functional Assessment of Anorexia/Cachexia Treatment Version 4 - I am satisfied with family communication about my illness.", "preferredTerm": "FAACT Version 4 - Satisfied Communication Illness", "submissionValue": "FAC065-Satisfied Communication Illness", "synonyms": ["FAC065-Satisfied Communication Illness"]}, {"conceptId": "C179991", "definition": "Functional Assessment of Anorexia/Cachexia Treatment Version 4 - I am satisfied with how I am coping with my illness.", "preferredTerm": "FAACT Version 4 - Satisfied With How I Am Coping", "submissionValue": "FAC065-Satisfied With How I Am Coping", "synonyms": ["FAC065-Satisfied With How I Am Coping"]}, {"conceptId": "C180016", "definition": "Functional Assessment of Anorexia/Cachexia Treatment Version 4 - Social/Family Well-Being: Subscale score.", "preferredTerm": "FAACT Version 4 - Social/Family Subscale Score", "submissionValue": "FAC065-Social/Family Subscale Score", "synonyms": ["FAC065-Social/Family Subscale Score"]}, {"conceptId": "C180022", "definition": "Functional Assessment of Anorexia/Cachexia Treatment Version 4 - Total score.", "preferredTerm": "FAACT Version 4 - Total Score", "submissionValue": "FAC065-Total Score", "synonyms": ["FAC065-Total Score"]}, {"conceptId": "C180020", "definition": "Functional Assessment of Anorexia/Cachexia Treatment Version 4 - FAACT trial outcome index.", "preferredTerm": "FAACT Version 4 - Trial Outcome Index Score", "submissionValue": "FAC065-Trial Outcome Index Score", "synonyms": ["FAC065-Trial Outcome Index Score"]}, {"conceptId": "C179978", "definition": "Functional Assessment of Anorexia/Cachexia Treatment Version 4 - Because of my physical condition, I have trouble meeting the needs of my family.", "preferredTerm": "FAACT Version 4 - Trouble Meeting Needs of Family", "submissionValue": "FAC065-Trouble Meeting Needs of Family", "synonyms": ["FAC065-Trouble Meeting Needs of Family"]}, {"conceptId": "C179995", "definition": "Functional Assessment of Anorexia/Cachexia Treatment Version 4 - I worry that my condition will get worse.", "preferredTerm": "FAACT Version 4 - Worry My Condition Will Get Worse", "submissionValue": "FAC065-Worry My Condition Will Get Worse", "synonyms": ["FAC065-Worry My Condition Will Get Worse"]}]}