{"_links": {"parentPackage": {"href": "/mdr/ct/packages/sdtmct-2022-03-25", "title": "SDTM Controlled Terminology Package 49 Effective 2022-03-25", "type": "Terminology"}, "priorVersion": {"href": "/mdr/ct/packages/sdtmct-2021-12-17/codelists/C179948", "title": "CDISC Questionnaire Combat Exposure Scale CES0104 Original Response Terminology", "type": "Code List"}, "rootItem": {"href": "/mdr/root/ct/sdtmct/codelists/C179948", "title": "Version-agnostic anchor resource for codelist C179948", "type": "Root Value Domain"}, "self": {"href": "/mdr/ct/packages/sdtmct-2022-03-25/codelists/C179948", "title": "CDISC Questionnaire Combat Exposure Scale CES0104 Original Response Terminology", "type": "Code List"}}, "conceptId": "C179948", "definition": "Combat Exposure Scale original result for CES0104 test and test code.", "extensible": "false", "name": "Combat Exposure Scale Questionnaire ORRES for CES0104 TN/TC", "preferredTerm": "CDISC Questionnaire Combat Exposure Scale CES0104 Original Response Terminology", "submissionValue": "CES0104OR", "synonyms": ["Combat Exposure Scale Questionnaire ORRES for CES0104 TN/TC"], "terms": [{"conceptId": "C180277", "definition": "Combat Exposure Scale original result for CES0104-1-25%.", "preferredTerm": "Combat Exposure Scale CES0104 Original Result - 1-25%", "submissionValue": "1-25%", "synonyms": ["CES0104-1-25%"]}, {"conceptId": "C180278", "definition": "Combat Exposure Scale original result for CES0104-26-50%.", "preferredTerm": "Combat Exposure Scale CES0104 Original Result - 26-50%", "submissionValue": "26-50%", "synonyms": ["CES0104-26-50%"]}, {"conceptId": "C180279", "definition": "Combat Exposure Scale original result for CES0104-51-75%.", "preferredTerm": "Combat Exposure Scale CES0104 Original Result - 51-75%", "submissionValue": "51-75%", "synonyms": ["CES0104-51-75%"]}, {"conceptId": "C180280", "definition": "Combat Exposure Scale original result for CES0104-76% or more.", "preferredTerm": "Combat Exposure Scale CES0104 Original Result - 76% or More", "submissionValue": "76% or more", "synonyms": ["CES0104-76% or more"]}, {"conceptId": "C180276", "definition": "Combat Exposure Scale original result for CES0104-None.", "preferredTerm": "Combat Exposure Scale CES0104 Original Result - None", "submissionValue": "None", "synonyms": ["CES0104-None"]}]}