{"_links": {"parentPackage": {"href": "/mdr/ct/packages/sdtmct-2022-03-25", "title": "SDTM Controlled Terminology Package 49 Effective 2022-03-25", "type": "Terminology"}, "priorVersion": {"href": "/mdr/ct/packages/sdtmct-2021-12-17/codelists/C181179", "title": "CDISC SDTM Genomic Findings Test Name Terminology", "type": "Code List"}, "rootItem": {"href": "/mdr/root/ct/sdtmct/codelists/C181179", "title": "Version-agnostic anchor resource for codelist C181179", "type": "Root Value Domain"}, "self": {"href": "/mdr/ct/packages/sdtmct-2022-03-25/codelists/C181179", "title": "CDISC SDTM Genomic Findings Test Name Terminology", "type": "Code List"}}, "conceptId": "C181179", "definition": "Terminology relevant to the test names that describe genomic findings.", "extensible": "true", "name": "Genomic Findings Test Name", "preferredTerm": "CDISC SDTM Genomic Findings Test Name Terminology", "submissionValue": "GFTEST", "synonyms": ["Genomic Findings Test Name"], "terms": [{"conceptId": "C181330", "definition": "An assessment of the variability in the number of replicas of a gene within a genome.", "preferredTerm": "Copy Number Variation Assessment", "submissionValue": "Copy Number Variation", "synonyms": ["Copy Number Variation", "Gene Copy Number Variation"]}, {"conceptId": "C181333", "definition": "An assessment of the unique pattern of gene expression of one to many genes associated with a normal or abnormal biological process.", "preferredTerm": "Gene Signature Assessment", "submissionValue": "Gene Signature", "synonyms": ["Gene Expression Signature", "Gene Signature"]}, {"conceptId": "C181332", "definition": "An assessment of the variability in length of microsatellite sequences.", "preferredTerm": "Microsatellite Instability Length Assessment", "submissionValue": "Microsatellite Instability", "synonyms": ["Microsatellite Instability"]}, {"conceptId": "C181334", "definition": "An assessment of the variability in a short sequence of nucleotides (generally defined as 50 base pairs or less), when compared to a reference sequence.", "preferredTerm": "Short Variation Assessment", "submissionValue": "Short Variation", "synonyms": ["Short Variation"]}, {"conceptId": "C181331", "definition": "An assessment of the variability in a nucleotide found within a specified position of the genome, when compared to a reference nucleotide.", "preferredTerm": "Single Nucleotide Variation Assessment", "submissionValue": "Single Nucleotide Variation", "synonyms": ["Single Nucleotide Variation"]}, {"conceptId": "C17208", "definition": "An assessment of transcribed RNA molecules in a biological specimen.", "preferredTerm": "Transcription", "submissionValue": "Transcription", "synonyms": ["Transcription"]}, {"conceptId": "C181335", "definition": "A quantitative or qualitative assessment of the number of genomic alterations found in genetic material from tumor cells, when compared to a reference sequence.", "preferredTerm": "Tumor Mutation Burden Assessment", "submissionValue": "Tumor Mutation Burden", "synonyms": ["Tumor Mutation Burden", "Tumor Mutational Burden"]}]}