{"_links": {"parentPackage": {"href": "/mdr/ct/packages/sdtmct-2022-03-25", "title": "SDTM Controlled Terminology Package 49 Effective 2022-03-25", "type": "Terminology"}, "priorVersion": {"href": "/mdr/ct/packages/sdtmct-2021-12-17/codelists/C181175", "title": "CDISC Test Condition Response Terminology", "type": "Code List"}, "rootItem": {"href": "/mdr/root/ct/sdtmct/codelists/C181175", "title": "Version-agnostic anchor resource for codelist C181175", "type": "Root Value Domain"}, "self": {"href": "/mdr/ct/packages/sdtmct-2022-03-25/codelists/C181175", "title": "CDISC Test Condition Response Terminology", "type": "Code List"}}, "conceptId": "C181175", "definition": "Terminology relevant to the values that describe a textual description of any planned condition imposed on the test system at the time the test is performed.", "extensible": "true", "name": "Test Condition Response", "preferredTerm": "CDISC Test Condition Response Terminology", "submissionValue": "TESTCOND", "synonyms": ["Test Condition Response"], "terms": [{"conceptId": "C181540", "definition": "The test system contains excess amount of the binding agent.", "preferredTerm": "Saturated Condition With Binding Agent", "submissionValue": "SATURATED CONDITION WITH BINDING AGENT"}, {"conceptId": "C181541", "definition": "The test system contains stimulating agent.", "preferredTerm": "With Stimulating Agent", "submissionValue": "WITH STIMULATING AGENT"}, {"conceptId": "C181543", "definition": "The test system does not contain binding agent.", "preferredTerm": "Without Binding Agent", "submissionValue": "WITHOUT BINDING AGENT"}, {"conceptId": "C181542", "definition": "The test system does not contain stimulating agent.", "preferredTerm": "Without Stimulating Agent", "submissionValue": "WITHOUT STIMULATING AGENT"}]}