{"_links": {"parentPackage": {"href": "/mdr/ct/packages/sdtmct-2022-03-25", "title": "SDTM Controlled Terminology Package 49 Effective 2022-03-25", "type": "Terminology"}, "priorVersion": {"href": "/mdr/ct/packages/sdtmct-2021-12-17/codelists/C181172", "title": "CDISC SDTM Cell State Response Terminology", "type": "Code List"}, "rootItem": {"href": "/mdr/root/ct/sdtmct/codelists/C181172", "title": "Version-agnostic anchor resource for codelist C181172", "type": "Root Value Domain"}, "self": {"href": "/mdr/ct/packages/sdtmct-2022-03-25/codelists/C181172", "title": "CDISC SDTM Cell State Response Terminology", "type": "Code List"}}, "conceptId": "C181172", "definition": "Terminology relevant to the values that describe the subset of the cell population based on a particular functional and/or biological state.", "extensible": "true", "name": "Cell State Response", "preferredTerm": "CDISC SDTM Cell State Response Terminology", "submissionValue": "CELSTATE", "synonyms": ["Cell State Response"], "terms": [{"conceptId": "C64382", "definition": "Pertaining to the state of being activated, in which a characteristic function or property has been induced to occur.", "preferredTerm": "Activation", "submissionValue": "ACTIVATED"}, {"conceptId": "C14156", "definition": "Pertaining to the state of being apoptotic, in which programmed cell death is occurring.", "preferredTerm": "Apoptotic", "submissionValue": "APOPTOTIC"}, {"conceptId": "C181246", "definition": "Pertaining to the state of being exhausted, in which the entity is functionally inept and incapable of exhibiting the usual array of activities.", "preferredTerm": "Exhaustion", "submissionValue": "EXHAUSTED"}, {"conceptId": "C181247", "definition": "Pertaining to the state of non-proliferation, in which the entity is not actively multiplying or increasing in number.", "preferredTerm": "Non-Proliferating", "submissionValue": "NON-PROLIFERATING"}, {"conceptId": "C181248", "definition": "Pertaining to the state of being non-viable, in which the entity is not capable of life or normal growth and development.", "preferredTerm": "Non-Viable", "submissionValue": "NON-VIABLE"}, {"conceptId": "C28378", "definition": "Pertaining to the state of proliferation, in which the entity is actively multiplying or increasing in number.", "preferredTerm": "Proliferation", "submissionValue": "PROLIFERATING"}, {"conceptId": "C17467", "definition": "Pertaining to the state of being senescent, in which there is irreversible cell-cycle and/or functional arrest related to cell aging or disease.", "preferredTerm": "Senescence", "submissionValue": "SENESCENT"}, {"conceptId": "C25324", "definition": "Pertaining to the state of being viable, in which the entity is capable of life or normal growth and development.", "preferredTerm": "Viable", "submissionValue": "VIABLE"}]}