{"_links": {"parentPackage": {"href": "/mdr/ct/packages/sdtmct-2022-03-25", "title": "SDTM Controlled Terminology Package 49 Effective 2022-03-25", "type": "Terminology"}, "priorVersion": {"href": "/mdr/ct/packages/sdtmct-2021-12-17/codelists/C182481", "title": "CDISC Clinical Classification Kurtzke Functional System Scores KFSS106 Original Response Terminology", "type": "Code List"}, "rootItem": {"href": "/mdr/root/ct/sdtmct/codelists/C182481", "title": "Version-agnostic anchor resource for codelist C182481", "type": "Root Value Domain"}, "self": {"href": "/mdr/ct/packages/sdtmct-2022-03-25/codelists/C182481", "title": "CDISC Clinical Classification Kurtzke Functional System Scores KFSS106 Original Response Terminology", "type": "Code List"}}, "conceptId": "C182481", "definition": "Kurtzke Functional System Scores original result for KFSS106 test and test code.", "extensible": "false", "name": "Kurtzke Functional System Scores Clinical Classification ORRES for KFSS106 TN/TC", "preferredTerm": "CDISC Clinical Classification Kurtzke Functional System Scores KFSS106 Original Response Terminology", "submissionValue": "KFSS106OR", "synonyms": ["Kurtzke Functional System Scores Clinical Classification ORRES for KFSS106 TN/TC"], "terms": [{"conceptId": "C182852", "definition": "Kurtzke Functional System Scores original result for KFSS106-Grade 5 plus maximal visual acuity of better eye of 20/60 or less.", "preferredTerm": "Kurtzke Functional System Scores KFSS106 Original Result - Grade 5 plus maximal visual acuity of better eye of 20/60 or less", "submissionValue": "Grade 5 plus maximal visual acuity of better eye of 20/60 or less", "synonyms": ["KFSS106-Grade 5 plus maximal visual acuity of better eye of 20/60 or less"]}, {"conceptId": "C182846", "definition": "Kurtzke Functional System Scores original result for KFSS106-Normal.", "preferredTerm": "Kurtzke Functional System Scores KFSS106 Original Result - Normal", "submissionValue": "Normal", "synonyms": ["KFSS106-Normal"]}, {"conceptId": "C182847", "definition": "Kurtzke Functional System Scores original result for KFSS106-Scotoma with visual acuity (corrected) better than 20/30.", "preferredTerm": "Kurtzke Functional System Scores KFSS106 Original Result - Scotoma with visual acuity (corrected) better than 20/30", "submissionValue": "Scotoma with visual acuity (corrected) better than 20/30", "synonyms": ["KFSS106-Scotoma with visual acuity (corrected) better than 20/30"]}, {"conceptId": "C182853", "definition": "Kurtzke Functional System Scores original result for KFSS106-Unknown.", "preferredTerm": "Kurtzke Functional System Scores KFSS106 Original Result - Unknown", "submissionValue": "Unknown", "synonyms": ["KFSS106-Unknown"]}, {"conceptId": "C182849", "definition": "Kurtzke Functional System Scores original result for KFSS106-Worse eye with large scotoma, or moderate decrease in fields, but with maximal visual acuity (corrected) of 20/60 to 20/99.", "preferredTerm": "Kurtzke Functional System Scores KFSS106 Original Result - Worse eye with large scotoma, or moderate decrease in fields, but with maximal visual acuity (corrected) of 20/60 to 20/99", "submissionValue": "Worse eye with large scotoma, or moderate decrease in fields, but with maximal visual acuity (corrected) of 20/60 to 20/99", "synonyms": ["KFSS106-Worse eye with large scotoma, or moderate decrease in fields, but with maximal visual acuity (corrected) of 20/60 to 20/99"]}, {"conceptId": "C182850", "definition": "Kurtzke Functional System Scores original result for KFSS106-Worse eye with marked decrease of fields and maximal visual acuity (corrected) of 20/100 to 20/200; grade 3 plus maximal acuity of better eye of 20/60 or less.", "preferredTerm": "Kurtzke Functional System Scores KFSS106 Original Result - Worse eye with marked decrease of fields and maximal visual acuity (corrected) of 20/100 to 20/200; grade 3 plus maximal acuity of better eye of 20/60 or less", "submissionValue": "Worse eye with marked decrease of fields and maximal visual acuity (corrected) of 20/100 to 20/200; grade 3 plus maximal acuity of better eye of 20/60 or less", "synonyms": ["KFSS106-Worse eye with marked decrease of fields and maximal visual acuity (corrected) of 20/100 to 20/200", "grade 3 plus maximal acuity of better eye of 20/60 or less"]}, {"conceptId": "C182851", "definition": "Kurtzke Functional System Scores original result for KFSS106-Worse eye with maximal visual acuity (corrected) less than 20/200; grade 4 plus maximal acuity of better eye of 20/60 or less.", "preferredTerm": "Kurtzke Functional System Scores KFSS106 Original Result - Worse eye with maximal visual acuity (corrected) less than 20/200; grade 4 plus maximal acuity of better eye of 20/60 or less", "submissionValue": "Worse eye with maximal visual acuity (corrected) less than 20/200; grade 4 plus maximal acuity of better eye of 20/60 or less", "synonyms": ["KFSS106-Worse eye with maximal visual acuity (corrected) less than 20/200", "grade 4 plus maximal acuity of better eye of 20/60 or less"]}, {"conceptId": "C182848", "definition": "Kurtzke Functional System Scores original result for KFSS106-Worse eye with scotoma with maximal visual acuity (corrected) of 20/30 to 20/59.", "preferredTerm": "Kurtzke Functional System Scores KFSS106 Original Result - Worse eye with scotoma with maximal visual acuity (corrected) of 20/30 to 20/59", "submissionValue": "Worse eye with scotoma with maximal visual acuity (corrected) of 20/30 to 20/59", "synonyms": ["KFSS106-Worse eye with scotoma with maximal visual acuity (corrected) of 20/30 to 20/59"]}]}