{"_links": {"parentPackage": {"href": "/mdr/ct/packages/sdtmct-2022-03-25", "title": "SDTM Controlled Terminology Package 49 Effective 2022-03-25", "type": "Terminology"}, "priorVersion": {"href": "/mdr/ct/packages/sdtmct-2021-12-17/codelists/C182536", "title": "CDISC Clinical Classification Acute Physiology and Chronic Health Evaluation II APCH115 Standardized Character Response Terminology", "type": "Code List"}, "rootItem": {"href": "/mdr/root/ct/sdtmct/codelists/C182536", "title": "Version-agnostic anchor resource for codelist C182536", "type": "Root Value Domain"}, "self": {"href": "/mdr/ct/packages/sdtmct-2022-03-25/codelists/C182536", "title": "CDISC Clinical Classification Acute Physiology and Chronic Health Evaluation II APCH115 Standardized Character Response Terminology", "type": "Code List"}}, "conceptId": "C182536", "definition": "Acute Physiology and Chronic Health Evaluation II standardized character result for APCH115 test and test code.", "extensible": "false", "name": "Acute Physiology and Chronic Health Evaluation II Clinical Classification STRESC for APCH115 TN/TC", "preferredTerm": "CDISC Clinical Classification Acute Physiology and Chronic Health Evaluation II APCH115 Standardized Character Response Terminology", "submissionValue": "APCH115STR", "synonyms": ["Acute Physiology and Chronic Health Evaluation II Clinical Classification STRESC for APCH115 TN/TC"], "terms": [{"conceptId": "C183040", "definition": "Acute Physiology and Chronic Health Evaluation II standardized character result for APCH115-for elective postoperative patients.", "preferredTerm": "Acute Physiology and Chronic Health Evaluation II APCH115 Standardized Character Result 2", "submissionValue": "2", "synonyms": ["APCH115-2"]}, {"conceptId": "C183039", "definition": "Acute Physiology and Chronic Health Evaluation II standardized character result for APCH115-for nonoperative or emergency postoperative patients.", "preferredTerm": "Acute Physiology and Chronic Health Evaluation II APCH115 Standardized Character Result 5", "submissionValue": "5", "synonyms": ["APCH115-5"]}]}