{"_links": {"parentPackage": {"href": "/mdr/ct/packages/sdtmct-2022-03-25", "title": "SDTM Controlled Terminology Package 49 Effective 2022-03-25", "type": "Terminology"}, "priorVersion": {"href": "/mdr/ct/packages/sdtmct-2021-12-17/codelists/C182487", "title": "CDISC Clinical Classification Acute Physiology and Chronic Health Evaluation II APCH104 Original Response Terminology", "type": "Code List"}, "rootItem": {"href": "/mdr/root/ct/sdtmct/codelists/C182487", "title": "Version-agnostic anchor resource for codelist C182487", "type": "Root Value Domain"}, "self": {"href": "/mdr/ct/packages/sdtmct-2022-03-25/codelists/C182487", "title": "CDISC Clinical Classification Acute Physiology and Chronic Health Evaluation II APCH104 Original Response Terminology", "type": "Code List"}}, "conceptId": "C182487", "definition": "Acute Physiology and Chronic Health Evaluation II original result for APCH104 test and test code.", "extensible": "false", "name": "Acute Physiology and Chronic Health Evaluation II Clinical Classification ORRES for APCH104 TN/TC", "preferredTerm": "CDISC Clinical Classification Acute Physiology and Chronic Health Evaluation II APCH104 Original Response Terminology", "submissionValue": "APCH104OR", "synonyms": ["Acute Physiology and Chronic Health Evaluation II Clinical Classification ORRES for APCH104 TN/TC"], "terms": [{"conceptId": "C182920", "definition": "Acute Physiology and Chronic Health Evaluation II original result for APCH104-10-11.", "preferredTerm": "Acute Physiology and Chronic Health Evaluation II APCH104 Original Result - 10-11", "submissionValue": "10-11", "synonyms": ["APCH104-10-11"]}, {"conceptId": "C182919", "definition": "Acute Physiology and Chronic Health Evaluation II original result for APCH104-12-24.", "preferredTerm": "Acute Physiology and Chronic Health Evaluation II APCH104 Original Result - 12-24", "submissionValue": "12-24", "synonyms": ["APCH104-12-24"]}, {"conceptId": "C182918", "definition": "Acute Physiology and Chronic Health Evaluation II original result for APCH104-25-34.", "preferredTerm": "Acute Physiology and Chronic Health Evaluation II APCH104 Original Result - 25-34", "submissionValue": "25-34", "synonyms": ["APCH104-25-34"]}, {"conceptId": "C182917", "definition": "Acute Physiology and Chronic Health Evaluation II original result for APCH104-35-49.", "preferredTerm": "Acute Physiology and Chronic Health Evaluation II APCH104 Original Result - 35-49", "submissionValue": "35-49", "synonyms": ["APCH104-35-49"]}, {"conceptId": "C182921", "definition": "Acute Physiology and Chronic Health Evaluation II original result for APCH104-6-9.", "preferredTerm": "Acute Physiology and Chronic Health Evaluation II APCH104 Original Result - 6-9", "submissionValue": "6-9", "synonyms": ["APCH104-6-9"]}, {"conceptId": "C182922", "definition": "Acute Physiology and Chronic Health Evaluation II original result for APCH104-Less than or equal to 5.", "preferredTerm": "Acute Physiology and Chronic Health Evaluation II APCH104 Original Result - <=5", "submissionValue": "<=5", "synonyms": ["APCH104-<=5"]}, {"conceptId": "C182916", "definition": "Acute Physiology and Chronic Health Evaluation II original result for APCH104-Greater than or equal to 50.", "preferredTerm": "Acute Physiology and Chronic Health Evaluation II APCH104 Original Result - >=50", "submissionValue": ">=50", "synonyms": ["APCH104->=50"]}]}