{"_links": {"parentPackage": {"href": "/mdr/ct/packages/sdtmct-2022-03-25", "title": "SDTM Controlled Terminology Package 49 Effective 2022-03-25", "type": "Terminology"}, "priorVersion": {"href": "/mdr/ct/packages/sdtmct-2021-12-17/codelists/C182498", "title": "CDISC Clinical Classification Acute Physiology and Chronic Health Evaluation II APCH115 Original Response Terminology", "type": "Code List"}, "rootItem": {"href": "/mdr/root/ct/sdtmct/codelists/C182498", "title": "Version-agnostic anchor resource for codelist C182498", "type": "Root Value Domain"}, "self": {"href": "/mdr/ct/packages/sdtmct-2022-03-25/codelists/C182498", "title": "CDISC Clinical Classification Acute Physiology and Chronic Health Evaluation II APCH115 Original Response Terminology", "type": "Code List"}}, "conceptId": "C182498", "definition": "Acute Physiology and Chronic Health Evaluation II original result for APCH115 test and test code.", "extensible": "false", "name": "Acute Physiology and Chronic Health Evaluation II Clinical Classification ORRES for APCH115 TN/TC", "preferredTerm": "CDISC Clinical Classification Acute Physiology and Chronic Health Evaluation II APCH115 Original Response Terminology", "submissionValue": "APCH115OR", "synonyms": ["Acute Physiology and Chronic Health Evaluation II Clinical Classification ORRES for APCH115 TN/TC"], "terms": [{"conceptId": "C183038", "definition": "Acute Physiology and Chronic Health Evaluation II original result for APCH115-for elective postoperative patients.", "preferredTerm": "Acute Physiology and Chronic Health Evaluation II APCH115 Original Result - for elective postoperative patients", "submissionValue": "for elective postoperative patients", "synonyms": ["APCH115-for elective postoperative patients"]}, {"conceptId": "C183037", "definition": "Acute Physiology and Chronic Health Evaluation II original result for APCH115-for nonoperative or emergency postoperative patients.", "preferredTerm": "Acute Physiology and Chronic Health Evaluation II APCH115 Original Result - for nonoperative or emergency postoperative patients", "submissionValue": "for nonoperative or emergency postoperative patients", "synonyms": ["APCH115-for nonoperative or emergency postoperative patients"]}]}