{"_links": {"parentPackage": {"href": "/mdr/ct/packages/sdtmct-2022-03-25", "title": "SDTM Controlled Terminology Package 49 Effective 2022-03-25", "type": "Terminology"}, "priorVersion": {"href": "/mdr/ct/packages/sdtmct-2021-12-17/codelists/C182515", "title": "CDISC Clinical Classification Kurtzke Functional System Scores KFSS102A and KFSS106A Standardized Character Response Terminology", "type": "Code List"}, "rootItem": {"href": "/mdr/root/ct/sdtmct/codelists/C182515", "title": "Version-agnostic anchor resource for codelist C182515", "type": "Root Value Domain"}, "self": {"href": "/mdr/ct/packages/sdtmct-2022-03-25/codelists/C182515", "title": "CDISC Clinical Classification Kurtzke Functional System Scores KFSS102A and KFSS106A Standardized Character Response Terminology", "type": "Code List"}}, "conceptId": "C182515", "definition": "Kurtzke Functional System Scores standardized character result for KFSS102A and KFSS106A test and test code.", "extensible": "false", "name": "Kurtzke Functional System Scores Clinical Classification STRESC for KFSS102A and KFSS106A TN/TC", "preferredTerm": "CDISC Clinical Classification Kurtzke Functional System Scores KFSS102A and KFSS106A Standardized Character Response Terminology", "submissionValue": "KFSS102A&6ASTR", "synonyms": ["Kurtzke Functional System Scores Clinical Classification STRESC for KFSS102A and KFSS106A TN/TC"], "terms": [{"conceptId": "C182798", "definition": "Kurtzke Functional System Scores standardized character result for KFSS102A and KFSS106A-Checked.", "preferredTerm": "Kurtzke Functional System Scores KFSS102A and KFSS106A Standardized Character Result Checked - Checked", "submissionValue": "CHECKED", "synonyms": ["KFSS102A and KFSS106A-CHECKED"]}, {"conceptId": "C182799", "definition": "Kurtzke Functional System Scores standardized character result for KFSS102A and KFSS106A-Not checked.", "preferredTerm": "Kurtzke Functional System Scores KFSS102A and KFSS106A Standardized Character Result Not Checked - Not Checked", "submissionValue": "NOT CHECKED", "synonyms": ["KFSS102A and KFSS106A-NOT CHECKED"]}]}