{"_links": {"parentPackage": {"href": "/mdr/ct/packages/sdtmct-2022-03-25", "title": "SDTM Controlled Terminology Package 49 Effective 2022-03-25", "type": "Terminology"}, "priorVersion": {"href": "/mdr/ct/packages/sdtmct-2021-12-17/codelists/C182480", "title": "CDISC Clinical Classification Kurtzke Functional System Scores KFSS105 Original Response Terminology", "type": "Code List"}, "rootItem": {"href": "/mdr/root/ct/sdtmct/codelists/C182480", "title": "Version-agnostic anchor resource for codelist C182480", "type": "Root Value Domain"}, "self": {"href": "/mdr/ct/packages/sdtmct-2022-03-25/codelists/C182480", "title": "CDISC Clinical Classification Kurtzke Functional System Scores KFSS105 Original Response Terminology", "type": "Code List"}}, "conceptId": "C182480", "definition": "Kurtzke Functional System Scores original result for KFSS105 test and test code.", "extensible": "false", "name": "Kurtzke Functional System Scores Clinical Classification ORRES for KFSS105 TN/TC", "preferredTerm": "CDISC Clinical Classification Kurtzke Functional System Scores KFSS105 Original Response Terminology", "submissionValue": "KFSS105OR", "synonyms": ["Kurtzke Functional System Scores Clinical Classification ORRES for KFSS105 TN/TC"], "terms": [{"conceptId": "C182833", "definition": "Kurtzke Functional System Scores original result for KFSS105-Frequent urinary incontinence.", "preferredTerm": "Kurtzke Functional System Scores KFSS105 Original Result - Frequent urinary incontinence", "submissionValue": "Frequent urinary incontinence", "synonyms": ["KFSS105-Frequent urinary incontinence"]}, {"conceptId": "C182834", "definition": "Kurtzke Functional System Scores original result for KFSS105-In need of almost constant catheterization.", "preferredTerm": "Kurtzke Functional System Scores KFSS105 Original Result - In need of almost constant catheterization", "submissionValue": "In need of almost constant catheterization", "synonyms": ["KFSS105-In need of almost constant catheterization"]}, {"conceptId": "C182835", "definition": "Kurtzke Functional System Scores original result for KFSS105-Loss of bladder function.", "preferredTerm": "Kurtzke Functional System Scores KFSS105 Original Result - Loss of bladder function", "submissionValue": "Loss of bladder function", "synonyms": ["KFSS105-Loss of bladder function"]}, {"conceptId": "C182836", "definition": "Kurtzke Functional System Scores original result for KFSS105-Loss of bowel and bladder function.", "preferredTerm": "Kurtzke Functional System Scores KFSS105 Original Result - Loss of bowel and bladder function", "submissionValue": "Loss of bowel and bladder function", "synonyms": ["KFSS105-Loss of bowel and bladder function"]}, {"conceptId": "C182831", "definition": "Kurtzke Functional System Scores original result for KFSS105-Mild urinary hesitancy, urgency, or retention.", "preferredTerm": "Kurtzke Functional System Scores KFSS105 Original Result - Mild urinary hesitancy, urgency, or retention", "submissionValue": "Mild urinary hesitancy, urgency, or retention", "synonyms": ["KFSS105-Mild urinary hesitancy, urgency, or retention"]}, {"conceptId": "C182832", "definition": "Kurtzke Functional System Scores original result for KFSS105-Moderate hesitancy, urgency, retention of bowel or bladder, or rare urinary incontinences.", "preferredTerm": "Kurtzke Functional System Scores KFSS105 Original Result - Moderate hesitancy, urgency, retention of bowel or bladder, or rare urinary incontinence", "submissionValue": "Moderate hesitancy, urgency, retention of bowel or bladder, or rare urinary incontinence", "synonyms": ["KFSS105-Moderate hesitancy, urgency, retention of bowel or bladder, or rare urinary incontinence"]}, {"conceptId": "C182830", "definition": "Kurtzke Functional System Scores original result for KFSS105-Normal.", "preferredTerm": "Kurtzke Functional System Scores KFSS105 Original Result - Normal", "submissionValue": "Normal", "synonyms": ["KFSS105-Normal"]}, {"conceptId": "C182837", "definition": "Kurtzke Functional System Scores original result for KFSS105-Unknown.", "preferredTerm": "Kurtzke Functional System Scores KFSS105 Original Result - Unknown", "submissionValue": "Unknown", "synonyms": ["KFSS105-Unknown"]}]}