{"_links": {"parentPackage": {"href": "/mdr/ct/packages/sdtmct-2022-03-25", "title": "SDTM Controlled Terminology Package 49 Effective 2022-03-25", "type": "Terminology"}, "priorVersion": {"href": "/mdr/ct/packages/sdtmct-2021-12-17/codelists/C182493", "title": "CDISC Clinical Classification Acute Physiology and Chronic Health Evaluation II APCH108 Original Response Terminology", "type": "Code List"}, "rootItem": {"href": "/mdr/root/ct/sdtmct/codelists/C182493", "title": "Version-agnostic anchor resource for codelist C182493", "type": "Root Value Domain"}, "self": {"href": "/mdr/ct/packages/sdtmct-2022-03-25/codelists/C182493", "title": "CDISC Clinical Classification Acute Physiology and Chronic Health Evaluation II APCH108 Original Response Terminology", "type": "Code List"}}, "conceptId": "C182493", "definition": "Acute Physiology and Chronic Health Evaluation II original result for APCH108 test and test code.", "extensible": "false", "name": "Acute Physiology and Chronic Health Evaluation II Clinical Classification ORRES for APCH108 TN/TC", "preferredTerm": "CDISC Clinical Classification Acute Physiology and Chronic Health Evaluation II APCH108 Original Response Terminology", "submissionValue": "APCH108OR", "synonyms": ["Acute Physiology and Chronic Health Evaluation II Clinical Classification ORRES for APCH108 TN/TC"], "terms": [{"conceptId": "C182986", "definition": "Acute Physiology and Chronic Health Evaluation II original result for APCH108-2.5-2.9.", "preferredTerm": "Acute Physiology and Chronic Health Evaluation II APCH108 Original Result - 2.5-2.9", "submissionValue": "2.5-2.9", "synonyms": ["APCH108-2.5-2.9"]}, {"conceptId": "C182985", "definition": "Acute Physiology and Chronic Health Evaluation II original result for APCH108-3-3.4.", "preferredTerm": "Acute Physiology and Chronic Health Evaluation II APCH108 Original Result - 3-3.4", "submissionValue": "3-3.4", "synonyms": ["APCH108-3-3.4"]}, {"conceptId": "C182984", "definition": "Acute Physiology and Chronic Health Evaluation II original result for APCH108-3.5-5.4.", "preferredTerm": "Acute Physiology and Chronic Health Evaluation II APCH108 Original Result - 3.5-5.4", "submissionValue": "3.5-5.4", "synonyms": ["APCH108-3.5-5.4"]}, {"conceptId": "C182983", "definition": "Acute Physiology and Chronic Health Evaluation II original result for APCH108-5.5-5.9.", "preferredTerm": "Acute Physiology and Chronic Health Evaluation II APCH108 Original Result - 5.5-5.9", "submissionValue": "5.5-5.9", "synonyms": ["APCH108-5.5-5.9"]}, {"conceptId": "C182982", "definition": "Acute Physiology and Chronic Health Evaluation II original result for APCH108-6-6.9.", "preferredTerm": "Acute Physiology and Chronic Health Evaluation II APCH108 Original Result - 6-6.9", "submissionValue": "6-6.9", "synonyms": ["APCH108-6-6.9"]}, {"conceptId": "C182987", "definition": "Acute Physiology and Chronic Health Evaluation II original result for APCH108-Less than 2.5.", "preferredTerm": "Acute Physiology and Chronic Health Evaluation II APCH108 Original Result - <2.5", "submissionValue": "<2.5", "synonyms": ["APCH108-<2.5"]}, {"conceptId": "C182981", "definition": "Acute Physiology and Chronic Health Evaluation II original result for APCH108-Greater than or equal to 7.", "preferredTerm": "Acute Physiology and Chronic Health Evaluation II APCH108 Original Result - >=7", "submissionValue": ">=7", "synonyms": ["APCH108->=7"]}]}