{"_links": {"parentPackage": {"href": "/mdr/ct/packages/sdtmct-2022-03-25", "title": "SDTM Controlled Terminology Package 49 Effective 2022-03-25", "type": "Terminology"}, "priorVersion": {"href": "/mdr/ct/packages/sdtmct-2021-12-17/codelists/C182508", "title": "CDISC Clinical Classification ATLAS Score ATLAS101 Standardized Character Response Terminology", "type": "Code List"}, "rootItem": {"href": "/mdr/root/ct/sdtmct/codelists/C182508", "title": "Version-agnostic anchor resource for codelist C182508", "type": "Root Value Domain"}, "self": {"href": "/mdr/ct/packages/sdtmct-2022-03-25/codelists/C182508", "title": "CDISC Clinical Classification ATLAS Score ATLAS101 Standardized Character Response Terminology", "type": "Code List"}}, "conceptId": "C182508", "definition": "ATLAS standardized character result for ATLAS101 test and test code.", "extensible": "false", "name": "ATLAS Clinical Classification STRESC for ATLAS101 TN/TC", "preferredTerm": "CDISC Clinical Classification ATLAS Score ATLAS101 Standardized Character Response Terminology", "submissionValue": "ATLAS101STR", "synonyms": ["ATLAS Clinical Classification STRESC for ATLAS101 TN/TC"], "terms": [{"conceptId": "C182741", "definition": "ATLAS standardized character result for ATLAS101-Less than 60.", "preferredTerm": "ATLAS Score ATLAS101 Standardized Character Result 0", "submissionValue": "0", "synonyms": ["ATLAS101-0"]}, {"conceptId": "C182742", "definition": "ATLAS standardized character result for ATLAS101-60-79.", "preferredTerm": "ATLAS Score ATLAS101 Standardized Character Result 1", "submissionValue": "1", "synonyms": ["ATLAS101-1"]}, {"conceptId": "C182743", "definition": "ATLAS standardized character result for ATLAS101-Greater than or equal to 80.", "preferredTerm": "ATLAS Score ATLAS101 Standardized Character Result 2", "submissionValue": "2", "synonyms": ["ATLAS101-2"]}]}