{"_links": {"parentPackage": {"href": "/mdr/ct/packages/sdtmct-2022-03-25", "title": "SDTM Controlled Terminology Package 49 Effective 2022-03-25", "type": "Terminology"}, "priorVersion": {"href": "/mdr/ct/packages/sdtmct-2021-12-17/codelists/C182474", "title": "CDISC Clinical Classification ATLAS Score ATLAS105 Original Response Terminology", "type": "Code List"}, "rootItem": {"href": "/mdr/root/ct/sdtmct/codelists/C182474", "title": "Version-agnostic anchor resource for codelist C182474", "type": "Root Value Domain"}, "self": {"href": "/mdr/ct/packages/sdtmct-2022-03-25/codelists/C182474", "title": "CDISC Clinical Classification ATLAS Score ATLAS105 Original Response Terminology", "type": "Code List"}}, "conceptId": "C182474", "definition": "ATLAS original result for ATLAS105 test and test code.", "extensible": "false", "name": "ATLAS Clinical Classification ORRES for ATLAS105 TN/TC", "preferredTerm": "CDISC Clinical Classification ATLAS Score ATLAS105 Original Response Terminology", "submissionValue": "ATLAS105OR", "synonyms": ["ATLAS Clinical Classification ORRES for ATLAS105 TN/TC"], "terms": [{"conceptId": "C182761", "definition": "ATLAS original result for ATLAS105-121-179.", "preferredTerm": "ATLAS Score ATLAS105 Original Result - 121-179", "submissionValue": "121-179", "synonyms": ["ATLAS105-121-179"]}, {"conceptId": "C182760", "definition": "ATLAS original result for ATLAS105-Less than or equal to 120.", "preferredTerm": "ATLAS Score ATLAS105 Original Result - <=120", "submissionValue": "<=120", "synonyms": ["ATLAS105-<=120"]}, {"conceptId": "C182762", "definition": "ATLAS original result for ATLAS105-Greater than or equal to 180.", "preferredTerm": "ATLAS Score ATLAS105 Original Result - >=180", "submissionValue": ">=180", "synonyms": ["ATLAS105->=180"]}]}