{"_links": {"parentPackage": {"href": "/mdr/ct/packages/sdtmct-2022-03-25", "title": "SDTM Controlled Terminology Package 49 Effective 2022-03-25", "type": "Terminology"}, "rootItem": {"href": "/mdr/root/ct/sdtmct/codelists/C185740", "title": "Version-agnostic anchor resource for codelist C185740", "type": "Root Value Domain"}, "self": {"href": "/mdr/ct/packages/sdtmct-2022-03-25/codelists/C185740", "title": "CDISC Questionnaire SF6D Version 2.0 Acute Test Code Terminology", "type": "Code List"}}, "conceptId": "C185740", "definition": "SF-6Dv2 Health Utility Survey Acute, English Version 2.0 test code.", "extensible": "false", "name": "SF-6Dv2 Health Utility Survey Acute, English Version 2.0 Questionnaire Test Code", "preferredTerm": "CDISC Questionnaire SF6D Version 2.0 Acute Test Code Terminology", "submissionValue": "SF6D2TC", "synonyms": ["SF-6Dv2 Health Utility Survey Acute, English Version 2.0 Questionnaire Test Code"], "terms": [{"conceptId": "C185763", "definition": "SF-6Dv2 Health Utility Survey Acute, English Version 2.0 (SF6D V2.0 ACUTE) - Does your health now limit you in your physical activities?", "preferredTerm": "SF6D Version 2.0 Acute - Health Limit Physical Activities", "submissionValue": "SF6D201", "synonyms": ["SF6D2-Health Limit Physical Activities"]}, {"conceptId": "C185764", "definition": "SF-6Dv2 Health Utility Survey Acute, English Version 2.0 (SF6D V2.0 ACUTE) - During the past week how much of the time have you accomplished less than you would like at work or during other regular daily activities as a result of your physical health or emotional problems?", "preferredTerm": "SF6D Version 2.0 Acute - Accomplished Less Due to Problems", "submissionValue": "SF6D202", "synonyms": ["SF6D2-Accomplished Less Due to Problems"]}, {"conceptId": "C185765", "definition": "SF-6Dv2 Health Utility Survey Acute, English Version 2.0 (SF6D V2.0 ACUTE) - During the past week, how much bodily pain have you had?", "preferredTerm": "SF6D Version 2.0 Acute - How Much Bodily Pain Have You Had", "submissionValue": "SF6D203", "synonyms": ["SF6D2-How Much Bodily Pain Have You Had"]}, {"conceptId": "C185766", "definition": "SF-6Dv2 Health Utility Survey Acute, English Version 2.0 (SF6D V2.0 ACUTE) - During the past week, how much of the time have you felt worn out?", "preferredTerm": "SF6D Version 2.0 Acute - Time Have You Felt Worn Out", "submissionValue": "SF6D204", "synonyms": ["SF6D2-Time Have You Felt Worn Out"]}, {"conceptId": "C185767", "definition": "SF-6Dv2 Health Utility Survey Acute, English Version 2.0 (SF6D V2.0 ACUTE) - During the past week, how much of the time has your physical health or emotional problems interfered with your social activities (like visiting with friends, relatives, etc.)?", "preferredTerm": "SF6D Version 2.0 Acute - Interfered With Social Activities", "submissionValue": "SF6D205", "synonyms": ["SF6D2-Interfered With Social Activities"]}, {"conceptId": "C185768", "definition": "SF-6Dv2 Health Utility Survey Acute, English Version 2.0 (SF6D V2.0 ACUTE) - During the past week, how much of the time have you felt depressed or very nervous?", "preferredTerm": "SF6D Version 2.0 Acute - Time Felt Depressed/Very Nervous", "submissionValue": "SF6D206", "synonyms": ["SF6D2-Time Felt Depressed/Very Nervous"]}, {"conceptId": "C185769", "definition": "SF-6Dv2 Health Utility Survey Acute, English Version 2.0 (SF6D V2.0 ACUTE) - Utility index score United Kingdom weights.", "preferredTerm": "SF6D Version 2.0 Acute - Utililty Index Score UK Weights", "submissionValue": "SF6D207", "synonyms": ["SF6D2-Utililty Index Score UK Weights"]}, {"conceptId": "C185770", "definition": "SF-6Dv2 Health Utility Survey Acute, English Version 2.0 (SF6D V2.0 ACUTE) - Utility index score Canada weights.", "preferredTerm": "SF6D Version 2.0 Acute - Utility Index Score CN Weights", "submissionValue": "SF6D208", "synonyms": ["SF6D2-Utility Index Score CN Weights"]}, {"conceptId": "C185771", "definition": "SF-6Dv2 Health Utility Survey Acute, English Version 2.0 (SF6D V2.0 ACUTE) - Utility index score Australia weights.", "preferredTerm": "SF6D Version 2.0 Acute - Utility Index Score AU Weights", "submissionValue": "SF6D209", "synonyms": ["SF6D2-Utility Index Score AU Weights"]}, {"conceptId": "C185772", "definition": "SF-6Dv2 Health Utility Survey Acute, English Version 2.0 (SF6D V2.0 ACUTE) - Utility index score United States weights.", "preferredTerm": "SF6D Version 2.0 Acute - Utility Index Score US Weights", "submissionValue": "SF6D210", "synonyms": ["SF6D2-Utility Index Score US Weights"]}]}