{"_links": {"parentPackage": {"href": "/mdr/ct/packages/sdtmct-2022-03-25", "title": "SDTM Controlled Terminology Package 49 Effective 2022-03-25", "type": "Terminology"}, "priorVersion": {"href": "/mdr/ct/packages/sdtmct-2021-12-17/codelists/C66769", "title": "CDISC SDTM Severity Intensity Scale for Adverse Event Terminology", "type": "Code List"}, "rootItem": {"href": "/mdr/root/ct/sdtmct/codelists/C66769", "title": "Version-agnostic anchor resource for codelist C66769", "type": "Root Value Domain"}, "self": {"href": "/mdr/ct/packages/sdtmct-2022-03-25/codelists/C66769", "title": "CDISC SDTM Severity Intensity Scale for Adverse Event Terminology", "type": "Code List"}}, "conceptId": "C66769", "definition": "A scale that defines the degree or state of disease existing in a patient as a result of the occurrence of an adverse event. (NCI)", "extensible": "false", "name": "Severity/Intensity Scale for Adverse Events", "preferredTerm": "CDISC SDTM Severity Intensity Scale for Adverse Event Terminology", "submissionValue": "AESEV", "synonyms": ["Severity/Intensity Scale for Adverse Events"], "terms": [{"conceptId": "C41338", "definition": "A type of adverse event that is usually transient and may require only minimal treatment or therapeutic intervention. The event does not generally interfere with usual activities of daily living.", "preferredTerm": "Mild Adverse Event", "submissionValue": "MILD", "synonyms": ["1", "Grade 1"]}, {"conceptId": "C41339", "definition": "A type of adverse event that is usually alleviated with additional specific therapeutic intervention. The event interferes with usual activities of daily living, causing discomfort but poses no significant or permanent risk of harm to the research participant.", "preferredTerm": "Moderate Adverse Event", "submissionValue": "MODERATE", "synonyms": ["2", "Grade 2"]}, {"conceptId": "C41340", "definition": "A type of adverse event that interrupts usual activities of daily living, or significantly affects clinical status, or may require intensive therapeutic intervention.", "preferredTerm": "Severe Adverse Event", "submissionValue": "SEVERE", "synonyms": ["3", "Grade 3"]}]}