{"_links": {"parentPackage": {"href": "/mdr/ct/packages/sdtmct-2022-03-25", "title": "SDTM Controlled Terminology Package 49 Effective 2022-03-25", "type": "Terminology"}, "priorVersion": {"href": "/mdr/ct/packages/sdtmct-2021-12-17/codelists/C66728", "title": "CDISC SDTM Relation to Reference Period Terminology", "type": "Code List"}, "rootItem": {"href": "/mdr/root/ct/sdtmct/codelists/C66728", "title": "Version-agnostic anchor resource for codelist C66728", "type": "Root Value Domain"}, "self": {"href": "/mdr/ct/packages/sdtmct-2022-03-25/codelists/C66728", "title": "CDISC SDTM Relation to Reference Period Terminology", "type": "Code List"}}, "conceptId": "C66728", "definition": "The relative relationship of a timepoint to a reference timepoint.", "extensible": "false", "name": "Relation to Reference Period", "preferredTerm": "CDISC SDTM Relation to Reference Period Terminology", "submissionValue": "STENRF", "synonyms": ["Relation to Reference Period"], "terms": [{"conceptId": "C38008", "definition": "The time period following a point or another period of time. (NCI)", "preferredTerm": "Post", "submissionValue": "AFTER"}, {"conceptId": "C25629", "definition": "Earlier in time or order. (NCI)", "preferredTerm": "Prior", "submissionValue": "BEFORE"}, {"conceptId": "C184710", "definition": "Before or at some point in a given period of time.", "preferredTerm": "Before or During", "submissionValue": "BEFORE/DURING"}, {"conceptId": "C25456", "definition": "Occurring or operating at the same time.", "preferredTerm": "Concurrent", "submissionValue": "COINCIDENT"}, {"conceptId": "C25490", "definition": "At some point in a given period of time. (NCI)", "preferredTerm": "During", "submissionValue": "DURING"}, {"conceptId": "C49640", "definition": "Within a certain period of time or after a certain point or period in time. (NCI)", "preferredTerm": "During or After", "submissionValue": "DURING/AFTER"}, {"conceptId": "C53279", "definition": "Remain in force or carry on without letup; keep or maintain in unaltered condition; exist in time or space without stop or interruption. (NCI)", "preferredTerm": "Continue", "submissionValue": "ONGOING", "synonyms": ["Continuous"]}, {"conceptId": "C17998", "definition": "Not known, not observed, not recorded, or refused. (NCI)", "preferredTerm": "Unknown", "submissionValue": "UNKNOWN", "synonyms": ["U", "UNK", "Unknown"]}]}