{"_links": {"parentPackage": {"href": "/mdr/ct/packages/sdtmct-2016-12-16", "title": "SDTM Controlled Terminology Package 28 Effective 2016-12-16", "type": "Terminology"}, "priorVersion": {"href": "/mdr/ct/packages/sdtmct-2016-09-30/codelists/C100149", "title": "CDISC Questionnaire CGI Test Name Terminology", "type": "Code List"}, "rootItem": {"href": "/mdr/root/ct/sdtmct/codelists/C100149", "title": "Version-agnostic anchor resource for codelist C100149", "type": "Root Value Domain"}, "self": {"href": "/mdr/ct/packages/sdtmct-2016-12-16/codelists/C100149", "title": "CDISC Questionnaire CGI Test Name Terminology", "type": "Code List"}}, "conceptId": "C100149", "definition": "Clinical Global Impression test name.", "extensible": "false", "name": "Clinical Global Impression Questionnaire Test Name", "preferredTerm": "CDISC Questionnaire CGI Test Name Terminology", "submissionValue": "CGI01TN", "synonyms": ["Clinical Global Impression Questionnaire Test Name"], "terms": [{"conceptId": "C100957", "definition": "Clinical Global Impression - Rate this item on the basis of drug effect only. Select the terms which best describe the degrees of therapeutic effect and side effects and record the number in the box where the two items intersect.", "preferredTerm": "CGI - Efficacy Index", "submissionValue": "CGI01-Efficacy Index", "synonyms": ["CGI01-Efficacy Index"]}, {"conceptId": "C100956", "definition": "Clinical Global Impression - Rate total improvement whether or not, in your judgment, it is due entirely to drug treatment. Compared to his condition at admission to the project, how much has he changed?", "preferredTerm": "CGI - Global Improvement", "submissionValue": "CGI01-Global Improvement", "synonyms": ["CGI01-Global Improvement"]}, {"conceptId": "C100955", "definition": "Clinical Global Impression - Considering your total clinical experience with this particular population, how mentally ill is the patient at this time?", "preferredTerm": "CGI - Severity of Illness", "submissionValue": "CGI01-Severity of Illness", "synonyms": ["CGI01-Severity of Illness"]}]}