{"_links": {"parentPackage": {"href": "/mdr/ct/packages/sdtmct-2016-12-16", "title": "SDTM Controlled Terminology Package 28 Effective 2016-12-16", "type": "Terminology"}, "priorVersion": {"href": "/mdr/ct/packages/sdtmct-2016-09-30/codelists/C101859", "title": "CDISC SDTM Cardiac Procedure Indication Terminology", "type": "Code List"}, "rootItem": {"href": "/mdr/root/ct/sdtmct/codelists/C101859", "title": "Version-agnostic anchor resource for codelist C101859", "type": "Root Value Domain"}, "self": {"href": "/mdr/ct/packages/sdtmct-2016-12-16/codelists/C101859", "title": "CDISC SDTM Cardiac Procedure Indication Terminology", "type": "Code List"}}, "conceptId": "C101859", "definition": "The reason that a subject had a cardiac procedure.", "extensible": "true", "name": "Cardiac Procedure Indication", "preferredTerm": "CDISC SDTM Cardiac Procedure Indication Terminology", "submissionValue": "CVPRCIND", "synonyms": ["Cardiac Procedure Indication"], "terms": [{"conceptId": "C99919", "definition": "The intended recipient of a heart transplant.", "preferredTerm": "Candidate to Receive Cardiac Transplant", "submissionValue": "CANDIDATE TO RECEIVE CARDIAC TRANSPLANT"}, {"conceptId": "C100033", "definition": "An episode of cardiac arrest or arrhythmia where the etiology was unknown.", "preferredTerm": "Cardiac Arrest/Arrhythmia Etiology Unknown", "submissionValue": "CARDIAC ARREST/ARRHYTHMIA ETIOLOGY UNKNOWN"}, {"conceptId": "C34830", "definition": "A disease of the heart muscle or myocardium proper. Cardiomyopathies may be classified as either primary or secondary, on the basis of etiology, or on the pathophysiology of the lesion: hypertrophic, dilated, or restrictive.", "preferredTerm": "Cardiomyopathy", "submissionValue": "CARDIOMYOPATHY"}, {"conceptId": "C99938", "definition": "A longstanding, complete blockage of a vessel.", "preferredTerm": "Chronic Total Occlusion Vessel", "submissionValue": "CHRONIC TOTAL OCCLUSION"}, {"conceptId": "C99947", "definition": "The subject contributing a heart for a cardiac transplant.", "preferredTerm": "Donor for Cardiac Transplant", "submissionValue": "DONOR FOR CARDIAC TRANSPLANT"}, {"conceptId": "C99949", "definition": "The battery that supplies the device has reached the end of its life.", "preferredTerm": "End of Expected Battery Life", "submissionValue": "END OF EXPECTED BATTERY LIFE"}, {"conceptId": "C100035", "definition": "There is a faulty connector/header in the device.", "preferredTerm": "Faulty Device Connector/Header", "submissionValue": "FAULTY CONNECTOR/HEADER"}, {"conceptId": "C99925", "definition": "A cardiac lead requires revision, at which time the generator to the device will be replaced.", "preferredTerm": "Cardiac Device Generator is Being Replaced at Time of Lead Revision", "submissionValue": "GENERATOR IS BEING REPLACED AT THE TIME OF LEAD REVISION"}, {"conceptId": "C99943", "definition": "The device has a generator malfunction.", "preferredTerm": "Device Generator Malfunction", "submissionValue": "GENERATOR MALFUNCTION"}, {"conceptId": "C99961", "definition": "An immediate percutaneous coronary intervention is necessary for a myocardial infarction that presents with ST segment elevation.", "preferredTerm": "Immediate Percutaneous Coronary Intervention for ST Elevation Myocardial Infarction", "submissionValue": "IMMEDIATE PERCUTANEOUS CORONARY INTERVENTION (PCI) FOR ST ELEVATION MYOCARDIAL INFARCTION (STEMI)"}, {"conceptId": "C26726", "definition": "A disorder resulting from the presence and activity of a microbial, viral, or parasitic agent. It can be transmitted by direct or indirect contact. (NCI)", "preferredTerm": "Infectious Disorder", "submissionValue": "INFECTION"}, {"conceptId": "C99931", "definition": "A cardiac lead has damaged local tissue enough to require treatment.", "preferredTerm": "Cardiac Lead Erosion", "submissionValue": "LEAD EROSION"}, {"conceptId": "C64251", "definition": "The degree of impairment of the left cardiac ventricle to contract efficiently.", "preferredTerm": "Left Ventricular Systolic Dysfunction", "submissionValue": "LEFT VENTRICULAR SYSTOLIC DYSFUNCTION"}, {"conceptId": "C100045", "definition": "An imperative issued by the manufacturer of a device that the device needs to be returned to a designated source for repair or replacement.", "preferredTerm": "Manufacturer Recall", "submissionValue": "MANUFACTURER RECALL"}, {"conceptId": "C99980", "definition": "The device manufacturer had recognized a recurrent performance failure in the device.", "preferredTerm": "Manufacturer Recognized a Recurring Performance Failure", "submissionValue": "MANUFACTURER RECOGNIZED A RECURRING PERFORMANCE FAILURE"}, {"conceptId": "C99982", "definition": "The medical condition or the procedure affects the device implantation site.", "preferredTerm": "Medical Condition or Procedure Affects Implantation Site", "submissionValue": "MEDICAL CONDITION OR PROCEDURE AFFECTS IMPLANTATION SITE"}, {"conceptId": "C99983", "definition": "An intended medical or surgical procedure necessitates the relocation of a cardiac lead.", "preferredTerm": "Medical or Surgical Procedure Requiring Relocation of Lead", "submissionValue": "MEDICAL OR SURGICAL PROCEDURE REQUIRING RELOCATION OF LEAD"}, {"conceptId": "C99999", "definition": "Includes patients with unstable angina or Non-STEMI who have high risk features for short-term risk of death or nonfatal MI. High risk features includes at least one of the following: history of accelerating tempo of ischemic symptoms in preceding 48 hours; character of pain - prolonged ongoing (greater than 20 minutes) rest pain; clinical findings - pulmonary edema, most likely due to ischemia or new or worsening mitral regurgitation murmur; or S3 or new worsening rales or Hypotension, bradycardia, tachycardia or age greater than 75 years; ECG - angina at rest with transient ST-segment changes greater than 0.5 mm or bundle-branch block, new or presumed new or sustained ventricular tachycardia; cardiac markers - NSTEMI patients with elevated cardiac TnT, Tnl, or CK-MB.", "preferredTerm": "Percutaneous Coronary Intervention for High Risk Non-ST Elevation Myocardial Infarction or Unstable Angina", "submissionValue": "PERCUTANEOUS CORONARY INTERVENTION (PCI) FOR HIGH RISK NON-ST ELEVATION MYOCARDIAL INFARCTION OR UNSTABLE ANGINA"}, {"conceptId": "C100001", "definition": "A percutaneous coronary intervention is necessary for a myocardial infarction that presents with ST segment elevation and the subject does not have recurrent or persistent symptoms, symptoms of heart failure or ventricular arrhythmia after a successful dose of thrombolytic therapy.", "preferredTerm": "Percutaneous Coronary Intervention for ST Elevation Myocardial Infarction-Stable After Successful Full-Dose Thrombolytic Therapy", "submissionValue": "PERCUTANEOUS CORONARY INTERVENTION (PCI) FOR ST ELEVATION MYOCARDIAL INFARCTION (STEMI) (STABLE AFTER SUCCESSFUL FULL-DOSE THROMBOLYTICS)"}, {"conceptId": "C100000", "definition": "A percutaneous coronary intervention is necessary for a myocardial infarction that presents with ST segment elevation and the subject does not have recurrent or persistent symptoms, symptoms of heart failure or ventricular arrhythmia. The presentation is past twelve hours since onset of symptoms.", "preferredTerm": "Percutaneous Coronary Intervention for ST Elevation Myocardial Infarction-Stable-Over 12 Hours From Symptom Onset", "submissionValue": "PERCUTANEOUS CORONARY INTERVENTION (PCI) FOR ST ELEVATION MYOCARDIAL INFARCTION (STEMI) (STABLE, >12 HRS FROM SYMPTOM ONSET)"}, {"conceptId": "C100002", "definition": "A percutaneous coronary intervention is necessary for a myocardial infarction that presents with ST segment elevation and the subject has recurrent or persistent symptoms, symptoms of heart failure or ventricular arrhythmia. The presentation is past twelve hours since onset of symptoms.", "preferredTerm": "Percutaneous Coronary Intervention for ST Elevation Myocardial Infarction-Unstable-Over 12 Hours From Symptom Onset", "submissionValue": "PERCUTANEOUS CORONARY INTERVENTION (PCI) FOR ST ELEVATION MYOCARDIAL INFARCTION (STEMI) (UNSTABLE, >12 HRS FROM SYMPTOM ONSET)"}, {"conceptId": "C100005", "definition": "A procedure to evaluate the health of the an individual after receiving a heart transplant.", "preferredTerm": "Post-Cardiac Transplant Evaluation", "submissionValue": "POST-CARDIAC TRANSPLANT"}, {"conceptId": "C100006", "definition": "A procedure to evaluate the health of the cardiac system to determine feasibility of a non-cardiac related surgical procedure.", "preferredTerm": "Pre-Operative Evaluation for Non-Cardiovascular Surgery", "submissionValue": "PRE-OPERATIVE EVALUATION FOR NON-CARDIOVASCULAR SURGERY"}, {"conceptId": "C15306", "definition": "A procedure performed to avoid the first occurrence of a disease condition.", "preferredTerm": "Primary Prevention", "submissionValue": "PRIMARY PREVENTION"}, {"conceptId": "C100008", "definition": "A percutaneous coronary intervention is imperative for a myocardial infarction that presents with ST segment elevation after an unsatisfactory response to a full dose of thrombolytic therapy.", "preferredTerm": "Rescue Percutaneous Coronary Intervention for ST Elevation Myocardial Infarction After Failed Full-Dose Thrombolytic Therapy", "submissionValue": "RESCUE PERCUTANEOUS CORONARY INTERVENTION (PCI) FOR ST ELEVATION MYOCARDIAL INFARCTION (STEMI) (AFTER FAILED FULL-DOSE THROMBOLYTICS)"}, {"conceptId": "C15712", "definition": "A procedure performed to avoid a subsequent occurrence of a disease condition.", "preferredTerm": "Secondary Prevention", "submissionValue": "SECONDARY PREVENTION"}, {"conceptId": "C100014", "definition": "Ventricular tachycardia that occurs without provocation and does not resolve spontaneously.", "preferredTerm": "Spontaneous Sustained Ventricular Tachycardia by ECG Finding", "submissionValue": "SPONTANEOUS SUSTAINED VENTRICULAR TACHYCARDIA"}, {"conceptId": "C100015", "definition": "A subsequent Percutaneous Coronary Intervention in a planned series of procedures, where the first PCI could have been during a prior admission, or during this admission.", "preferredTerm": "Staged Percutaneous Coronary Intervention", "submissionValue": "STAGED PERCUTANEOUS CORONARY INTERVENTION (PCI)"}, {"conceptId": "C100018", "definition": "A sudden loss of consciousness with loss of postural tone not related to anesthesia with high risk characteristics. High risk characteristics include non-ischemic dilated cardiomyopathy, or ischemic heart disease with significant ventricular dysfunction, hypertrophic cardiomyopathy, Brugada Syndrome, or Long QT Syndrome.", "preferredTerm": "Syncope with High Risk Cardiac Characteristics", "submissionValue": "SYNCOPE WITH HIGH RISK CHARACTERISTICS"}, {"conceptId": "C100019", "definition": "Sudden loss of consciousness with loss of postural tone not related to anesthesia with ventricular tachycardia (VT) that can be induced during an electrophysiological study.", "preferredTerm": "Syncope with Inducible Ventricular Tachycardia by ECG Finding", "submissionValue": "SYNCOPE WITH INDUCIBLE VENTRICULAR TACHYCARDIA"}, {"conceptId": "C17998", "definition": "Not known, not observed, not recorded, or refused. (NCI)", "preferredTerm": "Unknown", "submissionValue": "UNKNOWN", "synonyms": ["U", "Unknown"]}, {"conceptId": "C100030", "definition": "A device with additional pacing capabilities is replacing the current device.", "preferredTerm": "Upgrade to Cardiac Device with Additional Pacing Capabilities", "submissionValue": "UPGRADE TO A DEVICE WITH ADDITIONAL PACING CAPABILITIES"}, {"conceptId": "C50799", "definition": "Ventricular Fibrillation is characterized by rapid, usually more than 300 bpm (cycle length: 180 ms or less), grossly irregular ventricular rhythm with marked variability in QRS cycle length, morphology, and amplitude.", "preferredTerm": "Ventricular Fibrillation", "submissionValue": "VENTRICULAR FIBRILLATION"}]}