{"_links": {"parentPackage": {"href": "/mdr/ct/packages/sdtmct-2016-12-16", "title": "SDTM Controlled Terminology Package 28 Effective 2016-12-16", "type": "Terminology"}, "priorVersion": {"href": "/mdr/ct/packages/sdtmct-2016-09-30/codelists/C101842", "title": "CDISC SDTM Canadian Cardiovascular Society Classification Terminology", "type": "Code List"}, "rootItem": {"href": "/mdr/root/ct/sdtmct/codelists/C101842", "title": "Version-agnostic anchor resource for codelist C101842", "type": "Root Value Domain"}, "self": {"href": "/mdr/ct/packages/sdtmct-2016-12-16/codelists/C101842", "title": "CDISC SDTM Canadian Cardiovascular Society Classification Terminology", "type": "Code List"}}, "conceptId": "C101842", "definition": "The anginal classifications as measured by the Canadian Cardiovascular Society grading scale.", "extensible": "false", "name": "Canadian Cardiovascular Society Classification", "preferredTerm": "CDISC SDTM Canadian Cardiovascular Society Classification Terminology", "submissionValue": "CACRDSC", "synonyms": ["Canadian Cardiovascular Society Classification"], "terms": [{"conceptId": "C77265", "definition": "Ordinary physical activity, such as walking or climbing stairs, does not cause angina. Angina occurs with strenuous, rapid, or prolonged exertion at work or recreation.", "preferredTerm": "Canadian Cardiovascular Society Grading Scale Class I", "submissionValue": "CCS CLASS 1", "synonyms": ["Canadian Cardiovascular Society Classification 1"]}, {"conceptId": "C77266", "definition": "Slight limitation of ordinary activity. Angina occurs on walking or climbing stairs rapidly, walking uphill, walking or climbing stairs after meals, or in cold, in wind, or under emotional stress, or only during the few hours after awakening. Angina occurs on walking more than 2 blocks on the level and climbing more than 1 flight of ordinary stairs at a normal pace and in normal conditions.", "preferredTerm": "Canadian Cardiovascular Society Grading Scale Class II", "submissionValue": "CCS CLASS 2", "synonyms": ["Canadian Cardiovascular Society Classification 2"]}, {"conceptId": "C77267", "definition": "Marked limitations of ordinary physical activity. Angina occurs on walking 1 to 2 blocks on the level and climbing 1 flight of stairs in normal conditions and at a normal pace.", "preferredTerm": "Canadian Cardiovascular Society Grading Scale Class III", "submissionValue": "CCS CLASS 3", "synonyms": ["Canadian Cardiovascular Society Classification 3"]}, {"conceptId": "C77268", "definition": "Inability to perform any physical activity without discomfort - anginal symptoms may be present at rest.", "preferredTerm": "Canadian Cardiovascular Society Grading Scale Class IV", "submissionValue": "CCS CLASS 4", "synonyms": ["Canadian Cardiovascular Society Classification 4"]}]}