{"_links": {"parentPackage": {"href": "/mdr/ct/packages/sdtmct-2016-12-16", "title": "SDTM Controlled Terminology Package 28 Effective 2016-12-16", "type": "Terminology"}, "priorVersion": {"href": "/mdr/ct/packages/sdtmct-2016-09-30/codelists/C111349", "title": "CDISC Questionnaire SDS Test Name Terminology", "type": "Code List"}, "rootItem": {"href": "/mdr/root/ct/sdtmct/codelists/C111349", "title": "Version-agnostic anchor resource for codelist C111349", "type": "Root Value Domain"}, "self": {"href": "/mdr/ct/packages/sdtmct-2016-12-16/codelists/C111349", "title": "CDISC Questionnaire SDS Test Name Terminology", "type": "Code List"}}, "conceptId": "C111349", "definition": "Sheehan Disability Scale test name.", "extensible": "false", "name": "Sheehan Disability Scale Questionnaire Test Name", "preferredTerm": "CDISC Questionnaire SDS Test Name Terminology", "submissionValue": "SDS01TN", "synonyms": ["Sheehan Disability Scale Questionnaire Test Name"], "terms": [{"conceptId": "C111525", "definition": "Sheehan Disability Scale - On how many days in the last week did your symptoms cause you to miss school or work or leave you unable to carry out your normal daily responsibilities?", "preferredTerm": "SDS - Days Lost", "submissionValue": "SDS01-Days Lost", "synonyms": ["SDS01-Days Lost"]}, {"conceptId": "C111526", "definition": "Sheehan Disability Scale - On how many days in the last week did you feel so impaired by your symptoms, that even though you went to school or work or had other daily responsibilities, your productivity was reduced?", "preferredTerm": "SDS - Days Unproductive", "submissionValue": "SDS01-Days Unproductive", "synonyms": ["SDS01-Days Unproductive"]}, {"conceptId": "C111524", "definition": "Sheehan Disability Scale - The symptoms have disrupted your family life/home responsibilities.", "preferredTerm": "SDS - Symptoms Disrupted Family Life/Home Responsibilities", "submissionValue": "SDS01-Family Life/Home Responsibilities", "synonyms": ["SDS01-Family Life/Home Responsibilities"]}, {"conceptId": "C111522", "definition": "Sheehan Disability Scale - I have not worked/studied at all during the past week for reasons unrelated to the disorder.", "preferredTerm": "SDS - Not Worked/Studied in Past Week for Reason Unrelated to Disorder", "submissionValue": "SDS01-No Work/Study - Unrelated Disorder", "synonyms": ["SDS01-No Work/Study - Unrelated Disorder"]}, {"conceptId": "C111523", "definition": "Sheehan Disability Scale - The symptoms have disrupted your social life/leisure activities.", "preferredTerm": "SDS - Symptoms Disrupted Social Life/Leisure Activities", "submissionValue": "SDS01-Social Life", "synonyms": ["SDS01-Social Life"]}, {"conceptId": "C111521", "definition": "Sheehan Disability Scale - The symptoms have disrupted your work/school work.", "preferredTerm": "SDS - Symptoms Disrupted Work/School Work", "submissionValue": "SDS01-Work/School", "synonyms": ["SDS01-Work/School"]}]}