{"_links": {"parentPackage": {"href": "/mdr/ct/packages/sdtmct-2016-12-16", "title": "SDTM Controlled Terminology Package 28 Effective 2016-12-16", "type": "Terminology"}, "priorVersion": {"href": "/mdr/ct/packages/sdtmct-2016-09-30/codelists/C113855", "title": "CDISC Questionnaire Impact of Visual Impairment Scale Test Name Terminology", "type": "Code List"}, "rootItem": {"href": "/mdr/root/ct/sdtmct/codelists/C113855", "title": "Version-agnostic anchor resource for codelist C113855", "type": "Root Value Domain"}, "self": {"href": "/mdr/ct/packages/sdtmct-2016-12-16/codelists/C113855", "title": "CDISC Questionnaire Impact of Visual Impairment Scale Test Name Terminology", "type": "Code List"}}, "conceptId": "C113855", "definition": "Impact of Visual Impairment Scale test name.", "extensible": "false", "name": "Impact of Visual Impairment Scale Questionnaire Test Name", "preferredTerm": "CDISC Questionnaire Impact of Visual Impairment Scale Test Name Terminology", "submissionValue": "IVIS01TN", "synonyms": ["Impact of Visual Impairment Scale Questionnaire Test Name"], "terms": [{"conceptId": "C113966", "definition": "Impact of Visual Impairment Scale - During the past 4 weeks, how difficult did you find it to identify house numbers, street signs, etc.?", "preferredTerm": "IVIS - Identify House Numbers or Street Signs", "submissionValue": "IVIS01-Identify House Number/Street Sign", "synonyms": ["IVIS01-Identify House Number/Street Sign"]}, {"conceptId": "C113964", "definition": "Impact of Visual Impairment Scale - During the past 4 weeks, how difficult did you find it to read or access dials, such as on stoves, thermostats, etc.?", "preferredTerm": "IVIS - Read or Access Dials", "submissionValue": "IVIS01-Read or Access Dials", "synonyms": ["IVIS01-Read or Access Dials"]}, {"conceptId": "C113962", "definition": "Impact of Visual Impairment Scale - During the past 4 weeks, how difficult did you find it to read or access personal letters or notes?", "preferredTerm": "IVIS - Read or Access Personal Letters", "submissionValue": "IVIS01-Read or Access Personal Letters", "synonyms": ["IVIS01-Read or Access Personal Letters"]}, {"conceptId": "C113963", "definition": "Impact of Visual Impairment Scale - During the past 4 weeks, how difficult did you find it to read or access printed materials, such as books, magazines, newspaper, etc.?", "preferredTerm": "IVIS - Read or Access Printed Materials", "submissionValue": "IVIS01-Read or Access Printed Materials", "synonyms": ["IVIS01-Read or Access Printed Materials"]}, {"conceptId": "C113965", "definition": "Impact of Visual Impairment Scale - During the past 4 weeks, how difficult did you find it to watch television or identify faces from a distance?", "preferredTerm": "IVIS - Watch TV or Identify Faces From Distance", "submissionValue": "IVIS01-Watch TV/ID Faces From Distance", "synonyms": ["IVIS01-Watch TV/ID Faces From Distance"]}]}