{"_links": {"parentPackage": {"href": "/mdr/ct/packages/sdtmct-2016-12-16", "title": "SDTM Controlled Terminology Package 28 Effective 2016-12-16", "type": "Terminology"}, "priorVersion": {"href": "/mdr/ct/packages/sdtmct-2016-09-30/codelists/C114118", "title": "CDISC SDTM Protocol Milestone Terminology", "type": "Code List"}, "rootItem": {"href": "/mdr/root/ct/sdtmct/codelists/C114118", "title": "Version-agnostic anchor resource for codelist C114118", "type": "Root Value Domain"}, "self": {"href": "/mdr/ct/packages/sdtmct-2016-12-16/codelists/C114118", "title": "CDISC SDTM Protocol Milestone Terminology", "type": "Code List"}}, "conceptId": "C114118", "definition": "A terminology codelist relevant to protocol-specified, point-in-time events during a study.", "extensible": "true", "name": "Protocol Milestone", "preferredTerm": "CDISC SDTM Protocol Milestone Terminology", "submissionValue": "PROTMLST", "synonyms": ["Protocol Milestone"], "terms": [{"conceptId": "C16735", "definition": "Consent by a patient for participation in a clinical study after achieving an understanding of the relevant medical facts and the risks involved.", "preferredTerm": "Informed Consent", "submissionValue": "INFORMED CONSENT OBTAINED"}, {"conceptId": "C114209", "definition": "Participants are assigned to arms of a clinical trial by chance.", "preferredTerm": "Subject is Randomized", "submissionValue": "RANDOMIZED"}]}