{"_links": {"parentPackage": {"href": "/mdr/ct/packages/sdtmct-2016-12-16", "title": "SDTM Controlled Terminology Package 28 Effective 2016-12-16", "type": "Terminology"}, "priorVersion": {"href": "/mdr/ct/packages/sdtmct-2016-09-30/codelists/C116105", "title": "CDISC SDTM Pharmacogenomics Findings Test Name Terminology", "type": "Code List"}, "rootItem": {"href": "/mdr/root/ct/sdtmct/codelists/C116105", "title": "Version-agnostic anchor resource for codelist C116105", "type": "Root Value Domain"}, "self": {"href": "/mdr/ct/packages/sdtmct-2016-12-16/codelists/C116105", "title": "CDISC SDTM Pharmacogenomics Findings Test Name Terminology", "type": "Code List"}}, "conceptId": "C116105", "definition": "Terminology relevant to the test names that describe pharmacogenomics findings.", "extensible": "true", "name": "Pharmacogenomics Findings Test Name", "preferredTerm": "CDISC SDTM Pharmacogenomics Findings Test Name Terminology", "submissionValue": "PFTEST", "synonyms": ["Pharmacogenomics Findings Test Name"], "terms": [{"conceptId": "C16277", "definition": "The determination of which version of the gene is on each chromosome.", "preferredTerm": "Allele", "submissionValue": "Allele", "synonyms": ["Allele"]}]}