{"_links": {"parentPackage": {"href": "/mdr/ct/packages/sdtmct-2016-12-16", "title": "SDTM Controlled Terminology Package 28 Effective 2016-12-16", "type": "Terminology"}, "priorVersion": {"href": "/mdr/ct/packages/sdtmct-2016-09-30/codelists/C119069", "title": "CDISC Questionnaire DLQI Test Name Terminology", "type": "Code List"}, "rootItem": {"href": "/mdr/root/ct/sdtmct/codelists/C119069", "title": "Version-agnostic anchor resource for codelist C119069", "type": "Root Value Domain"}, "self": {"href": "/mdr/ct/packages/sdtmct-2016-12-16/codelists/C119069", "title": "CDISC Questionnaire DLQI Test Name Terminology", "type": "Code List"}}, "conceptId": "C119069", "definition": "Dermatology Life Quality Index test name.", "extensible": "false", "name": "Dermatology Life Quality Index Questionnaire Test Name", "preferredTerm": "CDISC Questionnaire DLQI Test Name Terminology", "submissionValue": "DLQI1TN", "synonyms": ["Dermatology Life Quality Index Questionnaire Test Name"], "terms": [{"conceptId": "C119174", "definition": "Dermatology Life Quality Index - Score.", "preferredTerm": "DLQI - Score", "submissionValue": "DLQI-Score", "synonyms": ["DLQI-Score"]}, {"conceptId": "C119167", "definition": "Dermatology Life Quality Index - Over the last week, how much has your skin affected any social or leisure activities?", "preferredTerm": "DLQI - Skin Affect Social or Leisure Activities", "submissionValue": "DLQI1-Affected Social, Leisure Activity", "synonyms": ["DLQI1-Affected Social, Leisure Activity"]}, {"conceptId": "C119172", "definition": "Dermatology Life Quality Index - Over the last week, how much has your skin caused any sexual difficulties?", "preferredTerm": "DLQI - Skin Cause Sexual Difficulties", "submissionValue": "DLQI1-Caused Any Sexual Difficulties", "synonyms": ["DLQI1-Caused Any Sexual Difficulties"]}, {"conceptId": "C119164", "definition": "Dermatology Life Quality Index - Over the last week, how embarrassed or self conscious have you been because of your skin?", "preferredTerm": "DLQI - Embarrassed Because of Skin", "submissionValue": "DLQI1-How Embarrassed, Self Conscious", "synonyms": ["DLQI1-How Embarrassed, Self Conscious"]}, {"conceptId": "C119163", "definition": "Dermatology Life Quality Index - Over the last week, how itchy, sore, painful or stinging has your skin been?", "preferredTerm": "DLQI - Itchy, Sore, Painful or Stinging Skin", "submissionValue": "DLQI1-How Itchy, Sore, Painful, Stinging", "synonyms": ["DLQI1-How Itchy, Sore, Painful, Stinging"]}, {"conceptId": "C119173", "definition": "Dermatology Life Quality Index - Over the last week, how much of a problem has the treatment for your skin been, for example by making your home messy, or by taking up time?", "preferredTerm": "DLQI - Treatment for Skin Make Home Messy", "submissionValue": "DLQI1-How Much a Problem is Treatment", "synonyms": ["DLQI1-How Much a Problem is Treatment"]}, {"conceptId": "C119166", "definition": "Dermatology Life Quality Index - Over the last week, how much has your skin influenced the clothes you wear?", "preferredTerm": "DLQI - Skin Influence Clothes You Wear", "submissionValue": "DLQI1-Influenced Clothes You Wear", "synonyms": ["DLQI1-Influenced Clothes You Wear"]}, {"conceptId": "C119165", "definition": "Dermatology Life Quality Index - Over the last week, how much has your skin interfered with you going shopping or looking after your home or yard?", "preferredTerm": "DLQI - Skin Interfere With Shopping, Looking After Home or Yard", "submissionValue": "DLQI1-Interfered Shopping, Home, Yard", "synonyms": ["DLQI1-Interfered Shopping, Home, Yard"]}, {"conceptId": "C119168", "definition": "Dermatology Life Quality Index - Over the last week, how much has your skin made it difficult for you to do any sport?", "preferredTerm": "DLQI - Skin Made Difficult to Do Sport", "submissionValue": "DLQI1-Made It Difficult to Do Any Sports", "synonyms": ["DLQI1-Made It Difficult to Do Any Sports"]}, {"conceptId": "C119169", "definition": "Dermatology Life Quality Index - Over the last week, has your skin prevented you from working or studying?", "preferredTerm": "DLQI - Skin Prevent Work or Study", "submissionValue": "DLQI1-Prevented Working or Studying", "synonyms": ["DLQI1-Prevented Working or Studying"]}, {"conceptId": "C119171", "definition": "Dermatology Life Quality Index - Over the last week, how much has your skin created problems with your partner or any of your close friends or relatives?", "preferredTerm": "DLQI - Skin Create Problem With Partner, Friends or Relatives", "submissionValue": "DLQI1-Problem Partner, Friends, Relative", "synonyms": ["DLQI1-Problem Partner, Friends, Relative"]}, {"conceptId": "C119170", "definition": "Dermatology Life Quality Index - If 'No', over the last week how much has your skin been a problem at work or studying?", "preferredTerm": "DLQI - Skin Has Been a Problem at Work or Study", "submissionValue": "DLQI1-Problem at Work or Studying", "synonyms": ["DLQI1-Problem at Work or Studying"]}]}