{"_links": {"parentPackage": {"href": "/mdr/ct/packages/sdtmct-2016-12-16", "title": "SDTM Controlled Terminology Package 28 Effective 2016-12-16", "type": "Terminology"}, "priorVersion": {"href": "/mdr/ct/packages/sdtmct-2016-09-30/codelists/C120525", "title": "CDISC SDTM Immunogenicity Specimen Assessments Test Code Terminology", "type": "Code List"}, "rootItem": {"href": "/mdr/root/ct/sdtmct/codelists/C120525", "title": "Version-agnostic anchor resource for codelist C120525", "type": "Root Value Domain"}, "self": {"href": "/mdr/ct/packages/sdtmct-2016-12-16/codelists/C120525", "title": "CDISC SDTM Immunogenicity Specimen Assessments Test Code Terminology", "type": "Code List"}}, "conceptId": "C120525", "definition": "Terminology relevant to the immunogenicity specimen test codes of the CDISC Study Data Tabulation Model.", "extensible": "true", "name": "Immunogenicity Specimen Assessments Test Code", "preferredTerm": "CDISC SDTM Immunogenicity Specimen Assessments Test Code Terminology", "submissionValue": "ISTESTCD", "synonyms": ["Immunogenicity Specimen Assessments Test Code"], "terms": [{"conceptId": "C120622", "definition": "A measurement of the H1 specific IgG antibody secreting cells in a biological specimen.", "preferredTerm": "Influenza Hemagglutinin 1 Specific IgG Antibody Secreting Cell Count", "submissionValue": "H1IGGASC", "synonyms": ["H1 Specific IgG ASCs", "H1 Specific IgG Antibody Secreting Cells"]}, {"conceptId": "C120623", "definition": "A measurement of the H3 specific IgG antibody secreting cells in a biological specimen.", "preferredTerm": "Influenza Hemagglutinin 3 Specific IgG Antibody Secreting Cell Count", "submissionValue": "H3IGGASC", "synonyms": ["H3 Specific IgG ASCs", "H3 Specific IgG Antibody Secreting Cells"]}, {"conceptId": "C120624", "definition": "A measurement of the total IgG antibody secreting cells in a biological specimen.", "preferredTerm": "Total IgG Antibody Secreting Cell Count", "submissionValue": "TIGGASC", "synonyms": ["Total IgG ASCs", "Total IgG Antibody Secreting Cells"]}]}