{"_links": {"parentPackage": {"href": "/mdr/ct/packages/sdtmct-2016-12-16", "title": "SDTM Controlled Terminology Package 28 Effective 2016-12-16", "type": "Terminology"}, "priorVersion": {"href": "/mdr/ct/packages/sdtmct-2016-09-30/codelists/C123650", "title": "CDISC SDTM Tumor and Lesion Identification Test Result Terminology", "type": "Code List"}, "rootItem": {"href": "/mdr/root/ct/sdtmct/codelists/C123650", "title": "Version-agnostic anchor resource for codelist C123650", "type": "Root Value Domain"}, "self": {"href": "/mdr/ct/packages/sdtmct-2016-12-16/codelists/C123650", "title": "CDISC SDTM Tumor and Lesion Identification Test Result Terminology", "type": "Code List"}}, "conceptId": "C123650", "definition": "Terminology relevant to tumor or lesion identification test results.", "extensible": "true", "name": "Tumor or Lesion Identification Test Results", "preferredTerm": "CDISC SDTM Tumor and Lesion Identification Test Result Terminology", "submissionValue": "TUIDRS", "synonyms": ["Tumor or Lesion Identification Test Results"], "terms": [{"conceptId": "C14172", "definition": "For neoplasms, a non-infiltrating and non-metastasizing neoplastic process that is characterized by the absence of morphologic features associated with malignancy (e.g., severe atypia, nuclear pleomorphism, tumor cell necrosis, and abnormal mitoses). For other conditions, a process that is mild in nature and not dangerous to health. (NCI)", "preferredTerm": "Benign", "submissionValue": "BENIGN", "synonyms": ["Benign"]}, {"conceptId": "C25321", "definition": "Of or belonging to an area on the body that is far apart in relation to a point of origin.", "preferredTerm": "Distant", "submissionValue": "DISTANT"}, {"conceptId": "C67263", "definition": "Of or belonging to a restricted area on the body in relation to a point of origin.", "preferredTerm": "Local", "submissionValue": "LOCAL"}, {"conceptId": "C25388", "definition": "Of or belonging to either a local and/or regional area of the body in relation to a point of origin.", "preferredTerm": "Local-Regional", "submissionValue": "LOCOREGIONAL"}, {"conceptId": "C103416", "definition": "The identification of a tumor, lesion, or site of disease that is present at baseline and will be quantifiably measured.", "preferredTerm": "Measured Tumor Identification", "submissionValue": "MEASURED"}, {"conceptId": "C94522", "definition": "The identification of a tumor, lesion, or site of disease which has not been previously seen or characterized.", "preferredTerm": "New Lesion Identification", "submissionValue": "NEW"}, {"conceptId": "C103423", "definition": "The identification of a tumor, lesion, or site of disease that is incapable of being measured at baseline.", "preferredTerm": "Non-Measurable Tumor Identification", "submissionValue": "NON-MEASURABLE"}, {"conceptId": "C94521", "definition": "The identification of a tumor, lesion or site of disease that is present at baseline and not considered a target, but may be part of the objective assessment of the response to the therapeutic intervention.", "preferredTerm": "Non-Target Lesion Identification", "submissionValue": "NON-TARGET"}, {"conceptId": "C103425", "definition": "The identification of a tumor, lesion, or site of disease that is present at baseline and will not be quantifiably measured.", "preferredTerm": "Not Measured Tumor Identification", "submissionValue": "NOT MEASURED"}, {"conceptId": "C25643", "definition": "Of or belonging to a broader area or region of the body in relation to a point of origin.", "preferredTerm": "Regional", "submissionValue": "REGIONAL"}, {"conceptId": "C94520", "definition": "The identification of a tumor, lesion, or site of disease that is present at baseline and is the target of the therapeutic intervention.", "preferredTerm": "Target Lesion Identification", "submissionValue": "TARGET"}, {"conceptId": "C103442", "definition": "The identification of a tumor or lesion that is present at baseline, located outside of or independent of any lymph nodes, and is the target of the therapeutic intervention.", "preferredTerm": "Target Extra Nodal Tumor Identification", "submissionValue": "TARGET EXTRA NODAL"}, {"conceptId": "C103443", "definition": "The identification of a tumor or lesion located at or near the lymph node that is present at baseline and is the target of the therapeutic intervention.", "preferredTerm": "Target Nodal Tumor Identification", "submissionValue": "TARGET NODAL"}, {"conceptId": "C103444", "definition": "The identification of a nodule that is the target of the therapeutic intervention.", "preferredTerm": "Target Nodule Tumor Identification", "submissionValue": "TARGET NODULE"}]}