{"_links": {"parentPackage": {"href": "/mdr/ct/packages/sdtmct-2016-12-16", "title": "SDTM Controlled Terminology Package 28 Effective 2016-12-16", "type": "Terminology"}, "priorVersion": {"href": "/mdr/ct/packages/sdtmct-2016-09-30/codelists/C124670", "title": "CDISC Clinical Classification FHS CVD 10-Year Risk Score Test Code Terminology", "type": "Code List"}, "rootItem": {"href": "/mdr/root/ct/sdtmct/codelists/C124670", "title": "Version-agnostic anchor resource for codelist C124670", "type": "Root Value Domain"}, "self": {"href": "/mdr/ct/packages/sdtmct-2016-12-16/codelists/C124670", "title": "CDISC Clinical Classification FHS CVD 10-Year Risk Score Test Code Terminology", "type": "Code List"}}, "conceptId": "C124670", "definition": "Framingham Heart Study Cardiovascular Disease 10-Year Risk Score test code.", "extensible": "false", "name": "Framingham Heart Study Cardiovascular Disease 10-Year Risk Score Clinical Classification Test Code", "preferredTerm": "CDISC Clinical Classification FHS CVD 10-Year Risk Score Test Code Terminology", "submissionValue": "FCVD1TC", "synonyms": ["Framingham Heart Study Cardiovascular Disease 10-Year Risk Score Clinical Classification Test Code"], "terms": [{"conceptId": "C124722", "definition": "Framingham Heart Study Cardiovascular Disease 10-Year Risk Score - Cardiovascular disease 10-year risk score.", "preferredTerm": "FHS CVD 10-Year Risk Score - Risk Score", "submissionValue": "FCVD101", "synonyms": ["FCVD1-Framingham CVD 10-Year Risk Score"]}]}