{"_links": {"parentPackage": {"href": "/mdr/ct/packages/sdtmct-2016-12-16", "title": "SDTM Controlled Terminology Package 28 Effective 2016-12-16", "type": "Terminology"}, "priorVersion": {"href": "/mdr/ct/packages/sdtmct-2016-09-30/codelists/C124301", "title": "CDISC SDTM Medical History Event Date Type Terminology", "type": "Code List"}, "rootItem": {"href": "/mdr/root/ct/sdtmct/codelists/C124301", "title": "Version-agnostic anchor resource for codelist C124301", "type": "Root Value Domain"}, "self": {"href": "/mdr/ct/packages/sdtmct-2016-12-16/codelists/C124301", "title": "CDISC SDTM Medical History Event Date Type Terminology", "type": "Code List"}}, "conceptId": "C124301", "definition": "Terminology relevant to the classification of the medical condition or event by which MHSTDTC is defined.", "extensible": "true", "name": "Medical History Event Date Type", "preferredTerm": "CDISC SDTM Medical History Event Date Type Terminology", "submissionValue": "MHEDTTYP", "synonyms": ["Medical History Event Date Type"], "terms": [{"conceptId": "C15220", "definition": "The investigation, analysis and recognition of the presence and nature of disease, condition, or injury from expressed signs and symptoms; also, the scientific determination of any kind; the concise results of such an investigation. (NCI)", "preferredTerm": "Diagnosis", "submissionValue": "DIAGNOSIS"}, {"conceptId": "C124353", "definition": "The point at which the symptoms began or were first noted.", "preferredTerm": "Symptom Onset", "submissionValue": "SYMPTOM ONSET"}]}