{"_links": {"parentPackage": {"href": "/mdr/ct/packages/sdtmct-2016-12-16", "title": "SDTM Controlled Terminology Package 28 Effective 2016-12-16", "type": "Terminology"}, "priorVersion": {"href": "/mdr/ct/packages/sdtmct-2016-09-30/codelists/C124307", "title": "CDISC SDTM Treatment Intent Terminology", "type": "Code List"}, "rootItem": {"href": "/mdr/root/ct/sdtmct/codelists/C124307", "title": "Version-agnostic anchor resource for codelist C124307", "type": "Root Value Domain"}, "self": {"href": "/mdr/ct/packages/sdtmct-2016-12-16/codelists/C124307", "title": "CDISC SDTM Treatment Intent Terminology", "type": "Code List"}}, "conceptId": "C124307", "definition": "Terminology relevant to the intended disease outcome for which the treatment is given.", "extensible": "true", "name": "Treatment Intent", "preferredTerm": "CDISC SDTM Treatment Intent Terminology", "submissionValue": "TRTINTNT", "synonyms": ["Treatment Intent"], "terms": [{"conceptId": "C62220", "definition": "Any action or response that serves to eliminate disease and prevent recurrence.", "preferredTerm": "Cure", "submissionValue": "CURATIVE"}, {"conceptId": "C101516", "definition": "Any action or response, without curative intent, that mitigates some or all of the unpleasant effects of a disease or condition.", "preferredTerm": "Palliative", "submissionValue": "PALLIATIVE"}, {"conceptId": "C15843", "definition": "Any action or response to modify or stop the development of a disease.", "preferredTerm": "Preventive Intervention", "submissionValue": "PREVENTATIVE"}]}