{"_links": {"parentPackage": {"href": "/mdr/ct/packages/sdtmct-2016-12-16", "title": "SDTM Controlled Terminology Package 28 Effective 2016-12-16", "type": "Terminology"}, "priorVersion": {"href": "/mdr/ct/packages/sdtmct-2016-09-30/codelists/C127352", "title": "CDISC Questionnaire EPIC-CP Test Code Terminology", "type": "Code List"}, "rootItem": {"href": "/mdr/root/ct/sdtmct/codelists/C127352", "title": "Version-agnostic anchor resource for codelist C127352", "type": "Root Value Domain"}, "self": {"href": "/mdr/ct/packages/sdtmct-2016-12-16/codelists/C127352", "title": "CDISC Questionnaire EPIC-CP Test Code Terminology", "type": "Code List"}}, "conceptId": "C127352", "definition": "The Expanded Prostate Cancer Index Composite for Clinical Practice test code.", "extensible": "false", "name": "The Expanded Prostate Cancer Index Composite for Clinical Practice Questionnaire Test Code", "preferredTerm": "CDISC Questionnaire EPIC-CP Test Code Terminology", "submissionValue": "EPIC2TC", "synonyms": ["The Expanded Prostate Cancer Index Composite for Clinical Practice Questionnaire Test Code"], "terms": [{"conceptId": "C127399", "definition": "Expanded Prostate Cancer Index Composite for Clinical Practice - Overall, how much of a problem has your urinary function been for you?", "preferredTerm": "EPIC-CP - Overall Problem Urinary Function", "submissionValue": "EPIC201", "synonyms": ["EPIC2-Overall Problem Urinary Function"]}, {"conceptId": "C127400", "definition": "Expanded Prostate Cancer Index Composite for Clinical Practice - Which of the following best describes your urinary control?", "preferredTerm": "EPIC-CP - Best Describes Urinary Control", "submissionValue": "EPIC202", "synonyms": ["EPIC2-Best Describes Urinary Control"]}, {"conceptId": "C127401", "definition": "Expanded Prostate Cancer Index Composite for Clinical Practice - How many pads or adult diapers per day have you been using for urinary leakage?", "preferredTerm": "EPIC-CP - Adult Diapers Used per Day", "submissionValue": "EPIC203", "synonyms": ["EPIC2-Pads or Adult Diapers per Day"]}, {"conceptId": "C127402", "definition": "Expanded Prostate Cancer Index Composite for Clinical Practice - How big a problem, if any, has urinary dripping or leakage been for you?", "preferredTerm": "EPIC-CP - Problem Urinary Dripping/Leakage", "submissionValue": "EPIC204", "synonyms": ["EPIC2-Problem Urinary Dripping/Leakage"]}, {"conceptId": "C127403", "definition": "Expanded Prostate Cancer Index Composite for Clinical Practice - How big a problem, if any, has each of the following been for you? Pain or burning with urination.", "preferredTerm": "EPIC-CP - Pain or Burning With Urination", "submissionValue": "EPIC205A", "synonyms": ["EPIC2-Problem Pain/Burning W/ Urination"]}, {"conceptId": "C127404", "definition": "Expanded Prostate Cancer Index Composite for Clinical Practice - How big a problem, if any, has each of the following been for you? Weak urine stream/incomplete bladder emptying.", "preferredTerm": "EPIC-CP - Weak Urine Stream or Incomplete Bladder Emptying", "submissionValue": "EPIC205B", "synonyms": ["EPIC2-Problem Weak Stream/Incompl Empty"]}, {"conceptId": "C127405", "definition": "Expanded Prostate Cancer Index Composite for Clinical Practice - How big a problem, if any, has each of the following been for you? Need to urinate frequently.", "preferredTerm": "EPIC-CP - Need to Urinate Frequently", "submissionValue": "EPIC205C", "synonyms": ["EPIC2-Problem Need to Urinate Frequently"]}, {"conceptId": "C127406", "definition": "Expanded Prostate Cancer Index Composite for Clinical Practice - How big a problem, if any, has each of the following been for you? Rectal pain or urgency of bowel movements.", "preferredTerm": "EPIC-CP - Rectal Pain or Urgency of Bowel Movements", "submissionValue": "EPIC206A", "synonyms": ["EPIC2-Problem Rectal Pain/Urgent Bowel"]}, {"conceptId": "C127407", "definition": "Expanded Prostate Cancer Index Composite for Clinical Practice - How big a problem, if any, has each of the following been for you? Increased frequency of your bowel movements.", "preferredTerm": "EPIC-CP - Increased Frequency of Bowel Movements", "submissionValue": "EPIC206B", "synonyms": ["EPIC2-Problem Increased Freq Bowel Move"]}, {"conceptId": "C127408", "definition": "Expanded Prostate Cancer Index Composite for Clinical Practice - How big a problem, if any, has each of the following been for you? Overall problems with your bowel habits.", "preferredTerm": "EPIC-CP - Overall Problems With Bowel Habits", "submissionValue": "EPIC206C", "synonyms": ["EPIC2-Overall Problem Bowel Habits"]}, {"conceptId": "C127409", "definition": "Expanded Prostate Cancer Index Composite for Clinical Practice - How would you rate your ability to reach orgasm (climax)?", "preferredTerm": "EPIC-CP - Rate Ability to Reach Orgasm", "submissionValue": "EPIC207", "synonyms": ["EPIC2-Rate Ability to Reach Orgasm"]}, {"conceptId": "C127410", "definition": "Expanded Prostate Cancer Index Composite for Clinical Practice - How would you describe the usual quality of your erections?", "preferredTerm": "EPIC-CP - Quality of Erections", "submissionValue": "EPIC208", "synonyms": ["EPIC2-Quality of Your Erections"]}, {"conceptId": "C127411", "definition": "Expanded Prostate Cancer Index Composite for Clinical Practice - Overall, how much of a problem has your sexual function or lack of sexual function been for you?", "preferredTerm": "EPIC-CP - Problem Lack of Sexual Function", "submissionValue": "EPIC209", "synonyms": ["EPIC2-Overall Problem Sexual Function"]}, {"conceptId": "C127412", "definition": "Expanded Prostate Cancer Index Composite for Clinical Practice - How big a problem, if any, has each of the following been for you? Hot flashes or breast tenderness/enlargement.", "preferredTerm": "EPIC-CP - Hot Flashes or Breast Tenderness", "submissionValue": "EPIC210A", "synonyms": ["EPIC2-Problem Hot Flash/Breast Tender"]}, {"conceptId": "C127413", "definition": "Expanded Prostate Cancer Index Composite for Clinical Practice - How big a problem, if any, has each of the following been for you? Feeling depressed.", "preferredTerm": "EPIC-CP - Feeling Depressed", "submissionValue": "EPIC210B", "synonyms": ["EPIC2-Problem Feeling Depressed"]}, {"conceptId": "C127414", "definition": "Expanded Prostate Cancer Index Composite for Clinical Practice - How big a problem, if any, has each of the following been for you? Lack of energy.", "preferredTerm": "EPIC-CP - Lack of Energy", "submissionValue": "EPIC210C", "synonyms": ["EPIC2-Problem Lack of Energy"]}, {"conceptId": "C127415", "definition": "Expanded Prostate Cancer Index Composite for Clinical Practice - Urinary incontinence symptom score.", "preferredTerm": "EPIC-CP - Urinary Incontinence Symptom Score", "submissionValue": "EPIC211", "synonyms": ["EPIC2-Urinary Incontinence Symptom Score"]}, {"conceptId": "C127416", "definition": "Expanded Prostate Cancer Index Composite for Clinical Practice - Urinary irritation/obstruction symptom score.", "preferredTerm": "EPIC-CP - Urinary Irritation/Obstruction Symptom Score", "submissionValue": "EPIC212", "synonyms": ["EPIC2-Urinary Irrit/Obstr Symptom Score"]}, {"conceptId": "C127417", "definition": "Expanded Prostate Cancer Index Composite for Clinical Practice - Bowel symptom score.", "preferredTerm": "EPIC-CP - Bowel Symptom Score", "submissionValue": "EPIC213", "synonyms": ["EPIC2-Bowel Symptom Score"]}, {"conceptId": "C127418", "definition": "Expanded Prostate Cancer Index Composite for Clinical Practice - Sexual symptom score.", "preferredTerm": "EPIC-CP - Sexual Symptom Score", "submissionValue": "EPIC214", "synonyms": ["EPIC2-Sexual Symptom Score"]}, {"conceptId": "C127419", "definition": "Expanded Prostate Cancer Index Composite for Clinical Practice - Vitality/hormonal symptom score.", "preferredTerm": "EPIC-CP - Vitality/Hormonal Symptom Score", "submissionValue": "EPIC215", "synonyms": ["EPIC2-Vitality/Hormonal Symptom Score"]}, {"conceptId": "C127420", "definition": "Expanded Prostate Cancer Index Composite for Clinical Practice - Overall prostate cancer QOL score.", "preferredTerm": "EPIC-CP - Overall Score", "submissionValue": "EPIC216", "synonyms": ["EPIC2-Overall Prostate Cancer QOL Score"]}]}