{"_links": {"parentPackage": {"href": "/mdr/ct/packages/sdtmct-2016-12-16", "title": "SDTM Controlled Terminology Package 28 Effective 2016-12-16", "type": "Terminology"}, "priorVersion": {"href": "/mdr/ct/packages/sdtmct-2016-09-30/codelists/C127270", "title": "CDISC SDTM Musculoskeletal System Finding Test Name Terminology", "type": "Code List"}, "rootItem": {"href": "/mdr/root/ct/sdtmct/codelists/C127270", "title": "Version-agnostic anchor resource for codelist C127270", "type": "Root Value Domain"}, "self": {"href": "/mdr/ct/packages/sdtmct-2016-12-16/codelists/C127270", "title": "CDISC SDTM Musculoskeletal System Finding Test Name Terminology", "type": "Code List"}}, "conceptId": "C127270", "definition": "A terminology codelist to describe the test name for a physiological examination of the musculoskeletal system.", "extensible": "true", "name": "Musculoskeletal System Finding Test Name", "preferredTerm": "CDISC SDTM Musculoskeletal System Finding Test Name Terminology", "submissionValue": "MUSCTS", "synonyms": ["Musculoskeletal System Finding Test Name"], "terms": [{"conceptId": "C128986", "definition": "The numerical value that represents the result of a clinical assessment of bone erosion based on the Genant modification of the Sharp Joint Erosion Assessment (Genant HK. Methods of assessing radiographic change in rheumatoid arthritis. Am J Med. 1983 Dec 30;75(6A):35-47).", "preferredTerm": "Sharp Genant Bone Erosion Score", "submissionValue": "Sharp/Genant Bone Erosion Score", "synonyms": ["Sharp/Genant Bone Erosion Score"]}, {"conceptId": "C128987", "definition": "The numerical value that represents the result of a clinical assessment of joint space narrowing based on the Genant modification of the Sharp Joint Space Narrowing Assessment (Genant HK. Methods of assessing radiographic change in rheumatoid arthritis. Am J Med. 1983 Dec 30;75(6A):35-47).", "preferredTerm": "Sharp Genant Joint Space Narrowing Score", "submissionValue": "Sharp/Genant JSN Score", "synonyms": ["Sharp/Genant JSN Score"]}, {"conceptId": "C128988", "definition": "The numerical value that represents the result of a clinical assessment of bone erosion based on the Van der Heijde modification of the Sharp Joint Erosion Assessment (Van der Heijde DM, van Riel PL, Nuver-Zwart IH, Gribnau FW, van de Putte LB. Effects of hydroxychloroquine and sulphasalazine on progression of joint damage in rheumatoid arthritis. Lancet 1989;1:1036-8).", "preferredTerm": "Sharp van der Heijde Bone Erosion Score", "submissionValue": "Sharp/Van der Heijde Bone Erosion Score", "synonyms": ["Sharp/Van der Heijde Bone Erosion Score"]}, {"conceptId": "C128989", "definition": "The numerical value that represents the result of a clinical assessment of joint space narrowing based on the Van der Heijde modification of the Sharp Joint Space Narrowing Assessment (Van der Heijde DM, van Riel PL, Nuver-Zwart IH, Gribnau FW, van de Putte LB. Effects of hydroxychloroquine and sulphasalazine on progression of joint damage in rheumatoid arthritis. Lancet 1989;1:1036-8).", "preferredTerm": "Sharp van der Heijde Joint Space Narrowing Score", "submissionValue": "Sharp/Van der Heijde JSN Score", "synonyms": ["Sharp/Van der Heijde JSN Score"]}, {"conceptId": "C127774", "definition": "An indication as to whether there are symptoms of swelling.", "preferredTerm": "Swollen Indicator", "submissionValue": "Swollen Indicator", "synonyms": ["Swollen Indicator"]}, {"conceptId": "C127775", "definition": "An indication as to whether there are symptoms of tenderness.", "preferredTerm": "Tenderness Indicator", "submissionValue": "Tenderness Indicator", "synonyms": ["Tenderness Indicator"]}]}