{"_links": {"parentPackage": {"href": "/mdr/ct/packages/sdtmct-2016-12-16", "title": "SDTM Controlled Terminology Package 28 Effective 2016-12-16", "type": "Terminology"}, "priorVersion": {"href": "/mdr/ct/packages/sdtmct-2016-09-30/codelists/C128682", "title": "CDISC SDTM Gastrointestinal Test Code Terminology", "type": "Code List"}, "rootItem": {"href": "/mdr/root/ct/sdtmct/codelists/C128682", "title": "Version-agnostic anchor resource for codelist C128682", "type": "Root Value Domain"}, "self": {"href": "/mdr/ct/packages/sdtmct-2016-12-16/codelists/C128682", "title": "CDISC SDTM Gastrointestinal Test Code Terminology", "type": "Code List"}}, "conceptId": "C128682", "definition": "A terminology codelist based on the test codes for physiological findings related to the gastrointestinal system.", "extensible": "true", "name": "Gastrointestinal Test Code", "preferredTerm": "CDISC SDTM Gastrointestinal Test Code Terminology", "submissionValue": "GASTROCD", "synonyms": ["Gastrointestinal Test Code"], "terms": [{"conceptId": "C119332", "definition": "A quantitative measurement of an organ's ability to deform in response to physiological force and return to its normal shape by passive elastic recoil.", "preferredTerm": "Organ Elasticity", "submissionValue": "ELASTIC", "synonyms": ["Elasticity"]}]}