{"_links": {"parentPackage": {"href": "/mdr/ct/packages/sdtmct-2016-12-16", "title": "SDTM Controlled Terminology Package 28 Effective 2016-12-16", "type": "Terminology"}, "rootItem": {"href": "/mdr/root/ct/sdtmct/codelists/C130259", "title": "Version-agnostic anchor resource for codelist C130259", "type": "Root Value Domain"}, "self": {"href": "/mdr/ct/packages/sdtmct-2016-12-16/codelists/C130259", "title": "CDISC Questionnaire HAM-D6 Self-Report Version Test Code Terminology", "type": "Code List"}}, "conceptId": "C130259", "definition": "Hamilton Depression Rating Scale - 6 Self-Report test code.", "extensible": "false", "name": "Hamilton Depression Rating Scale - 6 Self-Report Questionnaire Test Code", "preferredTerm": "CDISC Questionnaire HAM-D6 Self-Report Version Test Code Terminology", "submissionValue": "HAMDS1TC", "synonyms": ["Hamilton Depression Rating Scale - 6 Self-Report Questionnaire Test Code"], "terms": [{"conceptId": "C130545", "definition": "Hamilton Depression Rating Scale 6 - Self-Report Version - (1)=Depressed mood per clinician version: How you have been feeling over the past three days, including today.", "preferredTerm": "HAM-D6 Self-Report Version - Depressed Mood", "submissionValue": "HAMDS101", "synonyms": ["HAMDS1-Depressed Mood"]}, {"conceptId": "C130546", "definition": "Hamilton Depression Rating Scale 6 - Self-Report Version - (2)=Low self-esteem and guilt per clinician version: How you have been feeling over the past three days, including today.", "preferredTerm": "HAM-D6 Self-Report Version - Low Self-esteem and Guilt", "submissionValue": "HAMDS102", "synonyms": ["HAMDS1-Low Self-esteem and Guilt"]}, {"conceptId": "C130547", "definition": "Hamilton Depression Rating Scale 6 - Self-Report Version - (3)=Social life activities and interests per clinician version: How you have been feeling over the past three days, including today.", "preferredTerm": "HAM-D6 Self-Report Version - Social Life Activities or Interests", "submissionValue": "HAMDS103", "synonyms": ["HAMDS1-Social Life Activities/Interests"]}, {"conceptId": "C130548", "definition": "Hamilton Depression Rating Scale 6 - Self-Report Version - (4)=Psychomotor retardation, general per clinician version: How you have been feeling over the past three days, including today.", "preferredTerm": "HAM-D6 Self-Report Version - Psychomotor Retardation", "submissionValue": "HAMDS104", "synonyms": ["HAMDS1-Psychomotor Retardation, General"]}, {"conceptId": "C130549", "definition": "Hamilton Depression Rating Scale 6 - Self-Report Version - (5)=Psychic anxiety per clinician version: How you have been feeling over the past three days, including today.", "preferredTerm": "HAM-D6 Self-Report Version - Psychic Anxiety", "submissionValue": "HAMDS105", "synonyms": ["HAMDS1-Psychic Anxiety"]}, {"conceptId": "C130550", "definition": "Hamilton Depression Rating Scale 6 - Self-Report Version - (6)=Tiredness and pains per clinician version: How you have been feeling over the past three days, including today.", "preferredTerm": "HAM-D6 Self-Report Version - Tiredness and Pains", "submissionValue": "HAMDS106", "synonyms": ["HAMDS1-Tiredness and Pains"]}]}