{"_links": {"parentPackage": {"href": "/mdr/ct/packages/sdtmct-2016-12-16", "title": "SDTM Controlled Terminology Package 28 Effective 2016-12-16", "type": "Terminology"}, "rootItem": {"href": "/mdr/root/ct/sdtmct/codelists/C130261", "title": "Version-agnostic anchor resource for codelist C130261", "type": "Root Value Domain"}, "self": {"href": "/mdr/ct/packages/sdtmct-2016-12-16/codelists/C130261", "title": "CDISC Questionnaire IDS-SR Test Code Terminology", "type": "Code List"}}, "conceptId": "C130261", "definition": "Inventory of Depressive Symptomatology Self-Report Version test code.", "extensible": "false", "name": "Inventory of Depressive Symptomatology Self-Report Version Questionnaire Test Code", "preferredTerm": "CDISC Questionnaire IDS-SR Test Code Terminology", "submissionValue": "IDSR1TC", "synonyms": ["Inventory of Depressive Symptomatology Self-Report Version Questionnaire Test Code"], "terms": [{"conceptId": "C130551", "definition": "Inventory of Depressive Symptomatology - Self-Report - Please circle the one response to each item that best describes you for the past seven days: Falling asleep.", "preferredTerm": "IDS-SR - Falling Asleep", "submissionValue": "IDSR101", "synonyms": ["IDSR1-Falling Asleep"]}, {"conceptId": "C130552", "definition": "Inventory of Depressive Symptomatology - Self-Report - Please circle the one response to each item that best describes you for the past seven days: Sleep during the night.", "preferredTerm": "IDS-SR - Sleep During the Night", "submissionValue": "IDSR102", "synonyms": ["IDSR1-Sleep During the Night"]}, {"conceptId": "C130553", "definition": "Inventory of Depressive Symptomatology - Self-Report - Please circle the one response to each item that best describes you for the past seven days: Waking up too early.", "preferredTerm": "IDS-SR - Waking Up Too Early", "submissionValue": "IDSR103", "synonyms": ["IDSR1-Waking Up Too Early"]}, {"conceptId": "C130554", "definition": "Inventory of Depressive Symptomatology - Self-Report - Please circle the one response to each item that best describes you for the past seven days: Sleeping too much.", "preferredTerm": "IDS-SR - Sleeping Too Much", "submissionValue": "IDSR104", "synonyms": ["IDSR1-Sleeping Too Much"]}, {"conceptId": "C130555", "definition": "Inventory of Depressive Symptomatology - Self-Report - Please circle the one response to each item that best describes you for the past seven days: Feeling sad.", "preferredTerm": "IDS-SR - Feeling Sad", "submissionValue": "IDSR105", "synonyms": ["IDSR1-Feeling Sad"]}, {"conceptId": "C130556", "definition": "Inventory of Depressive Symptomatology - Self-Report - Please circle the one response to each item that best describes you for the past seven days: Feeling irritable.", "preferredTerm": "IDS-SR - Feeling Irritable", "submissionValue": "IDSR106", "synonyms": ["IDSR1-Feeling Irritable"]}, {"conceptId": "C130557", "definition": "Inventory of Depressive Symptomatology - Self-Report - Please circle the one response to each item that best describes you for the past seven days: Feeling anxious or tense.", "preferredTerm": "IDS-SR - Feeling Anxious or Tense", "submissionValue": "IDSR107", "synonyms": ["IDSR1-Feeling Anxious or Tense"]}, {"conceptId": "C130558", "definition": "Inventory of Depressive Symptomatology - Self-Report - Please circle the one response to each item that best describes you for the past seven days: Response of your mood to good or desired events.", "preferredTerm": "IDS-SR - Response of Your Mood to Good or Desired Events", "submissionValue": "IDSR108", "synonyms": ["IDSR1-Your Mood to Good/Desired Events"]}, {"conceptId": "C130559", "definition": "Inventory of Depressive Symptomatology - Self-Report - Please circle the one response to each item that best describes you for the past seven days: Mood in relation to the time of day.", "preferredTerm": "IDS-SR - Mood in Relation to the Time of Day", "submissionValue": "IDSR109", "synonyms": ["IDSR1-Mood in Relation to Time of Day"]}, {"conceptId": "C130560", "definition": "Inventory of Depressive Symptomatology - Self-Report - Is your mood typically worse in the morning, afternoon or night?", "preferredTerm": "IDS-SR - Mood Worse in Morning, Afternoon, or Night", "submissionValue": "IDSR109A", "synonyms": ["IDSR1-Mood Worse Morn/Afternoon/Night"]}, {"conceptId": "C130561", "definition": "Inventory of Depressive Symptomatology - Self-Report - Is your mood variation attributed to the environment?", "preferredTerm": "IDS-SR - Mood Variation Attributed to Environment", "submissionValue": "IDSR109B", "synonyms": ["IDSR1-Mood Attributed to Environment"]}, {"conceptId": "C130562", "definition": "Inventory of Depressive Symptomatology - Self-Report - Please circle the one response to each item that best describes you for the past seven days: The quality of your mood.", "preferredTerm": "IDS-SR - The Quality of Your Mood", "submissionValue": "IDSR110", "synonyms": ["IDSR1-Quality of Your Mood"]}, {"conceptId": "C130563", "definition": "Inventory of Depressive Symptomatology - Self-Report - Please circle the one response to each item that best describes you for the past seven days: Decreased appetite.", "preferredTerm": "IDS-SR - Decreased Appetite", "submissionValue": "IDSR111", "synonyms": ["IDSR1-Decreased Appetite"]}, {"conceptId": "C130564", "definition": "Inventory of Depressive Symptomatology - Self-Report - Please circle the one response to each item that best describes you for the past seven days: Increased appetite.", "preferredTerm": "IDS-SR - Increased Appetite", "submissionValue": "IDSR112", "synonyms": ["IDSR1-Increased Appetite"]}, {"conceptId": "C130565", "definition": "Inventory of Depressive Symptomatology - Self-Report - Please circle the one response to each item that best describes you for the past seven days: within the last two weeks: Weight (decrease).", "preferredTerm": "IDS-SR - Weight (Decrease)", "submissionValue": "IDSR113", "synonyms": ["IDSR1-Weight (Decrease)"]}, {"conceptId": "C130566", "definition": "Inventory of Depressive Symptomatology - Self-Report - Please circle the one response to each item that best describes you for the past seven days: within the last two weeks: Weight (increase).", "preferredTerm": "IDS-SR - Weight (Increase)", "submissionValue": "IDSR114", "synonyms": ["IDSR1-Weight (Increase)"]}, {"conceptId": "C130567", "definition": "Inventory of Depressive Symptomatology - Self-Report - Please circle the one response to each item that best describes you for the past seven days: Concentration/decision making.", "preferredTerm": "IDS-SR - Concentration or Decision Making", "submissionValue": "IDSR115", "synonyms": ["IDSR1-Concentration/Decision Making"]}, {"conceptId": "C130568", "definition": "Inventory of Depressive Symptomatology - Self-Report - Please circle the one response to each item that best describes you for the past seven days: View of myself.", "preferredTerm": "IDS-SR - View of Myself", "submissionValue": "IDSR116", "synonyms": ["IDSR1-View of Myself"]}, {"conceptId": "C130569", "definition": "Inventory of Depressive Symptomatology - Self-Report - Please circle the one response to each item that best describes you for the past seven days: View of my future.", "preferredTerm": "IDS-SR - View of My Future", "submissionValue": "IDSR117", "synonyms": ["IDSR1-View of My Future"]}, {"conceptId": "C130570", "definition": "Inventory of Depressive Symptomatology - Self-Report - Please circle the one response to each item that best describes you for the past seven days: Thoughts of death or suicide.", "preferredTerm": "IDS-SR - Thoughts of Death or Suicide", "submissionValue": "IDSR118", "synonyms": ["IDSR1-Thoughts of Death or Suicide"]}, {"conceptId": "C130571", "definition": "Inventory of Depressive Symptomatology - Self-Report - Please circle the one response to each item that best describes you for the past seven days: General interest.", "preferredTerm": "IDS-SR - General Interest", "submissionValue": "IDSR119", "synonyms": ["IDSR1-General Interest"]}, {"conceptId": "C130572", "definition": "Inventory of Depressive Symptomatology - Self-Report - Please circle the one response to each item that best describes you for the past seven days: Energy level.", "preferredTerm": "IDS-SR - Energy Level", "submissionValue": "IDSR120", "synonyms": ["IDSR1-Energy Level"]}, {"conceptId": "C130573", "definition": "Inventory of Depressive Symptomatology - Self-Report - Please circle the one response to each item that best describes you for the past seven days: Capacity for pleasure or enjoyment (excluding sex).", "preferredTerm": "IDS-SR - Capacity for Pleasure or Enjoyment", "submissionValue": "IDSR121", "synonyms": ["IDSR1-Pleasure/Enjoyment (Exclude Sex)"]}, {"conceptId": "C130574", "definition": "Inventory of Depressive Symptomatology - Self-Report - Please circle the one response to each item that best describes you for the past seven days: Interest in sex.", "preferredTerm": "IDS-SR - Interest in Sex", "submissionValue": "IDSR122", "synonyms": ["IDSR1-Interest in Sex"]}, {"conceptId": "C130575", "definition": "Inventory of Depressive Symptomatology - Self-Report - Please circle the one response to each item that best describes you for the past seven days: Feeling slowed down.", "preferredTerm": "IDS-SR - Feeling Slowed Down", "submissionValue": "IDSR123", "synonyms": ["IDSR1-Feeling Slowed Down"]}, {"conceptId": "C130576", "definition": "Inventory of Depressive Symptomatology - Self-Report - Please circle the one response to each item that best describes you for the past seven days: Feeling restless.", "preferredTerm": "IDS-SR - Feeling Restless", "submissionValue": "IDSR124", "synonyms": ["IDSR1-Feeling Restless"]}, {"conceptId": "C130577", "definition": "Inventory of Depressive Symptomatology - Self-Report - Please circle the one response to each item that best describes you for the past seven days: Aches and pains.", "preferredTerm": "IDS-SR - Aches and Pains", "submissionValue": "IDSR125", "synonyms": ["IDSR1-Aches and Pains"]}, {"conceptId": "C130578", "definition": "Inventory of Depressive Symptomatology - Self-Report - Please circle the one response to each item that best describes you for the past seven days: Other bodily symptoms.", "preferredTerm": "IDS-SR - Other Bodily Symptoms", "submissionValue": "IDSR126", "synonyms": ["IDSR1-Other Bodily Symptoms"]}, {"conceptId": "C130579", "definition": "Inventory of Depressive Symptomatology - Self-Report - Please circle the one response to each item that best describes you for the past seven days: Panic/phobic symptoms.", "preferredTerm": "IDS-SR - Panic or Phobic Symptoms", "submissionValue": "IDSR127", "synonyms": ["IDSR1-Panic/Phobic Symptoms"]}, {"conceptId": "C130580", "definition": "Inventory of Depressive Symptomatology - Self-Report - Please circle the one response to each item that best describes you for the past seven days: Constipation/diarrhea.", "preferredTerm": "IDS-SR - Constipation or Diarrhea", "submissionValue": "IDSR128", "synonyms": ["IDSR1-Constipation/Diarrhea"]}, {"conceptId": "C130581", "definition": "Inventory of Depressive Symptomatology - Self-Report - Please circle the one response to each item that best describes you for the past seven days: Interpersonal sensitivity.", "preferredTerm": "IDS-SR - Interpersonal Sensitivity", "submissionValue": "IDSR129", "synonyms": ["IDSR1-Interpersonal Sensitivity"]}, {"conceptId": "C130582", "definition": "Inventory of Depressive Symptomatology - Self-Report - Please circle the one response to each item that best describes you for the past seven days: Leaden paralysis/physical energy.", "preferredTerm": "IDS-SR - Leaden Paralysis or Physical Energy", "submissionValue": "IDSR130", "synonyms": ["IDSR1-Leaden Paralysis/Physical Energy"]}, {"conceptId": "C130583", "definition": "Inventory of Depressive Symptomatology - Self-Report - Score.", "preferredTerm": "IDS-SR - Score", "submissionValue": "IDSR131", "synonyms": ["IDSR1-Score"]}]}