{"_links": {"parentPackage": {"href": "/mdr/ct/packages/sdtmct-2016-12-16", "title": "SDTM Controlled Terminology Package 28 Effective 2016-12-16", "type": "Terminology"}, "rootItem": {"href": "/mdr/root/ct/sdtmct/codelists/C130248", "title": "Version-agnostic anchor resource for codelist C130248", "type": "Root Value Domain"}, "self": {"href": "/mdr/ct/packages/sdtmct-2016-12-16/codelists/C130248", "title": "CDISC Clinical Classification QIDS-C Test Name Terminology", "type": "Code List"}}, "conceptId": "C130248", "definition": "Quick Inventory of Depressive Symptomatology Clinician-Rated Version test name.", "extensible": "false", "name": "Quick Inventory of Depressive Symptomatology Clinician-Rated Version Clinical Classification Test Name", "preferredTerm": "CDISC Clinical Classification QIDS-C Test Name Terminology", "submissionValue": "QIDSC1TN", "synonyms": ["Quick Inventory of Depressive Symptomatology Clinician-Rated Version Clinical Classification Test Name"], "terms": [{"conceptId": "C130399", "definition": "Quick Inventory of Depressive Symptomatology - Clinician-Rated - Please circle one response to each item that best describes the patient for the last seven days: Appetite (decreased).", "preferredTerm": "QIDS-C - Appetite (Decreased)", "submissionValue": "QIDSC1-Appetite (Decreased)", "synonyms": ["QIDSC1-Appetite (Decreased)"]}, {"conceptId": "C130400", "definition": "Quick Inventory of Depressive Symptomatology - Clinician-Rated - Please circle one response to each item that best describes the patient for the last seven days: Appetite (increased).", "preferredTerm": "QIDS-C - Appetite (Increased)", "submissionValue": "QIDSC1-Appetite (Increased)", "synonyms": ["QIDSC1-Appetite (Increased)"]}, {"conceptId": "C130403", "definition": "Quick Inventory of Depressive Symptomatology - Clinician-Rated - Please circle one response to each item that best describes the patient for the last seven days: Concentration/decision making.", "preferredTerm": "QIDS-C - Concentration or Decision Making", "submissionValue": "QIDSC1-Concentration/Decision Making", "synonyms": ["QIDSC1-Concentration/Decision Making"]}, {"conceptId": "C130396", "definition": "Quick Inventory of Depressive Symptomatology - Clinician-Rated - Please circle one response to each item that best describes the patient for the last seven days: Early morning insomnia.", "preferredTerm": "QIDS-C - Early Morning Insomnia", "submissionValue": "QIDSC1-Early Morning Insomnia", "synonyms": ["QIDSC1-Early Morning Insomnia"]}, {"conceptId": "C130407", "definition": "Quick Inventory of Depressive Symptomatology - Clinician-Rated - Please circle one response to each item that best describes the patient for the last seven days: Energy/fatiguability.", "preferredTerm": "QIDS-C - Energy or Fatiguability", "submissionValue": "QIDSC1-Energy/Fatiguability", "synonyms": ["QIDSC1-Energy/Fatiguability"]}, {"conceptId": "C130411", "definition": "Quick Inventory of Depressive Symptomatology - Clinician-Rated - Enter the highest score on any 1 of the 4 appetite/weight change items.", "preferredTerm": "QIDS-C - High Score Appetite or Weight Items", "submissionValue": "QIDSC1-High Score Appetite/Weight Items", "synonyms": ["QIDSC1-High Score Appetite/Weight Items"]}, {"conceptId": "C130412", "definition": "Quick Inventory of Depressive Symptomatology - Clinician-Rated - Enter the highest score on either of the 2 psychomotor items.", "preferredTerm": "QIDS-C - Highest Score Psychomotor Items", "submissionValue": "QIDSC1-Highest Score Psychomotor Items", "synonyms": ["QIDSC1-Highest Score Psychomotor Items"]}, {"conceptId": "C130410", "definition": "Quick Inventory of Depressive Symptomatology - Clinician-Rated - Enter the highest score on any 1 of the 4 sleep items.", "preferredTerm": "QIDS-C - Highest Score Sleep Items", "submissionValue": "QIDSC1-Highest Score Sleep Items", "synonyms": ["QIDSC1-Highest Score Sleep Items"]}, {"conceptId": "C130397", "definition": "Quick Inventory of Depressive Symptomatology - Clinician-Rated - Please circle one response to each item that best describes the patient for the last seven days: Hypersomnia.", "preferredTerm": "QIDS-C - Hypersomnia", "submissionValue": "QIDSC1-Hypersomnia", "synonyms": ["QIDSC1-Hypersomnia"]}, {"conceptId": "C130406", "definition": "Quick Inventory of Depressive Symptomatology - Clinician-Rated - Please circle one response to each item that best describes the patient for the last seven days: Involvement.", "preferredTerm": "QIDS-C - Involvement", "submissionValue": "QIDSC1-Involvement", "synonyms": ["QIDSC1-Involvement"]}, {"conceptId": "C130395", "definition": "Quick Inventory of Depressive Symptomatology - Clinician-Rated - Please circle one response to each item that best describes the patient for the last seven days: Mid-nocturnal insomnia.", "preferredTerm": "QIDS-C - Mid-Nocturnal Insomnia", "submissionValue": "QIDSC1-Mid-Nocturnal Insomnia", "synonyms": ["QIDSC1-Mid-Nocturnal Insomnia"]}, {"conceptId": "C130398", "definition": "Quick Inventory of Depressive Symptomatology - Clinician-Rated - Please circle one response to each item that best describes the patient for the last seven days: Mood (sad).", "preferredTerm": "QIDS-C - Mood (Sad)", "submissionValue": "QIDSC1-Mood (Sad)", "synonyms": ["QIDSC1-Mood (Sad)"]}, {"conceptId": "C130404", "definition": "Quick Inventory of Depressive Symptomatology - Clinician-Rated - Please circle one response to each item that best describes the patient for the last seven days: Outlook (self).", "preferredTerm": "QIDS-C - Outlook (Self)", "submissionValue": "QIDSC1-Outlook (Self)", "synonyms": ["QIDSC1-Outlook (Self)"]}, {"conceptId": "C130409", "definition": "Quick Inventory of Depressive Symptomatology - Clinician-Rated - Please circle one response to each item that best describes the patient for the last seven days: Psychomotor agitation.", "preferredTerm": "QIDS-C - Psychomotor Agitation", "submissionValue": "QIDSC1-Psychomotor Agitation", "synonyms": ["QIDSC1-Psychomotor Agitation"]}, {"conceptId": "C130408", "definition": "Quick Inventory of Depressive Symptomatology - Clinician-Rated - Please circle one response to each item that best describes the patient for the last seven days: Psychomotor slowing.", "preferredTerm": "QIDS-C - Psychomotor Slowing", "submissionValue": "QIDSC1-Psychomotor Slowing", "synonyms": ["QIDSC1-Psychomotor Slowing"]}, {"conceptId": "C130394", "definition": "Quick Inventory of Depressive Symptomatology - Clinician-Rated - Please circle one response to each item that best describes the patient for the last seven days: Sleep onset insomnia.", "preferredTerm": "QIDS-C - Sleep Onset Insomnia", "submissionValue": "QIDSC1-Sleep Onset Insomnia", "synonyms": ["QIDSC1-Sleep Onset Insomnia"]}, {"conceptId": "C130405", "definition": "Quick Inventory of Depressive Symptomatology - Clinician-Rated - Please circle one response to each item that best describes the patient for the last seven days: Suicidal ideation.", "preferredTerm": "QIDS-C - Suicidal Ideation", "submissionValue": "QIDSC1-Suicidal Ideation", "synonyms": ["QIDSC1-Suicidal Ideation"]}, {"conceptId": "C130413", "definition": "Quick Inventory of Depressive Symptomatology - Clinician-Rated - Total score.", "preferredTerm": "QIDS-C - Total Score", "submissionValue": "QIDSC1-Total Score", "synonyms": ["QIDSC1-Total Score"]}, {"conceptId": "C130401", "definition": "Quick Inventory of Depressive Symptomatology - Clinician-Rated - Please circle one response to each item that best describes the patient for the last seven days: Weight (decrease) within the last two weeks.", "preferredTerm": "QIDS-C - Weight (Decrease)", "submissionValue": "QIDSC1-Weight (Decrease)", "synonyms": ["QIDSC1-Weight (Decrease)"]}, {"conceptId": "C130402", "definition": "Quick Inventory of Depressive Symptomatology - Clinician-Rated - Please circle one response to each item that best describes the patient for the last seven days: Weight (increase) within the last two weeks.", "preferredTerm": "QIDS-C - Weight (Increase)", "submissionValue": "QIDSC1-Weight (Increase)", "synonyms": ["QIDSC1-Weight (Increase)"]}]}