{"_links": {"parentPackage": {"href": "/mdr/ct/packages/sdtmct-2016-12-16", "title": "SDTM Controlled Terminology Package 28 Effective 2016-12-16", "type": "Terminology"}, "priorVersion": {"href": "/mdr/ct/packages/sdtmct-2016-09-30/codelists/C74558", "title": "CDISC SDTM Category For Disposition Event Terminology", "type": "Code List"}, "rootItem": {"href": "/mdr/root/ct/sdtmct/codelists/C74558", "title": "Version-agnostic anchor resource for codelist C74558", "type": "Root Value Domain"}, "self": {"href": "/mdr/ct/packages/sdtmct-2016-12-16/codelists/C74558", "title": "CDISC SDTM Category For Disposition Event Terminology", "type": "Code List"}}, "conceptId": "C74558", "definition": "Classifications that describe and group pertinent events that occur throughout the conduct of a clinical trial.", "extensible": "false", "name": "Category for Disposition Event", "preferredTerm": "CDISC SDTM Category For Disposition Event Terminology", "submissionValue": "DSCAT", "synonyms": ["Category for Disposition Event"], "terms": [{"conceptId": "C74590", "definition": "The group of incidents that occur during a clinical trial and describe whether a subject completed the study epoch or the reason this event did not occur. The subject's disposition is often described for each phase of the study.", "preferredTerm": "Protocol Disposition Event", "submissionValue": "DISPOSITION EVENT", "synonyms": ["Disposition Event"]}, {"conceptId": "C74589", "definition": "Other important events that occur during a trial but are not driven by protocol requirements.", "preferredTerm": "Protocol Event", "submissionValue": "OTHER EVENT", "synonyms": ["Other Event"]}, {"conceptId": "C74588", "definition": "Occurrences within some epochs that are initiated by a protocol-specified event. The most common protocol milestone is \"Informed Consent Obtained\" which usually documents the start of the study.", "preferredTerm": "Protocol Milestone", "submissionValue": "PROTOCOL MILESTONE", "synonyms": ["Protocol Milestone"]}]}