{"_links": {"parentPackage": {"href": "/mdr/ct/packages/sdtmct-2016-12-16", "title": "SDTM Controlled Terminology Package 28 Effective 2016-12-16", "type": "Terminology"}, "priorVersion": {"href": "/mdr/ct/packages/sdtmct-2016-09-30/codelists/C85495", "title": "CDISC SDTM Microbiology Susceptibility Testing Result Category Terminology", "type": "Code List"}, "rootItem": {"href": "/mdr/root/ct/sdtmct/codelists/C85495", "title": "Version-agnostic anchor resource for codelist C85495", "type": "Root Value Domain"}, "self": {"href": "/mdr/ct/packages/sdtmct-2016-12-16/codelists/C85495", "title": "CDISC SDTM Microbiology Susceptibility Testing Result Category Terminology", "type": "Code List"}}, "conceptId": "C85495", "definition": "Used to categorize the result of a finding in a standard format.", "extensible": "false", "name": "Microbiology Susceptibility Testing Result Category", "preferredTerm": "CDISC SDTM Microbiology Susceptibility Testing Result Category Terminology", "submissionValue": "MSRESCAT", "synonyms": ["Microbiology Susceptibility Testing Result Category"], "terms": [{"conceptId": "C85560", "definition": "The growth of microorganisms may be inhibited by antimicrobials that approach usually attainable blood and tissue concentrations. The response rates may be lower than for susceptible isolates. This category also includes a buffer zone, which should prevent small, uncontrolled, technical factors from causing major discrepancies in interpretations, especially for drugs with narrow pharmacotoxicity margins.", "preferredTerm": "Antimicrobial Intermediate Susceptibility Result", "submissionValue": "INTERMEDIATE", "synonyms": ["Intermediate"]}, {"conceptId": "C85561", "definition": "A category used for microorganisms that have only a susceptible interpretive criteria, but not an intermediate or resistant interpretive category (i.e., susceptible-only interpretive category). This category may be applied to new antimicrobial agents for which no resistant microorganisms have been encountered at the time the initial interpretive criteria are determined. Microorganisms that test with an MIC above or a zone measurement below the susceptible interpretive criteria are designated as nonsusceptible. A designation of nonsusceptible does not necessarily mean that a resistance mechanism(s) exists in the microorganism.", "preferredTerm": "Antimicrobial Nonsusceptibility Result", "submissionValue": "NONSUSCEPTIBLE", "synonyms": ["Non Susceptible"]}, {"conceptId": "C48660", "definition": "Determination of a value is not relevant in the current context. (NCI)", "preferredTerm": "Not Applicable", "submissionValue": "NOT APPLICABLE", "synonyms": ["NA", "Not Applicable"]}, {"conceptId": "C85562", "definition": "The growth of microorganisms are not inhibited by the usually achievable concentrations of the antimicrobial agent with normal dosages, and/or microorganisms demonstrate MICs or zone diameters that fall in the range where specific microbial resistance mechanisms (e.g. Beta-lactamases) are likely, and clinical efficacy of the agent against the microorganism has not been reliably shown in treatment studies.", "preferredTerm": "Antimicrobial Resistance Result", "submissionValue": "RESISTANT", "synonyms": ["Resistant"]}, {"conceptId": "C85563", "definition": "The growth of microorganisms are inhibited by the usually achievable concentrations of antimicrobial agent when the recommended dosage is used for the site of infection.", "preferredTerm": "Antimicrobial Susceptibility Result", "submissionValue": "SUSCEPTIBLE", "synonyms": ["Susceptible"]}, {"conceptId": "C85559", "definition": "The growth of microorganisms may be inhibited when higher than normal dosages of an antimicrobial agent are used and maximal possible blood concentration of the antimicrobial agent is achieved.", "preferredTerm": "Antimicrobial Dose Dependent Susceptibility Result", "submissionValue": "SUSCEPTIBLE-DOSE DEPENDENT", "synonyms": ["Susceptible-Dose Dependent"]}, {"conceptId": "C17998", "definition": "Not known, not observed, not recorded, or refused. (NCI)", "preferredTerm": "Unknown", "submissionValue": "UNKNOWN", "synonyms": ["U", "Unknown"]}]}