{"_links": {"parentPackage": {"href": "/mdr/ct/packages/protocolct-2019-09-27", "title": "PROTOCOL Controlled Terminology Package 39 Effective 2019-09-27", "type": "Terminology"}, "priorVersion": {"href": "/mdr/ct/packages/protocolct-2019-06-28/codelists/C147067", "title": "CDISC Protocol Study Purpose Response Terminology", "type": "Code List"}, "rootItem": {"href": "/mdr/root/ct/protocolct/codelists/C147067", "title": "Version-agnostic anchor resource for codelist C147067", "type": "Root Value Domain"}, "self": {"href": "/mdr/ct/packages/protocolct-2019-09-27/codelists/C147067", "title": "CDISC Protocol Study Purpose Response Terminology", "type": "Code List"}}, "conceptId": "C147067", "definition": "A terminology codelist relevant to the reason(s) or intention(s) for the execution of an interventional or non-interventional clinical study.", "name": "Study Purpose Response", "preferredTerm": "CDISC Protocol Study Purpose Response Terminology", "submissionValue": "Study Purpose Response", "synonyms": ["Study Purpose Response"], "terms": [{"conceptId": "C15714", "definition": "A type of study designed to examine the basic mechanism of action (e.g., physiology, biomechanics) of an intervention. (ClinicalTrials.gov)", "preferredTerm": "Basic Research", "submissionValue": "Basic Science", "synonyms": ["Basic Research"]}, {"conceptId": "C139174", "definition": "An intervention of a device product is being evaluated to determine the feasibility of the product or to test a prototype device and not health outcomes. Such studies are conducted to confirm the design and operating specifications of a device before beginning a full clinical trial. (ClinicalTrials.gov)", "preferredTerm": "Device Feasibility Study", "submissionValue": "Device Feasibility"}, {"conceptId": "C15220", "definition": "The investigation, analysis and recognition of the presence and nature of disease, condition, or injury from expressed signs and symptoms; also, the scientific determination of any kind; the concise results or summary of such an investigation. (NCI)", "preferredTerm": "Diagnosis", "submissionValue": "Diagnosis", "synonyms": ["Diagnostic"]}, {"conceptId": "C147146", "definition": "Any action or process to perform research on a hypothetical or theoretical idea in order to determine whether the phenomena is new (which may lead to additional studies) or can be explained by an existing and well-substantiated theory. (NCI)", "preferredTerm": "Exploratory Research", "submissionValue": "Exploratory Research"}, {"conceptId": "C15245", "definition": "A type of study designed to evaluate the delivery, processes, management, organization or financing of health care. (ClinicalTrials.gov)", "preferredTerm": "Health Services Research", "submissionValue": "Health Services Research"}, {"conceptId": "C147147", "definition": "Any action or process to create a tentative proposal to explain certain observations or facts, and which requires further investigation to be verified. (NCI)", "preferredTerm": "Hypothesis Generation", "submissionValue": "Hypothesis Generation"}, {"conceptId": "C15843", "definition": "Any action or response to modify or stop the development of a disease.", "preferredTerm": "Preventive Intervention", "submissionValue": "Prevention", "synonyms": ["Prophylaxis"]}, {"conceptId": "C15419", "definition": "Any action or process to identify a condition, or risk factors for a condition, in humans who are not yet known to have the condition or risk factor. (clinicaltrials.gov)", "preferredTerm": "Disease Screening", "submissionValue": "Screening"}, {"conceptId": "C15747", "definition": "Any action or process to maximize comfort, minimize side effects, or mitigate against a decline in the participant's health or function. (clinicaltrials.gov)", "preferredTerm": "Supportive Care", "submissionValue": "Supportive Care"}, {"conceptId": "C70742", "definition": "Any action or process to improve or remedy a syndrome, disease, or condition.", "preferredTerm": "Treat", "submissionValue": "Treatment"}]}