{"_links": {"parentPackage": {"href": "/mdr/ct/packages/define-xmlct-2019-12-20", "title": "DEFINE-XML Controlled Terminology Package 40 Effective 2019-12-20", "type": "Terminology"}, "rootItem": {"href": "/mdr/root/ct/define-xmlct/codelists/C117745", "title": "Version-agnostic anchor resource for codelist C117745", "type": "Root Value Domain"}, "self": {"href": "/mdr/ct/packages/define-xmlct-2019-12-20/codelists/C117745", "title": "CDISC Define-XML Analysis Purpose Terminology", "type": "Code List"}}, "conceptId": "C117745", "definition": "Purpose of a specific analysis result described in Define-XML analysis results metadata.", "extensible": "true", "name": "Analysis Purpose", "preferredTerm": "CDISC Define-XML Analysis Purpose Terminology", "submissionValue": "ANLPURP", "synonyms": ["Analysis Purpose"], "terms": [{"conceptId": "C98724", "definition": "Exploratory measures that will be used to evaluate the intervention(s) or, for observational studies, that are exploratory of the study.", "preferredTerm": "Exploratory Outcome Measure", "submissionValue": "EXPLORATORY OUTCOME MEASURE", "synonyms": ["Exploratory Outcome Measure"]}, {"conceptId": "C98772", "definition": "The primary measurement(s) or observation(s) used to measure the effect of experimental variables in a study, or for observational studies, to describe patterns of diseases or traits or associations with exposures, risk factors or treatment. These are the outcome measures used to assess the primary objective(s).", "preferredTerm": "Primary Outcome Measure", "submissionValue": "PRIMARY OUTCOME MEASURE", "synonyms": ["Primary Outcome Measure"]}, {"conceptId": "C98781", "definition": "Secondary measures that will be used to evaluate the intervention(s) or, for observational studies, that are a focus of the study. These are the outcome measures used to assess the secondary objective(s).", "preferredTerm": "Secondary Outcome Measure", "submissionValue": "SECONDARY OUTCOME MEASURE", "synonyms": ["Secondary Outcome Measure"]}]}