{"_links": {"parentPackage": {"href": "/mdr/ct/packages/define-xmlct-2019-12-20", "title": "DEFINE-XML Controlled Terminology Package 40 Effective 2019-12-20", "type": "Terminology"}, "rootItem": {"href": "/mdr/root/ct/define-xmlct/codelists/C165635", "title": "Version-agnostic anchor resource for codelist C165635", "type": "Root Value Domain"}, "self": {"href": "/mdr/ct/packages/define-xmlct-2019-12-20/codelists/C165635", "title": "CDISC Define-XML ADaM Basic Data Structure Subclass Terminology", "type": "Code List"}}, "conceptId": "C165635", "definition": "Terminology relevant to the subclasses of the ADaM basic data structure.", "extensible": "false", "name": "ADaM Basic Data Structure Subclass", "preferredTerm": "CDISC Define-XML ADaM Basic Data Structure Subclass Terminology", "submissionValue": "BDSSC", "synonyms": ["ADaM Basic Data Structure Subclass"], "terms": [{"conceptId": "C165637", "definition": "A dataset containing data that is used for Time-to-Event analyses.", "preferredTerm": "Time-to-Event Dataset", "submissionValue": "TIME-TO-EVENT", "synonyms": ["TTE"]}]}