{"_links": {"parentPackage": {"href": "/mdr/ct/packages/sdtmct-2015-06-26", "title": "SDTM Controlled Terminology Package 22 Effective 2015-06-26", "type": "Terminology"}, "priorVersion": {"href": "/mdr/ct/packages/sdtmct-2015-03-27/codelists/C101852", "title": "CDISC SDTM Sudden Death Syndrome Type Terminology", "type": "Code List"}, "rootItem": {"href": "/mdr/root/ct/sdtmct/codelists/C101852", "title": "Version-agnostic anchor resource for codelist C101852", "type": "Root Value Domain"}, "self": {"href": "/mdr/ct/packages/sdtmct-2015-06-26/codelists/C101852", "title": "CDISC SDTM Sudden Death Syndrome Type Terminology", "type": "Code List"}}, "conceptId": "C101852", "definition": "A terminology codelist that describes syndromes or conditions that put a subject at risk for sudden death.", "extensible": "false", "name": "Sudden Death Syndrome Type", "preferredTerm": "CDISC SDTM Sudden Death Syndrome Type Terminology", "submissionValue": "SDTHSDTP", "synonyms": ["Sudden Death Syndrome Type"], "terms": [{"conceptId": "C71059", "definition": "Polymorphic ventricular tachycardia in the absence of structural heart disease, associated with a baseline ECG pattern during sinus rhythm showing right bundle branch block with ST segment elevation in leads V1 through V3. It can also be characterized by documentation of ECG patterns associated with Brugada Syndrome, some of which may be unmasked when provoked with drugs. The most common genetic mutations identified for Brugada syndrome are in the sodium channel gene SCN5A.", "preferredTerm": "Brugada Syndrome Ventricular Arrhythmia by ECG Finding", "submissionValue": "BRUGADA SYNDROME", "synonyms": ["Ventricular arrhythmia associated with Brugada syndrome"]}, {"conceptId": "C99936", "definition": "Ventricular Tachycardia associated with syncope and/or cardiac arrest triggered by emotion or exercise in patients whose baseline ECG is normal.", "preferredTerm": "Catecholaminergic Polymorphic Ventricular Tachycardia by ECG Finding", "submissionValue": "CATECHOLAMINERGIC POLYMORPHIC VENTRICULAR TACHYCARDIA"}, {"conceptId": "C100036", "definition": "Ventricular tachycardia or ventricular fibrillation whose cause is unknown.", "preferredTerm": "Idiopathic Primary Ventricular Tachycardia/Ventricular Flutter by ECG Finding", "submissionValue": "IDIOPATHIC PRIMARY VENTRICULAR TACHYCARDIA/VENTRICULAR FLUTTER"}, {"conceptId": "C34786", "definition": "Long QT Syndrome includes prolongation of the corrected QT interval beyond 440 ms for adult males, 460 ms for adult females and 50 ms in the presence of ventricular depolarization abnormalities (i.e., bundle branch blocks or IVCB more than 120 ms. A normal QT interval in a resting ECG with a failure to shorten with an increase in heart rate qualifies as Long QT Syndrome.", "preferredTerm": "Long QT Syndrome", "submissionValue": "LONG QT SYNDROME", "synonyms": ["Ventricular arrhythmia associated with long QT syndrome"]}, {"conceptId": "C17649", "definition": "Different than the one(s) previously specified or mentioned. (NCI)", "preferredTerm": "Other", "submissionValue": "OTHER", "synonyms": ["Other"]}, {"conceptId": "C71060", "definition": "Short QT Syndrome is characterized by a QT interval of less than or equal to 300 ms.", "preferredTerm": "Short QT Syndrome", "submissionValue": "SHORT QT SYNDROME", "synonyms": ["Ventricular arrhythmia associated with short QT syndrome"]}]}