{"_links": {"parentPackage": {"href": "/mdr/ct/packages/sdtmct-2015-06-26", "title": "SDTM Controlled Terminology Package 22 Effective 2015-06-26", "type": "Terminology"}, "priorVersion": {"href": "/mdr/ct/packages/sdtmct-2015-03-27/codelists/C101832", "title": "CDISC SDTM Findings About Test Code Terminology", "type": "Code List"}, "rootItem": {"href": "/mdr/root/ct/sdtmct/codelists/C101832", "title": "Version-agnostic anchor resource for codelist C101832", "type": "Root Value Domain"}, "self": {"href": "/mdr/ct/packages/sdtmct-2015-06-26/codelists/C101832", "title": "CDISC SDTM Findings About Test Code Terminology", "type": "Code List"}}, "conceptId": "C101832", "definition": "Terminology relevant to the test codes that describe findings about an event or intervention.", "extensible": "true", "name": "Findings About Test Code", "preferredTerm": "CDISC SDTM Findings About Test Code Terminology", "submissionValue": "FATESTCD", "synonyms": ["Findings About Test Code"], "terms": [{"conceptId": "C102626", "definition": "The state or condition of not responding to a pharmacological agent.", "preferredTerm": "Drug Resistance Status", "submissionValue": "DRSTAT", "synonyms": ["Drug Resistance Status"]}]}