{"_links": {"parentPackage": {"href": "/mdr/ct/packages/sdtmct-2015-06-26", "title": "SDTM Controlled Terminology Package 22 Effective 2015-06-26", "type": "Terminology"}, "priorVersion": {"href": "/mdr/ct/packages/sdtmct-2015-03-27/codelists/C103329", "title": "CDISC SDTM General Observation Class Terminology", "type": "Code List"}, "rootItem": {"href": "/mdr/root/ct/sdtmct/codelists/C103329", "title": "Version-agnostic anchor resource for codelist C103329", "type": "Root Value Domain"}, "self": {"href": "/mdr/ct/packages/sdtmct-2015-06-26/codelists/C103329", "title": "CDISC SDTM General Observation Class Terminology", "type": "Code List"}}, "conceptId": "C103329", "definition": "Terminology related to the classification of a CDISC domain.", "extensible": "false", "name": "General Observation Class", "preferredTerm": "CDISC SDTM General Observation Class Terminology", "submissionValue": "GNRLOBSC", "synonyms": ["General Observation Class"], "terms": [{"conceptId": "C103375", "definition": "An analysis dataset that doesn't conform to a pre-defined ADaM dataset structure (e.g. ADSL, BDS or OCCDS).", "preferredTerm": "CDISC Other ADaM Dataset", "submissionValue": "ADAM OTHER"}, {"conceptId": "C103371", "definition": "An ADaM BDS dataset contains one or more records per subject, per analysis parameter, per analysis time point. Variables include the value being analyzed (e.g., AVAL) and the description of the value being analyzed (e.g., PARAM). Other variables in the dataset provide more information about the value being analyzed (e.g., the subject identification) or describe and trace the derivation of it (e.g., DTYPE) or support the analysis of it (e.g., treatment variables, covariates).", "preferredTerm": "CDISC Basic Data Structure Dataset", "submissionValue": "BASIC DATA STRUCTURE", "synonyms": ["BDS"]}, {"conceptId": "C103372", "definition": "This SDTM class captures planned protocol milestones such as randomization and study completion, and occurrences, conditions, or incidents independent of planned study evaluations occurring during the trial (e.g., adverse events) or prior to the trial (e.g., medical history).", "preferredTerm": "CDISC Events Class", "submissionValue": "EVENTS"}, {"conceptId": "C103373", "definition": "This SDTM class captures the observations resulting from planned evaluations to address specific tests or questions such as laboratory tests, ECG testing, and questions listed on questionnaires.", "preferredTerm": "CDISC Findings Class", "submissionValue": "FINDINGS"}, {"conceptId": "C103374", "definition": "This SDTM class captures investigational, therapeutic and other treatments that are administered to the subject (with some actual or expected physiological effect) either as specified by the study protocol (e.g., exposure to study drug), coincident with the study assessment period (e.g., concomitant medications), or self-administered by the subject (such as use of alcohol, tobacco, or caffeine).", "preferredTerm": "CDISC Interventions Class", "submissionValue": "INTERVENTIONS"}, {"conceptId": "C103376", "definition": "This SDTM class provides a means to link related records between datasets. It includes the RELREC and SUPPQUAL datasets.", "preferredTerm": "CDISC Relationship Class", "submissionValue": "RELATIONSHIP"}, {"conceptId": "C103377", "definition": "This SDTM class contains a set of domains which do not conform to the Findings, Events or Interventions observation classes. The domains included are DM, CO, SE and SV.", "preferredTerm": "CDISC Special Purpose Class", "submissionValue": "SPECIAL PURPOSE"}, {"conceptId": "C103378", "definition": "The Subject-Level Analysis Dataset (ADSL) is a one-record-per-subject dataset which contains variables that describe subject demographic characteristics and group the subjects for analysis. ADSL is the primary source for subject-level variables included in other analysis datasets such as population flags and treatment variables.", "preferredTerm": "CDISC Subject Level Analysis Dataset", "submissionValue": "SUBJECT LEVEL ANALYSIS DATASET", "synonyms": ["ADSL"]}, {"conceptId": "C103379", "definition": "This SDTM class describes the plan for the procedures to be followed in a clinical trial, including planned and actual timing of events, control group, method of allocating treatments, blinding methods, assignment of epochs that subjects pass through in the course of a trial.", "preferredTerm": "CDISC Trial Design Class", "submissionValue": "TRIAL DESIGN"}]}