{"_links": {"parentPackage": {"href": "/mdr/ct/packages/sdtmct-2015-06-26", "title": "SDTM Controlled Terminology Package 22 Effective 2015-06-26", "type": "Terminology"}, "priorVersion": {"href": "/mdr/ct/packages/sdtmct-2015-03-27/codelists/C116106", "title": "CDISC SDTM Pharmacogenomics Findings Test Code Terminology", "type": "Code List"}, "rootItem": {"href": "/mdr/root/ct/sdtmct/codelists/C116106", "title": "Version-agnostic anchor resource for codelist C116106", "type": "Root Value Domain"}, "self": {"href": "/mdr/ct/packages/sdtmct-2015-06-26/codelists/C116106", "title": "CDISC SDTM Pharmacogenomics Findings Test Code Terminology", "type": "Code List"}}, "conceptId": "C116106", "definition": "Terminology relevant to the test codes that describe pharmacogenomics findings.", "extensible": "true", "name": "Pharmacogenomics Findings Test Code", "preferredTerm": "CDISC SDTM Pharmacogenomics Findings Test Code Terminology", "submissionValue": "PFTESTCD", "synonyms": ["Pharmacogenomics Findings Test Code"], "terms": [{"conceptId": "C16277", "definition": "Mutually exclusive alternative forms of the same gene occupying the same locus on homologous chromosomes, differing in nucleotide sequence and governing the same biochemical and developmental process. (NCI)", "preferredTerm": "Allele", "submissionValue": "ALLELE", "synonyms": ["Allele"]}]}