{"_links": {"parentPackage": {"href": "/mdr/ct/packages/sdtmct-2015-06-26", "title": "SDTM Controlled Terminology Package 22 Effective 2015-06-26", "type": "Terminology"}, "priorVersion": {"href": "/mdr/ct/packages/sdtmct-2015-03-27/codelists/C117742", "title": "CDISC SDTM Ophthalmic Exam Test Name Terminology", "type": "Code List"}, "rootItem": {"href": "/mdr/root/ct/sdtmct/codelists/C117742", "title": "Version-agnostic anchor resource for codelist C117742", "type": "Root Value Domain"}, "self": {"href": "/mdr/ct/packages/sdtmct-2015-06-26/codelists/C117742", "title": "CDISC SDTM Ophthalmic Exam Test Name Terminology", "type": "Code List"}}, "conceptId": "C117742", "definition": "Terminology relevant to the test names that describe findings from ophthalmic examinations.", "extensible": "true", "name": "Ophthalmic Exam Test Name", "preferredTerm": "CDISC SDTM Ophthalmic Exam Test Name Terminology", "submissionValue": "OETEST", "synonyms": ["Ophthalmic Exam Test Name"], "terms": [{"conceptId": "C117889", "definition": "A measurement of the location, in degrees, of the flatter principal meridian on a 180-degree scale, where 90 degrees designates the vertical meridian and 180 degrees designates the horizontal meridian.", "preferredTerm": "Astigmatism Axis", "submissionValue": "Astigmatism Axis", "synonyms": ["Astigmatism Axis"]}, {"conceptId": "C117892", "definition": "A measurement of the extent of defect in vision caused by a mismatch of optical power between the cylindrical and horizontal meridians, resulting in sub-optimal reflection of light onto the retina. (NCI)", "preferredTerm": "Cylindrical Refractive Error", "submissionValue": "Cylindrical Refraction Error", "synonyms": ["Cylindrical Refraction Error"]}, {"conceptId": "C87143", "definition": "The fluid pressure within the eye.", "preferredTerm": "Intraocular Pressure", "submissionValue": "Intraocular Pressure", "synonyms": ["Intraocular Pressure"]}, {"conceptId": "C117890", "definition": "A number or range of numeric values on the log scale that measures performance, function, quality, or ability.", "preferredTerm": "Log Score", "submissionValue": "Log Score", "synonyms": ["Log Score"]}, {"conceptId": "C117891", "definition": "The integer that describes the number of letters correctly identified by the subject during an eye chart assessment.", "preferredTerm": "Number of Correct Eye Chart Letters", "submissionValue": "Number of Letters Correct", "synonyms": ["Number of Letters Correct"]}, {"conceptId": "C25637", "definition": "A description of the action in response to some kind of stimulus.", "preferredTerm": "Reaction", "submissionValue": "Reactivity", "synonyms": ["Reactivity"]}, {"conceptId": "C117893", "definition": "A measurement of the extent of defect in vision caused by a mismatch of optimal power between the cornea and/or lens and the length of the eyeball, resulting in sub-optimal reflection of light onto the retina. (NCI)", "preferredTerm": "Spherical Refractive Error", "submissionValue": "Spherical Refractive Error", "synonyms": ["Spherical Refractive Error"]}]}