{"_links": {"parentPackage": {"href": "/mdr/ct/packages/sdtmct-2015-06-26", "title": "SDTM Controlled Terminology Package 22 Effective 2015-06-26", "type": "Terminology"}, "priorVersion": {"href": "/mdr/ct/packages/sdtmct-2015-03-27/codelists/C120527", "title": "CDISC SDTM Microbiology Test Code Terminology", "type": "Code List"}, "rootItem": {"href": "/mdr/root/ct/sdtmct/codelists/C120527", "title": "Version-agnostic anchor resource for codelist C120527", "type": "Root Value Domain"}, "self": {"href": "/mdr/ct/packages/sdtmct-2015-06-26/codelists/C120527", "title": "CDISC SDTM Microbiology Test Code Terminology", "type": "Code List"}}, "conceptId": "C120527", "definition": "Terminology relevant to the microbiology test codes of the CDISC Study Data Tabulation Model.", "extensible": "true", "name": "Microbiology Test Code", "preferredTerm": "CDISC SDTM Microbiology Test Code Terminology", "submissionValue": "MBTESTCD", "synonyms": ["Microbiology Test Code"], "terms": [{"conceptId": "C120677", "definition": "A measurement of the influenza A antigen in a biological specimen.", "preferredTerm": "Influenza A Antigen Measurement", "submissionValue": "INFAAG", "synonyms": ["Influenza A Antigen"]}, {"conceptId": "C120678", "definition": "A measurement of the influenza A/B antigen in a biological specimen.", "preferredTerm": "Influenza A/B Antigen Measurement", "submissionValue": "INFABAG", "synonyms": ["Influenza A/B Antigen"]}, {"conceptId": "C120679", "definition": "A measurement of the influenza B antigen in a biological specimen.", "preferredTerm": "Influenza B Antigen Measurement", "submissionValue": "INFBAG", "synonyms": ["Influenza B Antigen"]}, {"conceptId": "C120680", "definition": "The identification of the type of a viral organism in a biological specimen.", "preferredTerm": "Viral Identification", "submissionValue": "VRIDENT", "synonyms": ["Viral Identification"]}]}