{"_links": {"parentPackage": {"href": "/mdr/ct/packages/sdtmct-2015-06-26", "title": "SDTM Controlled Terminology Package 22 Effective 2015-06-26", "type": "Terminology"}, "priorVersion": {"href": "/mdr/ct/packages/sdtmct-2015-03-27/codelists/C78734", "title": "CDISC SDTM Specimen Type Terminology", "type": "Code List"}, "rootItem": {"href": "/mdr/root/ct/sdtmct/codelists/C78734", "title": "Version-agnostic anchor resource for codelist C78734", "type": "Root Value Domain"}, "self": {"href": "/mdr/ct/packages/sdtmct-2015-06-26/codelists/C78734", "title": "CDISC SDTM Specimen Type Terminology", "type": "Code List"}}, "conceptId": "C78734", "definition": "The name and description of a biological specimen.", "extensible": "true", "name": "Specimen Type", "preferredTerm": "CDISC SDTM Specimen Type Terminology", "submissionValue": "SPECTYPE", "synonyms": ["Specimen Type"], "terms": [{"conceptId": "C12472", "definition": "A specialized form of connective tissue consisting primarily of adipocytes (fat cells), surrounded by a meshwork of collagen fibers. (NCI)", "preferredTerm": "Adipose Tissue", "submissionValue": "ADIPOSE TISSUE", "synonyms": ["Adipose Tissue", "Body Fat", "Fat Tissue"]}, {"conceptId": "C13188", "definition": "The fluid within the amniotic cavity which surrounds and protects the developing embryo. (NCI)", "preferredTerm": "Amniotic Fluid", "submissionValue": "AMNIOTIC FLUID", "synonyms": ["Aqua Amnii"]}, {"conceptId": "C13190", "definition": "The watery fluid which is present in the anterior and posterior chambers of the eye. (NCI)", "preferredTerm": "Aqueous Humor", "submissionValue": "AQUEOUS HUMOR", "synonyms": ["Aqueous Humour"]}, {"conceptId": "C78729", "definition": "Oxygenated blood which is transported with nutrients to body tissues through the arterial system. The exception is blood within the pulmonary artery which carries deoxygenated blood to the lungs. (NCI)", "preferredTerm": "Arterial Blood", "submissionValue": "ARTERIAL BLOOD"}, {"conceptId": "C120838", "definition": "Blood present in the umbilical arteries at the time of delivery.", "preferredTerm": "Arterial Cord Blood", "submissionValue": "ARTERIAL CORD BLOOD"}, {"conceptId": "C78739", "definition": "Fatty tissue which is deposited in the inner lining of the arterial wall. (NCI)", "preferredTerm": "Atherosclerotic Plaque", "submissionValue": "ATHEROSCLEROTIC PLAQUE"}, {"conceptId": "C13192", "definition": "Fluid composed of waste products, bile acids, salts, cholesterol, and electrolytes. It is secreted by the liver parenchyma and stored in the gallbladder. (NCI)", "preferredTerm": "Bile", "submissionValue": "BILE"}, {"conceptId": "C12434", "definition": "A liquid tissue with the primary function of transporting oxygen and carbon dioxide. It supplies the tissues with nutrients, removes waste products, and contains various components of the immune system defending the body against infection.", "preferredTerm": "Blood", "submissionValue": "BLOOD", "synonyms": ["Blood", "Peripheral Blood"]}, {"conceptId": "C12366", "definition": "Calcified connective tissue that forms the skeletal components of the body. (NCI)", "preferredTerm": "Bone", "submissionValue": "BONE", "synonyms": ["Bone"]}, {"conceptId": "C12431", "definition": "The tissue occupying the spaces of bone. It consists of blood vessel sinuses and a network of hematopoietic cells which give rise to the red cells, white cells, and megakaryocytes. (NCI)", "preferredTerm": "Bone Marrow", "submissionValue": "BONE MARROW", "synonyms": ["Bone Marrow"]}, {"conceptId": "C13257", "definition": "Milk produced by females for the purpose of feeding their young. (NCI)", "preferredTerm": "Breast Milk", "submissionValue": "BREAST MILK"}, {"conceptId": "C84507", "definition": "The middle fraction of an anticoagulated blood specimen following separation by centrifugation. It contains most of the white blood cells and platelets.", "preferredTerm": "Buffy Coat", "submissionValue": "BUFFY COAT"}, {"conceptId": "C35708", "definition": "Accumulated material from the secretions of an organ. It is solid and representative examples include gallbladder stones, kidney stones, and salivary gland stones. (NCI)", "preferredTerm": "Stone", "submissionValue": "CALCULUS"}, {"conceptId": "C112235", "definition": "A mixture of arterial blood, venous blood and interstitial fluid, which is found in the capillaries.", "preferredTerm": "Capillary Blood", "submissionValue": "CAPILLARY BLOOD"}, {"conceptId": "C12371", "definition": "The striated muscle tissue of the heart enveloped by the epicardium and the endocardium. (NCI)", "preferredTerm": "Myocardium", "submissionValue": "CARDIAC MUSCLE TISSUE", "synonyms": ["Myocardium"]}, {"conceptId": "C12692", "definition": "The fluid that is contained within the brain ventricles, the subarachnoid space and the central canal of the spinal cord. (NCI)", "preferredTerm": "Cerebrospinal Fluid", "submissionValue": "CEREBROSPINAL FLUID", "synonyms": ["CSF"]}, {"conceptId": "C32293", "definition": "A wax secreted by glands in the ear canal.", "preferredTerm": "Cerumen", "submissionValue": "CERUMEN"}, {"conceptId": "C63797", "definition": "A metastatic cancer cell found in the peripheral blood. (NCI)", "preferredTerm": "Circulating Tumor Cell", "submissionValue": "CIRCULATING TUMOR CELL", "synonyms": ["CTC"]}, {"conceptId": "C32348", "definition": "A thick, protein-rich substance secreted by the breasts during the second half of pregnancy and for a few days after birth before the breast milk comes in.", "preferredTerm": "Human Colostrum", "submissionValue": "COLOSTRUM"}, {"conceptId": "C13300", "definition": "Blood present in the umbilical vessels at the time of delivery.", "preferredTerm": "Umbilical Cord Blood", "submissionValue": "CORD BLOOD", "synonyms": ["Umbilical Cord Blood"]}, {"conceptId": "C119550", "definition": "The clear portion of the blood that remains after the removal of the blood cells and the clotting proteins from the cord blood of a newborn baby.", "preferredTerm": "Umbilical Cord Serum", "submissionValue": "CORD SERUM"}, {"conceptId": "C106515", "definition": "The fluid which runs through a dialysis machine and captures, for discard or analysis, the excess water and waste from the blood stream through diffusion and ultrafiltration. (NCI)", "preferredTerm": "Dialysis Fluid", "submissionValue": "DIALYSIS FLUID", "synonyms": ["Dialysate"]}, {"conceptId": "C77666", "definition": "Stomach contents that have returned to the mouth or are ejected beyond the mouth. (NCI)", "preferredTerm": "Vomitus", "submissionValue": "EMESIS", "synonyms": ["Emesis", "Vomit"]}, {"conceptId": "C12521", "definition": "Cell specialized for oxygen transport, having a high concentration of hemoglobin in the cytoplasm and little else; biconcave, anucleate discs, 7nm diameter in mammals.", "preferredTerm": "Erythrocyte", "submissionValue": "ERYTHROCYTES", "synonyms": ["RBC", "Red Blood Cells"]}, {"conceptId": "C78741", "definition": "The air that moves out of the chest during expiration. It contains a higher percentage of carbon dioxide and a lower percentage of oxygen compared to the inhaled air. (NCI)", "preferredTerm": "Expired Air", "submissionValue": "EXPIRED AIR"}, {"conceptId": "C13233", "definition": "Fluid, cells or cellular debris that escapes from the blood vessels and accumulates in nearby tissues. It is the result of inflammation and is rich in proteins.", "preferredTerm": "Exudate", "submissionValue": "EXUDATE"}, {"conceptId": "C13236", "definition": "Liquid substances produced by the body.", "preferredTerm": "Body Fluid or Substance", "submissionValue": "FLUID"}, {"conceptId": "C77614", "definition": "The contents of the stomach that may include undigested food mixed with juices secreted by the gastric mucosal glands. (NCI)", "preferredTerm": "Gastric Content", "submissionValue": "GASTRIC CONTENTS", "synonyms": ["Digestive Contents", "Ingesta"]}, {"conceptId": "C32705", "definition": "The filamentous outgrowth of the epidermis. (NCI)", "preferredTerm": "Hair", "submissionValue": "HAIR", "synonyms": ["Hair"]}, {"conceptId": "C13317", "definition": "A tube-like invagination of the epidermis from which the hair shaft develops and into which the sebaceous glands open; the follicle is lined by a cellular inner and outer root sheath of epidermal origin and is invested with a fibrous sheath derived from the dermis. (NCI)", "preferredTerm": "Hair Follicle", "submissionValue": "HAIR FOLLICLE"}, {"conceptId": "C106554", "definition": "The liquid, solid or semi-solid lying below a liquid residue, which is separated by crystallization, precipitation or centrifugation of a plasma sample. (NCI)", "preferredTerm": "Plasma Infranatant", "submissionValue": "INFRANATANT, PLASMA"}, {"conceptId": "C106558", "definition": "The liquid, solid or semi-solid lying below a liquid residue, which is separated by crystallization, precipitation or centrifugation of a pleural fluid sample. (NCI)", "preferredTerm": "Pleural Fluid Infranatant", "submissionValue": "INFRANATANT, PLEURAL FLUID"}, {"conceptId": "C106565", "definition": "The liquid, solid or semi-solid lying below a liquid residue, which is separated by crystallization, precipitation or centrifugation of a serum sample. (NCI)", "preferredTerm": "Serum Infranatant", "submissionValue": "INFRANATANT, SERUM"}, {"conceptId": "C120839", "definition": "The extracellular fluid component found in the spaces between tissues. This excludes plasma and transcellular fluid.", "preferredTerm": "Interstitial Fluid", "submissionValue": "INTERSTITIAL FLUID"}, {"conceptId": "C53471", "definition": "A specific individual microbe and its genetically identical progeny separated on a single occasion from a sample taken from a host or culture system.", "preferredTerm": "Isolate", "submissionValue": "ISOLATE", "synonyms": ["Microbial Isolate"]}, {"conceptId": "C103411", "definition": "Fluid introduced into, and collected from, a body cavity by lavage procedure. (NCI)", "preferredTerm": "Lavage Fluid", "submissionValue": "LAVAGE FLUID"}, {"conceptId": "C78742", "definition": "Vaginal discharge occurring during the post-partum period. It consists of a mixture of blood, mucus, and placental remnants. (NCI)", "preferredTerm": "Lochia", "submissionValue": "LOCHIA"}, {"conceptId": "C13273", "definition": "Pulmonary surfactant lines the lung epithelium and lowers surface tension to prevent collapse at end-expiration. Deficiency of pulmonary surfactant results in respiratory distress syndrome (RDS) in premature infants. Lung surfactant is synthesized in alveolar type II cells, stored in lamellar bodies and secreted via exocytosis. (NCI)", "preferredTerm": "Lung Surfactant", "submissionValue": "LUNG SURFACTANT", "synonyms": ["Surfactant"]}, {"conceptId": "C13252", "definition": "A clear, transparent, sometimes faintly yellow and slightly opalescent fluid that is collected from the tissues throughout the body, flows in the lymphatic vessels (through the lymph nodes), and is eventually added to the venous blood circulation. Lymph consists of a clear liquid portion, varying numbers of white blood cells (chiefly lymphocytes), and a few red blood cells. (NCI)", "preferredTerm": "Lymph", "submissionValue": "LYMPH"}, {"conceptId": "C62004", "definition": "The cellular debris and fluid produced by lysis of cells.", "preferredTerm": "Lysate", "submissionValue": "LYSATE"}, {"conceptId": "C78743", "definition": "The newborn's first intestinal discharge. It is a dark-green, thick substance composed of mucus, intestinal secretions, hair, and intestinal mucosa cells. (NCI)", "preferredTerm": "Meconium", "submissionValue": "MECONIUM"}, {"conceptId": "C78740", "definition": "The discharged blood from the uterus during the reproductive years. The discharge occurs approximately once a month. (NCI)", "preferredTerm": "Menstrual Blood", "submissionValue": "MENSTRUAL BLOOD"}, {"conceptId": "C13259", "definition": "The thick fluid secreted by the mucus glands in the aerodigestive tract and the vagina. (NCI)", "preferredTerm": "Mucus", "submissionValue": "MUCUS"}, {"conceptId": "C33156", "definition": "The cutaneous plate on the dorsal surface of the distal end of a finger or toe. (NCI)", "preferredTerm": "Nail", "submissionValue": "NAIL", "synonyms": ["Nail"]}, {"conceptId": "C12954", "definition": "A peripheral blood cell with a single nucleus, for example lymphocytes and monocytes.", "preferredTerm": "Peripheral Blood Mononuclear Cell", "submissionValue": "PERIPHERAL BLOOD MONONUCLEAR CELL", "synonyms": ["PBMC"]}, {"conceptId": "C13280", "definition": "The liquid secreted by the sweat glands. (NCI)", "preferredTerm": "Sweat", "submissionValue": "PERSPIRATION", "synonyms": ["Sweat"]}, {"conceptId": "C13356", "definition": "Plasma is the fluid (acellular) portion of the circulating blood, as distinguished from the serum that is the fluid portion of the blood obtained by removal of the fibrin clot and blood cells after coagulation.", "preferredTerm": "Plasma", "submissionValue": "PLASMA"}, {"conceptId": "C12520", "definition": "An irregular, disc-shaped structure in the blood that assists in blood clotting. Platelets are not blood cells, they are fragments of large bone marrow cells called megakaryocytes. (NCI)", "preferredTerm": "Platelet", "submissionValue": "PLATELET", "synonyms": ["Thrombocyte"]}, {"conceptId": "C106556", "definition": "A plasma sample that is prepared from whole blood, which has undergone a number of centrifugation steps to decrease the amount of platelets. (NCI)", "preferredTerm": "Platelet-poor Plasma", "submissionValue": "PLATELET POOR PLASMA", "synonyms": ["PPP"]}, {"conceptId": "C106557", "definition": "A plasma sample that is prepared from whole blood, which has undergone a number of centrifugation steps to concentrate the amount of platelets. (NCI)", "preferredTerm": "Platelet-rich Plasma", "submissionValue": "PLATELET RICH PLASMA", "synonyms": ["PRP"]}, {"conceptId": "C77613", "definition": "The fluid that is abnormally collected in the pleural cavity. (NCI)", "preferredTerm": "Pleural Fluid", "submissionValue": "PLEURAL FLUID", "synonyms": ["Pleural Fluid"]}, {"conceptId": "C100896", "definition": "A slightly alkaline, white fluid secreted from the prostate and is a constituent of semen.", "preferredTerm": "Prostatic Fluid", "submissionValue": "PROSTATIC FLUID"}, {"conceptId": "C50718", "definition": "A yellowish substance produced during bacterial inflammation. It contains necrotic cells and cells fighting the infection. (NCI)", "preferredTerm": "Pus", "submissionValue": "PUS"}, {"conceptId": "C13275", "definition": "A clear liquid secreted into the mouth by the salivary glands and mucous glands of the mouth; moistens the mouth and starts the digestion of starches. (NCI)", "preferredTerm": "Saliva", "submissionValue": "SALIVA"}, {"conceptId": "C13276", "definition": "A thick, oily substance produced by the sebaceous glands located in the dermis. (NCI)", "preferredTerm": "Sebum", "submissionValue": "SEBUM"}, {"conceptId": "C13277", "definition": "The thick, whitish secretion of the male reproductive organs. It is composed of spermatozoa in their nutrient plasma, secretions from the prostate, seminal vesicles, and various other glands, epithelial cells, and minor constituents. (NCI)", "preferredTerm": "Semen", "submissionValue": "SEMEN", "synonyms": ["Seminal Plasma"]}, {"conceptId": "C33529", "definition": "Part of the ejaculated fluid. It contains secretions from the seminal vesicles, Cowper gland, and prostate gland.", "preferredTerm": "Seminal Fluid", "submissionValue": "SEMINAL FLUID"}, {"conceptId": "C13325", "definition": "The clear portion of the blood that remains after the removal of the blood cells and the clotting proteins. (NCI)", "preferredTerm": "Serum", "submissionValue": "SERUM", "synonyms": ["Sera"]}, {"conceptId": "C13050", "definition": "Striated muscles that are under voluntary control of the organism. They are connected at either or both ends to a bone and are utilized for locomotion and other movements. (NCI)", "preferredTerm": "Skeletal Muscle Tissue", "submissionValue": "SKELETAL MUSCLE TISSUE", "synonyms": ["Skeletal Muscle Tissue"]}, {"conceptId": "C33574", "definition": "A white secretion of the sebaceous glands of the foreskin. (NCI)", "preferredTerm": "Smegma", "submissionValue": "SMEGMA"}, {"conceptId": "C12437", "definition": "Involuntary muscle tissue of the internal organs. It is composed of elongated muscle cells or fibers that are not arranged in a striated pattern and form layers of muscle tissue. The smooth muscle cells contain a contractile apparatus composed of thin and thick filaments and a cytoskeleton composed of intermediate filaments. (NCI)", "preferredTerm": "Smooth Muscle Tissue", "submissionValue": "SMOOTH MUSCLE TISSUE"}, {"conceptId": "C12471", "definition": "Refers to muscle, fat, fibrous tissue, blood vessels or other supporting tissue of the body.", "preferredTerm": "Soft Tissue", "submissionValue": "SOFT TISSUE", "synonyms": ["Soft Tissue"]}, {"conceptId": "C13278", "definition": "Material containing mucus, cellular debris, microorganisms and sometimes blood or pus. It is ejected through the mouth from the lungs, bronchi, and trachea. (NCI)", "preferredTerm": "Sputum", "submissionValue": "SPUTUM"}, {"conceptId": "C13234", "definition": "The material discharged from the bowel during defecation. It consists of undigested food, intestinal mucus, epithelial cells, and bacteria. (NCI)", "preferredTerm": "Feces", "submissionValue": "STOOL", "synonyms": ["Feces"]}, {"conceptId": "C12436", "definition": "Striated muscles are appendicular and axial muscles typically connected at either or both ends to the bony skeleton of the body. Striated muscle fibers contain a highly organized, contractile cytoskeletal apparatus with a striated microscopic appearance; muscle contraction is typically under voluntary control. (NCI)", "preferredTerm": "Striated Muscle Tissue", "submissionValue": "STRIATED MUSCLE TISSUE"}, {"conceptId": "C106555", "definition": "The liquid lying above a liquid, solid or semi-solid residue, which is separated by crystallization, precipitation or centrifugation of a plasma sample. (NCI)", "preferredTerm": "Plasma Supernatant", "submissionValue": "SUPERNATANT, PLASMA"}, {"conceptId": "C106559", "definition": "The liquid lying above a liquid, solid or semi-solid residue, which is separated by crystallization, precipitation or centrifugation of a pleural fluid sample. (NCI)", "preferredTerm": "Pleural Fluid Supernatant", "submissionValue": "SUPERNATANT, PLEURAL FLUID"}, {"conceptId": "C106566", "definition": "The liquid lying above a liquid, solid or semi-solid residue, which is separated by crystallization, precipitation or centrifugation of a serum sample. (NCI)", "preferredTerm": "Serum Supernatant", "submissionValue": "SUPERNATANT, SERUM"}, {"conceptId": "C33718", "definition": "A viscid fluid secreted by the synovial membrane, serving as a lubricant. (NCI)", "preferredTerm": "Synovial Fluid", "submissionValue": "SYNOVIAL FLUID", "synonyms": ["Synovia", "Synovial Fluid"]}, {"conceptId": "C12801", "definition": "An anatomical structure consisting of similarly specialized cells and intercellular matrix, aggregated according to genetically determined spatial relationships, performing a specific function. (NCI)", "preferredTerm": "Tissue", "submissionValue": "TISSUE"}, {"conceptId": "C78744", "definition": "The fluid that passes through the wall of the veins and capillaries to the surrounding tissues because of increased intravascular pressure. It has low protein content. (NCI)", "preferredTerm": "Transudate", "submissionValue": "TRANSUDATE"}, {"conceptId": "C18009", "definition": "A tumor sample, or entire tumor that is removed for examination.", "preferredTerm": "Tumor Tissue", "submissionValue": "TUMOR TISSUE"}, {"conceptId": "C13283", "definition": "The fluid that is excreted by the kidneys. It is stored in the bladder and discharged through the urethra. (NCI)", "preferredTerm": "Urine", "submissionValue": "URINE"}, {"conceptId": "C78730", "definition": "Deoxygenated blood containing urea and other waste products which is transported through the venous system to the heart and lungs. The exception is blood within the pulmonary vein which is oxygenated and travels from the lungs to the left atrium of the heart. (NCI)", "preferredTerm": "Venous Blood", "submissionValue": "VENOUS BLOOD"}, {"conceptId": "C120840", "definition": "Blood present in the umbilical vein at the time of delivery.", "preferredTerm": "Venous Cord Blood", "submissionValue": "VENOUS CORD BLOOD"}, {"conceptId": "C13323", "definition": "The clear colorless transparent jelly that fills the posterior chamber of the eyeball. (NCI)", "preferredTerm": "Vitreous Humor", "submissionValue": "VITREOUS HUMOR"}]}