{"_links": {"parentPackage": {"href": "/mdr/ct/packages/protocolct-2018-06-29", "title": "PROTOCOL Controlled Terminology Package 34 Effective 2018-06-29", "type": "Terminology"}, "priorVersion": {"href": "/mdr/ct/packages/protocolct-2018-03-30/codelists/C147069", "title": "CDISC Protocol Randomization Type Response Terminology", "type": "Code List"}, "rootItem": {"href": "/mdr/root/ct/protocolct/codelists/C147069", "title": "Version-agnostic anchor resource for codelist C147069", "type": "Root Value Domain"}, "self": {"href": "/mdr/ct/packages/protocolct-2018-06-29/codelists/C147069", "title": "CDISC Protocol Randomization Type Response Terminology", "type": "Code List"}}, "conceptId": "C147069", "definition": "A terminology codelist relevant to the types of randomization schemas associated with a randomized controlled trial.", "name": "Randomization Type Response", "preferredTerm": "CDISC Protocol Randomization Type Response Terminology", "submissionValue": "Randomization Type Response", "synonyms": ["Randomization Type Response"], "terms": [{"conceptId": "C147126", "definition": "A type of randomization schema in which the group assignment probability of a subject is adjusted based on the group assignments of those subjects already randomized in the trial. (NCI)", "preferredTerm": "Adaptive Randomization", "submissionValue": "Adaptive Randomization"}, {"conceptId": "C147127", "definition": "A type of adaptive randomization in which a pre-specified number of subjects is assigned to a block containing the same pre-specified number of balanced group assignments in random order.", "preferredTerm": "Block Randomization", "submissionValue": "Block Randomization", "synonyms": ["Constrained Randomization"]}, {"conceptId": "C147143", "definition": "A type of adaptive randomization in which the subject is assigned to the treatment group in an attempt to minimize imbalances in the number of subjects for each stratification covariate across treatment groups.", "preferredTerm": "Minimization Randomization", "submissionValue": "Minimization Randomization", "synonyms": ["Covariate Adaptive Randomization"]}, {"conceptId": "C147144", "definition": "A type of randomization schema in which each subject has the same chance of being randomized into any one group as all other subjects. (NCI)", "preferredTerm": "Simple Randomization", "submissionValue": "Simple Randomization", "synonyms": ["Unrestricted Randomization"]}, {"conceptId": "C147145", "definition": "A type of block randomization in which subjects are stratified into groups based on prognostic variables and then randomized into balanced treatment groups. (NCI)", "preferredTerm": "Stratified Randomization", "submissionValue": "Stratified Randomization"}, {"conceptId": "C142743", "definition": "A type of randomization schema in which unequal numbers of subjects are purposely assigned to multiple treatment groups.", "preferredTerm": "Unequal Randomization", "submissionValue": "Unequal Randomization"}]}