{"_links": {"parentPackage": {"href": "/mdr/ct/packages/ddfct-2022-09-30", "title": "DDF Controlled Terminology Package 51 Effective 2022-09-30", "type": "Terminology"}, "rootItem": {"href": "/mdr/root/ct/ddfct/codelists/C188722", "title": "Version-agnostic anchor resource for codelist C188722", "type": "Root Value Domain"}, "self": {"href": "/mdr/ct/packages/ddfct-2022-09-30/codelists/C188722", "title": "CDISC DDF Code Attribute Terminology", "type": "Code List"}}, "conceptId": "C188722", "definition": "A terminology value set relevant to the attributes of the code.", "name": "DDF Code Attribute Terminology", "preferredTerm": "CDISC DDF Code Attribute Terminology", "submissionValue": "DDF Code Attribute Terminology", "synonyms": ["DDF Code Attribute Terminology"], "terms": [{"conceptId": "C188859", "definition": "The literal identifier (i.e., distinctive designation) of the system used to assign and/or manage codes.", "preferredTerm": "Code System Name", "submissionValue": "Code System Name"}, {"conceptId": "C188868", "definition": "The version of the code system.", "preferredTerm": "Coding System Version", "submissionValue": "Code System Version"}, {"conceptId": "C188858", "definition": "The literal value of a code.", "preferredTerm": "Code Value", "submissionValue": "Code Value"}, {"conceptId": "C188861", "definition": "Standardized or dictionary-derived human readable text associated with a code.", "preferredTerm": "Decode Text", "submissionValue": "Decode"}]}