{"_links": {"parentPackage": {"href": "/mdr/ct/packages/ddfct-2022-09-30", "title": "DDF Controlled Terminology Package 51 Effective 2022-09-30", "type": "Terminology"}, "rootItem": {"href": "/mdr/root/ct/ddfct/codelists/C188723", "title": "Version-agnostic anchor resource for codelist C188723", "type": "Root Value Domain"}, "self": {"href": "/mdr/ct/packages/ddfct-2022-09-30/codelists/C188723", "title": "CDISC DDF Protocol Status Value Set Terminology", "type": "Code List"}}, "conceptId": "C188723", "definition": "The terminology relevant to the protocol status.", "name": "Protocol Status Value Set Terminology", "preferredTerm": "CDISC DDF Protocol Status Value Set Terminology", "submissionValue": "Protocol Status Value Set Terminology", "synonyms": ["Protocol Status Value Set Terminology"], "terms": [{"conceptId": "C25425", "definition": "Acceptance as satisfactory by an authoritative body; established by authority; given authoritative approval.", "preferredTerm": "Approval", "submissionValue": "Approved"}, {"conceptId": "C85255", "definition": "A preliminary version of a written work, design, or picture.", "preferredTerm": "Draft", "submissionValue": "Draft"}, {"conceptId": "C25508", "definition": "Conclusive in a process or progression.", "preferredTerm": "Final", "submissionValue": "Final"}, {"conceptId": "C63553", "definition": "No longer in use or valid; old.", "preferredTerm": "Obsolete", "submissionValue": "Obsolete"}, {"conceptId": "C188862", "definition": "A preliminary version of a written work, design, or picture that is awaiting review.", "preferredTerm": "Pending Review", "submissionValue": "Pending Review", "synonyms": ["Draft Pending Review"]}]}