{"_links": {"parentPackage": {"href": "/mdr/ct/packages/ddfct-2022-09-30", "title": "DDF Controlled Terminology Package 51 Effective 2022-09-30", "type": "Terminology"}, "rootItem": {"href": "/mdr/root/ct/ddfct/codelists/C188715", "title": "Version-agnostic anchor resource for codelist C188715", "type": "Root Value Domain"}, "self": {"href": "/mdr/ct/packages/ddfct-2022-09-30/codelists/C188715", "title": "CDISC DDF Study Data Attribute Terminology", "type": "Code List"}}, "conceptId": "C188715", "definition": "A terminology value set relevant to the attributes of the study data.", "name": "DDF Study Data Attribute Terminology", "preferredTerm": "CDISC DDF Study Data Attribute Terminology", "submissionValue": "DDF Study Data Attribute Terminology", "synonyms": ["DDF Study Data Attribute Terminology"], "terms": [{"conceptId": "C188846", "definition": "The textual representation of the study data.", "preferredTerm": "Clinical Study Data Description", "submissionValue": "Clinical Study Data Description"}, {"conceptId": "C188845", "definition": "The literal identifier (i.e., distinctive designation) for the study data.", "preferredTerm": "Clinical Study Data Name", "submissionValue": "Clinical Study Data Name"}, {"conceptId": "C188847", "definition": "The uniform resource locator used to access the digital case report form.", "preferredTerm": "Electronic Case Report Form Uniform Resource Locator", "submissionValue": "Electronic Case Report Form Link"}]}