{"_links": {"parentPackage": {"href": "/mdr/ct/packages/sdtmct-2022-06-24", "title": "SDTM Controlled Terminology Package 50 Effective 2022-06-24", "type": "Terminology"}, "priorVersion": {"href": "/mdr/ct/packages/sdtmct-2022-03-25/codelists/C100158", "title": "CDISC Questionnaire COMM Test Code Terminology", "type": "Code List"}, "rootItem": {"href": "/mdr/root/ct/sdtmct/codelists/C100158", "title": "Version-agnostic anchor resource for codelist C100158", "type": "Root Value Domain"}, "self": {"href": "/mdr/ct/packages/sdtmct-2022-06-24/codelists/C100158", "title": "CDISC Questionnaire COMM Test Code Terminology", "type": "Code List"}}, "conceptId": "C100158", "definition": "Current Opioid Misuse Measure test code.", "extensible": "false", "name": "Current Opioid Misuse Measure Questionnaire Test Code", "preferredTerm": "CDISC Questionnaire COMM Test Code Terminology", "submissionValue": "COMM1TC", "synonyms": ["Current Opioid Misuse Measure Questionnaire Test Code"], "terms": [{"conceptId": "C100958", "definition": "Current Opioid Misuse Measure - In the past 30 days, how often have you had trouble with thinking clearly or had memory problems?", "preferredTerm": "COMM - Trouble Thinking Clearly or Memory Problems", "submissionValue": "COMM101", "synonyms": ["COMM1-Trouble Thinking Clearly/Memory"]}, {"conceptId": "C100959", "definition": "Current Opioid Misuse Measure - In the past 30 days, how often do people complain that you are not completing necessary tasks? (i.e., doing things that need to be done, such as going to class, work or appointments)", "preferredTerm": "COMM - Complaints Not Completing Tasks", "submissionValue": "COMM102", "synonyms": ["COMM1-Complaints Not Completing Tasks"]}, {"conceptId": "C100960", "definition": "Current Opioid Misuse Measure - In the past 30 days, how often have you had to go to someone other than your prescribing physician to get sufficient pain relief from medications? (i.e., another doctor, the Emergency Room, friends, street source)", "preferredTerm": "COMM - Other Sources for Pain Medication", "submissionValue": "COMM103", "synonyms": ["COMM1-Other Sources For Pain Medication"]}, {"conceptId": "C100961", "definition": "Current Opioid Misuse Measure - In the past 30 days, how often have you taken your medications differently from how they are prescribed?", "preferredTerm": "COMM - Taken Medications Other Than Prescribed", "submissionValue": "COMM104", "synonyms": ["COMM1-Taken Meds Other Than Prescribed"]}, {"conceptId": "C100962", "definition": "Current Opioid Misuse Measure - In the past 30 days, how often have you seriously thought about hurting yourself?", "preferredTerm": "COMM - Seriously Thought of Hurting Self", "submissionValue": "COMM105", "synonyms": ["COMM1-Seriously Thought of Hurting Self"]}, {"conceptId": "C100963", "definition": "Current Opioid Misuse Measure - In the past 30 days, how much of your time was spent thinking about opioid medications (having enough, taking them, dosing schedule, etc.)?", "preferredTerm": "COMM - Time Spent Thinking About Opioids", "submissionValue": "COMM106", "synonyms": ["COMM1-Time Spent Thinking About Opioids"]}, {"conceptId": "C100964", "definition": "Current Opioid Misuse Measure - In the past 30 days, how often have you been in an argument?", "preferredTerm": "COMM - Been in an Argument", "submissionValue": "COMM107", "synonyms": ["COMM1-Been in an Argument"]}, {"conceptId": "C100965", "definition": "Current Opioid Misuse Measure - In the past 30 days, how often have you had trouble controlling your anger (e.g., road rage, screaming, etc.)?", "preferredTerm": "COMM - Trouble Controlling Anger", "submissionValue": "COMM108", "synonyms": ["COMM1-Trouble Controlling Anger"]}, {"conceptId": "C100966", "definition": "Current Opioid Misuse Measure - In the past 30 days, how often have you needed to take pain medications belonging to someone else?", "preferredTerm": "COMM - Take Medications Belonging to Others", "submissionValue": "COMM109", "synonyms": ["COMM1-Take Meds Belonging to Others"]}, {"conceptId": "C100967", "definition": "Current Opioid Misuse Measure - In the past 30 days, how often have you been worried about how you're handling your medications?", "preferredTerm": "COMM - Worry About Handling Medications", "submissionValue": "COMM110", "synonyms": ["COMM1-Worry About Handling Meds"]}, {"conceptId": "C100968", "definition": "Current Opioid Misuse Measure - In the past 30 days, how often have others been worried about how you're handling your medications?", "preferredTerm": "COMM - Others Worry About Your Medications", "submissionValue": "COMM111", "synonyms": ["COMM1-Others Worry About Your Meds"]}, {"conceptId": "C100969", "definition": "Current Opioid Misuse Measure - In the past 30 days, how often have you had to make an emergency phone call or show up at the clinic without an appointment?", "preferredTerm": "COMM - Emergency Phone Call or Clinic Visit", "submissionValue": "COMM112", "synonyms": ["COMM1-Emergency Phone Call/Clinic Visit"]}, {"conceptId": "C100970", "definition": "Current Opioid Misuse Measure - In the past 30 days, how often have you gotten angry with people?", "preferredTerm": "COMM - Gotten Angry With People", "submissionValue": "COMM113", "synonyms": ["COMM1-Gotten Angry With People"]}, {"conceptId": "C100971", "definition": "Current Opioid Misuse Measure - In the past 30 days, how often have you had to take more of your medication than prescribed?", "preferredTerm": "COMM - Take More Medication Than Prescribed", "submissionValue": "COMM114", "synonyms": ["COMM1-Take More Meds Than Prescribed"]}, {"conceptId": "C100972", "definition": "Current Opioid Misuse Measure - In the past 30 days, how often have you borrowed pain medication from someone else?", "preferredTerm": "COMM - Borrowed Medication From Others", "submissionValue": "COMM115", "synonyms": ["COMM1-Borrowed Meds From Others"]}, {"conceptId": "C100973", "definition": "Current Opioid Misuse Measure - In the past 30 days, how often have you used your pain medicine for symptoms other than for pain (e.g., to help you sleep, improve your mood, or relieve stress)?", "preferredTerm": "COMM - Used Pain Medicine For Other Symptoms", "submissionValue": "COMM116", "synonyms": ["COMM1-Used Pain Meds For Other Symptoms"]}, {"conceptId": "C100974", "definition": "Current Opioid Misuse Measure - In the past 30 days, how often have you had to visit the Emergency Room?", "preferredTerm": "COMM - Visit Emergency Room", "submissionValue": "COMM117", "synonyms": ["COMM1-Visit Emergency Room"]}, {"conceptId": "C100975", "definition": "Current Opioid Misuse Measure - Score.", "preferredTerm": "COMM - Score", "submissionValue": "COMM118", "synonyms": ["COMM1-Score"]}]}