{"_links": {"parentPackage": {"href": "/mdr/ct/packages/sdtmct-2022-06-24", "title": "SDTM Controlled Terminology Package 50 Effective 2022-06-24", "type": "Terminology"}, "priorVersion": {"href": "/mdr/ct/packages/sdtmct-2022-03-25/codelists/C100153", "title": "CDISC Questionnaire FPSR Test Name Terminology", "type": "Code List"}, "rootItem": {"href": "/mdr/root/ct/sdtmct/codelists/C100153", "title": "Version-agnostic anchor resource for codelist C100153", "type": "Root Value Domain"}, "self": {"href": "/mdr/ct/packages/sdtmct-2022-06-24/codelists/C100153", "title": "CDISC Questionnaire FPSR Test Name Terminology", "type": "Code List"}}, "conceptId": "C100153", "definition": "Faces Pain Scale - Revised test name.", "extensible": "false", "name": "Faces Pain Scale - Revised Questionnaire Test Name", "preferredTerm": "CDISC Questionnaire FPSR Test Name Terminology", "submissionValue": "FPSR1TN", "synonyms": ["Faces Pain Scale - Revised Questionnaire Test Name"], "terms": [{"conceptId": "C101013", "definition": "Faces Pain Scale - Revised - Point to the face that shows how much you hurt [right now].", "preferredTerm": "FPSR - How Much Do You Hurt", "submissionValue": "FPSR1-How Much Do You Hurt", "synonyms": ["FPSR1-How Much Do You Hurt"]}]}