{"_links": {"parentPackage": {"href": "/mdr/ct/packages/sdtmct-2022-06-24", "title": "SDTM Controlled Terminology Package 50 Effective 2022-06-24", "type": "Terminology"}, "priorVersion": {"href": "/mdr/ct/packages/sdtmct-2022-03-25/codelists/C101861", "title": "CDISC SDTM Lesion Complexity Terminology", "type": "Code List"}, "rootItem": {"href": "/mdr/root/ct/sdtmct/codelists/C101861", "title": "Version-agnostic anchor resource for codelist C101861", "type": "Root Value Domain"}, "self": {"href": "/mdr/ct/packages/sdtmct-2022-06-24/codelists/C101861", "title": "CDISC SDTM Lesion Complexity Terminology", "type": "Code List"}}, "conceptId": "C101861", "definition": "Terminology related to the risk of percutaneous coronary intervention for a particular lesion.", "extensible": "false", "name": "Lesion Complexity", "preferredTerm": "CDISC SDTM Lesion Complexity Terminology", "submissionValue": "LSNCMPX", "synonyms": ["Lesion Complexity"], "terms": [{"conceptId": "C100037", "definition": "Discrete (less than 10 mm length) and concentric and readily accessible and non-angulated segment less than 45 degrees and smooth contour and little or no calcification and less than totally occlusive and not ostial in location and no major branch involvement and absence of thrombus.", "preferredTerm": "American College of Cardiology/American Heart Association Lesion Complexity Score A", "submissionValue": "ACC/AHA LESION COMPLEXITY SCORE A", "synonyms": ["Low Risk"]}, {"conceptId": "C100038", "definition": "Tubular (10-20 mm length) or eccentric or moderate tortuosity of proximal segment or moderately angulated segment, 45-90 degrees or irregular contour or moderate to heavy calcification or ostial in location or bifurcation lesions requiring double guidewires or some thrombus present or total occlusion less than3 months old.", "preferredTerm": "American College of Cardiology/American Heart Association Lesion Complexity Score B", "submissionValue": "ACC/AHA LESION COMPLEXITY SCORE B", "synonyms": ["Medium Risk"]}, {"conceptId": "C100039", "definition": "Diffuse (length greater than 2cm) or excessive tortuosity of proximal segment or extremely angulated segments greater than 90 degrees or total occlusions greater than 3 months old and/or bridging collaterals or inability to protect major side branches or degenerated vein grafts with friable lesions.", "preferredTerm": "American College of Cardiology/American Heart Association Lesion Complexity Score C", "submissionValue": "ACC/AHA LESION COMPLEXITY SCORE C", "synonyms": ["High Risk"]}]}