{"_links": {"parentPackage": {"href": "/mdr/ct/packages/sdtmct-2022-06-24", "title": "SDTM Controlled Terminology Package 50 Effective 2022-06-24", "type": "Terminology"}, "priorVersion": {"href": "/mdr/ct/packages/sdtmct-2022-03-25/codelists/C101812", "title": "CDISC Questionnaire CDR Test Name Terminology", "type": "Code List"}, "rootItem": {"href": "/mdr/root/ct/sdtmct/codelists/C101812", "title": "Version-agnostic anchor resource for codelist C101812", "type": "Root Value Domain"}, "self": {"href": "/mdr/ct/packages/sdtmct-2022-06-24/codelists/C101812", "title": "CDISC Questionnaire CDR Test Name Terminology", "type": "Code List"}}, "conceptId": "C101812", "definition": "Clinical Dementia Rating test name.", "extensible": "false", "name": "Clinical Dementia Rating Questionnaire Test Name", "preferredTerm": "CDISC Questionnaire CDR Test Name Terminology", "submissionValue": "CDR01TN", "synonyms": ["Clinical Dementia Rating Questionnaire Test Name"], "terms": [{"conceptId": "C102053", "definition": "Clinical Dementia Rating - Community affairs.", "preferredTerm": "CDR - Community Affairs", "submissionValue": "CDR01-Community Affairs", "synonyms": ["CDR01-Community Affairs"]}, {"conceptId": "C113881", "definition": "Clinical Dementia Rating - Global CDR.", "preferredTerm": "CDR - Global CDR", "submissionValue": "CDR01-Global CDR", "synonyms": ["CDR01-Global CDR"]}, {"conceptId": "C102054", "definition": "Clinical Dementia Rating - Home and hobbies.", "preferredTerm": "CDR - Home and Hobbies", "submissionValue": "CDR01-Home and Hobbies", "synonyms": ["CDR01-Home and Hobbies"]}, {"conceptId": "C102052", "definition": "Clinical Dementia Rating - Judgment and problem solving.", "preferredTerm": "CDR - Judgment and Problem Solving", "submissionValue": "CDR01-Judgment and Problem Solving", "synonyms": ["CDR01-Judgment and Problem Solving"]}, {"conceptId": "C102050", "definition": "Clinical Dementia Rating - Memory.", "preferredTerm": "CDR - Memory", "submissionValue": "CDR01-Memory", "synonyms": ["CDR01-Memory"]}, {"conceptId": "C102051", "definition": "Clinical Dementia Rating - Orientation.", "preferredTerm": "CDR - Orientation", "submissionValue": "CDR01-Orientation", "synonyms": ["CDR01-Orientation"]}, {"conceptId": "C102055", "definition": "Clinical Dementia Rating - Personal care.", "preferredTerm": "CDR - Personal Care", "submissionValue": "CDR01-Personal Care", "synonyms": ["CDR01-Personal Care"]}, {"conceptId": "C113880", "definition": "Clinical Dementia Rating - Sum of Boxes.", "preferredTerm": "CDR - Sum of Boxes", "submissionValue": "CDR01-Sum of Boxes", "synonyms": ["CDR01-Sum of Boxes"]}]}