{"_links": {"parentPackage": {"href": "/mdr/ct/packages/sdtmct-2022-06-24", "title": "SDTM Controlled Terminology Package 50 Effective 2022-06-24", "type": "Terminology"}, "priorVersion": {"href": "/mdr/ct/packages/sdtmct-2022-03-25/codelists/C101826", "title": "CDISC Questionnaire SF36 v2.0 Standard Test Code Terminology", "type": "Code List"}, "rootItem": {"href": "/mdr/root/ct/sdtmct/codelists/C101826", "title": "Version-agnostic anchor resource for codelist C101826", "type": "Root Value Domain"}, "self": {"href": "/mdr/ct/packages/sdtmct-2022-06-24/codelists/C101826", "title": "CDISC Questionnaire SF36 v2.0 Standard Test Code Terminology", "type": "Code List"}}, "conceptId": "C101826", "definition": "The Short Form 36 Health Survey Standard, US Version 2.0 test code.", "extensible": "false", "name": "The Short Form 36 Health Survey Standard, US Version 2.0 Questionnaire Test Code", "preferredTerm": "CDISC Questionnaire SF36 v2.0 Standard Test Code Terminology", "submissionValue": "SF363TC", "synonyms": ["The Short Form 36 Health Survey Standard, US Version 2.0 Questionnaire Test Code"], "terms": [{"conceptId": "C102197", "definition": "The Short Form 36 Health Survey Standard, US Version 2.0 - In general, would you say your health is.", "preferredTerm": "SF-36 v2.0 Standard - In General You Say Your Health Is", "submissionValue": "SF36301", "synonyms": ["SF363-In General You Say Your Health Is"]}, {"conceptId": "C102198", "definition": "The Short Form 36 Health Survey Standard, US Version 2.0 - Compared to one year ago, how would you rate your health in general now?", "preferredTerm": "SF-36 v2.0 Standard - Comp Year Ago Rate Gen Health Now", "submissionValue": "SF36302", "synonyms": ["SF363-Comp Year Ago Rate Gen Health Now"]}, {"conceptId": "C102199", "definition": "The Short Form 36 Health Survey Standard, US Version 2.0 - How much does your health now limit you in - vigorous activities, such as running, lifting heavy objects, participating in strenuous sports.", "preferredTerm": "SF-36 v2.0 Standard - Limit Vigorous Activities", "submissionValue": "SF36303A", "synonyms": ["SF363-Limit Vigorous Activities"]}, {"conceptId": "C102200", "definition": "The Short Form 36 Health Survey Standard, US Version 2.0 - How much does your health now limit you in - moderate activities, such as moving a table, pushing a vacuum cleaner, bowling, or playing golf.", "preferredTerm": "SF-36 v2.0 Standard - Limit Moderate Activities", "submissionValue": "SF36303B", "synonyms": ["SF363-Limit Moderate Activities"]}, {"conceptId": "C102201", "definition": "The Short Form 36 Health Survey Standard, US Version 2.0 - How much does your health now limit you in - lifting or carrying groceries.", "preferredTerm": "SF-36 v2.0 Standard - Limit Lifting or Carrying", "submissionValue": "SF36303C", "synonyms": ["SF363-Limit Lifting or Carrying"]}, {"conceptId": "C102202", "definition": "The Short Form 36 Health Survey Standard, US Version 2.0 - How much does your health now limit you in - climbing several flights of stairs.", "preferredTerm": "SF-36 v2.0 Standard - Limit Climbing Several Flights", "submissionValue": "SF36303D", "synonyms": ["SF363-Limit Climbing Several Flights"]}, {"conceptId": "C102203", "definition": "The Short Form 36 Health Survey Standard, US Version 2.0 - How much does your health now limit you in - climbing one flight of stairs.", "preferredTerm": "SF-36 v2.0 Standard - Limit Climbing One Flight Stairs", "submissionValue": "SF36303E", "synonyms": ["SF363-Limit Climbing One Flight Stairs"]}, {"conceptId": "C102204", "definition": "The Short Form 36 Health Survey Standard, US Version 2.0 - How much does your health now limit you in - bending, kneeling, or stooping.", "preferredTerm": "SF-36 v2.0 Standard - Limit Bending/Kneeling/Stooping", "submissionValue": "SF36303F", "synonyms": ["SF363-Limit Bending/Kneeling/Stooping"]}, {"conceptId": "C102205", "definition": "The Short Form 36 Health Survey Standard, US Version 2.0 - How much does your health now limit you in - walking more than a mile.", "preferredTerm": "SF-36 v2.0 Standard - Limit Walking More Than a Mile", "submissionValue": "SF36303G", "synonyms": ["SF363-Limit Walking More Than a Mile"]}, {"conceptId": "C102206", "definition": "The Short Form 36 Health Survey Standard, US Version 2.0 - How much does your health now limit you in - walking several hundred yards.", "preferredTerm": "SF-36 v2.0 Standard - Limit Walking Several Hundred Yds", "submissionValue": "SF36303H", "synonyms": ["SF363-Limit Walking Several Hundred Yds"]}, {"conceptId": "C102207", "definition": "The Short Form 36 Health Survey Standard, US Version 2.0 - How much does your health now limit you in - walking one hundred yards.", "preferredTerm": "SF-36 v2.0 Standard - Limit Walking One Hundred Yards", "submissionValue": "SF36303I", "synonyms": ["SF363-Limit Walking One Hundred Yards"]}, {"conceptId": "C102208", "definition": "The Short Form 36 Health Survey Standard, US Version 2.0 - How much does your health now limit you in - bathing or dressing yourself.", "preferredTerm": "SF-36 v2.0 Standard - Limit Bathing or Dressing Yourself", "submissionValue": "SF36303J", "synonyms": ["SF363-Limit Bathing or Dressing Yourself"]}, {"conceptId": "C102209", "definition": "The Short Form 36 Health Survey Standard, US Version 2.0 - During the past 4 weeks, how much of the time have you had any problems with your work or other regular daily activities as a result of your physical health - cut down on the amount of time you spent on work or other activities.", "preferredTerm": "SF-36 v2.0 Standard - Physical: Cut Down Time on Work", "submissionValue": "SF36304A", "synonyms": ["SF363-Physical: Cut Down Time on Work"]}, {"conceptId": "C102210", "definition": "The Short Form 36 Health Survey Standard, US Version 2.0 - During the past 4 weeks, how much of the time have you had any problems with your work or other regular daily activities as a result of your physical health - accomplished less than you would like.", "preferredTerm": "SF-36 v2.0 Standard - Physical: Accomplished Less", "submissionValue": "SF36304B", "synonyms": ["SF363-Physical: Accomplished Less"]}, {"conceptId": "C102211", "definition": "The Short Form 36 Health Survey Standard, US Version 2.0 - During the past 4 weeks, how much of the time have you had any problems with your work or other regular daily activities as a result of your physical health - were limited in the kind of work or other activities.", "preferredTerm": "SF-36 v2.0 Standard - Physical: Limited Kind of Work", "submissionValue": "SF36304C", "synonyms": ["SF363-Physical: Limited Kind of Work"]}, {"conceptId": "C102212", "definition": "The Short Form 36 Health Survey Standard, US Version 2.0 - During the past 4 weeks, how much of the time have you had any problems with your work or other regular daily activities as a result of your physical health - had difficulty performing the work or other activities (for example, it took extra effort).", "preferredTerm": "SF-36 v2.0 Standard - Physical: Difficulty Perform Work", "submissionValue": "SF36304D", "synonyms": ["SF363-Physical: Difficulty Perform Work"]}, {"conceptId": "C102213", "definition": "The Short Form 36 Health Survey Standard, US Version 2.0 - During the past 4 weeks, how much of the time have you had problems with your work or other regular daily activities as a result of any emotional problems (such as feeling depressed or anxious) - cut down on the amount of time you spent on work or other activities.", "preferredTerm": "SF-36 v2.0 Standard - Emotional: Cut Down Time on Work", "submissionValue": "SF36305A", "synonyms": ["SF363-Emotional: Cut Down Time on Work"]}, {"conceptId": "C102214", "definition": "The Short Form 36 Health Survey Standard, US Version 2.0 - During the past 4 weeks, how much of the time have you had problems with your work or other regular daily activities as a result of any emotional problems (such as feeling depressed or anxious) - accomplished less than you would like.", "preferredTerm": "SF-36 v2.0 Standard - Emotional: Accomplished Less", "submissionValue": "SF36305B", "synonyms": ["SF363-Emotional: Accomplished Less"]}, {"conceptId": "C102215", "definition": "The Short Form 36 Health Survey Standard, US Version 2.0 - During the past 4 weeks, how much of the time have you had problems with your work or other regular daily activities as a result of any emotional problems (such as feeling depressed or anxious) - did work or other activities less carefully than usual.", "preferredTerm": "SF-36 v2.0 Standard - Emotional: Did Work Less Carefully", "submissionValue": "SF36305C", "synonyms": ["SF363-Emotional: Did Work Less Carefully"]}, {"conceptId": "C102216", "definition": "The Short Form 36 Health Survey Standard, US Version 2.0 - During the past 4 weeks, to what extent has your physical health or emotional problems interfered with your normal social activities with family, friends, neighbors, or groups?", "preferredTerm": "SF-36 v2.0 Standard - Extent Phys/Emotional Interfered", "submissionValue": "SF36306", "synonyms": ["SF363-Extent Phys/Emotional Interfered"]}, {"conceptId": "C102217", "definition": "The Short Form 36 Health Survey Standard, US Version 2.0 - How much bodily pain have you had during the past 4 weeks?", "preferredTerm": "SF-36 v2.0 Standard - How Much Bodily Pain Have You Had", "submissionValue": "SF36307", "synonyms": ["SF363-How Much Bodily Pain Have You Had"]}, {"conceptId": "C102218", "definition": "The Short Form 36 Health Survey Standard, US Version 2.0 - During the past 4 weeks, how much did pain interfere with your normal work (including both work outside the home and housework)?", "preferredTerm": "SF-36 v2.0 Standard - Pain Interfere With Normal Work", "submissionValue": "SF36308", "synonyms": ["SF363-Pain Interfere With Normal Work"]}, {"conceptId": "C102219", "definition": "The Short Form 36 Health Survey Standard, US Version 2.0 - Please give the one answer that comes closest to the way you have been feeling. How much of the time during the past 4 weeks - did you feel full of life.", "preferredTerm": "SF-36 v2.0 Standard - Did You Feel Full of Life", "submissionValue": "SF36309A", "synonyms": ["SF363-Did You Feel Full of Life"]}, {"conceptId": "C102220", "definition": "The Short Form 36 Health Survey Standard, US Version 2.0 - Please give the one answer that comes closest to the way you have been feeling. How much of the time during the past 4 weeks - have you been very nervous.", "preferredTerm": "SF-36 v2.0 Standard - Have You Been Very Nervous", "submissionValue": "SF36309B", "synonyms": ["SF363-Have You Been Very Nervous"]}, {"conceptId": "C102221", "definition": "The Short Form 36 Health Survey Standard, US Version 2.0 - Please give the one answer that comes closest to the way you have been feeling. How much of the time during the past 4 weeks - have you felt so down in the dumps that nothing could cheer you up.", "preferredTerm": "SF-36 v2.0 Standard - Felt Down Nothing Cheer You Up", "submissionValue": "SF36309C", "synonyms": ["SF363-Felt Down Nothing Cheer You Up"]}, {"conceptId": "C102222", "definition": "The Short Form 36 Health Survey Standard, US Version 2.0 - Please give the one answer that comes closest to the way you have been feeling. How much of the time during the past 4 weeks - have you felt calm and peaceful.", "preferredTerm": "SF-36 v2.0 Standard - Have You Felt Calm and Peaceful", "submissionValue": "SF36309D", "synonyms": ["SF363-Have You Felt Calm and Peaceful"]}, {"conceptId": "C102223", "definition": "The Short Form 36 Health Survey Standard, US Version 2.0 - Please give the one answer that comes closest to the way you have been feeling. How much of the time during the past 4 weeks - did you have a lot of energy.", "preferredTerm": "SF-36 v2.0 Standard - Did You Have a Lot of Energy", "submissionValue": "SF36309E", "synonyms": ["SF363-Did You Have a Lot of Energy"]}, {"conceptId": "C102224", "definition": "The Short Form 36 Health Survey Standard, US Version 2.0 - Please give the one answer that comes closest to the way you have been feeling. How much of the time during the past 4 weeks - have you felt downhearted and depressed.", "preferredTerm": "SF-36 v2.0 Standard - You Felt Downhearted and Depressed", "submissionValue": "SF36309F", "synonyms": ["SF363-You Felt Downhearted and Depressed"]}, {"conceptId": "C102225", "definition": "The Short Form 36 Health Survey Standard, US Version 2.0 - Please give the one answer that comes closest to the way you have been feeling. How much of the time during the past 4 weeks - did you feel worn out.", "preferredTerm": "SF-36 v2.0 Standard - Did You Feel Worn Out", "submissionValue": "SF36309G", "synonyms": ["SF363-Did You Feel Worn Out"]}, {"conceptId": "C102226", "definition": "The Short Form 36 Health Survey Standard, US Version 2.0 - Please give the one answer that comes closest to the way you have been feeling. How much of the time during the past 4 weeks - have you been happy.", "preferredTerm": "SF-36 v2.0 Standard - Have You Been Happy", "submissionValue": "SF36309H", "synonyms": ["SF363-Have You Been Happy"]}, {"conceptId": "C102227", "definition": "The Short Form 36 Health Survey Standard, US Version 2.0 - Please give the one answer that comes closest to the way you have been feeling. How much of the time during the past 4 weeks - did you feel tired.", "preferredTerm": "SF-36 v2.0 Standard - Did You Feel Tired", "submissionValue": "SF36309I", "synonyms": ["SF363-Did You Feel Tired"]}, {"conceptId": "C102228", "definition": "The Short Form 36 Health Survey Standard, US Version 2.0 - During the past 4 weeks, how much of the time has your physical health or emotional problems interfered with your social activities (like visiting friends, relatives, etc.)?", "preferredTerm": "SF-36 v2.0 Standard - Time Phys/Emotional Interfered", "submissionValue": "SF36310", "synonyms": ["SF363-Time Phys/Emotional Interfered"]}, {"conceptId": "C102229", "definition": "The Short Form 36 Health Survey Standard, US Version 2.0 - How TRUE or FALSE is the following statement for you - I seem to get sick a little easier than other people.", "preferredTerm": "SF-36 v2.0 Standard - Get Sick Little Easier Than Other", "submissionValue": "SF36311A", "synonyms": ["SF363-Get Sick Little Easier Than Other"]}, {"conceptId": "C102230", "definition": "The Short Form 36 Health Survey Standard, US Version 2.0 - How TRUE or FALSE is the following statement for you - I am as healthy as anybody I know.", "preferredTerm": "SF-36 v2.0 Standard - I Am as Healthy as Anybody I Know", "submissionValue": "SF36311B", "synonyms": ["SF363-I Am as Healthy as Anybody I Know"]}, {"conceptId": "C102231", "definition": "The Short Form 36 Health Survey Standard, US Version 2.0 - How TRUE or FALSE is the following statement for you - I expect my health to get worse.", "preferredTerm": "SF-36 v2.0 Standard - I Expect My Health to Get Worse", "submissionValue": "SF36311C", "synonyms": ["SF363-I Expect My Health to Get Worse"]}, {"conceptId": "C102232", "definition": "The Short Form 36 Health Survey Standard, US Version 2.0 - How TRUE or FALSE is the following statement for you - my health is excellent", "preferredTerm": "SF-36 v2.0 Standard - My Health is Excellent", "submissionValue": "SF36311D", "synonyms": ["SF363-My Health is Excellent"]}, {"conceptId": "C176184", "definition": "The Short Form 36 Health Survey Standard, US Version 2.0 - Physical functioning 0-100 score.", "preferredTerm": "SF-36 v2.0 Standard - Physical Functioning 0-100 Score", "submissionValue": "SF36312", "synonyms": ["SF363-Physical Functioning 0-100 Score"]}, {"conceptId": "C176185", "definition": "The Short Form 36 Health Survey Standard, US Version 2.0 - Role physical 0-100 score.", "preferredTerm": "SF-36 v2.0 Standard - Role Physical 0-100 Score", "submissionValue": "SF36313", "synonyms": ["SF363-Role Physical 0-100 Score"]}, {"conceptId": "C176186", "definition": "The Short Form 36 Health Survey Standard, US Version 2.0 - Bodily pain 0-100 score.", "preferredTerm": "SF-36 v2.0 Standard - Bodily Pain 0-100 Score", "submissionValue": "SF36314", "synonyms": ["SF363-Bodily Pain 0-100 Score"]}, {"conceptId": "C176187", "definition": "The Short Form 36 Health Survey Standard, US Version 2.0 - General health 0-100 score.", "preferredTerm": "SF-36 v2.0 Standard - General Health 0-100 Score", "submissionValue": "SF36315", "synonyms": ["SF363-General Health 0-100 Score"]}, {"conceptId": "C176188", "definition": "The Short Form 36 Health Survey Standard, US Version 2.0 - Vitality 0-100 score.", "preferredTerm": "SF-36 v2.0 Standard - Vitality 0-100 Score", "submissionValue": "SF36316", "synonyms": ["SF363-Vitality 0-100 Score"]}, {"conceptId": "C176189", "definition": "The Short Form 36 Health Survey Standard, US Version 2.0 - Social functioning 0-100 score.", "preferredTerm": "SF-36 v2.0 Standard - Social Functioning 0-100 Score", "submissionValue": "SF36317", "synonyms": ["SF363-Social Functioning 0-100 Score"]}, {"conceptId": "C176190", "definition": "The Short Form 36 Health Survey Standard, US Version 2.0 - Role emotional 0-100 score.", "preferredTerm": "SF-36 v2.0 Standard - Role Emotional 0-100 Score", "submissionValue": "SF36318", "synonyms": ["SF363-Role Emotional 0-100 Score"]}, {"conceptId": "C176191", "definition": "The Short Form 36 Health Survey Standard, US Version 2.0 - Mental health 0-100 score.", "preferredTerm": "SF-36 v2.0 Standard - Mental Health 0-100 Score", "submissionValue": "SF36319", "synonyms": ["SF363-Mental Health 0-100 Score"]}, {"conceptId": "C176192", "definition": "The Short Form 36 Health Survey Standard, US Version 2.0 - Phys functioning norm-based score.", "preferredTerm": "SF-36 v2.0 Standard - Phys Functioning Norm-Based Score", "submissionValue": "SF36320", "synonyms": ["SF363-Phys Functioning Norm-Based Score"]}, {"conceptId": "C176193", "definition": "The Short Form 36 Health Survey Standard, US Version 2.0 - Role physical norm-based score.", "preferredTerm": "SF-36 v2.0 Standard - Role Physical Norm-Based Score", "submissionValue": "SF36321", "synonyms": ["SF363-Role Physical Norm-Based Score"]}, {"conceptId": "C176194", "definition": "The Short Form 36 Health Survey Standard, US Version 2.0 - Bodily pain norm-based score.", "preferredTerm": "SF-36 v2.0 Standard - Bodily Pain Norm-Based Score", "submissionValue": "SF36322", "synonyms": ["SF363-Bodily Pain Norm-Based Score"]}, {"conceptId": "C176195", "definition": "The Short Form 36 Health Survey Standard, US Version 2.0 - General health norm-based score.", "preferredTerm": "SF-36 v2.0 Standard - General Health Norm-Based Score", "submissionValue": "SF36323", "synonyms": ["SF363-General Health Norm-Based Score"]}, {"conceptId": "C176196", "definition": "The Short Form 36 Health Survey Standard, US Version 2.0 - Vitality norm-based score.", "preferredTerm": "SF-36 v2.0 Standard - Vitality Norm-Based Score", "submissionValue": "SF36324", "synonyms": ["SF363-Vitality Norm-Based Score"]}, {"conceptId": "C176197", "definition": "The Short Form 36 Health Survey Standard, US Version 2.0 - Social function norm-based score.", "preferredTerm": "SF-36 v2.0 Standard - Social Function Norm-Based Score", "submissionValue": "SF36325", "synonyms": ["SF363-Social Function Norm-Based Score"]}, {"conceptId": "C176198", "definition": "The Short Form 36 Health Survey Standard, US Version 2.0 - Role emotional norm-based score.", "preferredTerm": "SF-36 v2.0 Standard - Role Emotional Norm-Based Score", "submissionValue": "SF36326", "synonyms": ["SF363-Role Emotional Norm-Based Score"]}, {"conceptId": "C176199", "definition": "The Short Form 36 Health Survey Standard, US Version 2.0 - Mental health norm-based score.", "preferredTerm": "SF-36 v2.0 Standard - Mental Health Norm-Based Score", "submissionValue": "SF36327", "synonyms": ["SF363-Mental Health Norm-Based Score"]}, {"conceptId": "C176200", "definition": "The Short Form 36 Health Survey Standard, US Version 2.0 - Physical component score.", "preferredTerm": "SF-36 v2.0 Standard - Physical Component Score", "submissionValue": "SF36328", "synonyms": ["SF363-Physical Component Score"]}, {"conceptId": "C176201", "definition": "The Short Form 36 Health Survey Standard, US Version 2.0 - Mental component score.", "preferredTerm": "SF-36 v2.0 Standard - Mental Component Score", "submissionValue": "SF36329", "synonyms": ["SF363-Mental Component Score"]}, {"conceptId": "C176202", "definition": "The Short Form 36 Health Survey Standard, US Version 2.0 - 6D (utility index) score.", "preferredTerm": "SF-36 v2.0 Standard - SF-6D (Utility Index) Score", "submissionValue": "SF36330", "synonyms": ["SF363-SF-6D (Utility Index) Score"]}, {"conceptId": "C176203", "definition": "The Short Form 36 Health Survey Standard, US Version 2.0 - 6D_R2 (util index rel 2) score.", "preferredTerm": "SF-36 v2.0 Standard - SF-6D_R2 (Util Index Rel 2) Score", "submissionValue": "SF36331", "synonyms": ["SF363-SF-6D_R2 (Util Index Rel 2) Score"]}, {"conceptId": "C176204", "definition": "The Short Form 36 Health Survey Standard, US Version 2.0 - Mental health enhanced score.", "preferredTerm": "SF-36 v2.0 Standard - Mental Health Enhanced Score", "submissionValue": "SF36332", "synonyms": ["SF363-Mental Health Enhanced Score"]}, {"conceptId": "C180248", "definition": "The Short Form 36 Health Survey Standard, US Version 2.0 - Response consistency score.", "preferredTerm": "SF-36 v2.0 Standard - Response Consistency Score", "submissionValue": "SF36333", "synonyms": ["SF363-Response Consistency Score"]}, {"conceptId": "C185787", "definition": "The Short Form 36 Health Survey Standard, US Version 2.0 - Utility index score United Kingdom weights.", "preferredTerm": "SF-36 v2.0 Standard - Utility Index Score UK Weights", "submissionValue": "SF36334", "synonyms": ["SF363-Utility Index Score UK Weights"]}, {"conceptId": "C185788", "definition": "The Short Form 36 Health Survey Standard, US Version 2.0 - Utility index score Canada weights.", "preferredTerm": "SF-36 v2.0 Standard - Utility Index Score CN Weights", "submissionValue": "SF36335", "synonyms": ["SF363-Utility Index Score CN Weights"]}, {"conceptId": "C185789", "definition": "The Short Form 36 Health Survey Standard, US Version 2.0 - Utility index score Australia weights.", "preferredTerm": "SF-36 v2.0 Standard - Utility Index Score AU Weights", "submissionValue": "SF36336", "synonyms": ["SF363-Utility Index Score AU Weights"]}, {"conceptId": "C185790", "definition": "The Short Form 36 Health Survey Standard, US Version 2.0 - Utility index score United States weights.", "preferredTerm": "SF-36 v2.0 Standard - Utility Index Score US Weights", "submissionValue": "SF36337", "synonyms": ["SF363-Utility Index Score US Weights"]}]}