{"_links": {"parentPackage": {"href": "/mdr/ct/packages/sdtmct-2022-06-24", "title": "SDTM Controlled Terminology Package 50 Effective 2022-06-24", "type": "Terminology"}, "priorVersion": {"href": "/mdr/ct/packages/sdtmct-2022-03-25/codelists/C101863", "title": "CDISC SDTM Discharge Disposition Terminology", "type": "Code List"}, "rootItem": {"href": "/mdr/root/ct/sdtmct/codelists/C101863", "title": "Version-agnostic anchor resource for codelist C101863", "type": "Root Value Domain"}, "self": {"href": "/mdr/ct/packages/sdtmct-2022-06-24/codelists/C101863", "title": "CDISC SDTM Discharge Disposition Terminology", "type": "Code List"}}, "conceptId": "C101863", "definition": "The destination or circumstance at the time of discharge.", "extensible": "true", "name": "Discharge Disposition", "preferredTerm": "CDISC SDTM Discharge Disposition Terminology", "submissionValue": "DISCHDX", "synonyms": ["Discharge Disposition"], "terms": [{"conceptId": "C99944", "definition": "The patient died while in a medical center such as a hospital, skilled nursing facility (SNF), intermediate care facility (ICF), or a freestanding hospice center.", "preferredTerm": "Died in a Medical Facility", "submissionValue": "EXPIRED IN A MEDICAL FACILITY"}, {"conceptId": "C28554", "definition": "The absence of life or state of being dead. (NCI)", "preferredTerm": "Dead", "submissionValue": "EXPIRED", "synonyms": ["Died"]}, {"conceptId": "C99909", "definition": "The patient will be admitted to a medical center that is funded by the federal government (e.g. Veterans Affairs Hospital).", "preferredTerm": "Federal Health Care Facility", "submissionValue": "FEDERAL HEALTH CARE FACILITY"}, {"conceptId": "C99959", "definition": "The patient will return home but personal health maintenance will be administered and monitored by a member of a healthcare organization that is eligible to receive Medicare funding.", "preferredTerm": "Home Under Care of Organized Home Health Service Organization in Anticipation of Covered Skilled Care", "submissionValue": "HOME UNDER CARE OF ORGANIZED HOME HEALTH SERVICE ORGANIZATION IN ANTICIPATION OF COVERED SKILLED CARE"}, {"conceptId": "C99958", "definition": "The patient will receive end-of-life care which will be administered in the patient's home.", "preferredTerm": "Home Hospice", "submissionValue": "HOME, HOSPICE"}, {"conceptId": "C20883", "definition": "The patient will receive professional nursing care provided within the home of the patient.", "preferredTerm": "Home Health Nursing", "submissionValue": "HOME, NURSING CARE"}, {"conceptId": "C99957", "definition": "A routine discharge where personal health maintenance will be administered and monitored by the patient from their home.", "preferredTerm": "Home Care", "submissionValue": "HOME, SELF CARE"}, {"conceptId": "C99910", "definition": "The patient will receive end-of-life care which will be administered in a medical center.", "preferredTerm": "Hospice Care at Medical Facility", "submissionValue": "HOSPICE - MEDICAL FACILITY"}, {"conceptId": "C99960", "definition": "The patient will be admitted into a medical center and receive a type of hospital bed that will be paid for my Medicare.", "preferredTerm": "Hospital with Medicare Approved Swing Bed", "submissionValue": "HOSPITAL-BASED MEDICARE-APPROVED SWING BED"}, {"conceptId": "C99911", "definition": "The patient will be admitted full time into a free standing rehabilitation center or a rehabilitation center within a general medical facility.", "preferredTerm": "Inpatient Rehabilitation Facility Including Rehabilitation distinct Part Units of a Hospital", "submissionValue": "INPATIENT REHABILITATION FACILITY (IRF) INCLUDING REHABILITATION DISTINCT PART UNITS OF A HOSPITAL"}, {"conceptId": "C102247", "definition": "The patient will be admitted into an alternative facility not listed.", "preferredTerm": "Institution Not Defined", "submissionValue": "INSTITUTION NOT DEFINED"}, {"conceptId": "C99912", "definition": "The patient will be admitted into a medical center that provides care 24 hours per day.", "preferredTerm": "Intermediate Care Facility", "submissionValue": "INTERMEDIATE CARE FACILITY"}, {"conceptId": "C99969", "definition": "The patient vacated the medical center or ceased medical care contrary to the recommendation of a trained healthcare provider.", "preferredTerm": "Left Against Medical Advice", "submissionValue": "LEFT AGAINST MEDICAL ADVICE OR DISCONTINUED CARE"}, {"conceptId": "C135382", "definition": "The patient will be admitted into a hospital equipped and staffed to provide prolonged care to patients.", "preferredTerm": "Long Term Care Hospital", "submissionValue": "LONG TERM CARE HOSPITAL"}, {"conceptId": "C20870", "definition": "The patient will be admitted to a long-term nursing care facility.", "preferredTerm": "Long-Term Care Nursing", "submissionValue": "LONG TERM NURSING CARE FACILITY"}, {"conceptId": "C99984", "definition": "The patient will be admitted into a Medicare funded medical center for a considerable length of time.", "preferredTerm": "Medicare Certified Long Term Care Hospital", "submissionValue": "MEDICARE-CERTIFIED LONG TERM CARE HOSPITAL (LTCH)"}, {"conceptId": "C99913", "definition": "The patient will be admitted into a medical center which is eligible to receive funding from Medicaid but not Medicare.", "preferredTerm": "Nursing Facility Certified Under Medicaid but Not Certified Under Medicare", "submissionValue": "NURSING FACILITY CERTIFIED UNDER MEDICAID BUT NOT CERTIFIED UNDER MEDICARE"}, {"conceptId": "C53536", "definition": "The patient will be admitted into a free standing medical facility or a unit within a general medical facility used for the treatment of mental health disorders.", "preferredTerm": "Psychiatric Facility", "submissionValue": "PSYCHIATRIC HOSPITAL OR A PSYCHIATRIC-DISTINCT PART UNIT OF A HOSPITAL"}, {"conceptId": "C53535", "definition": "The patient will be admitted to a rehabilitation facility designed for improving, maintaining, or restoring physical strength, cognition, speech, or mobility.", "preferredTerm": "Rehabilitation Center", "submissionValue": "REHABILITATION FACILITY"}, {"conceptId": "C102248", "definition": "The patient will remain in a basic hospital environment for a brief time.", "preferredTerm": "Short Term General Hospital", "submissionValue": "SHORT TERM GENERAL HOSPITAL"}, {"conceptId": "C99914", "definition": "The patient will be admitted into a medical center equipped with a trained nursing staff that is eligible to receive Medicare funding.", "preferredTerm": "Skilled Nursing Facility with Medicare Certification in Anticipation of Covered Skilled Care", "submissionValue": "SKILLED NURSING FACILITY (SNF) WITH MEDICARE CERTIFICATION IN ANTICIPATION OF COVERED SKILLED CARE"}]}