{"_links": {"parentPackage": {"href": "/mdr/ct/packages/sdtmct-2022-06-24", "title": "SDTM Controlled Terminology Package 50 Effective 2022-06-24", "type": "Terminology"}, "priorVersion": {"href": "/mdr/ct/packages/sdtmct-2022-03-25/codelists/C101860", "title": "CDISC SDTM Coronary Artery Dominance Terminology", "type": "Code List"}, "rootItem": {"href": "/mdr/root/ct/sdtmct/codelists/C101860", "title": "Version-agnostic anchor resource for codelist C101860", "type": "Root Value Domain"}, "self": {"href": "/mdr/ct/packages/sdtmct-2022-06-24/codelists/C101860", "title": "CDISC SDTM Coronary Artery Dominance Terminology", "type": "Code List"}}, "conceptId": "C101860", "definition": "A codelist to describe the pattern of the epicardial vessels supplying the posterior descending artery and the posterolateral branches.", "extensible": "false", "name": "Coronary Artery Dominance", "preferredTerm": "CDISC SDTM Coronary Artery Dominance Terminology", "submissionValue": "CARTDOM", "synonyms": ["Coronary Artery Dominance"], "terms": [{"conceptId": "C99941", "definition": "The right coronary artery supplies the posterior descending artery and the circumflex supplies the posterolateral branches.", "preferredTerm": "Co-Dominant Artery", "submissionValue": "CO-DOMINANT"}, {"conceptId": "C99971", "definition": "The left circumflex artery supplies the posterior descending artery and the posterolateral branches.", "preferredTerm": "Left Cardiac Artery Dominance", "submissionValue": "LEFT DOMINANT"}, {"conceptId": "C99942", "definition": "The right coronary artery supplies the posterior descending artery and the posterolateral branches.", "preferredTerm": "Coronary Artery Right Dominance", "submissionValue": "RIGHT DOMINANT"}]}