{"_links": {"parentPackage": {"href": "/mdr/ct/packages/sdtmct-2022-06-24", "title": "SDTM Controlled Terminology Package 50 Effective 2022-06-24", "type": "Terminology"}, "priorVersion": {"href": "/mdr/ct/packages/sdtmct-2022-03-25/codelists/C103469", "title": "CDISC Questionnaire HADS Test Code Terminology", "type": "Code List"}, "rootItem": {"href": "/mdr/root/ct/sdtmct/codelists/C103469", "title": "Version-agnostic anchor resource for codelist C103469", "type": "Root Value Domain"}, "self": {"href": "/mdr/ct/packages/sdtmct-2022-06-24/codelists/C103469", "title": "CDISC Questionnaire HADS Test Code Terminology", "type": "Code List"}}, "conceptId": "C103469", "definition": "Hospital Anxiety and Depression Scale test code.", "extensible": "false", "name": "Hospital Anxiety and Depression Scale Questionnaire Test Code", "preferredTerm": "CDISC Questionnaire HADS Test Code Terminology", "submissionValue": "HADS01TC", "synonyms": ["Hospital Anxiety and Depression Scale Questionnaire Test Code"], "terms": [{"conceptId": "C103573", "definition": "Hospital Anxiety and Depression Scale - I feel tense or 'wound up.'", "preferredTerm": "HADS - I Feel Tense or Wound Up", "submissionValue": "HADS0101", "synonyms": ["HADS01-I Feel Tense or Wound Up"]}, {"conceptId": "C103574", "definition": "Hospital Anxiety and Depression Scale - I still enjoy the things I used to enjoy.", "preferredTerm": "HADS - I Still Enjoy the Things I Used to Enjoy", "submissionValue": "HADS0102", "synonyms": ["HADS01-Enjoy the Things I Used to Enjoy"]}, {"conceptId": "C103575", "definition": "Hospital Anxiety and Depression Scale - I get a sort of frightened feeling as if something awful is about to happen.", "preferredTerm": "HADS - I Get a Frightened Feeling Something Awful is About to Happen", "submissionValue": "HADS0103", "synonyms": ["HADS01-Something Awful About to Happen"]}, {"conceptId": "C103576", "definition": "Hospital Anxiety and Depression Scale - I can laugh and see the funny side of things.", "preferredTerm": "HADS - I Can Laugh and See Funny Side of Things", "submissionValue": "HADS0104", "synonyms": ["HADS01-I Can Laugh and See Funny Side"]}, {"conceptId": "C103577", "definition": "Hospital Anxiety and Depression Scale - Worrying thoughts go through my mind.", "preferredTerm": "HADS - Worrying Thoughts Go Through My Mind", "submissionValue": "HADS0105", "synonyms": ["HADS01-Worrying Thoughts Go Through Mind"]}, {"conceptId": "C103578", "definition": "Hospital Anxiety and Depression Scale - I feel cheerful.", "preferredTerm": "HADS - I Feel Cheerful", "submissionValue": "HADS0106", "synonyms": ["HADS01-I Feel Cheerful"]}, {"conceptId": "C103579", "definition": "Hospital Anxiety and Depression Scale - I can sit at ease and feel relaxed.", "preferredTerm": "HADS - I Can Sit at Ease and Feel Relaxed", "submissionValue": "HADS0107", "synonyms": ["HADS01-Sit at Ease and Feel Relaxed"]}, {"conceptId": "C103580", "definition": "Hospital Anxiety and Depression Scale - I feel as if I am slowed down.", "preferredTerm": "HADS - I Feel as if I am Slowed Down", "submissionValue": "HADS0108", "synonyms": ["HADS01-I Feel as if I am Slowed Down"]}, {"conceptId": "C103581", "definition": "Hospital Anxiety and Depression Scale - I get a sort of frightened feeling like 'butterflies' in the stomach.", "preferredTerm": "HADS - I Get Frightened Feeling Like Butterflies in the Stomach", "submissionValue": "HADS0109", "synonyms": ["HADS01-Butterflies in the Stomach"]}, {"conceptId": "C103582", "definition": "Hospital Anxiety and Depression Scale - I have lost interest in my appearance.", "preferredTerm": "HADS - I Have Lost Interest in My Appearance", "submissionValue": "HADS0110", "synonyms": ["HADS01-Lost Interest in My Appearance"]}, {"conceptId": "C103583", "definition": "Hospital Anxiety and Depression Scale - I feel restless as if I have to be on the move.", "preferredTerm": "HADS - I Feel Restless as if I Have to be on the Move", "submissionValue": "HADS0111", "synonyms": ["HADS01-Feel Restless be on the Move"]}, {"conceptId": "C103584", "definition": "Hospital Anxiety and Depression Scale - I look forward with enjoyment to things.", "preferredTerm": "HADS - I Look Forward with Enjoyment to Things", "submissionValue": "HADS0112", "synonyms": ["HADS01-Look Forward with Enjoyment"]}, {"conceptId": "C103585", "definition": "Hospital Anxiety and Depression Scale - I get sudden feelings of panic.", "preferredTerm": "HADS - I Get Sudden Feelings of Panic", "submissionValue": "HADS0113", "synonyms": ["HADS01-I Get Sudden Feelings of Panic"]}, {"conceptId": "C103586", "definition": "Hospital Anxiety and Depression Scale - I can enjoy a good book or radio or television programme.", "preferredTerm": "HADS - I Can Enjoy a Good Book or Radio or Television Programme", "submissionValue": "HADS0114", "synonyms": ["HADS01-Enjoy Good Book/Radio/Television"]}, {"conceptId": "C118111", "definition": "Hospital Anxiety and Depression Scale - Total score anxiety.", "preferredTerm": "HADS - Total Score Anxiety", "submissionValue": "HADS0115", "synonyms": ["HADS01-Total Score Anxiety"]}, {"conceptId": "C118112", "definition": "Hospital Anxiety and Depression Scale - Total score depression.", "preferredTerm": "HADS - Total Score Depression", "submissionValue": "HADS0116", "synonyms": ["HADS01-Total Score Depression"]}]}