{"_links": {"parentPackage": {"href": "/mdr/ct/packages/sdtmct-2022-06-24", "title": "SDTM Controlled Terminology Package 50 Effective 2022-06-24", "type": "Terminology"}, "priorVersion": {"href": "/mdr/ct/packages/sdtmct-2022-03-25/codelists/C111346", "title": "CDISC Clinical Classification FAQ-NACC UDS Version 2.0 Test Code Terminology", "type": "Code List"}, "rootItem": {"href": "/mdr/root/ct/sdtmct/codelists/C111346", "title": "Version-agnostic anchor resource for codelist C111346", "type": "Root Value Domain"}, "self": {"href": "/mdr/ct/packages/sdtmct-2022-06-24/codelists/C111346", "title": "CDISC Clinical Classification FAQ-NACC UDS Version 2.0 Test Code Terminology", "type": "Code List"}}, "conceptId": "C111346", "definition": "Functional Assessment Questionnaire-NACC UDS V2.0 test code.", "extensible": "false", "name": "Functional Assessment Questionnaire-NACC UDS V2.0 Clinical Classification Test Code", "preferredTerm": "CDISC Clinical Classification FAQ-NACC UDS Version 2.0 Test Code Terminology", "submissionValue": "FAQNA1TC", "synonyms": ["Functional Assessment Questionnaire-NACC UDS V2.0 Clinical Classification Test Code"], "terms": [{"conceptId": "C111510", "definition": "Functional Assessment Questionnaire-NACC UDS V2.0 - Writing checks, paying bills, or balancing a checkbook.", "preferredTerm": "FAQ-NACC UDS Version 2.0 - Write checks, Pay bills, Balance checkbook", "submissionValue": "FAQNA101", "synonyms": ["FAQNA1-Write Checks/Pay Bills/Checkbook"]}, {"conceptId": "C111511", "definition": "Functional Assessment Questionnaire-NACC UDS V2.0 - Assembling tax records, business affairs, or other papers.", "preferredTerm": "FAQ-NACC UDS Version 2.0 - Assemble", "submissionValue": "FAQNA102", "synonyms": ["FAQNA1-Assembling"]}, {"conceptId": "C111512", "definition": "Functional Assessment Questionnaire-NACC UDS V2.0 - Shopping alone for clothes, household necessities, or groceries.", "preferredTerm": "FAQ-NACC UDS Version 2.0 - Shop Alone", "submissionValue": "FAQNA103", "synonyms": ["FAQNA1-Shopping Alone"]}, {"conceptId": "C111513", "definition": "Functional Assessment Questionnaire-NACC UDS V2.0 - Playing a game of skill such as bridge or chess, working on a hobby.", "preferredTerm": "FAQ-NACC UDS Version 2.0 - Play Game of Skill, Work on Hobby", "submissionValue": "FAQNA104", "synonyms": ["FAQNA1-Playing a Game of Skill"]}, {"conceptId": "C111514", "definition": "Functional Assessment Questionnaire-NACC UDS V2.0 - Heating water, making a cup of coffee, turning off the stove.", "preferredTerm": "FAQ-NACC UDS Version 2.0 - Heat water, Make Coffee, Turn Off Stove", "submissionValue": "FAQNA105", "synonyms": ["FAQNA1-Heat Water/Make Coffee/Stove Off"]}, {"conceptId": "C111515", "definition": "Functional Assessment Questionnaire-NACC UDS V2.0 - Preparing a balanced meal.", "preferredTerm": "FAQ-NACC UDS Version 2.0 - Prepare a Meal", "submissionValue": "FAQNA106", "synonyms": ["FAQNA1-Preparing a Balanced Meal"]}, {"conceptId": "C111516", "definition": "Functional Assessment Questionnaire-NACC UDS V2.0 - Keeping track of current events.", "preferredTerm": "FAQ-NACC UDS Version 2.0 - Keep Track of Current Events", "submissionValue": "FAQNA107", "synonyms": ["FAQNA1-Keeping Track of Current Events"]}, {"conceptId": "C111517", "definition": "Functional Assessment Questionnaire-NACC UDS V2.0 - Paying attention to and understanding a TV program, book, or magazine.", "preferredTerm": "FAQ-NACC UDS Version 2.0 - Pay Attention, Understand, Discuss", "submissionValue": "FAQNA108", "synonyms": ["FAQNA1-Paying Attention"]}, {"conceptId": "C111518", "definition": "Functional Assessment Questionnaire-NACC UDS V2.0 - Remembering appointments, family occasions, holidays, medications.", "preferredTerm": "FAQ-NACC UDS Version 2.0 - Remember", "submissionValue": "FAQNA109", "synonyms": ["FAQNA1-Remembering"]}, {"conceptId": "C111519", "definition": "Functional Assessment Questionnaire-NACC UDS V2.0 - Traveling out of the neighborhood, driving, or arranging to take public transportation.", "preferredTerm": "FAQ-NACC UDS Version 2.0 - Travel", "submissionValue": "FAQNA110", "synonyms": ["FAQNA1-Traveling"]}]}