{"_links": {"parentPackage": {"href": "/mdr/ct/packages/sdtmct-2022-06-24", "title": "SDTM Controlled Terminology Package 50 Effective 2022-06-24", "type": "Terminology"}, "priorVersion": {"href": "/mdr/ct/packages/sdtmct-2022-03-25/codelists/C113852", "title": "CDISC Questionnaire Bladder Control Scale Test Code Terminology", "type": "Code List"}, "rootItem": {"href": "/mdr/root/ct/sdtmct/codelists/C113852", "title": "Version-agnostic anchor resource for codelist C113852", "type": "Root Value Domain"}, "self": {"href": "/mdr/ct/packages/sdtmct-2022-06-24/codelists/C113852", "title": "CDISC Questionnaire Bladder Control Scale Test Code Terminology", "type": "Code List"}}, "conceptId": "C113852", "definition": "Bladder Control Scale test code.", "extensible": "false", "name": "Bladder Control Scale Questionnaire Test Code", "preferredTerm": "CDISC Questionnaire Bladder Control Scale Test Code Terminology", "submissionValue": "BLCS01TC", "synonyms": ["Bladder Control Scale Questionnaire Test Code"], "terms": [{"conceptId": "C113953", "definition": "Bladder Control Scale - During the past 4 weeks, how often have you lost control of your bladder or had an accident?", "preferredTerm": "BLCS - Lost Control of Your Bladder", "submissionValue": "BLCS0101", "synonyms": ["BLCS01-Lost Control of Bladder"]}, {"conceptId": "C113954", "definition": "Bladder Control Scale - During the past 4 weeks, how often have you almost lost control of your bladder or had an accident?", "preferredTerm": "BLCS - Almost Lost Control of Your Bladder", "submissionValue": "BLCS0102", "synonyms": ["BLCS01-Almost Lost Control of Bladder"]}, {"conceptId": "C113955", "definition": "Bladder Control Scale - During the past 4 weeks, how often have you altered your activities because of bladder problems?", "preferredTerm": "BLCS - Altered Activities Because Bladder Problems", "submissionValue": "BLCS0103", "synonyms": ["BLCS01-Altered Activity Because Bladder"]}, {"conceptId": "C113956", "definition": "Bladder Control Scale - During the past 4 weeks, how much have bladder problems restricted your overall lifestyle?", "preferredTerm": "BLCS - Bladder Problems Restrict Overall Lifestyle", "submissionValue": "BLCS0104", "synonyms": ["BLCS01-Bladder Restricted Lifestyle"]}]}