{"_links": {"parentPackage": {"href": "/mdr/ct/packages/sdtmct-2022-06-24", "title": "SDTM Controlled Terminology Package 50 Effective 2022-06-24", "type": "Terminology"}, "priorVersion": {"href": "/mdr/ct/packages/sdtmct-2022-03-25/codelists/C113849", "title": "CDISC Questionnaire Fatigue Severity Scale Test Name Terminology", "type": "Code List"}, "rootItem": {"href": "/mdr/root/ct/sdtmct/codelists/C113849", "title": "Version-agnostic anchor resource for codelist C113849", "type": "Root Value Domain"}, "self": {"href": "/mdr/ct/packages/sdtmct-2022-06-24/codelists/C113849", "title": "CDISC Questionnaire Fatigue Severity Scale Test Name Terminology", "type": "Code List"}}, "conceptId": "C113849", "definition": "Fatigue Severity Scale test name.", "extensible": "false", "name": "Fatigue Severity Scale Questionnaire Test Name", "preferredTerm": "CDISC Questionnaire Fatigue Severity Scale Test Name Terminology", "submissionValue": "FSS01TN", "synonyms": ["Fatigue Severity Scale Questionnaire Test Name"], "terms": [{"conceptId": "C113951", "definition": "Fatigue Severity Scale - Fatigue is among my three most disabling symptoms.", "preferredTerm": "FSS - Fatigue is Among Most Disabling Symptoms", "submissionValue": "FSS01-Among My 3 Most Disabling Symptoms", "synonyms": ["FSS01-Among My 3 Most Disabling Symptoms"]}, {"conceptId": "C113945", "definition": "Fatigue Severity Scale - Exercise brings on my fatigue.", "preferredTerm": "FSS - Exercise Brings on My Fatigue", "submissionValue": "FSS01-Exercise Brings on My Fatigue", "synonyms": ["FSS01-Exercise Brings on My Fatigue"]}, {"conceptId": "C113948", "definition": "Fatigue Severity Scale - Fatigue causes frequent problems for me.", "preferredTerm": "FSS - Fatigue Causes Frequent Problems", "submissionValue": "FSS01-Fatigue Causes Frequent Problems", "synonyms": ["FSS01-Fatigue Causes Frequent Problems"]}, {"conceptId": "C113950", "definition": "Fatigue Severity Scale - Fatigue interferes with carrying out certain duties and responsibilities.", "preferredTerm": "FSS - Fatigue Interferes With Carrying Out Duties", "submissionValue": "FSS01-Fatigue Interferes With Duties", "synonyms": ["FSS01-Fatigue Interferes With Duties"]}, {"conceptId": "C113952", "definition": "Fatigue Severity Scale - Fatigue interferes with my work, family, or social life.", "preferredTerm": "FSS - Fatigue Interferes With Work", "submissionValue": "FSS01-Fatigue Interferes With My Life", "synonyms": ["FSS01-Fatigue Interferes With My Life"]}, {"conceptId": "C113946", "definition": "Fatigue Severity Scale - I am easily fatigued.", "preferredTerm": "FSS - I Am Easily Fatigued", "submissionValue": "FSS01-I Am Easily Fatigued", "synonyms": ["FSS01-I Am Easily Fatigued"]}, {"conceptId": "C113947", "definition": "Fatigue Severity Scale - Fatigue interferes with my physical functioning.", "preferredTerm": "FSS - Fatigue Interferes With Physical Functioning", "submissionValue": "FSS01-Interferes With Phys Function", "synonyms": ["FSS01-Interferes With Phys Function"]}, {"conceptId": "C113944", "definition": "Fatigue Severity Scale - My motivation is lower when I am fatigued.", "preferredTerm": "FSS - Motivation is Lower When Fatigued", "submissionValue": "FSS01-Motivation Is Lower When Fatigued", "synonyms": ["FSS01-Motivation Is Lower When Fatigued"]}, {"conceptId": "C113949", "definition": "Fatigue Severity Scale - My fatigue prevents sustained physical functioning.", "preferredTerm": "FSS - Fatigue Prevents Sustained Physical Functioning", "submissionValue": "FSS01-Prevents Sustained Phys Function", "synonyms": ["FSS01-Prevents Sustained Phys Function"]}]}