{"_links": {"parentPackage": {"href": "/mdr/ct/packages/sdtmct-2022-06-24", "title": "SDTM Controlled Terminology Package 50 Effective 2022-06-24", "type": "Terminology"}, "priorVersion": {"href": "/mdr/ct/packages/sdtmct-2022-03-25/codelists/C120978", "title": "CDISC Questionnaire CRQ-SAS First Administration Version Test Name Terminology", "type": "Code List"}, "rootItem": {"href": "/mdr/root/ct/sdtmct/codelists/C120978", "title": "Version-agnostic anchor resource for codelist C120978", "type": "Root Value Domain"}, "self": {"href": "/mdr/ct/packages/sdtmct-2022-06-24/codelists/C120978", "title": "CDISC Questionnaire CRQ-SAS First Administration Version Test Name Terminology", "type": "Code List"}}, "conceptId": "C120978", "definition": "Chronic Respiratory Questionnaire Self-Administered Standardized Format First Administration Version test name.", "extensible": "false", "name": "Chronic Respiratory Questionnaire Self-Administered Standardized Format First Administration Version Questionnaire Test Name", "preferredTerm": "CDISC Questionnaire CRQ-SAS First Administration Version Test Name Terminology", "submissionValue": "CRQ01TN", "synonyms": ["Chronic Respiratory Questionnaire Self-Administered Standardized Format First Administration Version Questionnaire Test Name"], "terms": [{"conceptId": "C121019", "definition": "Chronic Respiratory Questionnaire Self-Administered Standardized Format (CRQ-SAS) First Administration Version - In the last 2 weeks, how much of the time did you feel very confident and sure that you could deal with your illness?", "preferredTerm": "CRQ-SAS First Administration Version - Feel Confident to Deal With Illness", "submissionValue": "CRQ01-Confident to Deal With Illness", "synonyms": ["CRQ01-Confident to Deal With Illness"]}, {"conceptId": "C121022", "definition": "Chronic Respiratory Questionnaire Self-Administered Standardized Format (CRQ-SAS) First Administration Version - How often during the last 2 weeks did you feel you had complete control of your breathing problems?", "preferredTerm": "CRQ-SAS First Administration Version - Had Control of Breathing Problems", "submissionValue": "CRQ01-Control of Breathing Problems", "synonyms": ["CRQ01-Control of Breathing Problems"]}, {"conceptId": "C121018", "definition": "Chronic Respiratory Questionnaire Self-Administered Standardized Format (CRQ-SAS) First Administration Version - How often during the last 2 weeks have you felt embarrassed by your coughing or heavy breathing?", "preferredTerm": "CRQ-SAS First Administration Version - Embarrassed by Coughing", "submissionValue": "CRQ01-Embarrassed by Coughing", "synonyms": ["CRQ01-Embarrassed by Coughing"]}, {"conceptId": "C121020", "definition": "Chronic Respiratory Questionnaire Self-Administered Standardized Format (CRQ-SAS) First Administration Version - How much energy have you had in the last 2 weeks?", "preferredTerm": "CRQ-SAS First Administration Version - Energy", "submissionValue": "CRQ01-Energy", "synonyms": ["CRQ01-Energy"]}, {"conceptId": "C121017", "definition": "Chronic Respiratory Questionnaire Self-Administered Standardized Format (CRQ-SAS) First Administration Version - How about fatigue? How tired have you felt over the last 2 weeks?", "preferredTerm": "CRQ-SAS First Administration Version - Fatigue", "submissionValue": "CRQ01-Fatigue", "synonyms": ["CRQ01-Fatigue"]}, {"conceptId": "C121023", "definition": "Chronic Respiratory Questionnaire Self-Administered Standardized Format (CRQ-SAS) First Administration Version - How much of the time during the last 2 weeks did you feel relaxed and free of tension?", "preferredTerm": "CRQ-SAS First Administration Version - Feel Relaxed and Free of Tension", "submissionValue": "CRQ01-Feel Relaxed and Free of Tension", "synonyms": ["CRQ01-Feel Relaxed and Free of Tension"]}, {"conceptId": "C121028", "definition": "Chronic Respiratory Questionnaire Self-Administered Standardized Format (CRQ-SAS) First Administration Version - How often during the last 2 weeks did you feel upset or scared when you had difficulty getting your breath?", "preferredTerm": "CRQ-SAS First Administration Version - Feel Upset When Had Difficulty Getting Breath", "submissionValue": "CRQ01-Feel Upset Diff Getting Breath", "synonyms": ["CRQ01-Feel Upset Diff Getting Breath"]}, {"conceptId": "C121021", "definition": "Chronic Respiratory Questionnaire Self-Administered Standardized Format (CRQ-SAS) First Administration Version - In general, how much of the time did you feel upset, worried, or depressed during the last 2 weeks?", "preferredTerm": "CRQ-SAS First Administration Version - Feel Upset, Worried or Depressed", "submissionValue": "CRQ01-Feel Upset, Worried or Depressed", "synonyms": ["CRQ01-Feel Upset, Worried or Depressed"]}, {"conceptId": "C121010", "definition": "Chronic Respiratory Questionnaire Self-Administered Standardized Format (CRQ-SAS) First Administration Version - Feeling emotional such as angry or upset.", "preferredTerm": "CRQ-SAS First Administration Version - Feeling Emotional", "submissionValue": "CRQ01-Feeling Emotional", "synonyms": ["CRQ01-Feeling Emotional"]}, {"conceptId": "C121016", "definition": "Chronic Respiratory Questionnaire Self-Administered Standardized Format (CRQ-SAS) First Administration Version - How often during the last 2 weeks did you have a feeling of fear or panic when you had difficulty getting your breath?", "preferredTerm": "CRQ-SAS First Administration Version - Feeling of Fear or Panic", "submissionValue": "CRQ01-Feeling of Fear or Panic", "synonyms": ["CRQ01-Feeling of Fear or Panic"]}, {"conceptId": "C121025", "definition": "Chronic Respiratory Questionnaire Self-Administered Standardized Format (CRQ-SAS) First Administration Version - In general, how often during the last 2 weeks have you felt discouraged or down in the dumps?", "preferredTerm": "CRQ-SAS First Administration Version - Felt Discouraged or Down", "submissionValue": "CRQ01-Felt Discouraged or Down", "synonyms": ["CRQ01-Felt Discouraged or Down"]}, {"conceptId": "C121015", "definition": "Chronic Respiratory Questionnaire Self-Administered Standardized Format (CRQ-SAS) First Administration Version - In general, how much of the time during the last 2 weeks have you felt frustrated or impatient?", "preferredTerm": "CRQ-SAS First Administration Version - Felt Frustrated or Impatient", "submissionValue": "CRQ01-Felt Frustrated or Impatient", "synonyms": ["CRQ01-Felt Frustrated or Impatient"]}, {"conceptId": "C121024", "definition": "Chronic Respiratory Questionnaire Self-Administered Standardized Format (CRQ-SAS) First Administration Version - How often during the last 2 weeks have you felt low in energy?", "preferredTerm": "CRQ-SAS First Administration Version - Felt Low in Energy", "submissionValue": "CRQ01-Felt Low in Energy", "synonyms": ["CRQ01-Felt Low in Energy"]}, {"conceptId": "C121029", "definition": "Chronic Respiratory Questionnaire Self-Administered Standardized Format (CRQ-SAS) First Administration Version - In general, how often during the last 2 weeks have you felt restless, tense, or uptight?", "preferredTerm": "CRQ-SAS First Administration Version - Felt Restless, Tense or Uptight", "submissionValue": "CRQ01-Felt Restless, Tense or Uptight", "synonyms": ["CRQ01-Felt Restless, Tense or Uptight"]}, {"conceptId": "C121026", "definition": "Chronic Respiratory Questionnaire Self-Administered Standardized Format (CRQ-SAS) First Administration Version - How often during the last 2 weeks have you felt worn out or sluggish?", "preferredTerm": "CRQ-SAS First Administration Version - Felt Worn Out or Sluggish", "submissionValue": "CRQ01-Felt Worn Out or Sluggish", "synonyms": ["CRQ01-Felt Worn Out or Sluggish"]}, {"conceptId": "C121027", "definition": "Chronic Respiratory Questionnaire Self-Administered Standardized Format (CRQ-SAS) First Administration Version - How happy, satisfied, or pleased have you been with your personal life during the last 2 weeks?", "preferredTerm": "CRQ-SAS First Administration Version - Happy, Satisfied or Pleased With Life", "submissionValue": "CRQ01-Happy, Satisfied or Pleased", "synonyms": ["CRQ01-Happy, Satisfied or Pleased"]}, {"conceptId": "C121014", "definition": "Chronic Respiratory Questionnaire Self-Administered Standardized Format (CRQ-SAS) First Administration Version - Participating in social activities.", "preferredTerm": "CRQ-SAS First Administration Version - Participate in Social Activities", "submissionValue": "CRQ01-Participate in Social Activities", "synonyms": ["CRQ01-Participate in Social Activities"]}, {"conceptId": "C121013", "definition": "Chronic Respiratory Questionnaire Self-Administered Standardized Format (CRQ-SAS) First Administration Version - Performing chores.", "preferredTerm": "CRQ-SAS First Administration Version - Performing Chores", "submissionValue": "CRQ01-Performing Chores", "synonyms": ["CRQ01-Performing Chores"]}, {"conceptId": "C121011", "definition": "Chronic Respiratory Questionnaire Self-Administered Standardized Format (CRQ-SAS) First Administration Version - Taking care of your basic needs.", "preferredTerm": "CRQ-SAS First Administration Version - Take Care of Basic Needs", "submissionValue": "CRQ01-Take Care of Basic Needs", "synonyms": ["CRQ01-Take Care of Basic Needs"]}, {"conceptId": "C121012", "definition": "Chronic Respiratory Questionnaire Self-Administered Standardized Format (CRQ-SAS) First Administration Version - Walking.", "preferredTerm": "CRQ-SAS First Administration Version - Walking", "submissionValue": "CRQ01-Walking", "synonyms": ["CRQ01-Walking"]}]}