{"_links": {"parentPackage": {"href": "/mdr/ct/packages/sdtmct-2022-06-24", "title": "SDTM Controlled Terminology Package 50 Effective 2022-06-24", "type": "Terminology"}, "priorVersion": {"href": "/mdr/ct/packages/sdtmct-2022-03-25/codelists/C122007", "title": "CDISC SDTM COPD Findings About Test Code Terminology", "type": "Code List"}, "rootItem": {"href": "/mdr/root/ct/sdtmct/codelists/C122007", "title": "Version-agnostic anchor resource for codelist C122007", "type": "Root Value Domain"}, "self": {"href": "/mdr/ct/packages/sdtmct-2022-06-24/codelists/C122007", "title": "CDISC SDTM COPD Findings About Test Code Terminology", "type": "Code List"}}, "conceptId": "C122007", "definition": "Terminology relevant to the test codes that describe findings about a COPD event or intervention.", "extensible": "true", "name": "COPD Findings About Test Code", "preferredTerm": "CDISC SDTM COPD Findings About Test Code Terminology", "submissionValue": "CPFATSCD", "synonyms": ["COPD Findings About Test Code"], "terms": [{"conceptId": "C94596", "definition": "The total amount that a subject is exposed to over time.", "preferredTerm": "Cumulative Exposure", "submissionValue": "CUMEXP", "synonyms": ["Cumulative Exposure"]}, {"conceptId": "C124328", "definition": "The number of times an event, which is classified as mild, occurred.", "preferredTerm": "Number of Mild Episodes", "submissionValue": "EPMLDNUM", "synonyms": ["Number of Mild Episodes"]}, {"conceptId": "C124329", "definition": "The number of times an event, which is classified as moderate, occurred.", "preferredTerm": "Number of Moderate Episodes", "submissionValue": "EPMODNUM", "synonyms": ["Number of Moderate Episodes"]}, {"conceptId": "C124330", "definition": "The number of times an event, which is classified as severe, occurred.", "preferredTerm": "Number of Severe Episodes", "submissionValue": "EPSEVNUM", "synonyms": ["Number of Severe Episodes"]}]}