{"_links": {"parentPackage": {"href": "/mdr/ct/packages/sdtmct-2022-06-24", "title": "SDTM Controlled Terminology Package 50 Effective 2022-06-24", "type": "Terminology"}, "priorVersion": {"href": "/mdr/ct/packages/sdtmct-2022-03-25/codelists/C124686", "title": "CDISC Clinical Classification PANSS Test Code Terminology", "type": "Code List"}, "rootItem": {"href": "/mdr/root/ct/sdtmct/codelists/C124686", "title": "Version-agnostic anchor resource for codelist C124686", "type": "Root Value Domain"}, "self": {"href": "/mdr/ct/packages/sdtmct-2022-06-24/codelists/C124686", "title": "CDISC Clinical Classification PANSS Test Code Terminology", "type": "Code List"}}, "conceptId": "C124686", "definition": "Positive and Negative Syndrome Scale test code.", "extensible": "false", "name": "Positive and Negative Syndrome Scale Clinical Classification Test Code", "preferredTerm": "CDISC Clinical Classification PANSS Test Code Terminology", "submissionValue": "PANSS1TC", "synonyms": ["Positive and Negative Syndrome Scale Clinical Classification Test Code"], "terms": [{"conceptId": "C124747", "definition": "Positive and Negative Syndrome Scale - Delusions.", "preferredTerm": "PANSS - Delusions", "submissionValue": "PANSS101", "synonyms": ["PANSS1-Delusions"]}, {"conceptId": "C124748", "definition": "Positive and Negative Syndrome Scale - Conceptual disorganization.", "preferredTerm": "PANSS - Conceptual Disorganization", "submissionValue": "PANSS102", "synonyms": ["PANSS1-Conceptual Disorganization"]}, {"conceptId": "C124749", "definition": "Positive and Negative Syndrome Scale - Hallucinatory behavior.", "preferredTerm": "PANSS - Hallucinatory Behavior", "submissionValue": "PANSS103", "synonyms": ["PANSS1-Hallucinatory Behavior"]}, {"conceptId": "C124750", "definition": "Positive and Negative Syndrome Scale - Excitement.", "preferredTerm": "PANSS - Excitement", "submissionValue": "PANSS104", "synonyms": ["PANSS1-Excitement"]}, {"conceptId": "C124751", "definition": "Positive and Negative Syndrome Scale - Grandiosity.", "preferredTerm": "PANSS - Grandiosity", "submissionValue": "PANSS105", "synonyms": ["PANSS1-Grandiosity"]}, {"conceptId": "C124752", "definition": "Positive and Negative Syndrome Scale - Suspiciousness/persecution.", "preferredTerm": "PANSS - Suspiciousness or Persecution", "submissionValue": "PANSS106", "synonyms": ["PANSS1-Suspiciousness/Persecution"]}, {"conceptId": "C124753", "definition": "Positive and Negative Syndrome Scale - Hostility.", "preferredTerm": "PANSS - Hostility", "submissionValue": "PANSS107", "synonyms": ["PANSS1-Hostility"]}, {"conceptId": "C124754", "definition": "Positive and Negative Syndrome Scale - Blunted affect.", "preferredTerm": "PANSS - Blunted Affect", "submissionValue": "PANSS108", "synonyms": ["PANSS1-Blunted Affect"]}, {"conceptId": "C124755", "definition": "Positive and Negative Syndrome Scale - Emotional withdrawal.", "preferredTerm": "PANSS - Emotional Withdrawal", "submissionValue": "PANSS109", "synonyms": ["PANSS1-Emotional Withdrawal"]}, {"conceptId": "C124756", "definition": "Positive and Negative Syndrome Scale - Poor rapport.", "preferredTerm": "PANSS - Poor Rapport", "submissionValue": "PANSS110", "synonyms": ["PANSS1-Poor Rapport"]}, {"conceptId": "C124757", "definition": "Positive and Negative Syndrome Scale - Passive/apathetic social withdrawal.", "preferredTerm": "PANSS - Passive or Apathetic Social Withdrawal", "submissionValue": "PANSS111", "synonyms": ["PANSS1-Passive/Apathetic Social Withdraw"]}, {"conceptId": "C124758", "definition": "Positive and Negative Syndrome Scale - Difficulty in abstract thinking.", "preferredTerm": "PANSS - Difficulty in Abstract Thinking", "submissionValue": "PANSS112", "synonyms": ["PANSS1-Difficulty in Abstract Thinking"]}, {"conceptId": "C124759", "definition": "Positive and Negative Syndrome Scale - Lack of spontaneity and flow of conversation.", "preferredTerm": "PANSS - Lack of Spontaneity", "submissionValue": "PANSS113", "synonyms": ["PANSS1-Lack of Spontaneity"]}, {"conceptId": "C124760", "definition": "Positive and Negative Syndrome Scale - Stereotyped thinking.", "preferredTerm": "PANSS - Stereotyped Thinking", "submissionValue": "PANSS114", "synonyms": ["PANSS1-Stereotyped Thinking"]}, {"conceptId": "C124761", "definition": "Positive and Negative Syndrome Scale - Somatic concern.", "preferredTerm": "PANSS - Somatic Concern", "submissionValue": "PANSS115", "synonyms": ["PANSS1-Somatic Concern"]}, {"conceptId": "C124762", "definition": "Positive and Negative Syndrome Scale - Anxiety.", "preferredTerm": "PANSS - Anxiety", "submissionValue": "PANSS116", "synonyms": ["PANSS1-Anxiety"]}, {"conceptId": "C124763", "definition": "Positive and Negative Syndrome Scale - Guilt feelings.", "preferredTerm": "PANSS - Guilt Feelings", "submissionValue": "PANSS117", "synonyms": ["PANSS1-Guilt Feelings"]}, {"conceptId": "C124764", "definition": "Positive and Negative Syndrome Scale - Tension.", "preferredTerm": "PANSS - Tension", "submissionValue": "PANSS118", "synonyms": ["PANSS1-Tension"]}, {"conceptId": "C124765", "definition": "Positive and Negative Syndrome Scale - Mannerisms and posturing.", "preferredTerm": "PANSS - Mannerisms and Posturing", "submissionValue": "PANSS119", "synonyms": ["PANSS1-Mannerisms and Posturing"]}, {"conceptId": "C124766", "definition": "Positive and Negative Syndrome Scale - Depression.", "preferredTerm": "PANSS - Depression", "submissionValue": "PANSS120", "synonyms": ["PANSS1-Depression"]}, {"conceptId": "C124767", "definition": "Positive and Negative Syndrome Scale - Motor retardation.", "preferredTerm": "PANSS - Motor Retardation", "submissionValue": "PANSS121", "synonyms": ["PANSS1-Motor Retardation"]}, {"conceptId": "C124768", "definition": "Positive and Negative Syndrome Scale - Uncooperativeness.", "preferredTerm": "PANSS - Uncooperativeness", "submissionValue": "PANSS122", "synonyms": ["PANSS1-Uncooperativeness"]}, {"conceptId": "C124769", "definition": "Positive and Negative Syndrome Scale - Unusual thought content.", "preferredTerm": "PANSS - Unusual Thought Content", "submissionValue": "PANSS123", "synonyms": ["PANSS1-Unusual Thought Content"]}, {"conceptId": "C124770", "definition": "Positive and Negative Syndrome Scale - Disorientation.", "preferredTerm": "PANSS - Disorientation", "submissionValue": "PANSS124", "synonyms": ["PANSS1-Disorientation"]}, {"conceptId": "C124771", "definition": "Positive and Negative Syndrome Scale - Poor attention.", "preferredTerm": "PANSS - Poor Attention", "submissionValue": "PANSS125", "synonyms": ["PANSS1-Poor Attention"]}, {"conceptId": "C124772", "definition": "Positive and Negative Syndrome Scale - Lack of judgment and insight.", "preferredTerm": "PANSS - Lack of Judgement", "submissionValue": "PANSS126", "synonyms": ["PANSS1-Lack of Judgment and Insight"]}, {"conceptId": "C124773", "definition": "Positive and Negative Syndrome Scale - Disturbance of volition.", "preferredTerm": "PANSS - Disturbance of Volition", "submissionValue": "PANSS127", "synonyms": ["PANSS1-Disturbance of Volition"]}, {"conceptId": "C124774", "definition": "Positive and Negative Syndrome Scale - Poor impulse control.", "preferredTerm": "PANSS - Poor Impulse Control", "submissionValue": "PANSS128", "synonyms": ["PANSS1-Poor Impulse Control"]}, {"conceptId": "C124775", "definition": "Positive and Negative Syndrome Scale - Preoccupation.", "preferredTerm": "PANSS - Preoccupation", "submissionValue": "PANSS129", "synonyms": ["PANSS1-Preoccupation"]}, {"conceptId": "C124776", "definition": "Positive and Negative Syndrome Scale - Active social avoidance.", "preferredTerm": "PANSS - Active Social Avoidance", "submissionValue": "PANSS130", "synonyms": ["PANSS1-Active Social Avoidance"]}]}