{"_links": {"parentPackage": {"href": "/mdr/ct/packages/sdtmct-2022-06-24", "title": "SDTM Controlled Terminology Package 50 Effective 2022-06-24", "type": "Terminology"}, "priorVersion": {"href": "/mdr/ct/packages/sdtmct-2022-03-25/codelists/C124297", "title": "CDISC SDTM Biospecimen Events Dictionary Derived Term Terminology", "type": "Code List"}, "rootItem": {"href": "/mdr/root/ct/sdtmct/codelists/C124297", "title": "Version-agnostic anchor resource for codelist C124297", "type": "Root Value Domain"}, "self": {"href": "/mdr/ct/packages/sdtmct-2022-06-24/codelists/C124297", "title": "CDISC SDTM Biospecimen Events Dictionary Derived Term Terminology", "type": "Code List"}}, "conceptId": "C124297", "definition": "A terminology codelist based on the standardized or preprinted name of the biospecimen event that occurs.", "extensible": "true", "name": "Biospecimen Events Dictionary Derived Term", "preferredTerm": "CDISC SDTM Biospecimen Events Dictionary Derived Term Terminology", "submissionValue": "BEDECOD", "synonyms": ["Biospecimen Events Dictionary Derived Term"], "terms": [{"conceptId": "C124326", "definition": "The act of dividing a liquid item into multiple items of smaller volume.", "preferredTerm": "Aliquotting", "submissionValue": "ALIQUOTING"}, {"conceptId": "C154710", "definition": "The act of removing a biological specimen from a biobank or other biorepository for further use.", "preferredTerm": "Archive Sample Retrieval", "submissionValue": "ARCHIVE RETRIEVING"}, {"conceptId": "C16410", "definition": "Separating and isolating components of different density and size in a specimen using centrifugal force.", "preferredTerm": "Centrifugation", "submissionValue": "CENTRIFUGING"}, {"conceptId": "C25453", "definition": "The act of gathering an item.", "preferredTerm": "Collection", "submissionValue": "COLLECTING"}, {"conceptId": "C85856", "definition": "The act of increasing the density of a substance and decreasing its volume.", "preferredTerm": "Concentrate", "submissionValue": "CONCENTRATING"}, {"conceptId": "C66715", "definition": "The act of using something up to the point of depletion.", "preferredTerm": "Consumption", "submissionValue": "CONSUMING"}, {"conceptId": "C17201", "definition": "The act of maintaining and/or attempting to grow explanted cells in an in vitro environment.", "preferredTerm": "Tissue Culture", "submissionValue": "CULTURING"}, {"conceptId": "C68769", "definition": "The act of ridding of contamination.", "preferredTerm": "Decontamination", "submissionValue": "DECONTAMINATING"}, {"conceptId": "C62100", "definition": "The act of demolishing an item to make it unusable or unanalyzable.", "preferredTerm": "Destruction", "submissionValue": "DESTROYING"}, {"conceptId": "C64657", "definition": "To reduce in strength or concentration by the addition of diluent.", "preferredTerm": "Dilute", "submissionValue": "DILUTING"}, {"conceptId": "C48163", "definition": "To surround an object with a firm chemical substance such as wax or resin.", "preferredTerm": "Embedding", "submissionValue": "EMBEDDING"}, {"conceptId": "C61575", "definition": "The act of taking out, extracting, or withdrawing an entity from a location.", "preferredTerm": "Extraction", "submissionValue": "EXTRACTING"}, {"conceptId": "C25219", "definition": "To chemically preserve so as to maintain structural and/or molecular features.", "preferredTerm": "Fixation", "submissionValue": "FIXING"}, {"conceptId": "C63521", "definition": "To freeze rapidly so as to preserve structure and prevent ice crystal formation.", "preferredTerm": "Quick Freeze", "submissionValue": "FLASH FREEZING"}, {"conceptId": "C48160", "definition": "The process whereby cold changes the water component from a liquid to a solid.", "preferredTerm": "Freezing", "submissionValue": "FREEZING"}, {"conceptId": "C128947", "definition": "The act of separating out a target entity from a larger set of such entities.", "preferredTerm": "Specimen Isolation", "submissionValue": "ISOLATING"}, {"conceptId": "C174272", "definition": "The act of using something up without full depletion.", "preferredTerm": "Partial Consumption", "submissionValue": "PARTIAL CONSUMING"}, {"conceptId": "C25639", "definition": "Coming into possession of or acting as the receptacle or recipient of an item conveyed by an intermediary to the intended destination, from a sender.", "preferredTerm": "Receive", "submissionValue": "RECEIVING"}, {"conceptId": "C25659", "definition": "The act of accessing information or removing an item from storage.", "preferredTerm": "Retrieval", "submissionValue": "RETRIEVING"}, {"conceptId": "C124327", "definition": "To cut a very thin slice of tissue or other substance.", "preferredTerm": "Sectioning", "submissionValue": "SECTIONING"}, {"conceptId": "C40353", "definition": "Being transported or conveyed by an intermediary to a destination, from the sender to the intended receiver.", "preferredTerm": "Shipping", "submissionValue": "SHIPPING"}, {"conceptId": "C23010", "definition": "To dye or tint tissues or other biological samples for the purpose of imaging structures.", "preferredTerm": "Staining Method", "submissionValue": "STAINING"}, {"conceptId": "C60824", "definition": "The act of safekeeping items in a depository.", "preferredTerm": "Storage", "submissionValue": "STORING"}, {"conceptId": "C48165", "definition": "The process whereby heat changes the water component from a solid to a liquid.", "preferredTerm": "Thaw", "submissionValue": "THAWING"}]}