{"_links": {"parentPackage": {"href": "/mdr/ct/packages/sdtmct-2022-06-24", "title": "SDTM Controlled Terminology Package 50 Effective 2022-06-24", "type": "Terminology"}, "priorVersion": {"href": "/mdr/ct/packages/sdtmct-2022-03-25/codelists/C127267", "title": "CDISC SDTM Tuberculosis Findings About Test Name Terminology", "type": "Code List"}, "rootItem": {"href": "/mdr/root/ct/sdtmct/codelists/C127267", "title": "Version-agnostic anchor resource for codelist C127267", "type": "Root Value Domain"}, "self": {"href": "/mdr/ct/packages/sdtmct-2022-06-24/codelists/C127267", "title": "CDISC SDTM Tuberculosis Findings About Test Name Terminology", "type": "Code List"}}, "conceptId": "C127267", "definition": "Terminology relevant to the test names that describe findings about a tuberculosis event or intervention.", "extensible": "true", "name": "Tuberculosis Findings About Test Name", "preferredTerm": "CDISC SDTM Tuberculosis Findings About Test Name Terminology", "submissionValue": "TBFATS", "synonyms": ["Tuberculosis Findings About Test Name"], "terms": [{"conceptId": "C102626", "definition": "The state or condition of not responding to a pharmacological agent.", "preferredTerm": "Drug Resistance Status", "submissionValue": "Drug Resistance Status", "synonyms": ["Drug Resistance Status"]}, {"conceptId": "C96684", "definition": "The longest possible length of a straight line passing through the center of a circular or spheroid object that connects two points on the circumference.", "preferredTerm": "Longest Diameter", "submissionValue": "Longest Diameter", "synonyms": ["Longest Diameter"]}, {"conceptId": "C127786", "definition": "An indication as to whether something has happened, such as an event or incident.", "preferredTerm": "Occurrence Indicator", "submissionValue": "Occurrence Indicator", "synonyms": ["Occurrence Indicator"]}, {"conceptId": "C127787", "definition": "A measurement of the total number of entities.", "preferredTerm": "Total Number", "submissionValue": "Total Number", "synonyms": ["Total Number"]}]}