{"_links": {"parentPackage": {"href": "/mdr/ct/packages/sdtmct-2022-06-24", "title": "SDTM Controlled Terminology Package 50 Effective 2022-06-24", "type": "Terminology"}, "priorVersion": {"href": "/mdr/ct/packages/sdtmct-2022-03-25/codelists/C129097", "title": "CDISC Questionnaire NCCN-FACT FOSI-18 Version 2 Test Name Terminology", "type": "Code List"}, "rootItem": {"href": "/mdr/root/ct/sdtmct/codelists/C129097", "title": "Version-agnostic anchor resource for codelist C129097", "type": "Root Value Domain"}, "self": {"href": "/mdr/ct/packages/sdtmct-2022-06-24/codelists/C129097", "title": "CDISC Questionnaire NCCN-FACT FOSI-18 Version 2 Test Name Terminology", "type": "Code List"}}, "conceptId": "C129097", "definition": "National Comprehensive Cancer Network/Functional Assessment of Cancer Therapy-Ovarian Symptom Index-18 Version 2 test name.", "extensible": "false", "name": "National Comprehensive Cancer Network/Functional Assessment of Cancer Therapy-Ovarian Symptom Index-18 Version 2 Questionnaire Test Name", "preferredTerm": "CDISC Questionnaire NCCN-FACT FOSI-18 Version 2 Test Name Terminology", "submissionValue": "FAC050TN", "synonyms": ["National Comprehensive Cancer Network/Functional Assessment of Cancer Therapy-Ovarian Symptom Index-18 Version 2 Questionnaire Test Name"], "terms": [{"conceptId": "C129245", "definition": "National Comprehensive Cancer Network/Functional Assessment of Cancer Therapy-Ovarian Symptom Index-18 Version 2 - I am bothered by side effects of treatment.", "preferredTerm": "NCCN-FACT FOSI-18 Version 2 - Bothered by Treatment Side Effect", "submissionValue": "FAC050-Bothered by Treatment Side Effect", "synonyms": ["FAC050-Bothered by Treatment Side Effect"]}, {"conceptId": "C129250", "definition": "National Comprehensive Cancer Network/Functional Assessment of Cancer Therapy-Ovarian Symptom Index-18 Version 2 - I am content with the quality of my life right now.", "preferredTerm": "NCCN-FACT FOSI-18 Version 2 - Content With Quality of My Life", "submissionValue": "FAC050-Content With Quality of My Life", "synonyms": ["FAC050-Content With Quality of My Life"]}, {"conceptId": "C129249", "definition": "National Comprehensive Cancer Network/Functional Assessment of Cancer Therapy-Ovarian Symptom Index-18 Version 2 - I am able to enjoy life.", "preferredTerm": "NCCN-FACT FOSI-18 Version 2 - I Am Able to Enjoy Life", "submissionValue": "FAC050-I Am Able to Enjoy Life", "synonyms": ["FAC050-I Am Able to Enjoy Life"]}, {"conceptId": "C129248", "definition": "National Comprehensive Cancer Network/Functional Assessment of Cancer Therapy-Ovarian Symptom Index-18 Version 2 - I am able to get around by myself.", "preferredTerm": "NCCN-FACT FOSI-18 Version 2 - I Am Able to Get Around by Myself", "submissionValue": "FAC050-I Am Able to Get Around by Myself", "synonyms": ["FAC050-I Am Able to Get Around by Myself"]}, {"conceptId": "C129238", "definition": "National Comprehensive Cancer Network/Functional Assessment of Cancer Therapy-Ovarian Symptom Index-18 Version 2 - I am bothered by constipation.", "preferredTerm": "NCCN-FACT FOSI-18 Version 2 - I Am Bothered by Constipation", "submissionValue": "FAC050-I Am Bothered by Constipation", "synonyms": ["FAC050-I Am Bothered by Constipation"]}, {"conceptId": "C129244", "definition": "National Comprehensive Cancer Network/Functional Assessment of Cancer Therapy-Ovarian Symptom Index-18 Version 2 - I am bothered by hair loss.", "preferredTerm": "NCCN-FACT FOSI-18 Version 2 - I Am Bothered by Hair Loss", "submissionValue": "FAC050-I Am Bothered by Hair Loss", "synonyms": ["FAC050-I Am Bothered by Hair Loss"]}, {"conceptId": "C129247", "definition": "National Comprehensive Cancer Network/Functional Assessment of Cancer Therapy-Ovarian Symptom Index-18 Version 2 - I am bothered by skin problems.", "preferredTerm": "NCCN-FACT FOSI-18 Version 2 - I Am Bothered by Skin Problems", "submissionValue": "FAC050-I Am Bothered by Skin Problems", "synonyms": ["FAC050-I Am Bothered by Skin Problems"]}, {"conceptId": "C129241", "definition": "National Comprehensive Cancer Network/Functional Assessment of Cancer Therapy-Ovarian Symptom Index-18 Version 2 - I am sleeping well.", "preferredTerm": "NCCN-FACT FOSI-18 Version 2 - I Am Sleeping Well", "submissionValue": "FAC050-I Am Sleeping Well", "synonyms": ["FAC050-I Am Sleeping Well"]}, {"conceptId": "C129237", "definition": "National Comprehensive Cancer Network/Functional Assessment of Cancer Therapy-Ovarian Symptom Index-18 Version 2 - I feel fatigued.", "preferredTerm": "NCCN-FACT FOSI-18 Version 2 - I Feel Fatigued", "submissionValue": "FAC050-I Feel Fatigued", "synonyms": ["FAC050-I Feel Fatigued"]}, {"conceptId": "C129235", "definition": "National Comprehensive Cancer Network/Functional Assessment of Cancer Therapy-Ovarian Symptom Index-18 Version 2 - I feel ill.", "preferredTerm": "NCCN-FACT FOSI-18 Version 2 - I Feel Ill", "submissionValue": "FAC050-I Feel Ill", "synonyms": ["FAC050-I Feel Ill"]}, {"conceptId": "C129233", "definition": "National Comprehensive Cancer Network/Functional Assessment of Cancer Therapy-Ovarian Symptom Index-18 Version 2 - I have a lack of energy.", "preferredTerm": "NCCN-FACT FOSI-18 Version 2 - I Have a Lack of Energy", "submissionValue": "FAC050-I Have a Lack of Energy", "synonyms": ["FAC050-I Have a Lack of Energy"]}, {"conceptId": "C129246", "definition": "National Comprehensive Cancer Network/Functional Assessment of Cancer Therapy-Ovarian Symptom Index-18 Version 2 - I have been vomiting.", "preferredTerm": "NCCN-FACT FOSI-18 Version 2 - I Have Been Vomiting", "submissionValue": "FAC050-I Have Been Vomiting", "synonyms": ["FAC050-I Have Been Vomiting"]}, {"conceptId": "C129240", "definition": "National Comprehensive Cancer Network/Functional Assessment of Cancer Therapy-Ovarian Symptom Index-18 Version 2 - I have control of my bowels.", "preferredTerm": "NCCN-FACT FOSI-18 Version 2 - I Have Control of My Bowels", "submissionValue": "FAC050-I Have Control of My Bowels", "synonyms": ["FAC050-I Have Control of My Bowels"]}, {"conceptId": "C129236", "definition": "National Comprehensive Cancer Network/Functional Assessment of Cancer Therapy-Ovarian Symptom Index-18 Version 2 - I have cramps in my stomach area.", "preferredTerm": "NCCN-FACT FOSI-18 Version 2 - I Have Cramps in My Stomach Area", "submissionValue": "FAC050-I Have Cramps in My Stomach Area", "synonyms": ["FAC050-I Have Cramps in My Stomach Area"]}, {"conceptId": "C129243", "definition": "National Comprehensive Cancer Network/Functional Assessment of Cancer Therapy-Ovarian Symptom Index-18 Version 2 - I have nausea.", "preferredTerm": "NCCN-FACT FOSI-18 Version 2 - I Have Nausea", "submissionValue": "FAC050-I Have Nausea", "synonyms": ["FAC050-I Have Nausea"]}, {"conceptId": "C129234", "definition": "National Comprehensive Cancer Network/Functional Assessment of Cancer Therapy-Ovarian Symptom Index-18 Version 2 - I have pain.", "preferredTerm": "NCCN-FACT FOSI-18 Version 2 - I Have Pain", "submissionValue": "FAC050-I Have Pain", "synonyms": ["FAC050-I Have Pain"]}, {"conceptId": "C129239", "definition": "National Comprehensive Cancer Network/Functional Assessment of Cancer Therapy-Ovarian Symptom Index-18 Version 2 - I have swelling in my stomach area.", "preferredTerm": "NCCN-FACT FOSI-18 Version 2 - I Have Swelling in Stomach Area", "submissionValue": "FAC050-I Have Swelling in Stomach Area", "synonyms": ["FAC050-I Have Swelling in Stomach Area"]}, {"conceptId": "C129242", "definition": "National Comprehensive Cancer Network/Functional Assessment of Cancer Therapy-Ovarian Symptom Index-18 Version 2 - I worry that my condition will get worse.", "preferredTerm": "NCCN-FACT FOSI-18 Version 2 - Worry My Condition Will Get Worse", "submissionValue": "FAC050-Worry My Condition Will Get Worse", "synonyms": ["FAC050-Worry My Condition Will Get Worse"]}]}