{"_links": {"parentPackage": {"href": "/mdr/ct/packages/sdtmct-2022-06-24", "title": "SDTM Controlled Terminology Package 50 Effective 2022-06-24", "type": "Terminology"}, "priorVersion": {"href": "/mdr/ct/packages/sdtmct-2022-03-25/codelists/C129091", "title": "CDISC Questionnaire NCCN-FACT FBLSI-18 Version 2 Test Name Terminology", "type": "Code List"}, "rootItem": {"href": "/mdr/root/ct/sdtmct/codelists/C129091", "title": "Version-agnostic anchor resource for codelist C129091", "type": "Root Value Domain"}, "self": {"href": "/mdr/ct/packages/sdtmct-2022-06-24/codelists/C129091", "title": "CDISC Questionnaire NCCN-FACT FBLSI-18 Version 2 Test Name Terminology", "type": "Code List"}}, "conceptId": "C129091", "definition": "National Comprehensive Cancer Network/Functional Assessment of Cancer Therapy-Bladder Symptom Index-18 Version 2 test name.", "extensible": "false", "name": "National Comprehensive Cancer Network/Functional Assessment of Cancer Therapy-Bladder Symptom Index-18 Version 2 Questionnaire Test Name", "preferredTerm": "CDISC Questionnaire NCCN-FACT FBLSI-18 Version 2 Test Name Terminology", "submissionValue": "FAC028TN", "synonyms": ["National Comprehensive Cancer Network/Functional Assessment of Cancer Therapy-Bladder Symptom Index-18 Version 2 Questionnaire Test Name"], "terms": [{"conceptId": "C129177", "definition": "National Comprehensive Cancer Network/Functional Assessment of Cancer Therapy-Bladder Symptom Index-18 Version 2 - (For men only) I am able to have and maintain an erection.", "preferredTerm": "NCCN-FACT FBLSI-18 Version 2 - Able to Have, Maintain Erection", "submissionValue": "FAC028-Able to Have/Maintain Erection", "synonyms": ["FAC028-Able to Have/Maintain Erection"]}, {"conceptId": "C129185", "definition": "National Comprehensive Cancer Network/Functional Assessment of Cancer Therapy-Bladder Symptom Index-18 Version 2 - I am bothered by side effects of treatment.", "preferredTerm": "NCCN-FACT FBLSI-18 Version 2 - Bothered by Treatment Side Effect", "submissionValue": "FAC028-Bothered by Treatment Side Effect", "synonyms": ["FAC028-Bothered by Treatment Side Effect"]}, {"conceptId": "C129187", "definition": "National Comprehensive Cancer Network/Functional Assessment of Cancer Therapy-Bladder Symptom Index-18 Version 2 - I am content with the quality of my life right now.", "preferredTerm": "NCCN-FACT FBLSI-18 Version 2 - Content With Quality of My Life", "submissionValue": "FAC028-Content With Quality of My Life", "synonyms": ["FAC028-Content With Quality of My Life"]}, {"conceptId": "C129172", "definition": "National Comprehensive Cancer Network/Functional Assessment of Cancer Therapy-Bladder Symptom Index-18 Version 2 - I have trouble controlling my urine.", "preferredTerm": "NCCN-FACT FBLSI-18 Version 2 - Have Trouble Controlling My Urine", "submissionValue": "FAC028-Have Trouble Controlling My Urine", "synonyms": ["FAC028-Have Trouble Controlling My Urine"]}, {"conceptId": "C129186", "definition": "National Comprehensive Cancer Network/Functional Assessment of Cancer Therapy-Bladder Symptom Index-18 Version 2 - I am able to enjoy life.", "preferredTerm": "NCCN-FACT FBLSI-18 Version 2 - I Am Able to Enjoy Life", "submissionValue": "FAC028-I Am Able to Enjoy Life", "synonyms": ["FAC028-I Am Able to Enjoy Life"]}, {"conceptId": "C129171", "definition": "National Comprehensive Cancer Network/Functional Assessment of Cancer Therapy-Bladder Symptom Index-18 Version 2 - I am losing weight.", "preferredTerm": "NCCN-FACT FBLSI-18 Version 2 - I Am Losing Weight", "submissionValue": "FAC028-I Am Losing Weight", "synonyms": ["FAC028-I Am Losing Weight"]}, {"conceptId": "C129178", "definition": "National Comprehensive Cancer Network/Functional Assessment of Cancer Therapy-Bladder Symptom Index-18 Version 2 - I am sleeping well.", "preferredTerm": "NCCN-FACT FBLSI-18 Version 2 - I Am Sleeping Well", "submissionValue": "FAC028-I Am Sleeping Well", "synonyms": ["FAC028-I Am Sleeping Well"]}, {"conceptId": "C129183", "definition": "National Comprehensive Cancer Network/Functional Assessment of Cancer Therapy-Bladder Symptom Index-18 Version 2 - I feel ill.", "preferredTerm": "NCCN-FACT FBLSI-18 Version 2 - I Feel Ill", "submissionValue": "FAC028-I Feel Ill", "synonyms": ["FAC028-I Feel Ill"]}, {"conceptId": "C129174", "definition": "National Comprehensive Cancer Network/Functional Assessment of Cancer Therapy-Bladder Symptom Index-18 Version 2 - I feel light-headed (dizzy).", "preferredTerm": "NCCN-FACT FBLSI-18 Version 2 - I Feel Light-headed", "submissionValue": "FAC028-I Feel Light-headed", "synonyms": ["FAC028-I Feel Light-headed"]}, {"conceptId": "C129180", "definition": "National Comprehensive Cancer Network/Functional Assessment of Cancer Therapy-Bladder Symptom Index-18 Version 2 - I feel sad.", "preferredTerm": "NCCN-FACT FBLSI-18 Version 2 - I Feel Sad", "submissionValue": "FAC028-I Feel Sad", "synonyms": ["FAC028-I Feel Sad"]}, {"conceptId": "C129173", "definition": "National Comprehensive Cancer Network/Functional Assessment of Cancer Therapy-Bladder Symptom Index-18 Version 2 - I feel weak all over.", "preferredTerm": "NCCN-FACT FBLSI-18 Version 2 - I Feel Weak All Over", "submissionValue": "FAC028-I Feel Weak All Over", "synonyms": ["FAC028-I Feel Weak All Over"]}, {"conceptId": "C129176", "definition": "National Comprehensive Cancer Network/Functional Assessment of Cancer Therapy-Bladder Symptom Index-18 Version 2 - I have a good appetite.", "preferredTerm": "NCCN-FACT FBLSI-18 Version 2 - I Have a Good Appetite", "submissionValue": "FAC028-I Have a Good Appetite", "synonyms": ["FAC028-I Have a Good Appetite"]}, {"conceptId": "C129182", "definition": "National Comprehensive Cancer Network/Functional Assessment of Cancer Therapy-Bladder Symptom Index-18 Version 2 - I have a lack of energy.", "preferredTerm": "NCCN-FACT FBLSI-18 Version 2 - I Have a Lack of Energy", "submissionValue": "FAC028-I Have a Lack of Energy", "synonyms": ["FAC028-I Have a Lack of Energy"]}, {"conceptId": "C129184", "definition": "National Comprehensive Cancer Network/Functional Assessment of Cancer Therapy-Bladder Symptom Index-18 Version 2 - I have control of my bowels.", "preferredTerm": "NCCN-FACT FBLSI-18 Version 2 - I Have Control of My Bowels", "submissionValue": "FAC028-I Have Control of My Bowels", "synonyms": ["FAC028-I Have Control of My Bowels"]}, {"conceptId": "C129181", "definition": "National Comprehensive Cancer Network/Functional Assessment of Cancer Therapy-Bladder Symptom Index-18 Version 2 - I have nausea.", "preferredTerm": "NCCN-FACT FBLSI-18 Version 2 - I Have Nausea", "submissionValue": "FAC028-I Have Nausea", "synonyms": ["FAC028-I Have Nausea"]}, {"conceptId": "C129170", "definition": "National Comprehensive Cancer Network/Functional Assessment of Cancer Therapy-Bladder Symptom Index-18 Version 2 - I have pain.", "preferredTerm": "NCCN-FACT FBLSI-18 Version 2 - I Have Pain", "submissionValue": "FAC028-I Have Pain", "synonyms": ["FAC028-I Have Pain"]}, {"conceptId": "C129175", "definition": "National Comprehensive Cancer Network/Functional Assessment of Cancer Therapy-Bladder Symptom Index-18 Version 2 - Because of my physical condition, I have trouble meeting the needs of my family.", "preferredTerm": "NCCN-FACT FBLSI-18 Version 2 - Trouble Meeting Needs of Family", "submissionValue": "FAC028-Trouble Meeting Needs of Family", "synonyms": ["FAC028-Trouble Meeting Needs of Family"]}, {"conceptId": "C129179", "definition": "National Comprehensive Cancer Network/Functional Assessment of Cancer Therapy-Bladder Symptom Index-18 Version 2 - I worry that my condition will get worse.", "preferredTerm": "NCCN-FACT FBLSI-18 Version 2 - Worry My Condition Will Get Worse", "submissionValue": "FAC028-Worry My Condition Will Get Worse", "synonyms": ["FAC028-Worry My Condition Will Get Worse"]}]}