{"_links": {"parentPackage": {"href": "/mdr/ct/packages/sdtmct-2022-06-24", "title": "SDTM Controlled Terminology Package 50 Effective 2022-06-24", "type": "Terminology"}, "priorVersion": {"href": "/mdr/ct/packages/sdtmct-2022-03-25/codelists/C130238", "title": "CDISC Clinical Classification BUERS Test Name Terminology", "type": "Code List"}, "rootItem": {"href": "/mdr/root/ct/sdtmct/codelists/C130238", "title": "Version-agnostic anchor resource for codelist C130238", "type": "Root Value Domain"}, "self": {"href": "/mdr/ct/packages/sdtmct-2022-06-24/codelists/C130238", "title": "CDISC Clinical Classification BUERS Test Name Terminology", "type": "Code List"}}, "conceptId": "C130238", "definition": "Brooke Upper Extremity Rating Scale test name.", "extensible": "false", "name": "Brooke Upper Extremity Rating Scale Clinical Classification Test Name", "preferredTerm": "CDISC Clinical Classification BUERS Test Name Terminology", "submissionValue": "BUERS1TN", "synonyms": ["Brooke Upper Extremity Rating Scale Clinical Classification Test Name"], "terms": [{"conceptId": "C130326", "definition": "Brooke Upper Extremity Rating Scale - Brooke upper extremity rating scale.", "preferredTerm": "BUERS - Brooke Upper Extremity Rating Scale", "submissionValue": "BUERS1-Brooke Upper Extremity Rating", "synonyms": ["BUERS1-Brooke Upper Extremity Rating"]}]}