{"_links": {"parentPackage": {"href": "/mdr/ct/packages/sdtmct-2022-06-24", "title": "SDTM Controlled Terminology Package 50 Effective 2022-06-24", "type": "Terminology"}, "priorVersion": {"href": "/mdr/ct/packages/sdtmct-2022-03-25/codelists/C130271", "title": "CDISC Questionnaire WHODAS 2.0 36-item Version Proxy-administered Test Code Terminology", "type": "Code List"}, "rootItem": {"href": "/mdr/root/ct/sdtmct/codelists/C130271", "title": "Version-agnostic anchor resource for codelist C130271", "type": "Root Value Domain"}, "self": {"href": "/mdr/ct/packages/sdtmct-2022-06-24/codelists/C130271", "title": "CDISC Questionnaire WHODAS 2.0 36-item Version Proxy-administered Test Code Terminology", "type": "Code List"}}, "conceptId": "C130271", "definition": "World Health Organization Disability Assessment Schedule 2.0 - 36-Item Proxy test code.", "extensible": "false", "name": "World Health Organization Disability Assessment Schedule 2.0 - 36-Item Proxy Questionnaire Test Code", "preferredTerm": "CDISC Questionnaire WHODAS 2.0 36-item Version Proxy-administered Test Code Terminology", "submissionValue": "WD6TC", "synonyms": ["World Health Organization Disability Assessment Schedule 2.0 - 36-Item Proxy Questionnaire Test Code"], "terms": [{"conceptId": "C130771", "definition": "World Health Organization Disability Assessment Schedule 2.0 - 36-Item Proxy - In the past 30 days, how much difficulty did your relative have in: Concentrating on doing something for ten minutes?", "preferredTerm": "WHODAS 2.0 36-item Version Proxy-administered - Concentrating for Ten Minutes", "submissionValue": "WD6D1_1", "synonyms": ["WD6-Concentrating for Ten Minutes"]}, {"conceptId": "C130772", "definition": "World Health Organization Disability Assessment Schedule 2.0 - 36-Item Proxy - In the past 30 days, how much difficulty did your relative have in: Remembering to do important things?", "preferredTerm": "WHODAS 2.0 36-item Version Proxy-administered - Remembering to Do Important Things", "submissionValue": "WD6D1_2", "synonyms": ["WD6-Remembering to Do Important Things"]}, {"conceptId": "C130773", "definition": "World Health Organization Disability Assessment Schedule 2.0 - 36-Item Proxy - In the past 30 days, how much difficulty did your relative have in: Analysing and finding solutions to problems in day-to-day life?", "preferredTerm": "WHODAS 2.0 36-item Version Proxy-administered - Finding Solutions to Problems", "submissionValue": "WD6D1_3", "synonyms": ["WD6-Finding Solutions to Problems"]}, {"conceptId": "C130774", "definition": "World Health Organization Disability Assessment Schedule 2.0 - 36-Item Proxy - In the past 30 days, how much difficulty did your relative have in: Learning a new task, for example, learning how to get to a new place?", "preferredTerm": "WHODAS 2.0 36-item Version Proxy-administered - Learning a New Task", "submissionValue": "WD6D1_4", "synonyms": ["WD6-Learning a New Task"]}, {"conceptId": "C130775", "definition": "World Health Organization Disability Assessment Schedule 2.0 - 36-Item Proxy - In the past 30 days, how much difficulty did your relative have in: Generally understanding what people say?", "preferredTerm": "WHODAS 2.0 36-item Version Proxy-administered - Understanding What People Say", "submissionValue": "WD6D1_5", "synonyms": ["WD6-Understanding What People Say"]}, {"conceptId": "C130776", "definition": "World Health Organization Disability Assessment Schedule 2.0 - 36-Item Proxy - In the past 30 days, how much difficulty did your relative have in: Starting and maintaining a conversation?", "preferredTerm": "WHODAS 2.0 36-item Version Proxy-administered - Starting or Maintaining Conversation", "submissionValue": "WD6D1_6", "synonyms": ["WD6-Starting/Maintaining Conversation"]}, {"conceptId": "C130777", "definition": "World Health Organization Disability Assessment Schedule 2.0 - 36-Item Proxy - In the past 30 days, how much difficulty did your relative have in: Standing for long periods such as 30 minutes?", "preferredTerm": "WHODAS 2.0 36-item Version Proxy-administered - Standing for Long Periods", "submissionValue": "WD6D2_1", "synonyms": ["WD6-Standing for Long Periods"]}, {"conceptId": "C130778", "definition": "World Health Organization Disability Assessment Schedule 2.0 - 36-Item Proxy - In the past 30 days, how much difficulty did your relative have in: Standing up from sitting down?", "preferredTerm": "WHODAS 2.0 36-item Version Proxy-administered - Standing Up From Sitting Down", "submissionValue": "WD6D2_2", "synonyms": ["WD6-Standing Up From Sitting Down"]}, {"conceptId": "C130779", "definition": "World Health Organization Disability Assessment Schedule 2.0 - 36-Item Proxy - In the past 30 days, how much difficulty did your relative have in: Moving around inside their home?", "preferredTerm": "WHODAS 2.0 36-item Version Proxy-administered - Moving Around Inside Their Home", "submissionValue": "WD6D2_3", "synonyms": ["WD6-Moving Around Inside Their Home"]}, {"conceptId": "C130782", "definition": "World Health Organization Disability Assessment Schedule 2.0 - 36-Item Proxy - Because of their health condition, in the past 30 days, how much difficulty did your relative have in: Washing his or her whole body?", "preferredTerm": "WHODAS 2.0 36-item Version Proxy-administered - Washing His or Her Whole Body", "submissionValue": "WD6D3_1", "synonyms": ["WD6-Washing His/Her Whole Body"]}, {"conceptId": "C130783", "definition": "World Health Organization Disability Assessment Schedule 2.0 - 36-Item Proxy - Because of their health condition, in the past 30 days, how much difficulty did your relative have in: Getting dressed?", "preferredTerm": "WHODAS 2.0 36-item Version Proxy-administered - Getting Dressed", "submissionValue": "WD6D3_2", "synonyms": ["WD6-Getting Dressed"]}, {"conceptId": "C130784", "definition": "World Health Organization Disability Assessment Schedule 2.0 - 36-Item Proxy - Because of their health condition, in the past 30 days, how much difficulty did your relative have in: Eating?", "preferredTerm": "WHODAS 2.0 36-item Version Proxy-administered - Eating", "submissionValue": "WD6D3_3", "synonyms": ["WD6-Eating"]}, {"conceptId": "C130785", "definition": "World Health Organization Disability Assessment Schedule 2.0 - 36-Item Proxy - Because of their health condition, in the past 30 days, how much difficulty did your relative have in: Staying by himself or herself for a few days?", "preferredTerm": "WHODAS 2.0 36-item Version Proxy-administered - Staying by Him or Herself a Few Days", "submissionValue": "WD6D3_4", "synonyms": ["WD6-Staying by Him/Herself a Few Days"]}, {"conceptId": "C130786", "definition": "World Health Organization Disability Assessment Schedule 2.0 - 36-Item Proxy - Because of their health condition, in the past 30 days, how much difficulty did your relative have in: Dealing with people he or she does not know?", "preferredTerm": "WHODAS 2.0 36-item Version Proxy-administered - Dealing With People Does Not Know", "submissionValue": "WD6D4_1", "synonyms": ["WD6-Dealing With People Does Not Know"]}, {"conceptId": "C130787", "definition": "World Health Organization Disability Assessment Schedule 2.0 - 36-Item Proxy - Because of their health condition, in the past 30 days, how much difficulty did your relative have in: Maintaining a friendship?", "preferredTerm": "WHODAS 2.0 36-item Version Proxy-administered - Maintaining a Friendship", "submissionValue": "WD6D4_2", "synonyms": ["WD6-Maintaining a Friendship"]}, {"conceptId": "C130788", "definition": "World Health Organization Disability Assessment Schedule 2.0 - 36-Item Proxy - Because of their health condition, in the past 30 days, how much difficulty did your relative have in: Getting along with people who are close to him or her?", "preferredTerm": "WHODAS 2.0 36-item Version Proxy-administered - Get Along With People Close to Him", "submissionValue": "WD6D4_3", "synonyms": ["WD6-Get Along With People Close to Him"]}, {"conceptId": "C130789", "definition": "World Health Organization Disability Assessment Schedule 2.0 - 36-Item Proxy - Because of their health condition, in the past 30 days, how much difficulty did your relative have in: Making new friends?", "preferredTerm": "WHODAS 2.0 36-item Version Proxy-administered - Making New Friends", "submissionValue": "WD6D4_4", "synonyms": ["WD6-Making New Friends"]}, {"conceptId": "C130790", "definition": "World Health Organization Disability Assessment Schedule 2.0 - 36-Item Proxy - Because of their health condition, in the past 30 days, how much difficulty did your relative have in: Sexual activities?", "preferredTerm": "WHODAS 2.0 36-item Version Proxy-administered - Sexual Activities", "submissionValue": "WD6D4_5", "synonyms": ["WD6-Sexual Activities"]}, {"conceptId": "C130791", "definition": "World Health Organization Disability Assessment Schedule 2.0 - 36-Item Proxy - Because of their health condition, in the past 30 days, how much difficulty did your relative have in: Taking care of his or her household responsibilities?", "preferredTerm": "WHODAS 2.0 36-item Version Proxy-administered - Care of Household Responsibilities", "submissionValue": "WD6D5_1", "synonyms": ["WD6-Care of Household Responsibilities"]}, {"conceptId": "C130792", "definition": "World Health Organization Disability Assessment Schedule 2.0 - 36-Item Proxy - Because of their health condition, in the past 30 days, how much difficulty did your relative have in: Doing his or her most important household tasks well?", "preferredTerm": "WHODAS 2.0 36-item Version Proxy-administered - Doing Important Household Tasks", "submissionValue": "WD6D5_2", "synonyms": ["WD6-Doing Important Household Tasks"]}, {"conceptId": "C130793", "definition": "World Health Organization Disability Assessment Schedule 2.0 - 36-Item Proxy - Because of their health condition, in the past 30 days, how much difficulty did your relative have in: Getting all the household work done that is needed?", "preferredTerm": "WHODAS 2.0 36-item Version Proxy-administered - Getting Household Work Done Needed", "submissionValue": "WD6D5_3", "synonyms": ["WD6-Getting Household Work Done Needed"]}, {"conceptId": "C130794", "definition": "World Health Organization Disability Assessment Schedule 2.0 - 36-Item Proxy - Because of their health condition, in the past 30 days, how much difficulty did your relative have in: Getting the household work done as quickly as needed?", "preferredTerm": "WHODAS 2.0 36-item Version Proxy-administered - Getting Household Work Done Quickly", "submissionValue": "WD6D5_4", "synonyms": ["WD6-Getting Household Work Done Quickly"]}, {"conceptId": "C130795", "definition": "World Health Organization Disability Assessment Schedule 2.0 - 36-Item Proxy - In the past 30 days, how much difficulty did your relative have in: His or her day-to-day work/school?", "preferredTerm": "WHODAS 2.0 36-item Version Proxy-administered - Their Day-to-Day Work or School", "submissionValue": "WD6D5_5", "synonyms": ["WD6-Their Day-to-Day Work/School"]}, {"conceptId": "C130796", "definition": "World Health Organization Disability Assessment Schedule 2.0 - 36-Item Proxy - In the past 30 days, how much difficulty did your relative have in: Doing his or her most important work/school tasks well?", "preferredTerm": "WHODAS 2.0 36-item Version Proxy-administered - Doing Important Work or School Tasks", "submissionValue": "WD6D5_6", "synonyms": ["WD6-Doing Important Work/School Tasks"]}, {"conceptId": "C130797", "definition": "World Health Organization Disability Assessment Schedule 2.0 - 36-Item Proxy - In the past 30 days, how much difficulty did your relative have in: Getting all the work done that is needed?", "preferredTerm": "WHODAS 2.0 36-item Version Proxy-administered - Getting All Work Done You Need", "submissionValue": "WD6D5_7", "synonyms": ["WD6-Getting All Work Done You Need"]}, {"conceptId": "C130798", "definition": "World Health Organization Disability Assessment Schedule 2.0 - 36-Item Proxy - In the past 30 days, how much difficulty did your relative have in: Getting the work done as quickly as needed?", "preferredTerm": "WHODAS 2.0 36-item Version Proxy-administered - Getting Work Done Quickly as Needed", "submissionValue": "WD6D5_8", "synonyms": ["WD6-Getting Work Done Quickly as Needed"]}, {"conceptId": "C130799", "definition": "World Health Organization Disability Assessment Schedule 2.0 - 36-Item Proxy - Participation in society in the past 30 days: How much of a problem did your relative have in joining in community activities (for example, festivities, religious or other activities) in the same way as anyone else can?", "preferredTerm": "WHODAS 2.0 36-item Version Proxy-administered - Problem Joining Community Activities", "submissionValue": "WD6D6_1", "synonyms": ["WD6-Problem Joining Community Activities"]}, {"conceptId": "C130800", "definition": "World Health Organization Disability Assessment Schedule 2.0 - 36-Item Proxy - Participation in society in the past 30 days: How much of a problem did your relative have because of barriers or hindrances in the world around him or her?", "preferredTerm": "WHODAS 2.0 36-item Version Proxy-administered - Problem Because of Barriers in World", "submissionValue": "WD6D6_2", "synonyms": ["WD6-Problem Because of Barriers in World"]}, {"conceptId": "C130801", "definition": "World Health Organization Disability Assessment Schedule 2.0 - 36-Item Proxy - Participation in society in the past 30 days: How much of a problem did your relative have living with dignity because of the attitudes and actions of others?", "preferredTerm": "WHODAS 2.0 36-item Version Proxy-administered - Problem Living with Dignity", "submissionValue": "WD6D6_3", "synonyms": ["WD6-Problem Living with Dignity"]}, {"conceptId": "C130802", "definition": "World Health Organization Disability Assessment Schedule 2.0 - 36-Item Proxy - Participation in society in the past 30 days: How much time did your relative spend on his or her health condition, or its consequences?", "preferredTerm": "WHODAS 2.0 36-item Version Proxy-administered - Time Spend on Your Health Condition", "submissionValue": "WD6D6_4", "synonyms": ["WD6-Time Spend on Your Health Condition"]}, {"conceptId": "C130803", "definition": "World Health Organization Disability Assessment Schedule 2.0 - 36-Item Proxy - Participation in society in the past 30 days: How much has your relative been emotionally affected by his or her health condition?", "preferredTerm": "WHODAS 2.0 36-item Version Proxy-administered - Emotionally Affected by Health", "submissionValue": "WD6D6_5", "synonyms": ["WD6-Emotionally Affected by Health"]}, {"conceptId": "C130804", "definition": "World Health Organization Disability Assessment Schedule 2.0 - 36-Item Proxy - Participation in society in the past 30 days: How much has his or her health been a drain on his or her financial resources or on the financial resources of other relatives?", "preferredTerm": "WHODAS 2.0 36-item Version Proxy-administered - Drain on Financial Resources", "submissionValue": "WD6D6_6", "synonyms": ["WD6-Drain on Financial Resources"]}, {"conceptId": "C130805", "definition": "World Health Organization Disability Assessment Schedule 2.0 - 36-Item Proxy - Participation in society in the past 30 days: How much of a problem did you or the rest of his or her family have because of his or her health problems?", "preferredTerm": "WHODAS 2.0 36-item Version Proxy-administered - Problem Did Your Family Have", "submissionValue": "WD6D6_7", "synonyms": ["WD6-Problem Did Your Family Have"]}, {"conceptId": "C130806", "definition": "World Health Organization Disability Assessment Schedule 2.0 - 36-Item Proxy - Participation in society in the past 30 days: How much of a problem did your relative have in doing things by himself or herself for relaxation or pleasure?", "preferredTerm": "WHODAS 2.0 36-item Version Proxy-administered - Problem Doing Things for Relaxation", "submissionValue": "WD6D6_8", "synonyms": ["WD6-Problem Doing Things for Relaxation"]}, {"conceptId": "C130807", "definition": "World Health Organization Disability Assessment Schedule 2.0 - 36-Item Proxy - Overall, in the past 30 days, how many days were these difficulties present?", "preferredTerm": "WHODAS 2.0 36-item Version Proxy-administered - How Many Days Difficulties Present", "submissionValue": "WD6H1", "synonyms": ["WD6-How Many Days Difficulties Present"]}, {"conceptId": "C130808", "definition": "World Health Organization Disability Assessment Schedule 2.0 - 36-Item Proxy - In the past 30 days, for how many days was your relative totally unable to carry out his or her usual activities or work because of any health condition?", "preferredTerm": "WHODAS 2.0 36-item Version Proxy-administered - Days Unable to Carry Out Activities", "submissionValue": "WD6H2", "synonyms": ["WD6-Days Unable to Carry Out Activities"]}, {"conceptId": "C130809", "definition": "World Health Organization Disability Assessment Schedule 2.0 - 36-Item Proxy - In the past 30 days, not counting the days that your relative was totally unable, for how many days did your relative cut back or reduce his or her usual activities or work because of any health condition?", "preferredTerm": "WHODAS 2.0 36-item Version Proxy-administered - How Many Days Reduce Activities", "submissionValue": "WD6H3", "synonyms": ["WD6-How Many Days Reduce Activities"]}, {"conceptId": "C130770", "definition": "World Health Organization Disability Assessment Schedule 2.0 - 36-Item Proxy - I am the (Fill in the Blank) of this person.", "preferredTerm": "WHODAS 2.0 36-item Version Proxy-administered - I Am (Fill in the Blank) of this Person", "submissionValue": "WD6H4", "synonyms": ["WD6-I Am (Fill in Blank) of This Person"]}, {"conceptId": "C130780", "definition": "World Health Organization Disability Assessment Schedule 2.0 - 36-Item Proxy - In the past 30 days, how much difficulty did your relative have in: Getting out of their home?", "preferredTerm": "WHODAS 2.0 36-item Version Proxy-administered - Getting Out of Their Home", "submissionValue": "WD6SD2_4", "synonyms": ["WD6-Getting Out of Their Home"]}, {"conceptId": "C130781", "definition": "World Health Organization Disability Assessment Schedule 2.0 - 36-Item Proxy - In the past 30 days, how much difficulty did your relative have in: Walking a long distance such as a kilometre [or equivalent]?", "preferredTerm": "WHODAS 2.0 36-item Version Proxy-administered - Walking a Long Distance", "submissionValue": "WD6SD2_5", "synonyms": ["WD6-Walking a Long Distance"]}]}