{"_links": {"parentPackage": {"href": "/mdr/ct/packages/sdtmct-2022-06-24", "title": "SDTM Controlled Terminology Package 50 Effective 2022-06-24", "type": "Terminology"}, "priorVersion": {"href": "/mdr/ct/packages/sdtmct-2022-03-25/codelists/C130272", "title": "CDISC Questionnaire WHODAS 2.0 36-item Version Self-administered Test Name Terminology", "type": "Code List"}, "rootItem": {"href": "/mdr/root/ct/sdtmct/codelists/C130272", "title": "Version-agnostic anchor resource for codelist C130272", "type": "Root Value Domain"}, "self": {"href": "/mdr/ct/packages/sdtmct-2022-06-24/codelists/C130272", "title": "CDISC Questionnaire WHODAS 2.0 36-item Version Self-administered Test Name Terminology", "type": "Code List"}}, "conceptId": "C130272", "definition": "World Health Organization Disability Assessment Schedule 2.0 - 36-Item Self test name.", "extensible": "false", "name": "World Health Organization Disability Assessment Schedule 2.0 - 36-Item Self Questionnaire Test Name", "preferredTerm": "CDISC Questionnaire WHODAS 2.0 36-item Version Self-administered Test Name Terminology", "submissionValue": "WD7TN", "synonyms": ["World Health Organization Disability Assessment Schedule 2.0 - 36-Item Self Questionnaire Test Name"], "terms": [{"conceptId": "C130830", "definition": "World Health Organization Disability Assessment Schedule 2.0 - 36-Item Self - In the past 30 days, how much difficulty did you have in: Taking care of your household responsibilities?", "preferredTerm": "WHODAS 2.0 36-item Version Self-administered - Care of Household Responsibilities", "submissionValue": "WD7-Care of Household Responsibilities", "synonyms": ["WD7-Care of Household Responsibilities"]}, {"conceptId": "C130810", "definition": "World Health Organization Disability Assessment Schedule 2.0 - 36-Item Self - In the past 30 days, how much difficulty did you have in: Concentrating on doing something for ten minutes?", "preferredTerm": "WHODAS 2.0 36-item Version Self-administered - Concentrating for Ten Minutes", "submissionValue": "WD7-Concentrating for Ten Minutes", "synonyms": ["WD7-Concentrating for Ten Minutes"]}, {"conceptId": "C130847", "definition": "World Health Organization Disability Assessment Schedule 2.0 - 36-Item Self - In the past 30 days, for how many days were you totally unable to carry out your usual activities or work because of any health condition?", "preferredTerm": "WHODAS 2.0 36-item Version Self-administered - Days Unable to Carry Out Activities", "submissionValue": "WD7-Days Unable to Carry Out Activities", "synonyms": ["WD7-Days Unable to Carry Out Activities"]}, {"conceptId": "C130825", "definition": "World Health Organization Disability Assessment Schedule 2.0 - 36-Item Self - In the past 30 days, how much difficulty did you have in: Dealing with people you do not know?", "preferredTerm": "WHODAS 2.0 36-item Version Self-administered - Dealing With People You Do Not Know", "submissionValue": "WD7-Dealing With People You Do Not Know", "synonyms": ["WD7-Dealing With People You Do Not Know"]}, {"conceptId": "C130831", "definition": "World Health Organization Disability Assessment Schedule 2.0 - 36-Item Self - In the past 30 days, how much difficulty did you have in: Doing most important household tasks well?", "preferredTerm": "WHODAS 2.0 36-item Version Self-administered - Doing Important Household Tasks", "submissionValue": "WD7-Doing Important Household Tasks", "synonyms": ["WD7-Doing Important Household Tasks"]}, {"conceptId": "C130835", "definition": "World Health Organization Disability Assessment Schedule 2.0 - 36-Item Self - Because of your health condition, in the past 30 days, how much difficulty did you have in: Doing your most important work/school tasks well?", "preferredTerm": "WHODAS 2.0 36-item Version Self-administered - Doing Important Work or School Tasks", "submissionValue": "WD7-Doing Important Work/School Tasks", "synonyms": ["WD7-Doing Important Work/School Tasks"]}, {"conceptId": "C130843", "definition": "World Health Organization Disability Assessment Schedule 2.0 - 36-Item Self - In the past 30 days: How much has your health been a drain on the financial resources of you or your family?", "preferredTerm": "WHODAS 2.0 36-item Version Self-administered - Drain on Financial Resources", "submissionValue": "WD7-Drain on Financial Resources", "synonyms": ["WD7-Drain on Financial Resources"]}, {"conceptId": "C130823", "definition": "World Health Organization Disability Assessment Schedule 2.0 - 36-Item Self - In the past 30 days, how much difficulty did you have in: Eating?", "preferredTerm": "WHODAS 2.0 36-item Version Self-administered - Eating", "submissionValue": "WD7-Eating", "synonyms": ["WD7-Eating"]}, {"conceptId": "C130842", "definition": "World Health Organization Disability Assessment Schedule 2.0 - 36-Item Self - In the past 30 days: How much have you been emotionally affected by your health condition?", "preferredTerm": "WHODAS 2.0 36-item Version Self-administered - Emotionally Affected by Health", "submissionValue": "WD7-Emotionally Affected by Health", "synonyms": ["WD7-Emotionally Affected by Health"]}, {"conceptId": "C130812", "definition": "World Health Organization Disability Assessment Schedule 2.0 - 36-Item Self - In the past 30 days, how much difficulty did you have in: Analysing and finding solutions to problems in day-to-day life?", "preferredTerm": "WHODAS 2.0 36-item Version Self-administered - Finding Solutions to Problems", "submissionValue": "WD7-Finding Solutions to Problems", "synonyms": ["WD7-Finding Solutions to Problems"]}, {"conceptId": "C130827", "definition": "World Health Organization Disability Assessment Schedule 2.0 - 36-Item Self - In the past 30 days, how much difficulty did you have in: Getting along with people who are close to you?", "preferredTerm": "WHODAS 2.0 36-item Version Self-administered - Get Along With People Close to You", "submissionValue": "WD7-Get Along With People Close to You", "synonyms": ["WD7-Get Along With People Close to You"]}, {"conceptId": "C130836", "definition": "World Health Organization Disability Assessment Schedule 2.0 - 36-Item Self - Because of your health condition, in the past 30 days, how much difficulty did you have in: Getting all the work done that you need to do?", "preferredTerm": "WHODAS 2.0 36-item Version Self-administered - Getting All Work Done You Need", "submissionValue": "WD7-Getting All Work Done You Need", "synonyms": ["WD7-Getting All Work Done You Need"]}, {"conceptId": "C130822", "definition": "World Health Organization Disability Assessment Schedule 2.0 - 36-Item Self - In the past 30 days, how much difficulty did you have in: Getting dressed?", "preferredTerm": "WHODAS 2.0 36-item Version Self-administered - Getting Dressed", "submissionValue": "WD7-Getting Dressed", "synonyms": ["WD7-Getting Dressed"]}, {"conceptId": "C130832", "definition": "World Health Organization Disability Assessment Schedule 2.0 - 36-Item Self - In the past 30 days, how much difficulty did you have in: Getting all the household work done that you needed to do?", "preferredTerm": "WHODAS 2.0 36-item Version Self-administered - Getting Household Work Done Needed", "submissionValue": "WD7-Getting Household Work Done Needed", "synonyms": ["WD7-Getting Household Work Done Needed"]}, {"conceptId": "C130833", "definition": "World Health Organization Disability Assessment Schedule 2.0 - 36-Item Self - In the past 30 days, how much difficulty did you have in: Getting your household work done as quickly as needed?", "preferredTerm": "WHODAS 2.0 36-item Version Self-administered - Getting Household Work Done Quickly", "submissionValue": "WD7-Getting Household Work Done Quickly", "synonyms": ["WD7-Getting Household Work Done Quickly"]}, {"conceptId": "C130819", "definition": "World Health Organization Disability Assessment Schedule 2.0 - 36-Item Self - In the past 30 days, how much difficulty did you have in: Getting out of your home?", "preferredTerm": "WHODAS 2.0 36-item Version Self-administered - Getting Out of Your Home", "submissionValue": "WD7-Getting Out of Your Home", "synonyms": ["WD7-Getting Out of Your Home"]}, {"conceptId": "C130837", "definition": "World Health Organization Disability Assessment Schedule 2.0 - 36-Item Self - Because of your health condition, in the past 30 days, how much difficulty did you have in: Getting your work done as quickly as needed?", "preferredTerm": "WHODAS 2.0 36-item Version Self-administered - Getting Work Done Quickly as Needed", "submissionValue": "WD7-Getting Work Done Quickly as Needed", "synonyms": ["WD7-Getting Work Done Quickly as Needed"]}, {"conceptId": "C130846", "definition": "World Health Organization Disability Assessment Schedule 2.0 - 36-Item Self - Overall, in the past 30 days, how many days were these difficulties present?", "preferredTerm": "WHODAS 2.0 36-item Version Self-administered - How Many Days Difficulties Present", "submissionValue": "WD7-How Many Days Difficulties Present", "synonyms": ["WD7-How Many Days Difficulties Present"]}, {"conceptId": "C130848", "definition": "World Health Organization Disability Assessment Schedule 2.0 - 36-Item Self - In the past 30 days, not counting the days that you were totally unable, for how many days did you cut back or reduce your usual activities or work because of any health condition?", "preferredTerm": "WHODAS 2.0 36-item Version Self-administered - How Many Days Reduce Activities", "submissionValue": "WD7-How Many Days Reduce Activities", "synonyms": ["WD7-How Many Days Reduce Activities"]}, {"conceptId": "C130813", "definition": "World Health Organization Disability Assessment Schedule 2.0 - 36-Item Self - In the past 30 days, how much difficulty did you have in: Learning a new task, for example, learning how to get to a new place?", "preferredTerm": "WHODAS 2.0 36-item Version Self-administered - Learning a New Task", "submissionValue": "WD7-Learning a New Task", "synonyms": ["WD7-Learning a New Task"]}, {"conceptId": "C130826", "definition": "World Health Organization Disability Assessment Schedule 2.0 - 36-Item Self - In the past 30 days, how much difficulty did you have in: Maintaining a friendship?", "preferredTerm": "WHODAS 2.0 36-item Version Self-administered - Maintaining a Friendship", "submissionValue": "WD7-Maintaining a Friendship", "synonyms": ["WD7-Maintaining a Friendship"]}, {"conceptId": "C130828", "definition": "World Health Organization Disability Assessment Schedule 2.0 - 36-Item Self - In the past 30 days, how much difficulty did you have in: Making new friends?", "preferredTerm": "WHODAS 2.0 36-item Version Self-administered - Making New Friends", "submissionValue": "WD7-Making New Friends", "synonyms": ["WD7-Making New Friends"]}, {"conceptId": "C130818", "definition": "World Health Organization Disability Assessment Schedule 2.0 - 36-Item Self - In the past 30 days, how much difficulty did you have in: Moving around inside your home?", "preferredTerm": "WHODAS 2.0 36-item Version Self-administered - Moving Around Inside Your Home", "submissionValue": "WD7-Moving Around Inside Your Home", "synonyms": ["WD7-Moving Around Inside Your Home"]}, {"conceptId": "C130839", "definition": "World Health Organization Disability Assessment Schedule 2.0 - 36-Item Self - In the past 30 days: How much of a problem did you have because of barriers or hindrances in the world around you?", "preferredTerm": "WHODAS 2.0 36-item Version Self-administered - Problem Because of Barriers in World", "submissionValue": "WD7-Problem Because of Barriers in World", "synonyms": ["WD7-Problem Because of Barriers in World"]}, {"conceptId": "C130844", "definition": "World Health Organization Disability Assessment Schedule 2.0 - 36-Item Self - In the past 30 days: How much of a problem did your family have because of your health problems?", "preferredTerm": "WHODAS 2.0 36-item Version Self-administered - Problem Did Your Family Have", "submissionValue": "WD7-Problem Did Your Family Have", "synonyms": ["WD7-Problem Did Your Family Have"]}, {"conceptId": "C130845", "definition": "World Health Organization Disability Assessment Schedule 2.0 - 36-Item Self - In the past 30 days: How much of a problem did you have in doing things by yourself for relaxation or pleasure?", "preferredTerm": "WHODAS 2.0 36-item Version Self-administered - Problem Doing Things for Relaxation", "submissionValue": "WD7-Problem Doing Things for Relaxation", "synonyms": ["WD7-Problem Doing Things for Relaxation"]}, {"conceptId": "C130838", "definition": "World Health Organization Disability Assessment Schedule 2.0 - 36-Item Self - In the past 30 days: How much of a problem did you have in joining in community activities (for example, festivities, religious or other activities) in the same way as anyone else can?", "preferredTerm": "WHODAS 2.0 36-item Version Self-administered - Problem Joining Community Activities", "submissionValue": "WD7-Problem Joining Community Activities", "synonyms": ["WD7-Problem Joining Community Activities"]}, {"conceptId": "C130840", "definition": "World Health Organization Disability Assessment Schedule 2.0 - 36-Item Self - In the past 30 days: How much of a problem did you have living with dignity because of the attitudes and actions of others?", "preferredTerm": "WHODAS 2.0 36-item Version Self-administered - Problem Living with Dignity", "submissionValue": "WD7-Problem Living with Dignity", "synonyms": ["WD7-Problem Living with Dignity"]}, {"conceptId": "C130811", "definition": "World Health Organization Disability Assessment Schedule 2.0 - 36-Item Self - In the past 30 days, how much difficulty did you have in: Remembering to do important things?", "preferredTerm": "WHODAS 2.0 36-item Version Self-administered - Remembering to Do Important Things", "submissionValue": "WD7-Remembering to Do Important Things", "synonyms": ["WD7-Remembering to Do Important Things"]}, {"conceptId": "C130829", "definition": "World Health Organization Disability Assessment Schedule 2.0 - 36-Item Self - In the past 30 days, how much difficulty did you have in: Sexual activities?", "preferredTerm": "WHODAS 2.0 36-item Version Self-administered - Sexual Activities", "submissionValue": "WD7-Sexual Activities", "synonyms": ["WD7-Sexual Activities"]}, {"conceptId": "C130816", "definition": "World Health Organization Disability Assessment Schedule 2.0 - 36-Item Self - In the past 30 days, how much difficulty did you have in: Standing for long periods such as 30 minutes?", "preferredTerm": "WHODAS 2.0 36-item Version Self-administered - Standing for Long Periods", "submissionValue": "WD7-Standing for Long Periods", "synonyms": ["WD7-Standing for Long Periods"]}, {"conceptId": "C130817", "definition": "World Health Organization Disability Assessment Schedule 2.0 - 36-Item Self - In the past 30 days, how much difficulty did you have in: Standing up from sitting down?", "preferredTerm": "WHODAS 2.0 36-item Version Self-administered - Standing Up From Sitting Down", "submissionValue": "WD7-Standing Up From Sitting Down", "synonyms": ["WD7-Standing Up From Sitting Down"]}, {"conceptId": "C130815", "definition": "World Health Organization Disability Assessment Schedule 2.0 - 36-Item Self - In the past 30 days, how much difficulty did you have in: Starting and maintaining a conversation?", "preferredTerm": "WHODAS 2.0 36-item Version Self-administered - Starting or Maintaining Conversation", "submissionValue": "WD7-Starting/Maintaining Conversation", "synonyms": ["WD7-Starting/Maintaining Conversation"]}, {"conceptId": "C130824", "definition": "World Health Organization Disability Assessment Schedule 2.0 - 36-Item Self - In the past 30 days, how much difficulty did you have in: Staying by yourself for a few days?", "preferredTerm": "WHODAS 2.0 36-item Version Self-administered - Staying by Yourself for a Few Days", "submissionValue": "WD7-Staying by Yourself for a Few Days", "synonyms": ["WD7-Staying by Yourself for a Few Days"]}, {"conceptId": "C130841", "definition": "World Health Organization Disability Assessment Schedule 2.0 - 36-Item Self - In the past 30 days: How much time did you spend on your health condition, or its consequences?", "preferredTerm": "WHODAS 2.0 36-item Version Self-administered - Time Spend on Your Health Condition", "submissionValue": "WD7-Time Spend on Your Health Condition", "synonyms": ["WD7-Time Spend on Your Health Condition"]}, {"conceptId": "C130814", "definition": "World Health Organization Disability Assessment Schedule 2.0 - 36-Item Self - In the past 30 days, how much difficulty did you have in: Generally understanding what people say?", "preferredTerm": "WHODAS 2.0 36-item Version Self-administered - Understanding What People Say", "submissionValue": "WD7-Understanding What People Say", "synonyms": ["WD7-Understanding What People Say"]}, {"conceptId": "C130820", "definition": "World Health Organization Disability Assessment Schedule 2.0 - 36-Item Self - In the past 30 days, how much difficulty did you have in: Walking a long distance such as a kilometre [or equivalent]?", "preferredTerm": "WHODAS 2.0 36-item Version Self-administered - Walking a Long Distance", "submissionValue": "WD7-Walking a Long Distance", "synonyms": ["WD7-Walking a Long Distance"]}, {"conceptId": "C130821", "definition": "World Health Organization Disability Assessment Schedule 2.0 - 36-Item Self - in the past 30 days, how much difficulty did you have in: Washing your whole body?", "preferredTerm": "WHODAS 2.0 36-item Version Self-administered - Washing Your Whole Body", "submissionValue": "WD7-Washing Your Whole Body", "synonyms": ["WD7-Washing Your Whole Body"]}, {"conceptId": "C130834", "definition": "World Health Organization Disability Assessment Schedule 2.0 - 36-Item Self - Because of your health condition, in the past 30 days, how much difficulty did you have in: your day-to-day work/school?", "preferredTerm": "WHODAS 2.0 36-item Version Self-administered - Your Day-to-Day Work or School", "submissionValue": "WD7-Your Day-to-Day Work/School", "synonyms": ["WD7-Your Day-to-Day Work/School"]}]}