{"_links": {"parentPackage": {"href": "/mdr/ct/packages/sdtmct-2022-06-24", "title": "SDTM Controlled Terminology Package 50 Effective 2022-06-24", "type": "Terminology"}, "priorVersion": {"href": "/mdr/ct/packages/sdtmct-2022-03-25/codelists/C138215", "title": "CDISC Clinical Classification LPSS Test Code Terminology", "type": "Code List"}, "rootItem": {"href": "/mdr/root/ct/sdtmct/codelists/C138215", "title": "Version-agnostic anchor resource for codelist C138215", "type": "Root Value Domain"}, "self": {"href": "/mdr/ct/packages/sdtmct-2022-06-24/codelists/C138215", "title": "CDISC Clinical Classification LPSS Test Code Terminology", "type": "Code List"}}, "conceptId": "C138215", "definition": "Lansky Play-Performance Status Scale test code.", "extensible": "false", "name": "Lansky Play-Performance Status Scale Clinical Classification Test Code", "preferredTerm": "CDISC Clinical Classification LPSS Test Code Terminology", "submissionValue": "LPPSS1TC", "synonyms": ["Lansky Play-Performance Status Scale Clinical Classification Test Code"], "terms": [{"conceptId": "C138364", "definition": "Lansky Play-Performance Status Scale - Lansky play-performance status.", "preferredTerm": "LPSS - Lansky Play-Performance Status", "submissionValue": "LPPSS101", "synonyms": ["LPPSS1-Lansky Play-Performance Status"]}]}