{"_links": {"parentPackage": {"href": "/mdr/ct/packages/sdtmct-2022-06-24", "title": "SDTM Controlled Terminology Package 50 Effective 2022-06-24", "type": "Terminology"}, "priorVersion": {"href": "/mdr/ct/packages/sdtmct-2022-03-25/codelists/C138233", "title": "CDISC Questionnaire PedsQL Neuromuscular Module Acute Version 3.0 Parent Report for Teen Test Code Terminology", "type": "Code List"}, "rootItem": {"href": "/mdr/root/ct/sdtmct/codelists/C138233", "title": "Version-agnostic anchor resource for codelist C138233", "type": "Root Value Domain"}, "self": {"href": "/mdr/ct/packages/sdtmct-2022-06-24/codelists/C138233", "title": "CDISC Questionnaire PedsQL Neuromuscular Module Acute Version 3.0 Parent Report for Teen Test Code Terminology", "type": "Code List"}}, "conceptId": "C138233", "definition": "Pediatric Quality of Life Neuromuscular Module Acute Version 3 Teen Parent Report test code.", "extensible": "false", "name": "Pediatric Quality of Life Neuromuscular Module Acute Version 3 Teen Parent Report Questionnaire Test Code", "preferredTerm": "CDISC Questionnaire PedsQL Neuromuscular Module Acute Version 3.0 Parent Report for Teen Test Code Terminology", "submissionValue": "PQL13TC", "synonyms": ["Pediatric Quality of Life Neuromuscular Module Acute Version 3 Teen Parent Report Questionnaire Test Code"], "terms": [{"conceptId": "C138540", "definition": "Pediatric Quality of Life Neuromuscular Module Acute Version 3 Teen Parent Report - In the past 7 days, how much of a problem has this been for your teen: It is hard for my child to breathe.", "preferredTerm": "PedsQL Neuromuscular Module Acute Version 3.0 Parent Report for Teen - Hard to Breathe", "submissionValue": "PQL1301", "synonyms": ["PQL13-Hard to Breathe"]}, {"conceptId": "C138541", "definition": "Pediatric Quality of Life Neuromuscular Module Acute Version 3 Teen Parent Report - In the past 7 days, how much of a problem has this been for your teen: My child gets sick easily.", "preferredTerm": "PedsQL Neuromuscular Module Acute Version 3.0 Parent Report for Teen - Get Sick Easily", "submissionValue": "PQL1302", "synonyms": ["PQL13-Get Sick Easily"]}, {"conceptId": "C138542", "definition": "Pediatric Quality of Life Neuromuscular Module Acute Version 3 Teen Parent Report - In the past 7 days, how much of a problem has this been for your teen: My child gets sores and/or rashes.", "preferredTerm": "PedsQL Neuromuscular Module Acute Version 3.0 Parent Report for Teen - Get Sores and/or Rashes", "submissionValue": "PQL1303", "synonyms": ["PQL13-Get Sores and/or Rashes"]}, {"conceptId": "C138543", "definition": "Pediatric Quality of Life Neuromuscular Module Acute Version 3 Teen Parent Report - In the past 7 days, how much of a problem has this been for your teen: My child's legs hurt.", "preferredTerm": "PedsQL Neuromuscular Module Acute Version 3.0 Parent Report for Teen - Legs Hurt", "submissionValue": "PQL1304", "synonyms": ["PQL13-Legs Hurt"]}, {"conceptId": "C138544", "definition": "Pediatric Quality of Life Neuromuscular Module Acute Version 3 Teen Parent Report - In the past 7 days, how much of a problem has this been for your teen: My child feels tired.", "preferredTerm": "PedsQL Neuromuscular Module Acute Version 3.0 Parent Report for Teen - Feel Tired", "submissionValue": "PQL1305", "synonyms": ["PQL13-Feel Tired"]}, {"conceptId": "C138545", "definition": "Pediatric Quality of Life Neuromuscular Module Acute Version 3 Teen Parent Report - In the past 7 days, how much of a problem has this been for your teen: My child's back feels stiff.", "preferredTerm": "PedsQL Neuromuscular Module Acute Version 3.0 Parent Report for Teen - Back Feels Stiff", "submissionValue": "PQL1306", "synonyms": ["PQL13-Back Feels Stiff"]}, {"conceptId": "C138546", "definition": "Pediatric Quality of Life Neuromuscular Module Acute Version 3 Teen Parent Report - In the past 7 days, how much of a problem has this been for your teen: My child wakes up tired.", "preferredTerm": "PedsQL Neuromuscular Module Acute Version 3.0 Parent Report for Teen - Wake Up Tired", "submissionValue": "PQL1307", "synonyms": ["PQL13-Wake Up Tired"]}, {"conceptId": "C138547", "definition": "Pediatric Quality of Life Neuromuscular Module Acute Version 3 Teen Parent Report - In the past 7 days, how much of a problem has this been for your teen: My child's hands are weak.", "preferredTerm": "PedsQL Neuromuscular Module Acute Version 3.0 Parent Report for Teen - Hands Are Weak", "submissionValue": "PQL1308", "synonyms": ["PQL13-Hands Are Weak"]}, {"conceptId": "C138548", "definition": "Pediatric Quality of Life Neuromuscular Module Acute Version 3 Teen Parent Report - In the past 7 days, how much of a problem has this been for your teen: It is hard for my child to use the bathroom.", "preferredTerm": "PedsQL Neuromuscular Module Acute Version 3.0 Parent Report for Teen - Hard to Use Bathroom", "submissionValue": "PQL1309", "synonyms": ["PQL13-Hard to Use Bathroom"]}, {"conceptId": "C138549", "definition": "Pediatric Quality of Life Neuromuscular Module Acute Version 3 Teen Parent Report - In the past 7 days, how much of a problem has this been for your teen: It is hard for my child to gain or lose weight when he or she wants to.", "preferredTerm": "PedsQL Neuromuscular Module Acute Version 3.0 Parent Report for Teen - Hard to Gain or Lose Weight", "submissionValue": "PQL1310", "synonyms": ["PQL13-Hard to Gain/Lose Weight"]}, {"conceptId": "C138550", "definition": "Pediatric Quality of Life Neuromuscular Module Acute Version 3 Teen Parent Report - In the past 7 days, how much of a problem has this been for your teen: It is hard for my child to use his or her hands.", "preferredTerm": "PedsQL Neuromuscular Module Acute Version 3.0 Parent Report for Teen - Hard to Use Hands", "submissionValue": "PQL1311", "synonyms": ["PQL13-Hard to Use Hands"]}, {"conceptId": "C138551", "definition": "Pediatric Quality of Life Neuromuscular Module Acute Version 3 Teen Parent Report - In the past 7 days, how much of a problem has this been for your teen: It is hard for my child to swallow food.", "preferredTerm": "PedsQL Neuromuscular Module Acute Version 3.0 Parent Report for Teen - Hard to Swallow Food", "submissionValue": "PQL1312", "synonyms": ["PQL13-Hard to Swallow Food"]}, {"conceptId": "C138552", "definition": "Pediatric Quality of Life Neuromuscular Module Acute Version 3 Teen Parent Report - In the past 7 days, how much of a problem has this been for your teen: It takes my child a long time to bathe or shower.", "preferredTerm": "PedsQL Neuromuscular Module Acute Version 3.0 Parent Report for Teen - Long Time to Bathe or Shower", "submissionValue": "PQL1313", "synonyms": ["PQL13-Long Time to Bathe/Shower"]}, {"conceptId": "C138553", "definition": "Pediatric Quality of Life Neuromuscular Module Acute Version 3 Teen Parent Report - In the past 7 days, how much of a problem has this been for your teen: My child gets hurt accidentally.", "preferredTerm": "PedsQL Neuromuscular Module Acute Version 3.0 Parent Report for Teen - Get Hurt Accidentally", "submissionValue": "PQL1314", "synonyms": ["PQL13-Get Hurt Accidentally"]}, {"conceptId": "C138554", "definition": "Pediatric Quality of Life Neuromuscular Module Acute Version 3 Teen Parent Report - In the past 7 days, how much of a problem has this been for your teen: My child takes a long time to eat.", "preferredTerm": "PedsQL Neuromuscular Module Acute Version 3.0 Parent Report for Teen - Take Long Time to Eat", "submissionValue": "PQL1315", "synonyms": ["PQL13-Take Long Time to Eat"]}, {"conceptId": "C138555", "definition": "Pediatric Quality of Life Neuromuscular Module Acute Version 3 Teen Parent Report - In the past 7 days, how much of a problem has this been for your teen: It is hard for my child to turn him or herself during the night.", "preferredTerm": "PedsQL Neuromuscular Module Acute Version 3.0 Parent Report for Teen - Hard to Turn During Night", "submissionValue": "PQL1316", "synonyms": ["PQL13-Hard to Turn During Night"]}, {"conceptId": "C138556", "definition": "Pediatric Quality of Life Neuromuscular Module Acute Version 3 Teen Parent Report - In the past 7 days, how much of a problem has this been for your teen: It is hard for my child to go places with his or her equipment.", "preferredTerm": "PedsQL Neuromuscular Module Acute Version 3.0 Parent Report for Teen - Hard to Go Places With Equipment", "submissionValue": "PQL1317", "synonyms": ["PQL13-Hard to Go Places With Equipment"]}, {"conceptId": "C138557", "definition": "Pediatric Quality of Life Neuromuscular Module Acute Version 3 Teen Parent Report - In the past 7 days, how much of a problem has this been for your teen: It is hard for my child to tell the doctors and nurses how he or she feels.", "preferredTerm": "PedsQL Neuromuscular Module Acute Version 3.0 Parent Report for Teen - Hard Tell Doctors and Nurses How Feel", "submissionValue": "PQL1318", "synonyms": ["PQL13-Hard Tell Doctors/Nurses How Feel"]}, {"conceptId": "C138558", "definition": "Pediatric Quality of Life Neuromuscular Module Acute Version 3 Teen Parent Report - In the past 7 days, how much of a problem has this been for your teen: It is hard for my child to ask the doctors and nurses questions.", "preferredTerm": "PedsQL Neuromuscular Module Acute Version 3.0 Parent Report for Teen - Hard Ask Doctors and Nurses Questions", "submissionValue": "PQL1319", "synonyms": ["PQL13-Hard Ask Doctors/Nurses Questions"]}, {"conceptId": "C138559", "definition": "Pediatric Quality of Life Neuromuscular Module Acute Version 3 Teen Parent Report - In the past 7 days, how much of a problem has this been for your teen: It is hard for my child to explain his or her illness to other people.", "preferredTerm": "PedsQL Neuromuscular Module Acute Version 3.0 Parent Report for Teen - Hard Explain Illness to People", "submissionValue": "PQL1320", "synonyms": ["PQL13-Hard Explain Illness to People"]}, {"conceptId": "C138560", "definition": "Pediatric Quality of Life Neuromuscular Module Acute Version 3 Teen Parent Report - In the past 7 days, how much of a problem has this been for your teen: It is hard for our family to plan activities like vacations.", "preferredTerm": "PedsQL Neuromuscular Module Acute Version 3.0 Parent Report for Teen - Hard for Family to Plan Activities", "submissionValue": "PQL1321", "synonyms": ["PQL13-Hard for Family to Plan Activities"]}, {"conceptId": "C138561", "definition": "Pediatric Quality of Life Neuromuscular Module Acute Version 3 Teen Parent Report - In the past 7 days, how much of a problem has this been for your teen: It is hard for our family to get enough rest.", "preferredTerm": "PedsQL Neuromuscular Module Acute Version 3.0 Parent Report for Teen - Hard for Family to Rest", "submissionValue": "PQL1322", "synonyms": ["PQL13-Hard for Family to Rest"]}, {"conceptId": "C138562", "definition": "Pediatric Quality of Life Neuromuscular Module Acute Version 3 Teen Parent Report - In the past 7 days, how much of a problem has this been for your teen: I think money is a problem in our family.", "preferredTerm": "PedsQL Neuromuscular Module Acute Version 3.0 Parent Report for Teen - Money Problem in Our Family", "submissionValue": "PQL1323", "synonyms": ["PQL13-Money Problem in Our Family"]}, {"conceptId": "C138563", "definition": "Pediatric Quality of Life Neuromuscular Module Acute Version 3 Teen Parent Report - In the past 7 days, how much of a problem has this been for your teen: I think our family has a lot of problems.", "preferredTerm": "PedsQL Neuromuscular Module Acute Version 3.0 Parent Report for Teen - Family Has Lot of Problems", "submissionValue": "PQL1324", "synonyms": ["PQL13-Family Has Lot of Problems"]}, {"conceptId": "C138564", "definition": "Pediatric Quality of Life Neuromuscular Module Acute Version 3 Teen Parent Report - In the past 7 days, how much of a problem has this been for your teen: My child does not have the equipment he or she needs.", "preferredTerm": "PedsQL Neuromuscular Module Acute Version 3.0 Parent Report for Teen - Do Not Have Equipment Need", "submissionValue": "PQL1325", "synonyms": ["PQL13-Do Not Have Equipment Need"]}]}