{"_links": {"parentPackage": {"href": "/mdr/ct/packages/sdtmct-2022-06-24", "title": "SDTM Controlled Terminology Package 50 Effective 2022-06-24", "type": "Terminology"}, "priorVersion": {"href": "/mdr/ct/packages/sdtmct-2022-03-25/codelists/C141671", "title": "CDISC Questionnaire IPAQ Short Last 7 Days Telephone Format Version Test Code Terminology", "type": "Code List"}, "rootItem": {"href": "/mdr/root/ct/sdtmct/codelists/C141671", "title": "Version-agnostic anchor resource for codelist C141671", "type": "Root Value Domain"}, "self": {"href": "/mdr/ct/packages/sdtmct-2022-06-24/codelists/C141671", "title": "CDISC Questionnaire IPAQ Short Last 7 Days Telephone Format Version Test Code Terminology", "type": "Code List"}}, "conceptId": "C141671", "definition": "International Physical Activity Questionnaire (August 2002) Short Last 7 Days Telephone Format test code.", "extensible": "false", "name": "International Physical Activity Questionnaire (August 2002) Short Last 7 Days Telephone Format Questionnaire Test Code", "preferredTerm": "CDISC Questionnaire IPAQ Short Last 7 Days Telephone Format Version Test Code Terminology", "submissionValue": "IPAQ01TC", "synonyms": ["International Physical Activity Questionnaire (August 2002) Short Last 7 Days Telephone Format Questionnaire Test Code"], "terms": [{"conceptId": "C141848", "definition": "International Physical Activity Questionnaire (August 2002) - Short Last 7 Days Telephone Format - During the last 7 days, on how many days did you do vigorous physical activities?", "preferredTerm": "IPAQ Short Last 7 Days Telephone Format Version - Days Vigorous Physical Activities", "submissionValue": "IPA0101", "synonyms": ["IPA01-Days Vigorous Physical Activities"]}, {"conceptId": "C141849", "definition": "International Physical Activity Questionnaire (August 2002) - Short Last 7 Days Telephone Format - How much time did you usually spend doing vigorous physical activities on one of those days?: Hours and minutes per day.", "preferredTerm": "IPAQ Short Last 7 Days Telephone Format Version - Vigorous Physical Hr and Min per Day", "submissionValue": "IPA0102A", "synonyms": ["IPA01-Vigorous Physical Hr & Min per Day"]}, {"conceptId": "C141851", "definition": "International Physical Activity Questionnaire (August 2002) - Short Last 7 Days Telephone Format - How much time in total would you spend over the last 7 days doing vigorous physical activities?: Hours and minutes per week.", "preferredTerm": "IPAQ Short Last 7 Days Telephone Format Version - Total Vigorous Hr and Min per Week", "submissionValue": "IPA0102B", "synonyms": ["IPA01-Total Vigorous Hr & Min per Week"]}, {"conceptId": "C141853", "definition": "International Physical Activity Questionnaire (August 2002) - Short Last 7 Days Telephone Format - During the last 7 days, on how many days did you do moderate physical activities?", "preferredTerm": "IPAQ Short Last 7 Days Telephone Format Version - Days Moderate Physical Activities", "submissionValue": "IPA0103", "synonyms": ["IPA01-Days Moderate Physical Activities"]}, {"conceptId": "C141854", "definition": "International Physical Activity Questionnaire (August 2002) - Short Last 7 Days Telephone Format - How much time did you usually spend doing moderate physical activities on one of those days?: Hours and minutes per day.", "preferredTerm": "IPAQ Short Last 7 Days Telephone Format Version - Moderate Physical Hr and Min per Day", "submissionValue": "IPA0104A", "synonyms": ["IPA01-Moderate Physical Hr & Min per Day"]}, {"conceptId": "C141856", "definition": "International Physical Activity Questionnaire (August 2002) - Short Last 7 Days Telephone Format - What is the total amount of time you spent over the last 7 days doing moderate physical activities?: Hours and minutes per week.", "preferredTerm": "IPAQ Short Last 7 Days Telephone Format Version - Total Moderate Hr and Min per Week", "submissionValue": "IPA0104B", "synonyms": ["IPA01-Total Moderate Hr & Min per Week"]}, {"conceptId": "C141858", "definition": "International Physical Activity Questionnaire (August 2002) - Short Last 7 Days Telephone Format - During the last 7 days, on how many days did you walk for at least 10 minutes at a time?", "preferredTerm": "IPAQ Short Last 7 Days Telephone Format Version - Days Walk at Least 10 Minutes", "submissionValue": "IPA0105", "synonyms": ["IPA01-Days Walk at Least 10 Minutes"]}, {"conceptId": "C141859", "definition": "International Physical Activity Questionnaire (August 2002) - Short Last 7 Days Telephone Format - How much time did you usually spend walking on one of those days?: Hours and minutes per day.", "preferredTerm": "IPAQ Short Last 7 Days Telephone Format Version - Walking Hr and Min per Day", "submissionValue": "IPA0106A", "synonyms": ["IPA01-Walking Hr & Min per Day"]}, {"conceptId": "C141861", "definition": "International Physical Activity Questionnaire (August 2002) - Short Last 7 Days Telephone Format - What is the total amount of time you spent walking over the last 7 days?: Hours and minutes per week.", "preferredTerm": "IPAQ Short Last 7 Days Telephone Format Version - Total Walking Hr and Min per Week", "submissionValue": "IPA0106B", "synonyms": ["IPA01-Total Walking Hr & Min per Week"]}, {"conceptId": "C141863", "definition": "International Physical Activity Questionnaire (August 2002) - Short Last 7 Days Telephone Format - During the last 7 days, how much time did you usually spend sitting on a weekday?: Hours and minutes per weekday.", "preferredTerm": "IPAQ Short Last 7 Days Telephone Format Version - Sitting Hr and Min per Weekday", "submissionValue": "IPA0107A", "synonyms": ["IPA01-Sitting Hr & Min per Weekday"]}, {"conceptId": "C141865", "definition": "International Physical Activity Questionnaire (August 2002) - Short Last 7 Days Telephone Format - What is the total amount of time you spent sitting last Wednesday?: Hours and minutes on Wednesday.", "preferredTerm": "IPAQ Short Last 7 Days Telephone Format Version - Total Sitting Hr and Min Wednesday", "submissionValue": "IPA0107B", "synonyms": ["IPA01-Total Sitting Hr & Min Wednesday"]}]}