{"_links": {"parentPackage": {"href": "/mdr/ct/packages/sdtmct-2022-06-24", "title": "SDTM Controlled Terminology Package 50 Effective 2022-06-24", "type": "Terminology"}, "priorVersion": {"href": "/mdr/ct/packages/sdtmct-2022-03-25/codelists/C141652", "title": "CDISC Clinical Classification VALG Test Name Terminology", "type": "Code List"}, "rootItem": {"href": "/mdr/root/ct/sdtmct/codelists/C141652", "title": "Version-agnostic anchor resource for codelist C141652", "type": "Root Value Domain"}, "self": {"href": "/mdr/ct/packages/sdtmct-2022-06-24/codelists/C141652", "title": "CDISC Clinical Classification VALG Test Name Terminology", "type": "Code List"}}, "conceptId": "C141652", "definition": "Veterans Administration Lung Study Group test name.", "extensible": "false", "name": "Veterans Administration Lung Study Group Clinical Classification Test Name", "preferredTerm": "CDISC Clinical Classification VALG Test Name Terminology", "submissionValue": "VALG01TN", "synonyms": ["Veterans Administration Lung Study Group Clinical Classification Test Name"], "terms": [{"conceptId": "C141695", "definition": "Veterans Administration Lung Study Group - Cancer stage.", "preferredTerm": "VALG - Cancer Stage", "submissionValue": "VALG01-Cancer Stage", "synonyms": ["VALG01-Cancer Stage"]}]}