{"_links": {"parentPackage": {"href": "/mdr/ct/packages/sdtmct-2022-06-24", "title": "SDTM Controlled Terminology Package 50 Effective 2022-06-24", "type": "Terminology"}, "priorVersion": {"href": "/mdr/ct/packages/sdtmct-2022-03-25/codelists/C141655", "title": "CDISC Clinical Classification AJCC v7 Test Code Terminology", "type": "Code List"}, "rootItem": {"href": "/mdr/root/ct/sdtmct/codelists/C141655", "title": "Version-agnostic anchor resource for codelist C141655", "type": "Root Value Domain"}, "self": {"href": "/mdr/ct/packages/sdtmct-2022-06-24/codelists/C141655", "title": "CDISC Clinical Classification AJCC v7 Test Code Terminology", "type": "Code List"}}, "conceptId": "C141655", "definition": "AJCC TNM Staging System 7th Edition test code.", "extensible": "false", "name": "AJCC TNM Staging System 7th Edition Clinical Classification Test Code", "preferredTerm": "CDISC Clinical Classification AJCC v7 Test Code Terminology", "submissionValue": "AJCC1TC", "synonyms": ["AJCC TNM Staging System 7th Edition Clinical Classification Test Code"], "terms": [{"conceptId": "C141696", "definition": "AJCC TNM Staging System 7th Edition - Primary tumor (T).", "preferredTerm": "AJCC v7 - Primary Tumor (T)", "submissionValue": "AJCC101", "synonyms": ["AJCC1-Primary Tumor (T)"]}, {"conceptId": "C141697", "definition": "AJCC TNM Staging System 7th Edition - Regional lymph nodes (N).", "preferredTerm": "AJCC v7 - Regional Lymph Nodes (N)", "submissionValue": "AJCC102", "synonyms": ["AJCC1-Regional Lymph Nodes (N)"]}, {"conceptId": "C141698", "definition": "AJCC TNM Staging System 7th Edition - Distant metastasis (M).", "preferredTerm": "AJCC v7 - Distant Metastasis (M)", "submissionValue": "AJCC103", "synonyms": ["AJCC1-Distant Metastasis (M)"]}, {"conceptId": "C141699", "definition": "AJCC TNM Staging System 7th Edition - Anatomic stage.", "preferredTerm": "AJCC v7 - Anatomic Stage", "submissionValue": "AJCC104", "synonyms": ["AJCC1-Anatomic Stage"]}, {"conceptId": "C176205", "definition": "AJCC TNM Staging System 7th Edition - Residual tumor (R).", "preferredTerm": "AJCC v7 - Residual Tumor (R)", "submissionValue": "AJCC105", "synonyms": ["AJCC1-Residual Tumor (R)"]}]}