{"_links": {"parentPackage": {"href": "/mdr/ct/packages/sdtmct-2022-06-24", "title": "SDTM Controlled Terminology Package 50 Effective 2022-06-24", "type": "Terminology"}, "priorVersion": {"href": "/mdr/ct/packages/sdtmct-2022-03-25/codelists/C142179", "title": "CDISC SDTM Arm Null Reason Response Terminology", "type": "Code List"}, "rootItem": {"href": "/mdr/root/ct/sdtmct/codelists/C142179", "title": "Version-agnostic anchor resource for codelist C142179", "type": "Root Value Domain"}, "self": {"href": "/mdr/ct/packages/sdtmct-2022-06-24/codelists/C142179", "title": "CDISC SDTM Arm Null Reason Response Terminology", "type": "Code List"}}, "conceptId": "C142179", "definition": "Terminology relevant to the reason for why an arm and/or an actual arm is null.", "extensible": "true", "name": "Arm Null Reason", "preferredTerm": "CDISC SDTM Arm Null Reason Response Terminology", "submissionValue": "ARMNULRS", "synonyms": ["Arm Null Reason"], "terms": [{"conceptId": "C142238", "definition": "The subject, who met eligibility criteria, was assigned to an arm but was not treated. (NCI)", "preferredTerm": "Subject Assigned to Arm But Not Treated", "submissionValue": "ASSIGNED, NOT TREATED"}, {"conceptId": "C142239", "definition": "The subject, who met eligibility criteria, was not assigned to an arm and was not treated. (NCI)", "preferredTerm": "Subject Not Assigned to Arm", "submissionValue": "NOT ASSIGNED"}, {"conceptId": "C49628", "definition": "The potential subject who does not meet eligibility criteria during the screening period.", "preferredTerm": "Trial Screen Failure", "submissionValue": "SCREEN FAILURE"}, {"conceptId": "C142240", "definition": "The subject, who met eligibility criteria, was assigned to an arm but received treatment not associated with any of the planned arms.", "preferredTerm": "Subject Received Unplanned Treatment", "submissionValue": "UNPLANNED TREATMENT"}]}