{"_links": {"parentPackage": {"href": "/mdr/ct/packages/sdtmct-2022-06-24", "title": "SDTM Controlled Terminology Package 50 Effective 2022-06-24", "type": "Terminology"}, "priorVersion": {"href": "/mdr/ct/packages/sdtmct-2022-03-25/codelists/C150790", "title": "CDISC Questionnaire SIQ Test Code Terminology", "type": "Code List"}, "rootItem": {"href": "/mdr/root/ct/sdtmct/codelists/C150790", "title": "Version-agnostic anchor resource for codelist C150790", "type": "Root Value Domain"}, "self": {"href": "/mdr/ct/packages/sdtmct-2022-06-24/codelists/C150790", "title": "CDISC Questionnaire SIQ Test Code Terminology", "type": "Code List"}}, "conceptId": "C150790", "definition": "Suicidal Ideation Questionnaire test code.", "extensible": "false", "name": "Suicidal Ideation Questionnaire Test Code", "preferredTerm": "CDISC Questionnaire SIQ Test Code Terminology", "submissionValue": "SIQ01TC", "synonyms": ["Suicidal Ideation Questionnaire Test Code"], "terms": [{"conceptId": "C151326", "definition": "Suicidal Ideation Questionnaire - I thought it would be better if I was not alive.", "preferredTerm": "SIQ - Would Be Better If I Was Not Alive", "submissionValue": "SIQ0101", "synonyms": ["SIQ01-Would Be Better If I Was Not Alive"]}, {"conceptId": "C151327", "definition": "Suicidal Ideation Questionnaire - I thought about killing myself.", "preferredTerm": "SIQ - I Thought About Killing Myself", "submissionValue": "SIQ0102", "synonyms": ["SIQ01-I Thought About Killing Myself"]}, {"conceptId": "C151328", "definition": "Suicidal Ideation Questionnaire - I thought about how I would kill myself.", "preferredTerm": "SIQ - I Thought How I Would Kill Myself", "submissionValue": "SIQ0103", "synonyms": ["SIQ01-I Thought How I Would Kill Myself"]}, {"conceptId": "C151329", "definition": "Suicidal Ideation Questionnaire - I thought about when I would kill myself.", "preferredTerm": "SIQ - I Thought When I Would Kill Myself", "submissionValue": "SIQ0104", "synonyms": ["SIQ01-I Thought When I Would Kill Myself"]}, {"conceptId": "C151330", "definition": "Suicidal Ideation Questionnaire - I thought about people dying.", "preferredTerm": "SIQ - I Thought About People Dying", "submissionValue": "SIQ0105", "synonyms": ["SIQ01-I Thought About People Dying"]}, {"conceptId": "C151331", "definition": "Suicidal Ideation Questionnaire - I thought about death.", "preferredTerm": "SIQ - I Thought About Death", "submissionValue": "SIQ0106", "synonyms": ["SIQ01-I Thought About Death"]}, {"conceptId": "C151332", "definition": "Suicidal Ideation Questionnaire - I thought about what to write in a suicide note.", "preferredTerm": "SIQ - What to Write in a Suicide Note", "submissionValue": "SIQ0107", "synonyms": ["SIQ01-What to Write in a Suicide Note"]}, {"conceptId": "C151333", "definition": "Suicidal Ideation Questionnaire - I thought about writing a will.", "preferredTerm": "SIQ - I Thought About Writing a Will", "submissionValue": "SIQ0108", "synonyms": ["SIQ01-I Thought About Writing a Will"]}, {"conceptId": "C151334", "definition": "Suicidal Ideation Questionnaire - I thought about telling people I plan to kill myself.", "preferredTerm": "SIQ - Tell People I Plan to Kill Myself", "submissionValue": "SIQ0109", "synonyms": ["SIQ01-Tell People I Plan to Kill Myself"]}, {"conceptId": "C151335", "definition": "Suicidal Ideation Questionnaire - I thought that people would be happier if I were not around.", "preferredTerm": "SIQ - People Happier If Not Around", "submissionValue": "SIQ0110", "synonyms": ["SIQ01-People Happier If Not Around"]}, {"conceptId": "C151336", "definition": "Suicidal Ideation Questionnaire - I thought about how people would feel if I killed myself.", "preferredTerm": "SIQ - How People Feel If I Killed Myself", "submissionValue": "SIQ0111", "synonyms": ["SIQ01-How People Feel If I Killed Myself"]}, {"conceptId": "C151337", "definition": "Suicidal Ideation Questionnaire - I wished I were dead.", "preferredTerm": "SIQ - I Wished I Were Dead", "submissionValue": "SIQ0112", "synonyms": ["SIQ01-I Wished I Were Dead"]}, {"conceptId": "C151338", "definition": "Suicidal Ideation Questionnaire - I thought about how easy it would be to end it all.", "preferredTerm": "SIQ - How Easy It Would Be to End It All", "submissionValue": "SIQ0113", "synonyms": ["SIQ01-How Easy It Would Be to End It All"]}, {"conceptId": "C151339", "definition": "Suicidal Ideation Questionnaire - I thought that killing myself would solve my problems.", "preferredTerm": "SIQ - Killing Myself Would Solve Problem", "submissionValue": "SIQ0114", "synonyms": ["SIQ01-Killing Myself Would Solve Problem"]}, {"conceptId": "C151340", "definition": "Suicidal Ideation Questionnaire - I thought others would be better off if I was dead.", "preferredTerm": "SIQ - Others Better Off If I Was Dead", "submissionValue": "SIQ0115", "synonyms": ["SIQ01-Others Better Off If I Was Dead"]}, {"conceptId": "C151341", "definition": "Suicidal Ideation Questionnaire - I wished I had the nerve to kill myself.", "preferredTerm": "SIQ - Wished I Had the Nerve Kill Myself", "submissionValue": "SIQ0116", "synonyms": ["SIQ01-Wished I Had the Nerve Kill Myself"]}, {"conceptId": "C151342", "definition": "Suicidal Ideation Questionnaire - I wished that I had never been born.", "preferredTerm": "SIQ - Wished I Had Never Been Born", "submissionValue": "SIQ0117", "synonyms": ["SIQ01-Wished I Had Never Been Born"]}, {"conceptId": "C151343", "definition": "Suicidal Ideation Questionnaire - I thought if I had the chance I would kill myself.", "preferredTerm": "SIQ - If Had Chance I Would Kill Myself", "submissionValue": "SIQ0118", "synonyms": ["SIQ01-If Had Chance I Would Kill Myself"]}, {"conceptId": "C151344", "definition": "Suicidal Ideation Questionnaire - I thought about ways people kill themselves.", "preferredTerm": "SIQ - Thought Way People Kill Themselves", "submissionValue": "SIQ0119", "synonyms": ["SIQ01-Thought Way People Kill Themselves"]}, {"conceptId": "C151345", "definition": "Suicidal Ideation Questionnaire - I thought about killing myself, but would not do it.", "preferredTerm": "SIQ - Thought Killing Myself Not Do It", "submissionValue": "SIQ0120", "synonyms": ["SIQ01-Thought Killing Myself Not Do It"]}, {"conceptId": "C151346", "definition": "Suicidal Ideation Questionnaire - I thought about having a bad accident.", "preferredTerm": "SIQ - Thought About Having Bad Accident", "submissionValue": "SIQ0121", "synonyms": ["SIQ01-Thought About Having Bad Accident"]}, {"conceptId": "C151347", "definition": "Suicidal Ideation Questionnaire - I thought that life was not worth living.", "preferredTerm": "SIQ - Thought Life Was Not Worth Living", "submissionValue": "SIQ0122", "synonyms": ["SIQ01-Thought Life Was Not Worth Living"]}, {"conceptId": "C151348", "definition": "Suicidal Ideation Questionnaire - I thought that my life was too rotten to continue.", "preferredTerm": "SIQ - My Life Was Too Rotten to Continue", "submissionValue": "SIQ0123", "synonyms": ["SIQ01-My Life Was Too Rotten to Continue"]}, {"conceptId": "C151349", "definition": "Suicidal Ideation Questionnaire - I thought that the only way to be noticed is to kill myself.", "preferredTerm": "SIQ - Only Way Be Noticed Is Kill Myself", "submissionValue": "SIQ0124", "synonyms": ["SIQ01-Only Way Be Noticed Is Kill Myself"]}, {"conceptId": "C151350", "definition": "Suicidal Ideation Questionnaire - I thought that if I killed myself people would realize I was worth caring about.", "preferredTerm": "SIQ - People Realize Worth Caring About", "submissionValue": "SIQ0125", "synonyms": ["SIQ01-People Realize Worth Caring About"]}, {"conceptId": "C151351", "definition": "Suicidal Ideation Questionnaire - I thought that no one cared if I lived or died.", "preferredTerm": "SIQ - No One Cared If I Lived or Died", "submissionValue": "SIQ0126", "synonyms": ["SIQ01-No One Cared If I Lived or Died"]}, {"conceptId": "C151352", "definition": "Suicidal Ideation Questionnaire - I thought about hurting myself but not really killing myself.", "preferredTerm": "SIQ - Hurting Myself but Not Kill Myself", "submissionValue": "SIQ0127", "synonyms": ["SIQ01-Hurting Myself but Not Kill Myself"]}, {"conceptId": "C151353", "definition": "Suicidal Ideation Questionnaire - I wondered if I had the nerve to kill myself.", "preferredTerm": "SIQ - Wondered If Had Nerve Kill Myself", "submissionValue": "SIQ0128", "synonyms": ["SIQ01-Wondered If Had Nerve Kill Myself"]}, {"conceptId": "C151354", "definition": "Suicidal Ideation Questionnaire - I thought that if things did not get better I would kill myself.", "preferredTerm": "SIQ - If Things Not Better I Kill Myself", "submissionValue": "SIQ0129", "synonyms": ["SIQ01-If Things Not Better I Kill Myself"]}, {"conceptId": "C151355", "definition": "Suicidal Ideation Questionnaire - I wished that I had the right to kill myself.", "preferredTerm": "SIQ - Wished I Had Right to Kill Myself", "submissionValue": "SIQ0130", "synonyms": ["SIQ01-Wished I Had Right to Kill Myself"]}, {"conceptId": "C151356", "definition": "Suicidal Ideation Questionnaire - TS (total raw score).", "preferredTerm": "SIQ - TS", "submissionValue": "SIQ0131", "synonyms": ["SIQ01-TS"]}, {"conceptId": "C151357", "definition": "Suicidal Ideation Questionnaire - Total standardization sample %.", "preferredTerm": "SIQ - Total %", "submissionValue": "SIQ0132", "synonyms": ["SIQ01-Total %"]}, {"conceptId": "C151358", "definition": "Suicidal Ideation Questionnaire - Specific standardization %: Sample 1.", "preferredTerm": "SIQ - Specific %: Standard Sample 1", "submissionValue": "SIQ0133", "synonyms": ["SIQ01-Specific %: Standard Sample 1"]}, {"conceptId": "C151359", "definition": "Suicidal Ideation Questionnaire - Specific standardization %: Sample 2.", "preferredTerm": "SIQ - Specific %: Standard Sample 2", "submissionValue": "SIQ0134", "synonyms": ["SIQ01-Specific %: Standard Sample 2"]}, {"conceptId": "C151360", "definition": "Suicidal Ideation Questionnaire - Specific standardization %: Sample 3.", "preferredTerm": "SIQ - Specific %: Standard Sample 3", "submissionValue": "SIQ0135", "synonyms": ["SIQ01-Specific %: Standard Sample 3"]}, {"conceptId": "C151361", "definition": "Suicidal Ideation Questionnaire - Critical item 1.", "preferredTerm": "SIQ - Critical Item 1", "submissionValue": "SIQ0136", "synonyms": ["SIQ01-Critical Item 1"]}, {"conceptId": "C151362", "definition": "Suicidal Ideation Questionnaire - Critical item 2.", "preferredTerm": "SIQ - Critical Item 2", "submissionValue": "SIQ0137", "synonyms": ["SIQ01-Critical Item 2"]}, {"conceptId": "C151363", "definition": "Suicidal Ideation Questionnaire - Critical item 3.", "preferredTerm": "SIQ - Critical Item 3", "submissionValue": "SIQ0138", "synonyms": ["SIQ01-Critical Item 3"]}, {"conceptId": "C151364", "definition": "Suicidal Ideation Questionnaire - Critical item 4.", "preferredTerm": "SIQ - Critical Item 4", "submissionValue": "SIQ0139", "synonyms": ["SIQ01-Critical Item 4"]}, {"conceptId": "C151365", "definition": "Suicidal Ideation Questionnaire - Critical item 5.", "preferredTerm": "SIQ - Critical Item 5", "submissionValue": "SIQ0140", "synonyms": ["SIQ01-Critical Item 5"]}, {"conceptId": "C151366", "definition": "Suicidal Ideation Questionnaire - Critical item 6.", "preferredTerm": "SIQ - Critical Item 6", "submissionValue": "SIQ0141", "synonyms": ["SIQ01-Critical Item 6"]}, {"conceptId": "C151367", "definition": "Suicidal Ideation Questionnaire - Critical item 7.", "preferredTerm": "SIQ - Critical Item 7", "submissionValue": "SIQ0142", "synonyms": ["SIQ01-Critical Item 7"]}, {"conceptId": "C151368", "definition": "Suicidal Ideation Questionnaire - Critical item 8.", "preferredTerm": "SIQ - Critical Item 8", "submissionValue": "SIQ0143", "synonyms": ["SIQ01-Critical Item 8"]}]}