{"_links": {"parentPackage": {"href": "/mdr/ct/packages/sdtmct-2022-06-24", "title": "SDTM Controlled Terminology Package 50 Effective 2022-06-24", "type": "Terminology"}, "priorVersion": {"href": "/mdr/ct/packages/sdtmct-2022-03-25/codelists/C158113", "title": "CDISC SDTM QRS Method Terminology", "type": "Code List"}, "rootItem": {"href": "/mdr/root/ct/sdtmct/codelists/C158113", "title": "Version-agnostic anchor resource for codelist C158113", "type": "Root Value Domain"}, "self": {"href": "/mdr/ct/packages/sdtmct-2022-06-24/codelists/C158113", "title": "CDISC SDTM QRS Method Terminology", "type": "Code List"}}, "conceptId": "C158113", "definition": "Terminology relevant to the technique or procedure used to determine how the response or result for an item in a questionnaire, rating, or scale was determined.", "extensible": "true", "name": "QRS Method", "preferredTerm": "CDISC SDTM QRS Method Terminology", "submissionValue": "QRSMTHOD", "synonyms": ["QRS Method"], "terms": [{"conceptId": "C172597", "definition": "A questionnaire, rating and scale (QRS) data type using a 3-point Likert Scale.", "preferredTerm": "Likert Scale 3-Point", "submissionValue": "LIKERT SCALE 3-POINT", "synonyms": ["Likert Scale 3-Point"]}, {"conceptId": "C172596", "definition": "A questionnaire, rating and scale (QRS) data type using a 5-point Likert Scale.", "preferredTerm": "Likert Scale 5-Point", "submissionValue": "LIKERT SCALE 5-POINT", "synonyms": ["Likert Scale 5-Point"]}, {"conceptId": "C166090", "definition": "A questionnaire, rating and scale (QRS) data type using a 7-point Likert Scale.", "preferredTerm": "Likert Scale 7-Point", "submissionValue": "LIKERT SCALE 7-POINT", "synonyms": ["Likert Scale 7-Point"]}, {"conceptId": "C158270", "definition": "A questionnaire, rating and scale (QRS) data type using a 11-point numerical rating scale (NRS).", "preferredTerm": "Numerical Rating Scale 11-Point", "submissionValue": "NUMERICAL RATING SCALE 11-POINT", "synonyms": ["NRS 11-Point", "Numeric Rating Scale 11-Point"]}, {"conceptId": "C172598", "definition": "A questionnaire, rating and scale (QRS) data type using a 21-point numerical rating scale (NRS).", "preferredTerm": "Numerical Rating Scale 21-Point", "submissionValue": "NUMERICAL RATING SCALE 21-POINT", "synonyms": ["NRS 21-Point", "Numeric Rating Scale 21-Point"]}, {"conceptId": "C174360", "definition": "A questionnaire, rating and scale (QRS) data type using a 5-point numerical rating scale (NRS).", "preferredTerm": "Numerical Rating Scale 5-Point", "submissionValue": "NUMERICAL RATING SCALE 5-POINT", "synonyms": ["NRS 5-Point", "Numeric Rating Scale 5-Point"]}, {"conceptId": "C166091", "definition": "A questionnaire, rating and scale (QRS) data type using a 6-point numerical rating scale (NRS).", "preferredTerm": "Numerical Rating Scale 6-Point", "submissionValue": "NUMERICAL RATING SCALE 6-POINT", "synonyms": ["NRS 6-Point", "Numeric Rating Scale 6-Point"]}, {"conceptId": "C187967", "definition": "A questionnaire, rating and scale (QRS) data type using a 7-point numerical rating scale (NRS).", "preferredTerm": "Numerical Rating Scale 7-Point", "submissionValue": "NUMERICAL RATING SCALE 7-POINT", "synonyms": ["NRS 7-Point", "Numeric Rating Scale 7-Point"]}, {"conceptId": "C158271", "definition": "A questionnaire, rating and scale (QRS) data type using a 4-point verbal rating scale (VRS).", "preferredTerm": "Verbal Rating Scale 4-Point", "submissionValue": "VERBAL RATING SCALE 4-POINT", "synonyms": ["VRS 4-Point"]}, {"conceptId": "C158272", "definition": "A questionnaire, rating and scale (QRS) data type using a 5-point verbal rating scale (VRS).", "preferredTerm": "Verbal Rating Scale 5-Point", "submissionValue": "VERBAL RATING SCALE 5-POINT", "synonyms": ["VRS 5-Point"]}, {"conceptId": "C158273", "definition": "A questionnaire, rating and scale (QRS) data type using a 6-point verbal rating scale (VRS).", "preferredTerm": "Verbal Rating Scale 6-Point", "submissionValue": "VERBAL RATING SCALE 6-POINT", "synonyms": ["VRS 6-Point"]}, {"conceptId": "C187968", "definition": "A questionnaire, rating and scale (QRS) data type using a visual analog scale (VAS) 0-100 scale with no units.", "preferredTerm": "Visual Analog Scale (0-100)", "submissionValue": "VISUAL ANALOG SCALE (0-100)", "synonyms": ["VAS (0-100)"]}, {"conceptId": "C179787", "definition": "A questionnaire, rating and scale (QRS) data type using a visual analog scale (VAS) 1-10 scale with no units.", "preferredTerm": "Visual Analog Scale (1-10)", "submissionValue": "VISUAL ANALOG SCALE (1-10)", "synonyms": ["VAS (1-10)"]}, {"conceptId": "C179788", "definition": "A questionnaire, rating and scale (QRS) data type using a visual analog scale (VAS) 1-100 scale with no units.", "preferredTerm": "Visual Analog Scale (1-100)", "submissionValue": "VISUAL ANALOG SCALE (1-100)", "synonyms": ["VAS (1-100)"]}, {"conceptId": "C179789", "definition": "A questionnaire, rating and scale (QRS) data type using a visual analog scale (VAS) 1-50 scale with no units.", "preferredTerm": "Visual Analog Scale (1-50)", "submissionValue": "VISUAL ANALOG SCALE (1-50)", "synonyms": ["VAS (1-50)"]}, {"conceptId": "C172599", "definition": "A questionnaire, rating and scale (QRS) data type using a visual analog scale (VAS) 10 cm scale.", "preferredTerm": "Visual Analog Scale (10 cm)", "submissionValue": "VISUAL ANALOG SCALE (10 CM)", "synonyms": ["VAS (10 cm)"]}, {"conceptId": "C158268", "definition": "A questionnaire, rating and scale (QRS) data type using a visual analog scale (VAS) 100 mm scale.", "preferredTerm": "Visual Analog Scale (100 mm)", "submissionValue": "VISUAL ANALOG SCALE (100 MM)", "synonyms": ["VAS (100 mm)"]}, {"conceptId": "C158269", "definition": "A questionnaire, rating and scale (QRS) data type using a visual analog scale (VAS) 50 mm scale.", "preferredTerm": "Visual Analog Scale (50 mm)", "submissionValue": "VISUAL ANALOG SCALE (50 MM)", "synonyms": ["VAS (50 mm)"]}]}