{"_links": {"parentPackage": {"href": "/mdr/ct/packages/sdtmct-2022-06-24", "title": "SDTM Controlled Terminology Package 50 Effective 2022-06-24", "type": "Terminology"}, "priorVersion": {"href": "/mdr/ct/packages/sdtmct-2022-03-25/codelists/C163384", "title": "CDISC Questionnaire ADSD Version 1.0 Test Name Terminology", "type": "Code List"}, "rootItem": {"href": "/mdr/root/ct/sdtmct/codelists/C163384", "title": "Version-agnostic anchor resource for codelist C163384", "type": "Root Value Domain"}, "self": {"href": "/mdr/ct/packages/sdtmct-2022-06-24/codelists/C163384", "title": "CDISC Questionnaire ADSD Version 1.0 Test Name Terminology", "type": "Code List"}}, "conceptId": "C163384", "definition": "Asthma Daytime Symptom Diary v1.0 test name.", "extensible": "false", "name": "Asthma Daytime Symptom Diary v1.0 Questionnaire Test Name", "preferredTerm": "CDISC Questionnaire ADSD Version 1.0 Test Name Terminology", "submissionValue": "ADSD01TN", "synonyms": ["Asthma Daytime Symptom Diary v1.0 Questionnaire Test Name"], "terms": [{"conceptId": "C163818", "definition": "Asthma Daytime Symptom Diary v1.0 - Please rate your difficulty breathing at its worst since you got up this morning.", "preferredTerm": "ADSD Version 1.0 - Rate Breathing at Its Worst", "submissionValue": "ADSD01-Rate Breathing at Its Worst", "synonyms": ["ADSD01-Rate Breathing at Its Worst"]}, {"conceptId": "C163822", "definition": "Asthma Daytime Symptom Diary v1.0 - Please rate your chest pain at its worst since you got up this morning.", "preferredTerm": "ADSD Version 1.0 - Rate Chest Pain at Its Worst", "submissionValue": "ADSD01-Rate Chest Pain at Its Worst", "synonyms": ["ADSD01-Rate Chest Pain at Its Worst"]}, {"conceptId": "C163821", "definition": "Asthma Daytime Symptom Diary v1.0 - Please rate your chest tightness at its worst since you got up this morning.", "preferredTerm": "ADSD Version 1.0 - Rate Chest Tightness at Its Worst", "submissionValue": "ADSD01-Rate Chest Tightness at Its Worst", "synonyms": ["ADSD01-Rate Chest Tightness at Its Worst"]}, {"conceptId": "C163823", "definition": "Asthma Daytime Symptom Diary v1.0 - Please rate your cough at its worst since you got up this morning.", "preferredTerm": "ADSD Version 1.0 - Rate Cough at Its Worst", "submissionValue": "ADSD01-Rate Cough at Its Worst", "synonyms": ["ADSD01-Rate Cough at Its Worst"]}, {"conceptId": "C163820", "definition": "Asthma Daytime Symptom Diary v1.0 - Please rate your shortness of breath at its worst since you got up this morning.", "preferredTerm": "ADSD Version 1.0 - Rate Shortness of Breath at Worst", "submissionValue": "ADSD01-Rate Shortness of Breath at Worst", "synonyms": ["ADSD01-Rate Shortness of Breath at Worst"]}, {"conceptId": "C163819", "definition": "Asthma Daytime Symptom Diary v1.0 - Please rate your wheezing at its worst since you got up this morning.", "preferredTerm": "ADSD Version 1.0 - Rate Wheezing at Its Worst", "submissionValue": "ADSD01-Rate Wheezing at Its Worst", "synonyms": ["ADSD01-Rate Wheezing at Its Worst"]}, {"conceptId": "C163824", "definition": "Asthma Daytime Symptom Diary v1.0 - Total score.", "preferredTerm": "ADSD Version 1.0 - Total Score", "submissionValue": "ADSD01-Total Score", "synonyms": ["ADSD01-Total Score"]}]}