{"_links": {"parentPackage": {"href": "/mdr/ct/packages/sdtmct-2022-06-24", "title": "SDTM Controlled Terminology Package 50 Effective 2022-06-24", "type": "Terminology"}, "priorVersion": {"href": "/mdr/ct/packages/sdtmct-2022-03-25/codelists/C166186", "title": "CDISC Questionnaire WPAI-GH Version 2 Test Code Terminology", "type": "Code List"}, "rootItem": {"href": "/mdr/root/ct/sdtmct/codelists/C166186", "title": "Version-agnostic anchor resource for codelist C166186", "type": "Root Value Domain"}, "self": {"href": "/mdr/ct/packages/sdtmct-2022-06-24/codelists/C166186", "title": "CDISC Questionnaire WPAI-GH Version 2 Test Code Terminology", "type": "Code List"}}, "conceptId": "C166186", "definition": "The Work Productivity and Activity Impairment - General Health Version 2.0 test code.", "extensible": "false", "name": "The Work Productivity and Activity Impairment - General Health Version 2.0 Questionnaire Test Code", "preferredTerm": "CDISC Questionnaire WPAI-GH Version 2 Test Code Terminology", "submissionValue": "WPAI02TC", "synonyms": ["The Work Productivity and Activity Impairment - General Health Version 2.0 Questionnaire Test Code"], "terms": [{"conceptId": "C166321", "definition": "Work Productivity and Activity Impairment Questionnaire - General Health V2.0 - Are you currently employed (working for pay)?", "preferredTerm": "WPAI-GH Version 2 - Currently Employed", "submissionValue": "WPAI0201", "synonyms": ["WPAI02-Currently Employed"]}, {"conceptId": "C166322", "definition": "Work Productivity and Activity Impairment Questionnaire - General Health V2.0 - During the past seven days, how many hours did you miss from work because of your health problems?", "preferredTerm": "WPAI-GH Version 2 - Hours Miss Work Health Problems", "submissionValue": "WPAI0202", "synonyms": ["WPAI02-Hours Miss Work Health Problems"]}, {"conceptId": "C166323", "definition": "Work Productivity and Activity Impairment Questionnaire - General Health V2.0 - During the past seven days, how many hours did you miss from work because of any other reason, such as vacation, holidays, time off to participate in this study?", "preferredTerm": "WPAI-GH Version 2 - Hours Miss Work Other Reason", "submissionValue": "WPAI0203", "synonyms": ["WPAI02-Hours Miss Work Other Reason"]}, {"conceptId": "C166324", "definition": "Work Productivity and Activity Impairment Questionnaire - General Health V2.0 - During the past seven days, how many hours did you actually work?", "preferredTerm": "WPAI-GH Version 2 - Hours Actually Work", "submissionValue": "WPAI0204", "synonyms": ["WPAI02-Hours Actually Work"]}, {"conceptId": "C166325", "definition": "Work Productivity and Activity Impairment Questionnaire - General Health V2.0 - During the past seven days, how much did your health problems affect your productivity while you were working?", "preferredTerm": "WPAI-GH Version 2 - Problems Affect Productivity", "submissionValue": "WPAI0205", "synonyms": ["WPAI02-Problems Affect Productivity"]}, {"conceptId": "C166326", "definition": "Work Productivity and Activity Impairment Questionnaire - General Health V2.0 - During the past seven days, how much did your health problems affect your ability to do your regular daily activities, other than work at a job?", "preferredTerm": "WPAI-GH Version 2 - Problems Affect Daily Activities", "submissionValue": "WPAI0206", "synonyms": ["WPAI02-Problems Affect Daily Activities"]}, {"conceptId": "C166327", "definition": "Work Productivity and Activity Impairment Questionnaire - General Health V2.0 - Absenteeism score.", "preferredTerm": "WPAI-GH Version 2 - Absenteeism Score", "submissionValue": "WPAI0207", "synonyms": ["WPAI02-Absenteeism Score"]}, {"conceptId": "C166328", "definition": "Work Productivity and Activity Impairment Questionnaire - General Health V2.0 - Presenteeism score.", "preferredTerm": "WPAI-GH Version 2 - Presenteeism Score", "submissionValue": "WPAI0208", "synonyms": ["WPAI02-Presenteeism Score"]}, {"conceptId": "C166329", "definition": "Work Productivity and Activity Impairment Questionnaire - General Health V2.0 - Work productivity loss score.", "preferredTerm": "WPAI-GH Version 2 - Work Productivity Loss Score", "submissionValue": "WPAI0209", "synonyms": ["WPAI02-Work Productivity Loss Score"]}, {"conceptId": "C166330", "definition": "Work Productivity and Activity Impairment Questionnaire - General Health V2.0 - Activity impairment score.", "preferredTerm": "WPAI-GH Version 2 - Activity Impairment Score", "submissionValue": "WPAI0210", "synonyms": ["WPAI02-Activity Impairment Score"]}]}