{"_links": {"parentPackage": {"href": "/mdr/ct/packages/sdtmct-2022-06-24", "title": "SDTM Controlled Terminology Package 50 Effective 2022-06-24", "type": "Terminology"}, "priorVersion": {"href": "/mdr/ct/packages/sdtmct-2022-03-25/codelists/C166188", "title": "CDISC Functional Test HD-CAB Test Code Terminology", "type": "Code List"}, "rootItem": {"href": "/mdr/root/ct/sdtmct/codelists/C166188", "title": "Version-agnostic anchor resource for codelist C166188", "type": "Root Value Domain"}, "self": {"href": "/mdr/ct/packages/sdtmct-2022-06-24/codelists/C166188", "title": "CDISC Functional Test HD-CAB Test Code Terminology", "type": "Code List"}}, "conceptId": "C166188", "definition": "Huntington's Disease Cognitive Assessment Battery test code.", "extensible": "false", "name": "Huntington's Disease Cognitive Assessment Battery Functional Test Test Code", "preferredTerm": "CDISC Functional Test HD-CAB Test Code Terminology", "submissionValue": "HDCAB1TC", "synonyms": ["Huntington's Disease Cognitive Assessment Battery Functional Test Test Code"], "terms": [{"conceptId": "C166331", "definition": "Huntington's Disease Cognitive Assessment Battery - Paced Tapping key variable for composite score: 1/SD of the inter-tap interval for the self-paced taps.", "preferredTerm": "HD-CAB - Paced Tapping", "submissionValue": "HDCAB101", "synonyms": ["HDCAB1-Paced Tapping"]}, {"conceptId": "C166332", "definition": "Huntington's Disease Cognitive Assessment Battery - Emotion Recognition key variable for composite score: Number of correct responses to the negative expressions (anger, fear, sadness, disgust) out of 24 possible.", "preferredTerm": "HD-CAB - Emotion Recognition", "submissionValue": "HDCAB102", "synonyms": ["HDCAB1-Emotion Recognition"]}, {"conceptId": "C166333", "definition": "Huntington's Disease Cognitive Assessment Battery - One Touch Stockings of Cambridge key variable for composite score: Mean time to correct response (sec) averaged across all 10 trials (reverse scored).", "preferredTerm": "HD-CAB - One Touch Stockings of Cambridge", "submissionValue": "HDCAB103", "synonyms": ["HDCAB1-One Touch Stockings of Cambridge"]}, {"conceptId": "C166334", "definition": "Huntington's Disease Cognitive Assessment Battery - Symbol Digit Modalities Test key variable for composite score: Number of correct responses in 90 seconds out of 110 possible responses.", "preferredTerm": "HD-CAB - Symbol Digit Modalities Test", "submissionValue": "HDCAB104", "synonyms": ["HDCAB1-Symbol Digit Modalities Test"]}, {"conceptId": "C166335", "definition": "Huntington's Disease Cognitive Assessment Battery - Hopkins Verbal Learning Test - Revised key variable for composite score: Total number of words correctly recalled over Trials 1-4 out of 48 possible.", "preferredTerm": "HD-CAB - Hopkins Verbal Learning Test Revised", "submissionValue": "HDCAB105", "synonyms": ["HDCAB1-Hopkins Verbal Learning Test Rev"]}, {"conceptId": "C166336", "definition": "Huntington's Disease Cognitive Assessment Battery - Trail Making Test-B key variable for composite score: Time to completion (sec) of TMT Part B with upper time limit of 240 seconds (reverse scored).", "preferredTerm": "HD-CAB - Trail Making Test-B", "submissionValue": "HDCAB106", "synonyms": ["HDCAB1-Trail Making Test-B"]}, {"conceptId": "C166337", "definition": "Huntington's Disease Cognitive Assessment Battery - HD-CAB total score.", "preferredTerm": "HD-CAB - HD-CAB Total Score", "submissionValue": "HDCAB107", "synonyms": ["HDCAB1-HD-CAB Total Score"]}]}