{"_links": {"parentPackage": {"href": "/mdr/ct/packages/sdtmct-2022-06-24", "title": "SDTM Controlled Terminology Package 50 Effective 2022-06-24", "type": "Terminology"}, "priorVersion": {"href": "/mdr/ct/packages/sdtmct-2022-03-25/codelists/C170447", "title": "CDISC SDTM Psoriasis Findings About Test Code Terminology", "type": "Code List"}, "rootItem": {"href": "/mdr/root/ct/sdtmct/codelists/C170447", "title": "Version-agnostic anchor resource for codelist C170447", "type": "Root Value Domain"}, "self": {"href": "/mdr/ct/packages/sdtmct-2022-06-24/codelists/C170447", "title": "CDISC SDTM Psoriasis Findings About Test Code Terminology", "type": "Code List"}}, "conceptId": "C170447", "definition": "Terminology relevant to the test codes that describe findings about a psoriasis event or intervention.", "extensible": "true", "name": "Psoriasis Findings About Test Code", "preferredTerm": "CDISC SDTM Psoriasis Findings About Test Code Terminology", "submissionValue": "PSFATSCD", "synonyms": ["Psoriasis Findings About Test Code"], "terms": [{"conceptId": "C170617", "definition": "The effect or consequence of an event or condition on an individual's sense of well-being and ability to enjoy life.", "preferredTerm": "Quality of Life Impact", "submissionValue": "QOLIMP", "synonyms": ["QOL Impact", "Quality of Life Impact"]}, {"conceptId": "C25676", "definition": "The degree of something undesirable.", "preferredTerm": "Severity", "submissionValue": "SEV", "synonyms": ["Severity/Intensity"]}]}