{"_links": {"parentPackage": {"href": "/mdr/ct/packages/sdtmct-2022-06-24", "title": "SDTM Controlled Terminology Package 50 Effective 2022-06-24", "type": "Terminology"}, "priorVersion": {"href": "/mdr/ct/packages/sdtmct-2022-03-25/codelists/C171445", "title": "CDISC SDTM Mode of Subject Contact Terminology", "type": "Code List"}, "rootItem": {"href": "/mdr/root/ct/sdtmct/codelists/C171445", "title": "Version-agnostic anchor resource for codelist C171445", "type": "Root Value Domain"}, "self": {"href": "/mdr/ct/packages/sdtmct-2022-06-24/codelists/C171445", "title": "CDISC SDTM Mode of Subject Contact Terminology", "type": "Code List"}}, "conceptId": "C171445", "definition": "Terminology relevant to the means by which interaction occurs between the subject and person or entity.", "extensible": "true", "name": "Mode of Subject Contact", "preferredTerm": "CDISC SDTM Mode of Subject Contact Terminology", "submissionValue": "CNTMODE", "synonyms": ["Mode of Subject Contact"], "terms": [{"conceptId": "C175574", "definition": "An interaction that takes place in the physical presence of someone else.", "preferredTerm": "In Person", "submissionValue": "IN PERSON", "synonyms": ["In-Person"]}, {"conceptId": "C177933", "definition": "A type of automated system in which individuals can access information menus containing pre-recorded or dynamically generated information with voice prompts, without the need for an agent or operator.", "preferredTerm": "Interactive Voice Response System", "submissionValue": "IVRS", "synonyms": ["Interactive Voice Response System"]}, {"conceptId": "C171525", "definition": "A form of remote communication by audio video technology.", "preferredTerm": "Audio-Videoconferencing", "submissionValue": "REMOTE AUDIO VIDEO"}, {"conceptId": "C171524", "definition": "A form of remote communication by audio technology.", "preferredTerm": "Audioconferencing", "submissionValue": "REMOTE AUDIO"}, {"conceptId": "C171533", "definition": "Receipt of shipped material was confirmed by signature.", "preferredTerm": "Shipment Confirmed by Signature", "submissionValue": "SHIPMENT CONFIRMED BY SIGNATURE"}, {"conceptId": "C171537", "definition": "Communication by way of telephone.", "preferredTerm": "Telephone Call", "submissionValue": "TELEPHONE CALL"}]}