{"_links": {"parentPackage": {"href": "/mdr/ct/packages/sdtmct-2022-06-24", "title": "SDTM Controlled Terminology Package 50 Effective 2022-06-24", "type": "Terminology"}, "priorVersion": {"href": "/mdr/ct/packages/sdtmct-2022-03-25/codelists/C177711", "title": "CDISC Questionnaire SF10 v1.0 Children Standard Test Name Terminology", "type": "Code List"}, "rootItem": {"href": "/mdr/root/ct/sdtmct/codelists/C177711", "title": "Version-agnostic anchor resource for codelist C177711", "type": "Root Value Domain"}, "self": {"href": "/mdr/ct/packages/sdtmct-2022-06-24/codelists/C177711", "title": "CDISC Questionnaire SF10 v1.0 Children Standard Test Name Terminology", "type": "Code List"}}, "conceptId": "C177711", "definition": "Short Form 10 Health Survey for Children Standard, US Version 1.0 test name.", "extensible": "false", "name": "Short Form 10 Health Survey for Children Standard, US Version 1.0 Questionnaire Test Name", "preferredTerm": "CDISC Questionnaire SF10 v1.0 Children Standard Test Name Terminology", "submissionValue": "SF101TN", "synonyms": ["Short Form 10 Health Survey for Children Standard, US Version 1.0 Questionnaire Test Name"], "terms": [{"conceptId": "C177845", "definition": "The Short Form 10 Health Survey Children Standard, US Version 1.0 - During the past 4 weeks, how much of the time do you think your child acted bothered or upset?", "preferredTerm": "SF10 v1.0 Children Standard - Acted Bothered or Upset", "submissionValue": "SF101-Acted Bothered or Upset", "synonyms": ["SF101-Acted Bothered or Upset"]}, {"conceptId": "C177839", "definition": "The Short Form 10 Health Survey Children Standard, US Version 1.0 - During the past 4 weeks, has your child been limited in any activities due to HEALTH problems - bending, lifting, or stooping?", "preferredTerm": "SF10 v1.0 Children Standard - Bending, Lifting, Stooping", "submissionValue": "SF101-Bending/Lifting/Stooping", "synonyms": ["SF101-Bending/Lifting/Stooping"]}, {"conceptId": "C177838", "definition": "The Short Form 10 Health Survey Children Standard, US Version 1.0 - During the past 4 weeks, has your child been limited in any activities due to HEALTH problems - Doing things that take some energy such as riding a bike or skating?", "preferredTerm": "SF10 v1.0 Children Standard - Doing Things That Take Some Energy", "submissionValue": "SF101-Doing Things That Take Some Energy", "synonyms": ["SF101-Doing Things That Take Some Energy"]}, {"conceptId": "C177841", "definition": "The Short Form 10 Health Survey Children Standard, US Version 1.0 - During the past 4 weeks, has your child been limited in the KIND of schoolwork or activities with friends he/she could do because of EMOTIONAL or BEHAVIORAL problems?.", "preferredTerm": "SF10 v1.0 Children Standard - Emotional: Schoolwork, Activities", "submissionValue": "SF101-Emotional: Schoolwork/Activities", "synonyms": ["SF101-Emotional: Schoolwork/Activities"]}, {"conceptId": "C177843", "definition": "The Short Form 10 Health Survey Children Standard, US Version 1.0 - During the past 4 weeks, how satisfied do you think your child has felt about his/her friendships?", "preferredTerm": "SF10 v1.0 Children Standard - Felt About His/Her Friendships", "submissionValue": "SF101-Felt About His/Her Friendships", "synonyms": ["SF101-Felt About His/Her Friendships"]}, {"conceptId": "C177844", "definition": "The Short Form 10 Health Survey Children Standard, US Version 1.0 - During the past 4 weeks, how satisfied do you think your child has felt about his/her life overall?", "preferredTerm": "SF10 v1.0 Children Standard - Felt About His/Her Life Overall", "submissionValue": "SF101-Felt About His/Her Life Overall", "synonyms": ["SF101-Felt About His/Her Life Overall"]}, {"conceptId": "C177846", "definition": "The Short Form 10 Health Survey Children Standard, US Version 1.0 - Compared to other children your child's age, in general would you say his/her behavior is.", "preferredTerm": "SF10 v1.0 Children Standard - His/Her Behavior Is", "submissionValue": "SF101-His/Her Behavior Is", "synonyms": ["SF101-His/Her Behavior Is"]}, {"conceptId": "C177842", "definition": "The Short Form 10 Health Survey Children Standard, US Version 1.0 - During the past 4 weeks, how much bodily pain or discomfort has your child had?", "preferredTerm": "SF10 v1.0 Children Standard - How Much Bodily Pain Child Had", "submissionValue": "SF101-How Much Bodily Pain Child Had", "synonyms": ["SF101-How Much Bodily Pain Child Had"]}, {"conceptId": "C177837", "definition": "The Short Form 10 Health Survey Children Standard, US Version 1.0 - In general, would you say your child's health is.", "preferredTerm": "SF10 v1.0 Children Standard - In General You Say Child Health Is", "submissionValue": "SF101-In General You Say Child Health Is", "synonyms": ["SF101-In General You Say Child Health Is"]}, {"conceptId": "C177840", "definition": "The Short Form 10 Health Survey Children Standard, US Version 1.0 - During the past 4 weeks, has your child been limited in the KIND of schoolwork or activities with friends he/she could do because of PHYSICAL health problems?", "preferredTerm": "SF10 v1.0 Children Standard - Physical: Schoolwork, Activities", "submissionValue": "SF101-Physical: Schoolwork/Activities", "synonyms": ["SF101-Physical: Schoolwork/Activities"]}]}