{"_links": {"parentPackage": {"href": "/mdr/ct/packages/sdtmct-2022-06-24", "title": "SDTM Controlled Terminology Package 50 Effective 2022-06-24", "type": "Terminology"}, "priorVersion": {"href": "/mdr/ct/packages/sdtmct-2022-03-25/codelists/C179950", "title": "CDISC Questionnaire Combat Exposure Scale CES0101 Standardized Character Response Terminology", "type": "Code List"}, "rootItem": {"href": "/mdr/root/ct/sdtmct/codelists/C179950", "title": "Version-agnostic anchor resource for codelist C179950", "type": "Root Value Domain"}, "self": {"href": "/mdr/ct/packages/sdtmct-2022-06-24/codelists/C179950", "title": "CDISC Questionnaire Combat Exposure Scale CES0101 Standardized Character Response Terminology", "type": "Code List"}}, "conceptId": "C179950", "definition": "Combat Exposure Scale standardized character result for CES0101 test and test code.", "extensible": "false", "name": "Combat Exposure Scale Questionnaire STRESC for CES0101 TN/TC", "preferredTerm": "CDISC Questionnaire Combat Exposure Scale CES0101 Standardized Character Response Terminology", "submissionValue": "CES0101STR", "synonyms": ["Combat Exposure Scale Questionnaire STRESC for CES0101 TN/TC"], "terms": [{"conceptId": "C180286", "definition": "Combat Exposure Scale standardized character result for CES0101-No.", "preferredTerm": "Combat Exposure Scale CES0101 Standardized Character Result 1", "submissionValue": "1", "synonyms": ["CES0101-1"]}, {"conceptId": "C180287", "definition": "Combat Exposure Scale standardized character result for CES0101-1-3 times.", "preferredTerm": "Combat Exposure Scale CES0101 Standardized Character Result 2", "submissionValue": "2", "synonyms": ["CES0101-2"]}, {"conceptId": "C180288", "definition": "Combat Exposure Scale standardized character result for CES0101-4-12 times.", "preferredTerm": "Combat Exposure Scale CES0101 Standardized Character Result 3", "submissionValue": "3", "synonyms": ["CES0101-3"]}, {"conceptId": "C180289", "definition": "Combat Exposure Scale standardized character result for CES0101-13-50 times.", "preferredTerm": "Combat Exposure Scale CES0101 Standardized Character Result 4", "submissionValue": "4", "synonyms": ["CES0101-4"]}, {"conceptId": "C180290", "definition": "Combat Exposure Scale standardized character result for CES0101-51+times.", "preferredTerm": "Combat Exposure Scale CES0101 Standardized Character Result 5", "submissionValue": "5", "synonyms": ["CES0101-5"]}]}