{"_links": {"parentPackage": {"href": "/mdr/ct/packages/sdtmct-2022-06-24", "title": "SDTM Controlled Terminology Package 50 Effective 2022-06-24", "type": "Terminology"}, "priorVersion": {"href": "/mdr/ct/packages/sdtmct-2022-03-25/codelists/C179949", "title": "CDISC Questionnaire Combat Exposure Scale CES0105 Through CES0107 Original Response Terminology", "type": "Code List"}, "rootItem": {"href": "/mdr/root/ct/sdtmct/codelists/C179949", "title": "Version-agnostic anchor resource for codelist C179949", "type": "Root Value Domain"}, "self": {"href": "/mdr/ct/packages/sdtmct-2022-06-24/codelists/C179949", "title": "CDISC Questionnaire Combat Exposure Scale CES0105 Through CES0107 Original Response Terminology", "type": "Code List"}}, "conceptId": "C179949", "definition": "Combat Exposure Scale original result for CES0105 through CES0107 test and test code.", "extensible": "false", "name": "Combat Exposure Scale Questionnaire ORRES for CES0105 Through CES0107 TN/TC", "preferredTerm": "CDISC Questionnaire Combat Exposure Scale CES0105 Through CES0107 Original Response Terminology", "submissionValue": "CES0105T07OR", "synonyms": ["Combat Exposure Scale Questionnaire ORRES for CES0105 Through CES0107 TN/TC"], "terms": [{"conceptId": "C180282", "definition": "Combat Exposure Scale original result for CES0105 through CES0107-1-2 times.", "preferredTerm": "Combat Exposure Scale CES0105 Through CES0107 Original Result - 1-2 Times", "submissionValue": "1-2 times", "synonyms": ["CES0105 through CES0107-1-2 times"]}, {"conceptId": "C180284", "definition": "Combat Exposure Scale original result for CES0105 through CES0107-13-50 times.", "preferredTerm": "Combat Exposure Scale CES0105 Through CES0107 Original Result - 13-50 Times", "submissionValue": "13-50 times", "synonyms": ["CES0105 through CES0107-13-50 times"]}, {"conceptId": "C180283", "definition": "Combat Exposure Scale original result for CES0105 through CES0107-3-12 times.", "preferredTerm": "Combat Exposure Scale CES0105 Through CES0107 Original Result - 3-12 Times", "submissionValue": "3-12 times", "synonyms": ["CES0105 through CES0107-3-12 times"]}, {"conceptId": "C180285", "definition": "Combat Exposure Scale original result for CES0105 through CES0107-51+ times.", "preferredTerm": "Combat Exposure Scale CES0105 Through CES0107 Original Result - 51+ Times", "submissionValue": "51+ times", "synonyms": ["CES0105 through CES0107-51+ times"]}, {"conceptId": "C180281", "definition": "Combat Exposure Scale original result for CES0105 through CES0107-Never.", "preferredTerm": "Combat Exposure Scale CES0105 Through CES0107 Original Result - Never", "submissionValue": "Never", "synonyms": ["CES0105 through CES0107-Never"]}]}