{"_links": {"parentPackage": {"href": "/mdr/ct/packages/sdtmct-2022-06-24", "title": "SDTM Controlled Terminology Package 50 Effective 2022-06-24", "type": "Terminology"}, "priorVersion": {"href": "/mdr/ct/packages/sdtmct-2022-03-25/codelists/C179936", "title": "CDISC Clinical Classification PASI Version 2 Test Code Terminology", "type": "Code List"}, "rootItem": {"href": "/mdr/root/ct/sdtmct/codelists/C179936", "title": "Version-agnostic anchor resource for codelist C179936", "type": "Root Value Domain"}, "self": {"href": "/mdr/ct/packages/sdtmct-2022-06-24/codelists/C179936", "title": "CDISC Clinical Classification PASI Version 2 Test Code Terminology", "type": "Code List"}}, "conceptId": "C179936", "definition": "Psoriasis Area and Severity Index Version 2 test code.", "extensible": "false", "name": "Psoriasis Area and Severity Index Version 2 Clinical Classification Test Code", "preferredTerm": "CDISC Clinical Classification PASI Version 2 Test Code Terminology", "submissionValue": "PASI02TC", "synonyms": ["Psoriasis Area and Severity Index Version 2 Clinical Classification Test Code"], "terms": [{"conceptId": "C180218", "definition": "Psoriasis Area and Severity Index Version 2 - Head: Erythema/Redness symptom score.", "preferredTerm": "PASI Version 2 - Head: Erythema/Redness", "submissionValue": "PASI0201", "synonyms": ["PASI02-Head: Erythema/Redness"]}, {"conceptId": "C180219", "definition": "Psoriasis Area and Severity Index Version 2 - Head: Thickness/Induration symptom score.", "preferredTerm": "PASI Version 2 - Head: Thickness/Induration", "submissionValue": "PASI0202", "synonyms": ["PASI02-Head: Thickness/Induration"]}, {"conceptId": "C180220", "definition": "Psoriasis Area and Severity Index Version 2 - Head: Desquamation/Scaling symptom score.", "preferredTerm": "PASI Version 2 - Head: Desquamation/Scaling", "submissionValue": "PASI0203", "synonyms": ["PASI02-Head: Desquamation/Scaling"]}, {"conceptId": "C180221", "definition": "Psoriasis Area and Severity Index Version 2 - Head: Area score.", "preferredTerm": "PASI Version 2 - Head: Area Score", "submissionValue": "PASI0204", "synonyms": ["PASI02-Head: Area Score"]}, {"conceptId": "C180222", "definition": "Psoriasis Area and Severity Index Version 2 - Upper Extremities: Erythema/Redness symptom score.", "preferredTerm": "PASI Version 2 - Upper Extremities: Erythema/Redness", "submissionValue": "PASI0205", "synonyms": ["PASI02-Up Extrem: Erythema/Redness"]}, {"conceptId": "C180223", "definition": "Psoriasis Area and Severity Index Version 2 - Upper Extremities: Thickness/Induration symptom score.", "preferredTerm": "PASI Version 2 - Upper Extremities: Thickness/Induration", "submissionValue": "PASI0206", "synonyms": ["PASI02-Up Extrem: Thickness/Induration"]}, {"conceptId": "C180224", "definition": "Psoriasis Area and Severity Index Version 2 - Upper Extremities: Desquamation/Scaling symptom score.", "preferredTerm": "PASI Version 2 - Upper Extremities: Desquamation/Scaling", "submissionValue": "PASI0207", "synonyms": ["PASI02-Up Extrem: Desquamation/Scaling"]}, {"conceptId": "C180225", "definition": "Psoriasis Area and Severity Index Version 2 - Upper Extremities: Area score.", "preferredTerm": "PASI Version 2 - Upper Extremities: Area Score", "submissionValue": "PASI0208", "synonyms": ["PASI02-Up Extrem: Area Score"]}, {"conceptId": "C180226", "definition": "Psoriasis Area and Severity Index Version 2 - Trunk: Erythema/Redness symptom score.", "preferredTerm": "PASI Version 2 - Trunk: Erythema/Redness", "submissionValue": "PASI0209", "synonyms": ["PASI02-Trunk: Erythema/Redness"]}, {"conceptId": "C180227", "definition": "Psoriasis Area and Severity Index Version 2 - Trunk: Thickness/Induration symptom score.", "preferredTerm": "PASI Version 2 - Trunk: Thickness/Induration", "submissionValue": "PASI0210", "synonyms": ["PASI02-Trunk: Thickness/Induration"]}, {"conceptId": "C180228", "definition": "Psoriasis Area and Severity Index Version 2 - Trunk: Desquamation/Scaling symptom score.", "preferredTerm": "PASI Version 2 - Trunk: Desquamation/Scaling", "submissionValue": "PASI0211", "synonyms": ["PASI02-Trunk: Desquamation/Scaling"]}, {"conceptId": "C180229", "definition": "Psoriasis Area and Severity Index Version 2 - Trunk: Area score.", "preferredTerm": "PASI Version 2 - Trunk: Area Score", "submissionValue": "PASI0212", "synonyms": ["PASI02-Trunk: Area Score"]}, {"conceptId": "C180230", "definition": "Psoriasis Area and Severity Index Version 2 - Lower Extremities: Erythema/Redness symptom score.", "preferredTerm": "PASI Version 2 - Lower Extremities: Erythema/Redness", "submissionValue": "PASI0213", "synonyms": ["PASI02-Low Extrem: Erythema/Redness"]}, {"conceptId": "C180231", "definition": "Psoriasis Area and Severity Index Version 2 - Lower Extremities: Thickness/Induration symptom score.", "preferredTerm": "PASI Version 2 - Lower Extremities: Thickness/Induration", "submissionValue": "PASI0214", "synonyms": ["PASI02-Low Extrem: Thickness/Induration"]}, {"conceptId": "C180232", "definition": "Psoriasis Area and Severity Index Version 2 - Lower Extremities: Desquamation/Scaling symptom score.", "preferredTerm": "PASI Version 2 - Lower Extremities: Desquamation/Scaling", "submissionValue": "PASI0215", "synonyms": ["PASI02-Low Extrem: Desquamation/Scaling"]}, {"conceptId": "C180233", "definition": "Psoriasis Area and Severity Index Version 2 - Lower Extremities: Area score.", "preferredTerm": "PASI Version 2 - Lower Extremities: Area Score", "submissionValue": "PASI0216", "synonyms": ["PASI02-Low Extrem: Area Score"]}, {"conceptId": "C180234", "definition": "Psoriasis Area and Severity Index Version 2 - Head: Sum of symptoms scores.", "preferredTerm": "PASI Version 2 - Head: Sum of Symptom Scores", "submissionValue": "PASI0217", "synonyms": ["PASI02-Head: Sum of Symptom Scores"]}, {"conceptId": "C180235", "definition": "Psoriasis Area and Severity Index Version 2 - Head: Sum of symptom scores x area score.", "preferredTerm": "PASI Version 2 - Head: Sum X Area", "submissionValue": "PASI0218", "synonyms": ["PASI02-Head: Sum X Area"]}, {"conceptId": "C180236", "definition": "Psoriasis Area and Severity Index Version 2 - Head: Sum x area x 0.1.", "preferredTerm": "PASI Version 2 - Head: Sum X Area X 0.1", "submissionValue": "PASI0219", "synonyms": ["PASI02-Head: Sum X Area X 0.1"]}, {"conceptId": "C180237", "definition": "Psoriasis Area and Severity Index Version 2 - Upper Extremities: Sum of symptoms scores.", "preferredTerm": "PASI Version 2 - Upper Extremities: Sum of Symptom Scores", "submissionValue": "PASI0220", "synonyms": ["PASI02-Up Extrem: Sum of Symptom Scores"]}, {"conceptId": "C180238", "definition": "Psoriasis Area and Severity Index Version 2 - Upper Extremities: Sum of symptom scores x area score.", "preferredTerm": "PASI Version 2 - Upper Extremities: Sum X Area", "submissionValue": "PASI0221", "synonyms": ["PASI02-Up Extrem: Sum X Area"]}, {"conceptId": "C180239", "definition": "Psoriasis Area and Severity Index Version 2 - Upper Extremities: Sum x area x 0.2.", "preferredTerm": "PASI Version 2 - Upper Extremities: Sum X Area X 0.2", "submissionValue": "PASI0222", "synonyms": ["PASI02-Up Extrem: Sum X Area X 0.2"]}, {"conceptId": "C180240", "definition": "Psoriasis Area and Severity Index Version 2 - Trunk: Sum of symptoms scores.", "preferredTerm": "PASI Version 2 - Trunk: Sum of Symptom Scores", "submissionValue": "PASI0223", "synonyms": ["PASI02-Trunk: Sum of Symptom Scores"]}, {"conceptId": "C180241", "definition": "Psoriasis Area and Severity Index Version 2 - Trunk: Sum of symptom scores x area score.", "preferredTerm": "PASI Version 2 - Trunk: Sum X Area", "submissionValue": "PASI0224", "synonyms": ["PASI02-Trunk: Sum X Area"]}, {"conceptId": "C180242", "definition": "Psoriasis Area and Severity Index Version 2 - Trunk: Sum x area x 0.3.", "preferredTerm": "PASI Version 2 - Trunk: Sum X Area X 0.3", "submissionValue": "PASI0225", "synonyms": ["PASI02-Trunk: Sum X Area X 0.3"]}, {"conceptId": "C180243", "definition": "Psoriasis Area and Severity Index Version 2 - Lower Extremities: Sum of symptoms scores.", "preferredTerm": "PASI Version 2 - Lower Extremities: Sum of Symptom Scores", "submissionValue": "PASI0226", "synonyms": ["PASI02-Low Extrem: Sum of Symptom Scores"]}, {"conceptId": "C180244", "definition": "Psoriasis Area and Severity Index Version 2 - Lower Extremities: Sum of symptom scores x area score.", "preferredTerm": "PASI Version 2 - Lower Extremities: Sum X Area", "submissionValue": "PASI0227", "synonyms": ["PASI02-Low Extrem: Sum X Area"]}, {"conceptId": "C180245", "definition": "Psoriasis Area and Severity Index Version 2 - Lower Extremities: Sum x area x 0.4.", "preferredTerm": "PASI Version 2 - Lower Extremities: Sum X Area X 0.4", "submissionValue": "PASI0228", "synonyms": ["PASI02-Low Extrem: Sum X Area X 0.4"]}, {"conceptId": "C180246", "definition": "Psoriasis Area and Severity Index Version 2 - Total sum.", "preferredTerm": "PASI Version 2 - Total Sum", "submissionValue": "PASI0229", "synonyms": ["PASI02-Total Sum"]}]}