{"_links": {"parentPackage": {"href": "/mdr/ct/packages/sdtmct-2022-06-24", "title": "SDTM Controlled Terminology Package 50 Effective 2022-06-24", "type": "Terminology"}, "priorVersion": {"href": "/mdr/ct/packages/sdtmct-2022-03-25/codelists/C179942", "title": "CDISC Questionnaire PRO-CTCAE V1.0 Version Date 4/26/2020 Test Code Terminology", "type": "Code List"}, "rootItem": {"href": "/mdr/root/ct/sdtmct/codelists/C179942", "title": "Version-agnostic anchor resource for codelist C179942", "type": "Root Value Domain"}, "self": {"href": "/mdr/ct/packages/sdtmct-2022-06-24/codelists/C179942", "title": "CDISC Questionnaire PRO-CTCAE V1.0 Version Date 4/26/2020 Test Code Terminology", "type": "Code List"}}, "conceptId": "C179942", "definition": "Patient-Reported Outcomes Version of the Common Terminology Criteria for Adverse Events Item Library Version 1.0 Version Date 4/26/2020 test code.", "extensible": "false", "name": "Patient-Reported Outcomes Version of the Common Terminology Criteria for Adverse Events Item Library Version 1.0 Version Date 4/26/2020 Questionnaire Test Code", "preferredTerm": "CDISC Questionnaire PRO-CTCAE V1.0 Version Date 4/26/2020 Test Code Terminology", "submissionValue": "PT01TC", "synonyms": ["Patient-Reported Outcomes Version of the Common Terminology Criteria for Adverse Events Item Library Version 1.0 Version Date 4/26/2020 Questionnaire Test Code"], "terms": [{"conceptId": "C180044", "definition": "Patient-Reported Outcomes Version of the Common Terminology Criteria for Adverse Events Item Library Version 1.0 Version Date 4/26/2020 - In the last 7 days, what was the severity of your dry mouth at its worst?", "preferredTerm": "PRO-CTCAE V1.0 Version Date 4/26/2020 - Dry Mouth Severity", "submissionValue": "PT01001A", "synonyms": ["PT01-Dry Mouth Severity"]}, {"conceptId": "C180045", "definition": "Patient-Reported Outcomes Version of the Common Terminology Criteria for Adverse Events Item Library Version 1.0 Version Date 4/26/2020 - In the last 7 days, what was the severity of your difficulty swallowing at its worst?", "preferredTerm": "PRO-CTCAE V1.0 Version Date 4/26/2020 - Difficulty Swallowing Severity", "submissionValue": "PT01002A", "synonyms": ["PT01-Difficulty Swallowing Severity"]}, {"conceptId": "C180046", "definition": "Patient-Reported Outcomes Version of the Common Terminology Criteria for Adverse Events Item Library Version 1.0 Version Date 4/26/2020 - In the last 7 days, what was the severity of your mouth or throat sores at their worst?", "preferredTerm": "PRO-CTCAE V1.0 Version Date 4/26/2020 - Mouth/Throat Sores Severity", "submissionValue": "PT01003A", "synonyms": ["PT01-Mouth/Throat Sores Severity"]}, {"conceptId": "C180047", "definition": "Patient-Reported Outcomes Version of the Common Terminology Criteria for Adverse Events Item Library Version 1.0 Version Date 4/26/2020 - In the last 7 days, how much did mouth or throat sores interfere with your usual or daily activities?", "preferredTerm": "PRO-CTCAE V1.0 Version Date 4/26/2020 - Mouth/Throat Sores Interference", "submissionValue": "PT01003B", "synonyms": ["PT01-Mouth/Throat Sores Interference"]}, {"conceptId": "C180048", "definition": "Patient-Reported Outcomes Version of the Common Terminology Criteria for Adverse Events Item Library Version 1.0 Version Date 4/26/2020 - In the last 7 days, what was the severity of skin cracking at the corners of your mouth at its worst?", "preferredTerm": "PRO-CTCAE V1.0 Version Date 4/26/2020 - Cracking Corners of Mouth Severity", "submissionValue": "PT01004A", "synonyms": ["PT01-Cracking Corners of Mouth Severity"]}, {"conceptId": "C180049", "definition": "Patient-Reported Outcomes Version of the Common Terminology Criteria for Adverse Events Item Library Version 1.0 Version Date 4/26/2020 - In the last 7 days, did you have any voice changes?", "preferredTerm": "PRO-CTCAE V1.0 Version Date 4/26/2020 - Voice Quality Changes Presence", "submissionValue": "PT01005A", "synonyms": ["PT01-Voice Quality Changes Presence"]}, {"conceptId": "C180050", "definition": "Patient-Reported Outcomes Version of the Common Terminology Criteria for Adverse Events Item Library Version 1.0 Version Date 4/26/2020 - In the last 7 days, what was the severity of your hoarse voice at its worst?", "preferredTerm": "PRO-CTCAE V1.0 Version Date 4/26/2020 - Hoarseness Severity", "submissionValue": "PT01006A", "synonyms": ["PT01-Hoarseness Severity"]}, {"conceptId": "C180051", "definition": "Patient-Reported Outcomes Version of the Common Terminology Criteria for Adverse Events Item Library Version 1.0 Version Date 4/26/2020 - In the last 7 days, what was the severity of your problems with tasting food or drink at their worst?", "preferredTerm": "PRO-CTCAE V1.0 Version Date 4/26/2020 - Taste Changes Severity", "submissionValue": "PT01007A", "synonyms": ["PT01-Taste Changes Severity"]}, {"conceptId": "C180052", "definition": "Patient-Reported Outcomes Version of the Common Terminology Criteria for Adverse Events Item Library Version 1.0 Version Date 4/26/2020 - In the last 7 days, what was the severity of your decreased appetite at its worst?", "preferredTerm": "PRO-CTCAE V1.0 Version Date 4/26/2020 - Decreased Appetite Severity", "submissionValue": "PT01008A", "synonyms": ["PT01-Decreased Appetite Severity"]}, {"conceptId": "C180053", "definition": "Patient-Reported Outcomes Version of the Common Terminology Criteria for Adverse Events Item Library Version 1.0 Version Date 4/26/2020 - In the last 7 days, how much did decreased appetite interfere with your usual or daily activities?", "preferredTerm": "PRO-CTCAE V1.0 Version Date 4/26/2020 - Decreased Appetite Interference", "submissionValue": "PT01008B", "synonyms": ["PT01-Decreased Appetite Interference"]}, {"conceptId": "C180054", "definition": "Patient-Reported Outcomes Version of the Common Terminology Criteria for Adverse Events Item Library Version 1.0 Version Date 4/26/2020 - In the last 7 days, how often did you have nausea?", "preferredTerm": "PRO-CTCAE V1.0 Version Date 4/26/2020 - Nausea Frequency", "submissionValue": "PT01009A", "synonyms": ["PT01-Nausea Frequency"]}, {"conceptId": "C180055", "definition": "Patient-Reported Outcomes Version of the Common Terminology Criteria for Adverse Events Item Library Version 1.0 Version Date 4/26/2020 - In the last 7 days, what was the severity of your nausea at its worst?", "preferredTerm": "PRO-CTCAE V1.0 Version Date 4/26/2020 - Nausea Severity", "submissionValue": "PT01009B", "synonyms": ["PT01-Nausea Severity"]}, {"conceptId": "C180056", "definition": "Patient-Reported Outcomes Version of the Common Terminology Criteria for Adverse Events Item Library Version 1.0 Version Date 4/26/2020 - In the last 7 days, how often did you have vomiting?", "preferredTerm": "PRO-CTCAE V1.0 Version Date 4/26/2020 - Vomiting Frequency", "submissionValue": "PT01010A", "synonyms": ["PT01-Vomiting Frequency"]}, {"conceptId": "C180057", "definition": "Patient-Reported Outcomes Version of the Common Terminology Criteria for Adverse Events Item Library Version 1.0 Version Date 4/26/2020 - In the last 7 days, what was the severity of your vomiting at its worst?", "preferredTerm": "PRO-CTCAE V1.0 Version Date 4/26/2020 - Vomiting Severity", "submissionValue": "PT01010B", "synonyms": ["PT01-Vomiting Severity"]}, {"conceptId": "C180058", "definition": "Patient-Reported Outcomes Version of the Common Terminology Criteria for Adverse Events Item Library Version 1.0 Version Date 4/26/2020 - In the last 7 days, how often did you have heartburn?", "preferredTerm": "PRO-CTCAE V1.0 Version Date 4/26/2020 - Heartburn Frequency", "submissionValue": "PT01011A", "synonyms": ["PT01-Heartburn Frequency"]}, {"conceptId": "C180059", "definition": "Patient-Reported Outcomes Version of the Common Terminology Criteria for Adverse Events Item Library Version 1.0 Version Date 4/26/2020 - In the last 7 days, what was the severity of your heartburn at its worst?", "preferredTerm": "PRO-CTCAE V1.0 Version Date 4/26/2020 - Heartburn Severity", "submissionValue": "PT01011B", "synonyms": ["PT01-Heartburn Severity"]}, {"conceptId": "C180060", "definition": "Patient-Reported Outcomes Version of the Common Terminology Criteria for Adverse Events Item Library Version 1.0 Version Date 4/26/2020 - In the last 7 days, did you have any increased passing of gas (flatulence)?", "preferredTerm": "PRO-CTCAE V1.0 Version Date 4/26/2020 - Gas Presence", "submissionValue": "PT01012A", "synonyms": ["PT01-Gas Presence"]}, {"conceptId": "C180061", "definition": "Patient-Reported Outcomes Version of the Common Terminology Criteria for Adverse Events Item Library Version 1.0 Version Date 4/26/2020 - In the last 7 days, how often did you have bloating of the abdomen (belly)?", "preferredTerm": "PRO-CTCAE V1.0 Version Date 4/26/2020 - Bloating Frequency", "submissionValue": "PT01013A", "synonyms": ["PT01-Bloating Frequency"]}, {"conceptId": "C180062", "definition": "Patient-Reported Outcomes Version of the Common Terminology Criteria for Adverse Events Item Library Version 1.0 Version Date 4/26/2020 - In the last 7 days, what was the severity of your bloating of the abdomen (belly) at its worst?", "preferredTerm": "PRO-CTCAE V1.0 Version Date 4/26/2020 - Bloating Severity", "submissionValue": "PT01013B", "synonyms": ["PT01-Bloating Severity"]}, {"conceptId": "C180063", "definition": "Patient-Reported Outcomes Version of the Common Terminology Criteria for Adverse Events Item Library Version 1.0 Version Date 4/26/2020 - In the last 7 days, how often did you have hiccups?", "preferredTerm": "PRO-CTCAE V1.0 Version Date 4/26/2020 - Hiccups Frequency", "submissionValue": "PT01014A", "synonyms": ["PT01-Hiccups Frequency"]}, {"conceptId": "C180064", "definition": "Patient-Reported Outcomes Version of the Common Terminology Criteria for Adverse Events Item Library Version 1.0 Version Date 4/26/2020 - In the last 7 days, what was the severity of your hiccups at their worst?", "preferredTerm": "PRO-CTCAE V1.0 Version Date 4/26/2020 - Hiccups Severity", "submissionValue": "PT01014B", "synonyms": ["PT01-Hiccups Severity"]}, {"conceptId": "C180065", "definition": "Patient-Reported Outcomes Version of the Common Terminology Criteria for Adverse Events Item Library Version 1.0 Version Date 4/26/2020 - In the last 7 days, what was the severity of your constipation at its worst?", "preferredTerm": "PRO-CTCAE V1.0 Version Date 4/26/2020 - Constipation Severity", "submissionValue": "PT01015A", "synonyms": ["PT01-Constipation Severity"]}, {"conceptId": "C180066", "definition": "Patient-Reported Outcomes Version of the Common Terminology Criteria for Adverse Events Item Library Version 1.0 Version Date 4/26/2020 - In the last 7 days, how often did you have loose or watery stools (diarrhea/diarrhoea)?", "preferredTerm": "PRO-CTCAE V1.0 Version Date 4/26/2020 - Diarrhea Frequency", "submissionValue": "PT01016A", "synonyms": ["PT01-Diarrhea Frequency"]}, {"conceptId": "C180067", "definition": "Patient-Reported Outcomes Version of the Common Terminology Criteria for Adverse Events Item Library Version 1.0 Version Date 4/26/2020 - In the last 7 days, how often did you have pain in the abdomen (belly area)?", "preferredTerm": "PRO-CTCAE V1.0 Version Date 4/26/2020 - Abdominal Pain Frequency", "submissionValue": "PT01017A", "synonyms": ["PT01-Abdominal Pain Frequency"]}, {"conceptId": "C180068", "definition": "Patient-Reported Outcomes Version of the Common Terminology Criteria for Adverse Events Item Library Version 1.0 Version Date 4/26/2020 - In the last 7 days, what was the severity of your pain in the abdomen (belly area) at its worst?", "preferredTerm": "PRO-CTCAE V1.0 Version Date 4/26/2020 - Abdominal Pain Severity", "submissionValue": "PT01017B", "synonyms": ["PT01-Abdominal Pain Severity"]}, {"conceptId": "C180069", "definition": "Patient-Reported Outcomes Version of the Common Terminology Criteria for Adverse Events Item Library Version 1.0 Version Date 4/26/2020 - In the last 7 days, how much did pain in the abdomen (belly area) interfere with your usual or daily activities?", "preferredTerm": "PRO-CTCAE V1.0 Version Date 4/26/2020 - Abdominal Pain Interference", "submissionValue": "PT01017C", "synonyms": ["PT01-Abdominal Pain Interference"]}, {"conceptId": "C180070", "definition": "Patient-Reported Outcomes Version of the Common Terminology Criteria for Adverse Events Item Library Version 1.0 Version Date 4/26/2020 - In the last 7 days, how often did you lose control of bowel movements?", "preferredTerm": "PRO-CTCAE V1.0 Version Date 4/26/2020 - Fecal Incontinence Frequency", "submissionValue": "PT01018A", "synonyms": ["PT01-Fecal Incontinence Frequency"]}, {"conceptId": "C180071", "definition": "Patient-Reported Outcomes Version of the Common Terminology Criteria for Adverse Events Item Library Version 1.0 Version Date 4/26/2020 - In the last 7 days, how much did loss of control of bowel movements interfere with your usual or daily activities?", "preferredTerm": "PRO-CTCAE V1.0 Version Date 4/26/2020 - Fecal Incontinence Interference", "submissionValue": "PT01018B", "synonyms": ["PT01-Fecal Incontinence Interference"]}, {"conceptId": "C180072", "definition": "Patient-Reported Outcomes Version of the Common Terminology Criteria for Adverse Events Item Library Version 1.0 Version Date 4/26/2020 - In the last 7 days, what was the severity of your shortness of breath at its worst?", "preferredTerm": "PRO-CTCAE V1.0 Version Date 4/26/2020 - Shortness of Breath Severity", "submissionValue": "PT01019A", "synonyms": ["PT01-Shortness of Breath Severity"]}, {"conceptId": "C180073", "definition": "Patient-Reported Outcomes Version of the Common Terminology Criteria for Adverse Events Item Library Version 1.0 Version Date 4/26/2020 - In the last 7 days, how much did your shortness of breath interfere with your usual or daily activities?", "preferredTerm": "PRO-CTCAE V1.0 Version Date 4/26/2020 - Shortness of Breath Interference", "submissionValue": "PT01019B", "synonyms": ["PT01-Shortness of Breath Interference"]}, {"conceptId": "C180074", "definition": "Patient-Reported Outcomes Version of the Common Terminology Criteria for Adverse Events Item Library Version 1.0 Version Date 4/26/2020 - In the last 7 days, what was the severity of your cough at its worst?", "preferredTerm": "PRO-CTCAE V1.0 Version Date 4/26/2020 - Cough Severity", "submissionValue": "PT01020A", "synonyms": ["PT01-Cough Severity"]}, {"conceptId": "C180075", "definition": "Patient-Reported Outcomes Version of the Common Terminology Criteria for Adverse Events Item Library Version 1.0 Version Date 4/26/2020 - In the last 7 days, how much did cough interfere with your usual or daily activities?", "preferredTerm": "PRO-CTCAE V1.0 Version Date 4/26/2020 - Cough Interference", "submissionValue": "PT01020B", "synonyms": ["PT01-Cough Interference"]}, {"conceptId": "C180076", "definition": "Patient-Reported Outcomes Version of the Common Terminology Criteria for Adverse Events Item Library Version 1.0 Version Date 4/26/2020 - In the last 7 days, what was the severity of your wheezing (whistling noise in the chest with breathing) at its worst?", "preferredTerm": "PRO-CTCAE V1.0 Version Date 4/26/2020 - Wheezing Severity", "submissionValue": "PT01021A", "synonyms": ["PT01-Wheezing Severity"]}, {"conceptId": "C180077", "definition": "Patient-Reported Outcomes Version of the Common Terminology Criteria for Adverse Events Item Library Version 1.0 Version Date 4/26/2020 - In the last 7 days, how often did you have arm or leg swelling?", "preferredTerm": "PRO-CTCAE V1.0 Version Date 4/26/2020 - Swelling Frequency", "submissionValue": "PT01022A", "synonyms": ["PT01-Swelling Frequency"]}, {"conceptId": "C180078", "definition": "Patient-Reported Outcomes Version of the Common Terminology Criteria for Adverse Events Item Library Version 1.0 Version Date 4/26/2020 - In the last 7 days, what was the severity of your arm or leg swelling at its worst?", "preferredTerm": "PRO-CTCAE V1.0 Version Date 4/26/2020 - Swelling Severity", "submissionValue": "PT01022B", "synonyms": ["PT01-Swelling Severity"]}, {"conceptId": "C180079", "definition": "Patient-Reported Outcomes Version of the Common Terminology Criteria for Adverse Events Item Library Version 1.0 Version Date 4/26/2020 - In the last 7 days, how much did arm or leg swelling interfere with your usual or daily activities?", "preferredTerm": "PRO-CTCAE V1.0 Version Date 4/26/2020 - Swelling Interference", "submissionValue": "PT01022C", "synonyms": ["PT01-Swelling Interference"]}, {"conceptId": "C180080", "definition": "Patient-Reported Outcomes Version of the Common Terminology Criteria for Adverse Events Item Library Version 1.0 Version Date 4/26/2020 - In the last 7 days, how often did you feel a pounding or racing heartbeat (palpitations)?", "preferredTerm": "PRO-CTCAE V1.0 Version Date 4/26/2020 - Heart Palpitations Frequency", "submissionValue": "PT01023A", "synonyms": ["PT01-Heart Palpitations Frequency"]}, {"conceptId": "C180081", "definition": "Patient-Reported Outcomes Version of the Common Terminology Criteria for Adverse Events Item Library Version 1.0 Version Date 4/26/2020 - In the last 7 days, what was the severity of your pounding or racing heartbeat (palpitations) at its worst?", "preferredTerm": "PRO-CTCAE V1.0 Version Date 4/26/2020 - Heart Palpitations Severity", "submissionValue": "PT01023B", "synonyms": ["PT01-Heart Palpitations Severity"]}, {"conceptId": "C180082", "definition": "Patient-Reported Outcomes Version of the Common Terminology Criteria for Adverse Events Item Library Version 1.0 Version Date 4/26/2020 - In the last 7 days, did you have any rash?", "preferredTerm": "PRO-CTCAE V1.0 Version Date 4/26/2020 - Rash Presence", "submissionValue": "PT01024A", "synonyms": ["PT01-Rash Presence"]}, {"conceptId": "C180083", "definition": "Patient-Reported Outcomes Version of the Common Terminology Criteria for Adverse Events Item Library Version 1.0 Version Date 4/26/2020 - In the last 7 days, what was the severity of your dry skin at its worst?", "preferredTerm": "PRO-CTCAE V1.0 Version Date 4/26/2020 - Skin Dryness Severity", "submissionValue": "PT01025A", "synonyms": ["PT01-Skin Dryness Severity"]}, {"conceptId": "C180084", "definition": "Patient-Reported Outcomes Version of the Common Terminology Criteria for Adverse Events Item Library Version 1.0 Version Date 4/26/2020 - In the last 7 days, what was the severity of your acne or pimples on the face or chest at its worst?", "preferredTerm": "PRO-CTCAE V1.0 Version Date 4/26/2020 - Acne Severity", "submissionValue": "PT01026A", "synonyms": ["PT01-Acne Severity"]}, {"conceptId": "C180085", "definition": "Patient-Reported Outcomes Version of the Common Terminology Criteria for Adverse Events Item Library Version 1.0 Version Date 4/26/2020 - In the last 7 days, did you have any hair loss?", "preferredTerm": "PRO-CTCAE V1.0 Version Date 4/26/2020 - Hair Loss Amount", "submissionValue": "PT01027A", "synonyms": ["PT01-Hair Loss Amount"]}, {"conceptId": "C180086", "definition": "Patient-Reported Outcomes Version of the Common Terminology Criteria for Adverse Events Item Library Version 1.0 Version Date 4/26/2020 - In the last 7 days, what was the severity of your itchy skin at its worst?", "preferredTerm": "PRO-CTCAE V1.0 Version Date 4/26/2020 - Itching Severity", "submissionValue": "PT01028A", "synonyms": ["PT01-Itching Severity"]}, {"conceptId": "C180087", "definition": "Patient-Reported Outcomes Version of the Common Terminology Criteria for Adverse Events Item Library Version 1.0 Version Date 4/26/2020 - In the last 7 days, did you have any hives (itchy red bumps on the skin)?", "preferredTerm": "PRO-CTCAE V1.0 Version Date 4/26/2020 - Hives Presence", "submissionValue": "PT01029A", "synonyms": ["PT01-Hives Presence"]}, {"conceptId": "C180088", "definition": "Patient-Reported Outcomes Version of the Common Terminology Criteria for Adverse Events Item Library Version 1.0 Version Date 4/26/2020 - In the last 7 days, what was the severity of your hand-foot syndrome (a rash of the hands or feet that can cause cracking, peeling, redness or pain) at its worst?", "preferredTerm": "PRO-CTCAE V1.0 Version Date 4/26/2020 - Hand-Foot Syndrome Severity", "submissionValue": "PT01030A", "synonyms": ["PT01-Hand-Foot Syndrome Severity"]}, {"conceptId": "C180089", "definition": "Patient-Reported Outcomes Version of the Common Terminology Criteria for Adverse Events Item Library Version 1.0 Version Date 4/26/2020 - In the last 7 days, did you lose any fingernails or toenails?", "preferredTerm": "PRO-CTCAE V1.0 Version Date 4/26/2020 - Nail Loss Presence", "submissionValue": "PT01031A", "synonyms": ["PT01-Nail Loss Presence"]}, {"conceptId": "C180090", "definition": "Patient-Reported Outcomes Version of the Common Terminology Criteria for Adverse Events Item Library Version 1.0 Version Date 4/26/2020 - In the last 7 days, did you have any ridges or bumps on your fingernails or toenails?", "preferredTerm": "PRO-CTCAE V1.0 Version Date 4/26/2020 - Nail Ridging Presence", "submissionValue": "PT01032A", "synonyms": ["PT01-Nail Ridging Presence"]}, {"conceptId": "C180091", "definition": "Patient-Reported Outcomes Version of the Common Terminology Criteria for Adverse Events Item Library Version 1.0 Version Date 4/26/2020 - In the last 7 days, did you have any change in the color of your fingernails or toenails?", "preferredTerm": "PRO-CTCAE V1.0 Version Date 4/26/2020 - Nail Discoloration Presence", "submissionValue": "PT01033A", "synonyms": ["PT01-Nail Discoloration Presence"]}, {"conceptId": "C180092", "definition": "Patient-Reported Outcomes Version of the Common Terminology Criteria for Adverse Events Item Library Version 1.0 Version Date 4/26/2020 - In the last 7 days, did you have any increased skin sensitivity to sunlight?", "preferredTerm": "PRO-CTCAE V1.0 Version Date 4/26/2020 - Sensitivity to Sunlight Presence", "submissionValue": "PT01034A", "synonyms": ["PT01-Sensitivity to Sunlight Presence"]}, {"conceptId": "C180093", "definition": "Patient-Reported Outcomes Version of the Common Terminology Criteria for Adverse Events Item Library Version 1.0 Version Date 4/26/2020 - In the last 7 days, did you have any bed sores?", "preferredTerm": "PRO-CTCAE V1.0 Version Date 4/26/2020 - Bed/Pressure Sores Presence", "submissionValue": "PT01035A", "synonyms": ["PT01-Bed/Pressure Sores Presence"]}, {"conceptId": "C180094", "definition": "Patient-Reported Outcomes Version of the Common Terminology Criteria for Adverse Events Item Library Version 1.0 Version Date 4/26/2020 - In the last 7 days, what was the severity of your skin burns from radiation at their worst?", "preferredTerm": "PRO-CTCAE V1.0 Version Date 4/26/2020 - Radiation Skin Reaction Severity", "submissionValue": "PT01036A", "synonyms": ["PT01-Radiation Skin Reaction Severity"]}, {"conceptId": "C180095", "definition": "Patient-Reported Outcomes Version of the Common Terminology Criteria for Adverse Events Item Library Version 1.0 Version Date 4/26/2020 - In the last 7 days, did you have any unusual darkening of the skin?", "preferredTerm": "PRO-CTCAE V1.0 Version Date 4/26/2020 - Skin Darkening Presence", "submissionValue": "PT01037A", "synonyms": ["PT01-Skin Darkening Presence"]}, {"conceptId": "C180096", "definition": "Patient-Reported Outcomes Version of the Common Terminology Criteria for Adverse Events Item Library Version 1.0 Version Date 4/26/2020 - In the last 7 days, did you have any stretch marks?", "preferredTerm": "PRO-CTCAE V1.0 Version Date 4/26/2020 - Stretch Marks Presence", "submissionValue": "PT01038A", "synonyms": ["PT01-Stretch Marks Presence"]}, {"conceptId": "C180097", "definition": "Patient-Reported Outcomes Version of the Common Terminology Criteria for Adverse Events Item Library Version 1.0 Version Date 4/26/2020 - In the last 7 days, what was the severity of your numbness or tingling in your hands or feet at its worst?", "preferredTerm": "PRO-CTCAE V1.0 Version Date 4/26/2020 - Numbness & Tingling Severity", "submissionValue": "PT01039A", "synonyms": ["PT01-Numbness & Tingling Severity"]}, {"conceptId": "C180098", "definition": "Patient-Reported Outcomes Version of the Common Terminology Criteria for Adverse Events Item Library Version 1.0 Version Date 4/26/2020 - In the last 7 days, how much did numbness or tingling in your hands or feet interfere with your usual or daily activities?", "preferredTerm": "PRO-CTCAE V1.0 Version Date 4/26/2020 - Numbness & Tingling Interference", "submissionValue": "PT01039B", "synonyms": ["PT01-Numbness & Tingling Interference"]}, {"conceptId": "C180099", "definition": "Patient-Reported Outcomes Version of the Common Terminology Criteria for Adverse Events Item Library Version 1.0 Version Date 4/26/2020 - In the last 7 days, what was the severity of your dizziness at its worst?", "preferredTerm": "PRO-CTCAE V1.0 Version Date 4/26/2020 - Dizziness Severity", "submissionValue": "PT01040A", "synonyms": ["PT01-Dizziness Severity"]}, {"conceptId": "C180100", "definition": "Patient-Reported Outcomes Version of the Common Terminology Criteria for Adverse Events Item Library Version 1.0 Version Date 4/26/2020 - In the last 7 days, how much did dizziness interfere with your usual or daily activities?", "preferredTerm": "PRO-CTCAE V1.0 Version Date 4/26/2020 - Dizziness Interference", "submissionValue": "PT01040B", "synonyms": ["PT01-Dizziness Interference"]}, {"conceptId": "C180101", "definition": "Patient-Reported Outcomes Version of the Common Terminology Criteria for Adverse Events Item Library Version 1.0 Version Date 4/26/2020 - In the last 7 days, what was the severity of your blurry vision at its worst?", "preferredTerm": "PRO-CTCAE V1.0 Version Date 4/26/2020 - Blurred Vision Severity", "submissionValue": "PT01041A", "synonyms": ["PT01-Blurred Vision Severity"]}, {"conceptId": "C180102", "definition": "Patient-Reported Outcomes Version of the Common Terminology Criteria for Adverse Events Item Library Version 1.0 Version Date 4/26/2020 - In the last 7 days, how much did blurry vision interfere with your usual or daily activities?", "preferredTerm": "PRO-CTCAE V1.0 Version Date 4/26/2020 - Blurred Vision Interference", "submissionValue": "PT01041B", "synonyms": ["PT01-Blurred Vision Interference"]}, {"conceptId": "C180103", "definition": "Patient-Reported Outcomes Version of the Common Terminology Criteria for Adverse Events Item Library Version 1.0 Version Date 4/26/2020 - In the last 7 days, did you have any flashing lights in front of your eyes?", "preferredTerm": "PRO-CTCAE V1.0 Version Date 4/26/2020 - Flashing Lights in Eyes Presence", "submissionValue": "PT01042A", "synonyms": ["PT01-Flashing Lights in Eyes Presence"]}, {"conceptId": "C180104", "definition": "Patient-Reported Outcomes Version of the Common Terminology Criteria for Adverse Events Item Library Version 1.0 Version Date 4/26/2020 - In the last 7 days, did you have any spots or lines (floaters) that drift in front of your eyes?", "preferredTerm": "PRO-CTCAE V1.0 Version Date 4/26/2020 - Visual Floaters Presence", "submissionValue": "PT01043A", "synonyms": ["PT01-Visual Floaters Presence"]}, {"conceptId": "C180105", "definition": "Patient-Reported Outcomes Version of the Common Terminology Criteria for Adverse Events Item Library Version 1.0 Version Date 4/26/2020 - In the last 7 days, what was the severity of your watery eyes (tearing) at their worst?", "preferredTerm": "PRO-CTCAE V1.0 Version Date 4/26/2020 - Watery Eyes Severity", "submissionValue": "PT01044A", "synonyms": ["PT01-Watery Eyes Severity"]}, {"conceptId": "C180106", "definition": "Patient-Reported Outcomes Version of the Common Terminology Criteria for Adverse Events Item Library Version 1.0 Version Date 4/26/2020 - In the last 7 days, how much did watery eyes (tearing) interfere with your usual or daily activities?", "preferredTerm": "PRO-CTCAE V1.0 Version Date 4/26/2020 - Watery Eyes Interference", "submissionValue": "PT01044B", "synonyms": ["PT01-Watery Eyes Interference"]}, {"conceptId": "C180107", "definition": "Patient-Reported Outcomes Version of the Common Terminology Criteria for Adverse Events Item Library Version 1.0 Version Date 4/26/2020 - In the last 7 days, what was the severity of ringing in your ears at its worst?", "preferredTerm": "PRO-CTCAE V1.0 Version Date 4/26/2020 - Ringing in Ears Severity", "submissionValue": "PT01045A", "synonyms": ["PT01-Ringing in Ears Severity"]}, {"conceptId": "C180108", "definition": "Patient-Reported Outcomes Version of the Common Terminology Criteria for Adverse Events Item Library Version 1.0 Version Date 4/26/2020 - In the last 7 days, what was the severity of your problems with concentration at their worst?", "preferredTerm": "PRO-CTCAE V1.0 Version Date 4/26/2020 - Concentration Problems Severity", "submissionValue": "PT01046A", "synonyms": ["PT01-Concentration Problems Severity"]}, {"conceptId": "C180109", "definition": "Patient-Reported Outcomes Version of the Common Terminology Criteria for Adverse Events Item Library Version 1.0 Version Date 4/26/2020 - In the last 7 days, how much did problems with concentration interfere with your usual or daily activities?", "preferredTerm": "PRO-CTCAE V1.0 Version Date 4/26/2020 - Concentration Problems Interference", "submissionValue": "PT01046B", "synonyms": ["PT01-Concentration Problems Interference"]}, {"conceptId": "C180110", "definition": "Patient-Reported Outcomes Version of the Common Terminology Criteria for Adverse Events Item Library Version 1.0 Version Date 4/26/2020 - In the last 7 days, what was the severity of your problems with memory at their worst?", "preferredTerm": "PRO-CTCAE V1.0 Version Date 4/26/2020 - Memory Problems Severity", "submissionValue": "PT01047A", "synonyms": ["PT01-Memory Problems Severity"]}, {"conceptId": "C180111", "definition": "Patient-Reported Outcomes Version of the Common Terminology Criteria for Adverse Events Item Library Version 1.0 Version Date 4/26/2020 - In the last 7 days, how much did problems with memory interfere with your usual or daily activities?", "preferredTerm": "PRO-CTCAE V1.0 Version Date 4/26/2020 - Memory Problems Interference", "submissionValue": "PT01047B", "synonyms": ["PT01-Memory Problems Interference"]}, {"conceptId": "C180112", "definition": "Patient-Reported Outcomes Version of the Common Terminology Criteria for Adverse Events Item Library Version 1.0 Version Date 4/26/2020 - In the last 7 days, how often did you have pain?", "preferredTerm": "PRO-CTCAE V1.0 Version Date 4/26/2020 - General Pain Frequency", "submissionValue": "PT01048A", "synonyms": ["PT01-General Pain Frequency"]}, {"conceptId": "C180113", "definition": "Patient-Reported Outcomes Version of the Common Terminology Criteria for Adverse Events Item Library Version 1.0 Version Date 4/26/2020 - In the last 7 days, what was the severity of your pain at its worst?", "preferredTerm": "PRO-CTCAE V1.0 Version Date 4/26/2020 - General Pain Severity", "submissionValue": "PT01048B", "synonyms": ["PT01-General Pain Severity"]}, {"conceptId": "C180114", "definition": "Patient-Reported Outcomes Version of the Common Terminology Criteria for Adverse Events Item Library Version 1.0 Version Date 4/26/2020 - In the last 7 days, how much did pain interfere with your usual or daily activities?", "preferredTerm": "PRO-CTCAE V1.0 Version Date 4/26/2020 - General Pain Interference", "submissionValue": "PT01048C", "synonyms": ["PT01-General Pain Interference"]}, {"conceptId": "C180115", "definition": "Patient-Reported Outcomes Version of the Common Terminology Criteria for Adverse Events Item Library Version 1.0 Version Date 4/26/2020 - In the last 7 days, how often did you have a headache?", "preferredTerm": "PRO-CTCAE V1.0 Version Date 4/26/2020 - Headache Frequency", "submissionValue": "PT01049A", "synonyms": ["PT01-Headache Frequency"]}, {"conceptId": "C180116", "definition": "Patient-Reported Outcomes Version of the Common Terminology Criteria for Adverse Events Item Library Version 1.0 Version Date 4/26/2020 - In the last 7 days, what was the severity of your headache at its worst?", "preferredTerm": "PRO-CTCAE V1.0 Version Date 4/26/2020 - Headache Severity", "submissionValue": "PT01049B", "synonyms": ["PT01-Headache Severity"]}, {"conceptId": "C180117", "definition": "Patient-Reported Outcomes Version of the Common Terminology Criteria for Adverse Events Item Library Version 1.0 Version Date 4/26/2020 - In the last 7 days, how much did your headache interfere with your usual or daily activities?", "preferredTerm": "PRO-CTCAE V1.0 Version Date 4/26/2020 - Headache Interference", "submissionValue": "PT01049C", "synonyms": ["PT01-Headache Interference"]}, {"conceptId": "C180118", "definition": "Patient-Reported Outcomes Version of the Common Terminology Criteria for Adverse Events Item Library Version 1.0 Version Date 4/26/2020 - In the last 7 days, how often did you have aching muscles?", "preferredTerm": "PRO-CTCAE V1.0 Version Date 4/26/2020 - Muscle Pain Frequency", "submissionValue": "PT01050A", "synonyms": ["PT01-Muscle Pain Frequency"]}, {"conceptId": "C180119", "definition": "Patient-Reported Outcomes Version of the Common Terminology Criteria for Adverse Events Item Library Version 1.0 Version Date 4/26/2020 - In the last 7 days, what was the severity of your aching muscles at their worst?", "preferredTerm": "PRO-CTCAE V1.0 Version Date 4/26/2020 - Muscle Pain Severity", "submissionValue": "PT01050B", "synonyms": ["PT01-Muscle Pain Severity"]}, {"conceptId": "C180120", "definition": "Patient-Reported Outcomes Version of the Common Terminology Criteria for Adverse Events Item Library Version 1.0 Version Date 4/26/2020 - In the last 7 days, how much did aching muscles interfere with your usual or daily activities?", "preferredTerm": "PRO-CTCAE V1.0 Version Date 4/26/2020 - Muscle Pain Interference", "submissionValue": "PT01050C", "synonyms": ["PT01-Muscle Pain Interference"]}, {"conceptId": "C180121", "definition": "Patient-Reported Outcomes Version of the Common Terminology Criteria for Adverse Events Item Library Version 1.0 Version Date 4/26/2020 - In the last 7 days, how often did you have aching joints (such as elbows, knees, shoulders)?", "preferredTerm": "PRO-CTCAE V1.0 Version Date 4/26/2020 - Joint Pain Frequency", "submissionValue": "PT01051A", "synonyms": ["PT01-Joint Pain Frequency"]}, {"conceptId": "C180122", "definition": "Patient-Reported Outcomes Version of the Common Terminology Criteria for Adverse Events Item Library Version 1.0 Version Date 4/26/2020 - In the last 7 days, what was the severity of your aching joints (such as elbows, knees, shoulders) at their worst?", "preferredTerm": "PRO-CTCAE V1.0 Version Date 4/26/2020 - Joint Pain Severity", "submissionValue": "PT01051B", "synonyms": ["PT01-Joint Pain Severity"]}, {"conceptId": "C180123", "definition": "Patient-Reported Outcomes Version of the Common Terminology Criteria for Adverse Events Item Library Version 1.0 Version Date 4/26/2020 - In the last 7 days, how much did aching joints (such as elbows, knees, shoulders) interfere with your usual or daily activities?", "preferredTerm": "PRO-CTCAE V1.0 Version Date 4/26/2020 - Joint Pain Interference", "submissionValue": "PT01051C", "synonyms": ["PT01-Joint Pain Interference"]}, {"conceptId": "C180124", "definition": "Patient-Reported Outcomes Version of the Common Terminology Criteria for Adverse Events Item Library Version 1.0 Version Date 4/26/2020 - In the last 7 days, what was the severity of your insomnia (including difficulty falling asleep, staying asleep, or waking up early) at its worst?", "preferredTerm": "PRO-CTCAE V1.0 Version Date 4/26/2020 - Insomnia Severity", "submissionValue": "PT01052A", "synonyms": ["PT01-Insomnia Severity"]}, {"conceptId": "C180125", "definition": "Patient-Reported Outcomes Version of the Common Terminology Criteria for Adverse Events Item Library Version 1.0 Version Date 4/26/2020 - In the last 7 days, how much did insomnia (including difficulty falling asleep, staying asleep, or waking up early) interfere with your usual or daily activities?", "preferredTerm": "PRO-CTCAE V1.0 Version Date 4/26/2020 - Insomnia Interference", "submissionValue": "PT01052B", "synonyms": ["PT01-Insomnia Interference"]}, {"conceptId": "C180126", "definition": "Patient-Reported Outcomes Version of the Common Terminology Criteria for Adverse Events Item Library Version 1.0 Version Date 4/26/2020 - In the last 7 days, what was the severity of your fatigue, tiredness, or lack of energy at its worst?", "preferredTerm": "PRO-CTCAE V1.0 Version Date 4/26/2020 - Fatigue Severity", "submissionValue": "PT01053A", "synonyms": ["PT01-Fatigue Severity"]}, {"conceptId": "C180127", "definition": "Patient-Reported Outcomes Version of the Common Terminology Criteria for Adverse Events Item Library Version 1.0 Version Date 4/26/2020 - In the last 7 days, how much did fatigue, tiredness, or lack of energy interfere with your usual or daily activities?", "preferredTerm": "PRO-CTCAE V1.0 Version Date 4/26/2020 - Fatigue Interference", "submissionValue": "PT01053B", "synonyms": ["PT01-Fatigue Interference"]}, {"conceptId": "C180128", "definition": "Patient-Reported Outcomes Version of the Common Terminology Criteria for Adverse Events Item Library Version 1.0 Version Date 4/26/2020 - In the last 7 days, how often did you feel anxiety?", "preferredTerm": "PRO-CTCAE V1.0 Version Date 4/26/2020 - Anxious Frequency", "submissionValue": "PT01054A", "synonyms": ["PT01-Anxious Frequency"]}, {"conceptId": "C180129", "definition": "Patient-Reported Outcomes Version of the Common Terminology Criteria for Adverse Events Item Library Version 1.0 Version Date 4/26/2020 - In the last 7 days, what was the severity of your anxiety at its worst?", "preferredTerm": "PRO-CTCAE V1.0 Version Date 4/26/2020 - Anxious Severity", "submissionValue": "PT01054B", "synonyms": ["PT01-Anxious Severity"]}, {"conceptId": "C180130", "definition": "Patient-Reported Outcomes Version of the Common Terminology Criteria for Adverse Events Item Library Version 1.0 Version Date 4/26/2020 - In the last 7 days, how much did anxiety interfere with your usual or daily activities?", "preferredTerm": "PRO-CTCAE V1.0 Version Date 4/26/2020 - Anxious Interference", "submissionValue": "PT01054C", "synonyms": ["PT01-Anxious Interference"]}, {"conceptId": "C180131", "definition": "Patient-Reported Outcomes Version of the Common Terminology Criteria for Adverse Events Item Library Version 1.0 Version Date 4/26/2020 - In the last 7 days, how often did you feel that nothing could cheer you up?", "preferredTerm": "PRO-CTCAE V1.0 Version Date 4/26/2020 - Discouraged Frequency", "submissionValue": "PT01055A", "synonyms": ["PT01-Discouraged Frequency"]}, {"conceptId": "C180132", "definition": "Patient-Reported Outcomes Version of the Common Terminology Criteria for Adverse Events Item Library Version 1.0 Version Date 4/26/2020 - In the last 7 days, what was the severity of your feelings that nothing could cheer you up at their worst?", "preferredTerm": "PRO-CTCAE V1.0 Version Date 4/26/2020 - Discouraged Severity", "submissionValue": "PT01055B", "synonyms": ["PT01-Discouraged Severity"]}, {"conceptId": "C180133", "definition": "Patient-Reported Outcomes Version of the Common Terminology Criteria for Adverse Events Item Library Version 1.0 Version Date 4/26/2020 - In the last 7 days, how much did feeling that nothing could cheer you up interfere with your usual or daily activities?", "preferredTerm": "PRO-CTCAE V1.0 Version Date 4/26/2020 - Discouraged Interference", "submissionValue": "PT01055C", "synonyms": ["PT01-Discouraged Interference"]}, {"conceptId": "C180134", "definition": "Patient-Reported Outcomes Version of the Common Terminology Criteria for Adverse Events Item Library Version 1.0 Version Date 4/26/2020 - In the last 7 days, how often did you have sad or unhappy feelings?", "preferredTerm": "PRO-CTCAE V1.0 Version Date 4/26/2020 - Sad Frequency", "submissionValue": "PT01056A", "synonyms": ["PT01-Sad Frequency"]}, {"conceptId": "C180135", "definition": "Patient-Reported Outcomes Version of the Common Terminology Criteria for Adverse Events Item Library Version 1.0 Version Date 4/26/2020 - In the last 7 days, what was the severity of your sad or unhappy feelings at their worst?", "preferredTerm": "PRO-CTCAE V1.0 Version Date 4/26/2020 - Sad Severity", "submissionValue": "PT01056B", "synonyms": ["PT01-Sad Severity"]}, {"conceptId": "C180136", "definition": "Patient-Reported Outcomes Version of the Common Terminology Criteria for Adverse Events Item Library Version 1.0 Version Date 4/26/2020 - In the last 7 days, how much did sad or unhappy feelings interfere with your usual or daily activities?", "preferredTerm": "PRO-CTCAE V1.0 Version Date 4/26/2020 - Sad Interference", "submissionValue": "PT01056C", "synonyms": ["PT01-Sad Interference"]}, {"conceptId": "C180137", "definition": "Patient-Reported Outcomes Version of the Common Terminology Criteria for Adverse Events Item Library Version 1.0 Version Date 4/26/2020 - In the last 7 days, did you have any irregular menstrual periods?", "preferredTerm": "PRO-CTCAE V1.0 Version Date 4/26/2020 - Irregular Menstrual Period Presence", "submissionValue": "PT01057A", "synonyms": ["PT01-Irregular Menstrual Period Presence"]}, {"conceptId": "C180138", "definition": "Patient-Reported Outcomes Version of the Common Terminology Criteria for Adverse Events Item Library Version 1.0 Version Date 4/26/2020 - In the last 7 days, did you miss an expected menstrual period?", "preferredTerm": "PRO-CTCAE V1.0 Version Date 4/26/2020 - Missed Menstrual Period Presence", "submissionValue": "PT01058A", "synonyms": ["PT01-Missed Menstrual Period Presence"]}, {"conceptId": "C180139", "definition": "Patient-Reported Outcomes Version of the Common Terminology Criteria for Adverse Events Item Library Version 1.0 Version Date 4/26/2020 - In the last 7 days, did you have any unusual vaginal discharge?", "preferredTerm": "PRO-CTCAE V1.0 Version Date 4/26/2020 - Vaginal Discharge Amount", "submissionValue": "PT01059A", "synonyms": ["PT01-Vaginal Discharge Amount"]}, {"conceptId": "C180140", "definition": "Patient-Reported Outcomes Version of the Common Terminology Criteria for Adverse Events Item Library Version 1.0 Version Date 4/26/2020 - In the last 7 days, what was the severity of your vaginal dryness at its worst?", "preferredTerm": "PRO-CTCAE V1.0 Version Date 4/26/2020 - Vaginal Dryness Severity", "submissionValue": "PT01060A", "synonyms": ["PT01-Vaginal Dryness Severity"]}, {"conceptId": "C180141", "definition": "Patient-Reported Outcomes Version of the Common Terminology Criteria for Adverse Events Item Library Version 1.0 Version Date 4/26/2020 - In the last 7 days, what was the severity of your pain or burning with urination at its worst?", "preferredTerm": "PRO-CTCAE V1.0 Version Date 4/26/2020 - Painful Urination Severity", "submissionValue": "PT01061A", "synonyms": ["PT01-Painful Urination Severity"]}, {"conceptId": "C180142", "definition": "Patient-Reported Outcomes Version of the Common Terminology Criteria for Adverse Events Item Library Version 1.0 Version Date 4/26/2020 - In the last 7 days, how often did you feel an urge to urinate all of a sudden?", "preferredTerm": "PRO-CTCAE V1.0 Version Date 4/26/2020 - Urinary Urgency Frequency", "submissionValue": "PT01062A", "synonyms": ["PT01-Urinary Urgency Frequency"]}, {"conceptId": "C180143", "definition": "Patient-Reported Outcomes Version of the Common Terminology Criteria for Adverse Events Item Library Version 1.0 Version Date 4/26/2020 - In the last 7 days, how much did sudden urges to urinate interfere with your usual or daily activities?", "preferredTerm": "PRO-CTCAE V1.0 Version Date 4/26/2020 - Urinary Urgency Interference", "submissionValue": "PT01062B", "synonyms": ["PT01-Urinary Urgency Interference"]}, {"conceptId": "C180144", "definition": "Patient-Reported Outcomes Version of the Common Terminology Criteria for Adverse Events Item Library Version 1.0 Version Date 4/26/2020 - In the last 7 days, were there times when you had to urinate frequently?", "preferredTerm": "PRO-CTCAE V1.0 Version Date 4/26/2020 - Urinary Frequency Frequency", "submissionValue": "PT01063A", "synonyms": ["PT01-Urinary Frequency Frequency"]}, {"conceptId": "C180145", "definition": "Patient-Reported Outcomes Version of the Common Terminology Criteria for Adverse Events Item Library Version 1.0 Version Date 4/26/2020 - In the last 7 days, how much did frequent urination interfere with your usual or daily activities?", "preferredTerm": "PRO-CTCAE V1.0 Version Date 4/26/2020 - Urinary Frequency Interference", "submissionValue": "PT01063B", "synonyms": ["PT01-Urinary Frequency Interference"]}, {"conceptId": "C180146", "definition": "Patient-Reported Outcomes Version of the Common Terminology Criteria for Adverse Events Item Library Version 1.0 Version Date 4/26/2020 - In the last 7 days, did you have any urine color change?", "preferredTerm": "PRO-CTCAE V1.0 Version Date 4/26/2020 - Urine Color Change Presence", "submissionValue": "PT01064A", "synonyms": ["PT01-Urine Color Change Presence"]}, {"conceptId": "C180147", "definition": "Patient-Reported Outcomes Version of the Common Terminology Criteria for Adverse Events Item Library Version 1.0 Version Date 4/26/2020 - In the last 7 days, how often did you have loss of control of urine (leakage)?", "preferredTerm": "PRO-CTCAE V1.0 Version Date 4/26/2020 - Urinary Incontinence Frequency", "submissionValue": "PT01065A", "synonyms": ["PT01-Urinary Incontinence Frequency"]}, {"conceptId": "C180148", "definition": "Patient-Reported Outcomes Version of the Common Terminology Criteria for Adverse Events Item Library Version 1.0 Version Date 4/26/2020 - In the last 7 days, how much did loss of control of urine (leakage) interfere with your usual or daily activities?", "preferredTerm": "PRO-CTCAE V1.0 Version Date 4/26/2020 - Urinary Incontinence Interference", "submissionValue": "PT01065B", "synonyms": ["PT01-Urinary Incontinence Interference"]}, {"conceptId": "C180149", "definition": "Patient-Reported Outcomes Version of the Common Terminology Criteria for Adverse Events Item Library Version 1.0 Version Date 4/26/2020 - In the last 7 days, what was the severity of your difficulty getting or keeping an erection at its worst?", "preferredTerm": "PRO-CTCAE V1.0 Version Date 4/26/2020 - Achieve&Maintain Erection Severity", "submissionValue": "PT01066A", "synonyms": ["PT01-Achieve&Maintain Erection Severity"]}, {"conceptId": "C180150", "definition": "Patient-Reported Outcomes Version of the Common Terminology Criteria for Adverse Events Item Library Version 1.0 Version Date 4/26/2020 - In the last 7 days, how often did you have ejaculation problems?", "preferredTerm": "PRO-CTCAE V1.0 Version Date 4/26/2020 - Ejaculation Frequency", "submissionValue": "PT01067A", "synonyms": ["PT01-Ejaculation Frequency"]}, {"conceptId": "C180151", "definition": "Patient-Reported Outcomes Version of the Common Terminology Criteria for Adverse Events Item Library Version 1.0 Version Date 4/26/2020 - In the last 7 days, what was the severity of your decreased sexual interest at its worst?", "preferredTerm": "PRO-CTCAE V1.0 Version Date 4/26/2020 - Decreased Libido Severity", "submissionValue": "PT01068A", "synonyms": ["PT01-Decreased Libido Severity"]}, {"conceptId": "C180152", "definition": "Patient-Reported Outcomes Version of the Common Terminology Criteria for Adverse Events Item Library Version 1.0 Version Date 4/26/2020 - In the last 7 days, did you feel that it took too long to have an orgasm or climax?", "preferredTerm": "PRO-CTCAE V1.0 Version Date 4/26/2020 - Delayed Orgasm Presence", "submissionValue": "PT01069A", "synonyms": ["PT01-Delayed Orgasm Presence"]}, {"conceptId": "C180153", "definition": "Patient-Reported Outcomes Version of the Common Terminology Criteria for Adverse Events Item Library Version 1.0 Version Date 4/26/2020 - In the last 7 days, were you unable to have an orgasm or climax?", "preferredTerm": "PRO-CTCAE V1.0 Version Date 4/26/2020 - Unable to Have Orgasm Presence", "submissionValue": "PT01070A", "synonyms": ["PT01-Unable to Have Orgasm Presence"]}, {"conceptId": "C180154", "definition": "Patient-Reported Outcomes Version of the Common Terminology Criteria for Adverse Events Item Library Version 1.0 Version Date 4/26/2020 - In the last 7 days, what was the severity of your pain during vaginal sex at its worst?", "preferredTerm": "PRO-CTCAE V1.0 Version Date 4/26/2020 - Pain w/Sexual Intercourse Severity", "submissionValue": "PT01071A", "synonyms": ["PT01-Pain w/Sexual Intercourse Severity"]}, {"conceptId": "C180155", "definition": "Patient-Reported Outcomes Version of the Common Terminology Criteria for Adverse Events Item Library Version 1.0 Version Date 4/26/2020 - In the last 7 days, what was the severity of your breast area enlargement or tenderness at its worst?", "preferredTerm": "PRO-CTCAE V1.0 Version Date 4/26/2020 - Breast Swelling&Tenderness Severity", "submissionValue": "PT01072A", "synonyms": ["PT01-Breast Swelling&Tenderness Severity"]}, {"conceptId": "C180156", "definition": "Patient-Reported Outcomes Version of the Common Terminology Criteria for Adverse Events Item Library Version 1.0 Version Date 4/26/2020 - In the last 7 days, did you bruise easily (black and blue marks)?", "preferredTerm": "PRO-CTCAE V1.0 Version Date 4/26/2020 - Bruising Presence", "submissionValue": "PT01073A", "synonyms": ["PT01-Bruising Presence"]}, {"conceptId": "C180157", "definition": "Patient-Reported Outcomes Version of the Common Terminology Criteria for Adverse Events Item Library Version 1.0 Version Date 4/26/2020 - In the last 7 days, how often did you have shivering or shaking chills?", "preferredTerm": "PRO-CTCAE V1.0 Version Date 4/26/2020 - Chills Frequency", "submissionValue": "PT01074A", "synonyms": ["PT01-Chills Frequency"]}, {"conceptId": "C180158", "definition": "Patient-Reported Outcomes Version of the Common Terminology Criteria for Adverse Events Item Library Version 1.0 Version Date 4/26/2020 - In the last 7 days, what was the severity of your shivering or shaking chills at their worst?", "preferredTerm": "PRO-CTCAE V1.0 Version Date 4/26/2020 - Chills Severity", "submissionValue": "PT01074B", "synonyms": ["PT01-Chills Severity"]}, {"conceptId": "C180159", "definition": "Patient-Reported Outcomes Version of the Common Terminology Criteria for Adverse Events Item Library Version 1.0 Version Date 4/26/2020 - In the last 7 days, how often did you have unexpected or excessive sweating during the day or nighttime (not related to hot flashes/flushes)?", "preferredTerm": "PRO-CTCAE V1.0 Version Date 4/26/2020 - Increased Sweating Frequency", "submissionValue": "PT01075A", "synonyms": ["PT01-Increased Sweating Frequency"]}, {"conceptId": "C180160", "definition": "Patient-Reported Outcomes Version of the Common Terminology Criteria for Adverse Events Item Library Version 1.0 Version Date 4/26/2020 - In the last 7 days, what was the severity of your unexpected or excessive sweating during the day or nighttime (not related to hot flashes/flushes) at its worst?", "preferredTerm": "PRO-CTCAE V1.0 Version Date 4/26/2020 - Increased Sweating Severity", "submissionValue": "PT01075B", "synonyms": ["PT01-Increased Sweating Severity"]}, {"conceptId": "C180161", "definition": "Patient-Reported Outcomes Version of the Common Terminology Criteria for Adverse Events Item Library Version 1.0 Version Date 4/26/2020 - In the last 7 days, did you have an unexpected decrease in sweating?", "preferredTerm": "PRO-CTCAE V1.0 Version Date 4/26/2020 - Decreased Sweating Presence", "submissionValue": "PT01076A", "synonyms": ["PT01-Decreased Sweating Presence"]}, {"conceptId": "C180162", "definition": "Patient-Reported Outcomes Version of the Common Terminology Criteria for Adverse Events Item Library Version 1.0 Version Date 4/26/2020 - In the last 7 days, how often did you have hot flashes/flushes?", "preferredTerm": "PRO-CTCAE V1.0 Version Date 4/26/2020 - Hot Flashes Frequency", "submissionValue": "PT01077A", "synonyms": ["PT01-Hot Flashes Frequency"]}, {"conceptId": "C180163", "definition": "Patient-Reported Outcomes Version of the Common Terminology Criteria for Adverse Events Item Library Version 1.0 Version Date 4/26/2020 - In the last 7 days, what was the severity of your hot flashes/flushes at their worst?", "preferredTerm": "PRO-CTCAE V1.0 Version Date 4/26/2020 - Hot Flashes Severity", "submissionValue": "PT01077B", "synonyms": ["PT01-Hot Flashes Severity"]}, {"conceptId": "C180164", "definition": "Patient-Reported Outcomes Version of the Common Terminology Criteria for Adverse Events Item Library Version 1.0 Version Date 4/26/2020 - In the last 7 days, how often did you have nosebleeds?", "preferredTerm": "PRO-CTCAE V1.0 Version Date 4/26/2020 - Nosebleed Frequency", "submissionValue": "PT01078A", "synonyms": ["PT01-Nosebleed Frequency"]}, {"conceptId": "C180165", "definition": "Patient-Reported Outcomes Version of the Common Terminology Criteria for Adverse Events Item Library Version 1.0 Version Date 4/26/2020 - In the last 7 days, what was the severity of your nosebleeds at their worst?", "preferredTerm": "PRO-CTCAE V1.0 Version Date 4/26/2020 - Nosebleed Severity", "submissionValue": "PT01078B", "synonyms": ["PT01-Nosebleed Severity"]}, {"conceptId": "C180166", "definition": "Patient-Reported Outcomes Version of the Common Terminology Criteria for Adverse Events Item Library Version 1.0 Version Date 4/26/2020 - In the last 7 days, did you have any pain, swelling, or redness at a site of drug injection or IV?", "preferredTerm": "PRO-CTCAE V1.0 Version Date 4/26/2020 - Pain&Swelling at Inj Site Presence", "submissionValue": "PT01079A", "synonyms": ["PT01-Pain&Swelling at Inj Site Presence"]}, {"conceptId": "C180167", "definition": "Patient-Reported Outcomes Version of the Common Terminology Criteria for Adverse Events Item Library Version 1.0 Version Date 4/26/2020 - In the last 7 days, what was the severity of your body odor at its worst?", "preferredTerm": "PRO-CTCAE V1.0 Version Date 4/26/2020 - Body Odor Severity", "submissionValue": "PT01080A", "synonyms": ["PT01-Body Odor Severity"]}, {"conceptId": "C180168", "definition": "Patient-Reported Outcomes Version of the Common Terminology Criteria for Adverse Events Item Library Version 1.0 Version Date 4/26/2020 - Do you have any other symptoms that you wish to report?", "preferredTerm": "PRO-CTCAE V1.0 Version Date 4/26/2020 - Any Other Symptoms Reported", "submissionValue": "PT01081", "synonyms": ["PT01-Any Other Symptoms Reported"]}, {"conceptId": "C180169", "definition": "Patient-Reported Outcomes Version of the Common Terminology Criteria for Adverse Events Item Library Version 1.0 Version Date 4/26/2020 - Other symptom term 1?", "preferredTerm": "PRO-CTCAE V1.0 Version Date 4/26/2020 - Other Symptom 1", "submissionValue": "PT01082A", "synonyms": ["PT01-Other Symptom 1"]}, {"conceptId": "C180170", "definition": "Patient-Reported Outcomes Version of the Common Terminology Criteria for Adverse Events Item Library Version 1.0 Version Date 4/26/2020 - In the last 7 days, what was the severity of this symptom 1 at its worst?", "preferredTerm": "PRO-CTCAE V1.0 Version Date 4/26/2020 - Other Symptom 1 Severity", "submissionValue": "PT01082B", "synonyms": ["PT01-Other Symptom 1 Severity"]}, {"conceptId": "C180171", "definition": "Patient-Reported Outcomes Version of the Common Terminology Criteria for Adverse Events Item Library Version 1.0 Version Date 4/26/2020 - Other symptom term 2?", "preferredTerm": "PRO-CTCAE V1.0 Version Date 4/26/2020 - Other Symptom 2", "submissionValue": "PT01083A", "synonyms": ["PT01-Other Symptom 2"]}, {"conceptId": "C180172", "definition": "Patient-Reported Outcomes Version of the Common Terminology Criteria for Adverse Events Item Library Version 1.0 Version Date 4/26/2020 - In the last 7 days, what was the severity of this symptom 2 at its worst?", "preferredTerm": "PRO-CTCAE V1.0 Version Date 4/26/2020 - Other Symptom 2 Severity", "submissionValue": "PT01083B", "synonyms": ["PT01-Other Symptom 2 Severity"]}, {"conceptId": "C180173", "definition": "Patient-Reported Outcomes Version of the Common Terminology Criteria for Adverse Events Item Library Version 1.0 Version Date 4/26/2020 - Other symptom term 3?", "preferredTerm": "PRO-CTCAE V1.0 Version Date 4/26/2020 - Other Symptom 3", "submissionValue": "PT01084A", "synonyms": ["PT01-Other Symptom 3"]}, {"conceptId": "C180174", "definition": "Patient-Reported Outcomes Version of the Common Terminology Criteria for Adverse Events Item Library Version 1.0 Version Date 4/26/2020 - In the last 7 days, what was the severity of this symptom 3 at its worst?", "preferredTerm": "PRO-CTCAE V1.0 Version Date 4/26/2020 - Other Symptom 3 Severity", "submissionValue": "PT01084B", "synonyms": ["PT01-Other Symptom 3 Severity"]}, {"conceptId": "C180175", "definition": "Patient-Reported Outcomes Version of the Common Terminology Criteria for Adverse Events Item Library Version 1.0 Version Date 4/26/2020 - Other symptom term 4?", "preferredTerm": "PRO-CTCAE V1.0 Version Date 4/26/2020 - Other Symptom 4", "submissionValue": "PT01085A", "synonyms": ["PT01-Other Symptom 4"]}, {"conceptId": "C180176", "definition": "Patient-Reported Outcomes Version of the Common Terminology Criteria for Adverse Events Item Library Version 1.0 Version Date 4/26/2020 - In the last 7 days, what was the severity of this symptom 4 at its worst?", "preferredTerm": "PRO-CTCAE V1.0 Version Date 4/26/2020 - Other Symptom 4 Severity", "submissionValue": "PT01085B", "synonyms": ["PT01-Other Symptom 4 Severity"]}, {"conceptId": "C180177", "definition": "Patient-Reported Outcomes Version of the Common Terminology Criteria for Adverse Events Item Library Version 1.0 Version Date 4/26/2020 - Other symptom term 5?", "preferredTerm": "PRO-CTCAE V1.0 Version Date 4/26/2020 - Other Symptom 5", "submissionValue": "PT01086A", "synonyms": ["PT01-Other Symptom 5"]}, {"conceptId": "C180178", "definition": "Patient-Reported Outcomes Version of the Common Terminology Criteria for Adverse Events Item Library Version 1.0 Version Date 4/26/2020 - In the last 7 days, what was the severity of this symptom 5 at its worst?", "preferredTerm": "PRO-CTCAE V1.0 Version Date 4/26/2020 - Other Symptom 5 Severity", "submissionValue": "PT01086B", "synonyms": ["PT01-Other Symptom 5 Severity"]}, {"conceptId": "C180179", "definition": "Patient-Reported Outcomes Version of the Common Terminology Criteria for Adverse Events Item Library Version 1.0 Version Date 4/26/2020 - Other symptom term 6?", "preferredTerm": "PRO-CTCAE V1.0 Version Date 4/26/2020 - Other Symptom 6", "submissionValue": "PT01087A", "synonyms": ["PT01-Other Symptom 6"]}, {"conceptId": "C180180", "definition": "Patient-Reported Outcomes Version of the Common Terminology Criteria for Adverse Events Item Library Version 1.0 Version Date 4/26/2020 - In the last 7 days, what was the severity of this symptom 6 at its worst?", "preferredTerm": "PRO-CTCAE V1.0 Version Date 4/26/2020 - Other Symptom 6 Severity", "submissionValue": "PT01087B", "synonyms": ["PT01-Other Symptom 6 Severity"]}, {"conceptId": "C180181", "definition": "Patient-Reported Outcomes Version of the Common Terminology Criteria for Adverse Events Item Library Version 1.0 Version Date 4/26/2020 - Other symptom term 7?", "preferredTerm": "PRO-CTCAE V1.0 Version Date 4/26/2020 - Other Symptom 7", "submissionValue": "PT01088A", "synonyms": ["PT01-Other Symptom 7"]}, {"conceptId": "C180182", "definition": "Patient-Reported Outcomes Version of the Common Terminology Criteria for Adverse Events Item Library Version 1.0 Version Date 4/26/2020 - In the last 7 days, what was the severity of this symptom 7 at its worst?", "preferredTerm": "PRO-CTCAE V1.0 Version Date 4/26/2020 - Other Symptom 7 Severity", "submissionValue": "PT01088B", "synonyms": ["PT01-Other Symptom 7 Severity"]}, {"conceptId": "C180183", "definition": "Patient-Reported Outcomes Version of the Common Terminology Criteria for Adverse Events Item Library Version 1.0 Version Date 4/26/2020 - Other symptom term 8?", "preferredTerm": "PRO-CTCAE V1.0 Version Date 4/26/2020 - Other Symptom 8", "submissionValue": "PT01089A", "synonyms": ["PT01-Other Symptom 8"]}, {"conceptId": "C180184", "definition": "Patient-Reported Outcomes Version of the Common Terminology Criteria for Adverse Events Item Library Version 1.0 Version Date 4/26/2020 - In the last 7 days, what was the severity of this symptom 8 at its worst?", "preferredTerm": "PRO-CTCAE V1.0 Version Date 4/26/2020 - Other Symptom 8 Severity", "submissionValue": "PT01089B", "synonyms": ["PT01-Other Symptom 8 Severity"]}, {"conceptId": "C180185", "definition": "Patient-Reported Outcomes Version of the Common Terminology Criteria for Adverse Events Item Library Version 1.0 Version Date 4/26/2020 - Other symptom term 9?", "preferredTerm": "PRO-CTCAE V1.0 Version Date 4/26/2020 - Other Symptom 9", "submissionValue": "PT01090A", "synonyms": ["PT01-Other Symptom 9"]}, {"conceptId": "C180186", "definition": "Patient-Reported Outcomes Version of the Common Terminology Criteria for Adverse Events Item Library Version 1.0 Version Date 4/26/2020 - In the last 7 days, what was the severity of this symptom 9 at its worst?", "preferredTerm": "PRO-CTCAE V1.0 Version Date 4/26/2020 - Other Symptom 9 Severity", "submissionValue": "PT01090B", "synonyms": ["PT01-Other Symptom 9 Severity"]}, {"conceptId": "C180187", "definition": "Patient-Reported Outcomes Version of the Common Terminology Criteria for Adverse Events Item Library Version 1.0 Version Date 4/26/2020 - Other symptom term 10?", "preferredTerm": "PRO-CTCAE V1.0 Version Date 4/26/2020 - Other Symptom 10", "submissionValue": "PT01091A", "synonyms": ["PT01-Other Symptom 10"]}, {"conceptId": "C180188", "definition": "Patient-Reported Outcomes Version of the Common Terminology Criteria for Adverse Events Item Library Version 1.0 Version Date 4/26/2020 - In the last 7 days, what was the severity of this symptom 10 at its worst?", "preferredTerm": "PRO-CTCAE V1.0 Version Date 4/26/2020 - Other Symptom 10 Severity", "submissionValue": "PT01091B", "synonyms": ["PT01-Other Symptom 10 Severity"]}]}