{"_links": {"parentPackage": {"href": "/mdr/ct/packages/sdtmct-2022-06-24", "title": "SDTM Controlled Terminology Package 50 Effective 2022-06-24", "type": "Terminology"}, "priorVersion": {"href": "/mdr/ct/packages/sdtmct-2022-03-25/codelists/C181169", "title": "CDISC SDTM Binding Agent for Immunogenicity Tests Terminology", "type": "Code List"}, "rootItem": {"href": "/mdr/root/ct/sdtmct/codelists/C181169", "title": "Version-agnostic anchor resource for codelist C181169", "type": "Root Value Domain"}, "self": {"href": "/mdr/ct/packages/sdtmct-2022-06-24/codelists/C181169", "title": "CDISC SDTM Binding Agent for Immunogenicity Tests Terminology", "type": "Code List"}}, "conceptId": "C181169", "definition": "A terminology codelist relevant to the description of the agent that is binding to the entity in the ISTEST variable.", "extensible": "true", "name": "Binding Agent for Immunogenicity Tests", "preferredTerm": "CDISC SDTM Binding Agent for Immunogenicity Tests Terminology", "submissionValue": "ISBDAGT", "synonyms": ["Binding Agent for Immunogenicity Tests"], "terms": [{"conceptId": "C181357", "definition": "A mixture of allergens obtained from animals.", "preferredTerm": "Animal Mix Antigens", "submissionValue": "ANIMAL MIX ANTIGENS, MULTIPLE"}, {"conceptId": "C187753", "definition": "The approximately 220-250 kDa cell surface, adhesin protein and the virulence factor for Bordetella pertussis.", "preferredTerm": "Bordetella pertussis Filamentous Hemagglutinin", "submissionValue": "BORDETELLA PERTUSSIS FILAMENTOUS HEMAGGLUTININ", "synonyms": ["Bordetella pertussis FHA"]}, {"conceptId": "C187754", "definition": "A mixture of fimbriae antigens from Bordetella pertussis.", "preferredTerm": "Bordetella pertussis Fimbriae Antigens", "submissionValue": "BORDETELLA PERTUSSIS FIMBRIAE ANTIGENS, MULTIPLE"}, {"conceptId": "C77699", "definition": "The approximately 69 kDa cell surface, autotransporter protein and the virulence factor for Bordetella pertussis.", "preferredTerm": "Bordetella pertussis Pertactin Antigen", "submissionValue": "BORDETELLA PERTUSSIS PERTACTIN", "synonyms": ["PRN"]}, {"conceptId": "C187755", "definition": "The approximately 105 kDa secreted exotoxin and the virulence factor for Bordetella pertussis.", "preferredTerm": "Bordetella pertussis Toxin", "submissionValue": "BORDETELLA PERTUSSIS TOXIN", "synonyms": ["PT"]}, {"conceptId": "C181359", "definition": "An animal allergen in the form of dander (skin flakes) produced by the species Felis catus (domestic cat).", "preferredTerm": "Cat Dander Antigen", "submissionValue": "CAT DANDER ANTIGEN", "synonyms": ["Domestic Cat Dander Antigen", "Felis catus Dander Antigen"]}, {"conceptId": "C187757", "definition": "The approximately 150 kDa secreted protein toxin and the virulence factor for Clostridium tetani.", "preferredTerm": "Clostridium tetani Toxin", "submissionValue": "CLOSTRIDIUM TETANI TOXIN", "synonyms": ["TeNT", "Tetanospasmin", "Tetanus Toxin"]}, {"conceptId": "C187758", "definition": "The purified and detoxified form of the Clostridium tetani toxin. Toxicity of this toxin is suppressed or inactivated either by heat or with formaldehyde.", "preferredTerm": "Clostridium tetani Toxoid", "submissionValue": "CLOSTRIDIUM TETANI TOXOID"}, {"conceptId": "C187759", "definition": "The purified and detoxified form of the Corynebacterium diphtheriae toxin. Toxicity of this toxin is suppressed or inactivated either by heat or with formaldehyde.", "preferredTerm": "Corynebacterium diphtheriae Toxoid", "submissionValue": "CORYNEBACTERIUM DIPHTHERIAE TOXOID"}, {"conceptId": "C181361", "definition": "An animal allergen in the form of dander (skin flakes) produced by the species Bos taurus (cow).", "preferredTerm": "Cow Dander Antigen", "submissionValue": "COW DANDER ANTIGEN", "synonyms": ["Bos taurus Dander Antigen", "Cattle Dander Antigen"]}, {"conceptId": "C187763", "definition": "The B subtype of nuclease produced by group A beta-hemolytic streptococci.", "preferredTerm": "Group A Streptococcus Deoxyribonuclease-B", "submissionValue": "DEOXYRIBONUCLEASE-B", "synonyms": ["DNase B", "Group A Streptococcus Deoxyribonuclease-B"]}, {"conceptId": "C181358", "definition": "An animal allergen in the form of dander (skin flakes) produced by the species Canis lupus familiaris (dog).", "preferredTerm": "Dog Dander Antigen", "submissionValue": "DOG DANDER ANTIGEN", "synonyms": ["Canis familiaris Dander Antigen", "Canis lupus familiaris Dander Antigen"]}, {"conceptId": "C187761", "definition": "The approximately 110 kDa structural protein that forms the nucleocapsid of the Epstein-Barr virus.", "preferredTerm": "Epstein-Barr Virus Capsid Antigen", "submissionValue": "EPSTEIN-BARR VIRUS CAPSID ANTIGEN", "synonyms": ["EBV-VCA"]}, {"conceptId": "C187762", "definition": "The approximately 46-55 kDa lytic protein from the Epstein-Barr virus and is the diffuse component of the Epstein-Barr virus-induced early antigen (EA) complex.", "preferredTerm": "Epstein-Barr Virus Early Antigen Diffuse Component", "submissionValue": "EPSTEIN-BARR VIRUS EARLY D ANTIGEN", "synonyms": ["EBV EA-D", "Epstein-Barr Virus Early Antigen Diffuse Component", "Epstein-Barr Virus Early Antigen-Diffuse"]}, {"conceptId": "C128296", "definition": "The approximately 66 kDa DNA-binding protein with a designation nuclear antigen 1, from the 6 nuclear antigens produced by the Epstein-Barr virus.", "preferredTerm": "Epstein-Barr Nuclear Antigen 1", "submissionValue": "EPSTEIN-BARR VIRUS NUCLEAR ANTIGEN 1", "synonyms": ["EBNA1", "EBV Nuclear Antigen 1"]}, {"conceptId": "C187760", "definition": "One or more proteins from the 6 nuclear antigens (EBNA 1, 2, 3, 4, 5 and/or 6) produced by the Epstein-Barr virus.", "preferredTerm": "Epstein-Barr Nuclear Antigen", "submissionValue": "EPSTEIN-BARR VIRUS NUCLEAR ANTIGEN", "synonyms": ["EBNA"]}, {"conceptId": "C187764", "definition": "The approximately 21.5 kDa structural protein that forms the nucleocapsid of the Hepatitis B virus.", "preferredTerm": "Hepatitis B Virus Capsid Antigen", "submissionValue": "HEPATITIS B VIRUS CORE ANTIGEN", "synonyms": ["HBcAg", "Hepatitis B Virus Capsid Antigen"]}, {"conceptId": "C187765", "definition": "The approximately 16-18 kDa nonstructural tolerogen that forms in-between the nucleocapsid and the lipid envelope of, and is secreted by the Hepatitis B virus.", "preferredTerm": "Hepatitis B Virus Early Antigen", "submissionValue": "HEPATITIS B VIRUS E ANTIGEN", "synonyms": ["HBeAg", "Hepatitis B Virus Early Antigen"]}, {"conceptId": "C62786", "definition": "One or more of the three structural surface proteins, small, HBsAg S (26 kDa); middle, HBsAg M (33 kDa); and large, HBsAg L (41 kDa), that form the hepatitis B viral lipid envelope.", "preferredTerm": "Hepatitis B Virus HBsAg Surface Protein Antigen", "submissionValue": "HEPATITIS B VIRUS SURFACE ANTIGEN", "synonyms": ["HBsAg"]}, {"conceptId": "C187772", "definition": "A mixture of different species (or below the species level classifications) of the herpes simplex viruses.", "preferredTerm": "Mixed Herpes Simplex Viruses", "submissionValue": "HERPES SIMPLEX VIRUSES, MULTIPLE"}, {"conceptId": "C187773", "definition": "A mixture of different species (or below the species level classifications) of the human immunodeficiency viruses.", "preferredTerm": "Mixed Human Immunodeficiency Viruses", "submissionValue": "HIV VIRUSES, MULTIPLE"}, {"conceptId": "C187766", "definition": "The approximately 160 kDa envelope glycoprotein from the human immunodeficiency virus 1. This precursor protein is further cleaved into the gp120 and gp41 proteins.", "preferredTerm": "HIV-1 gp160", "submissionValue": "HIV-1 GP160"}, {"conceptId": "C187767", "definition": "The approximately 41 kDa transmembrane, envelope glycoprotein from the human immunodeficiency virus 1. This transmembrane protein is cleaved from the precursor GP160 protein.", "preferredTerm": "HIV-1 gp41", "submissionValue": "HIV-1 GP41"}, {"conceptId": "C187768", "definition": "The approximately 24 kDa structural protein that forms the nucleocapsid of the human immunodeficiency virus 1.", "preferredTerm": "HIV-1 p24", "submissionValue": "HIV-1 P24", "synonyms": ["HIV-1 P24 Capsid Protein"]}, {"conceptId": "C187769", "definition": "The approximately 31 kDa integrase from the human immunodeficiency virus 1.", "preferredTerm": "HIV-1 p31", "submissionValue": "HIV-1 P31", "synonyms": ["HIV-1 IN"]}, {"conceptId": "C187770", "definition": "The approximately 140 kDa envelope glycoprotein from the human immunodeficiency virus 2.", "preferredTerm": "HIV-2 gp140", "submissionValue": "HIV-2 GP140"}, {"conceptId": "C187771", "definition": "The approximately 36 kDa transmembrane, envelope glycoprotein from the human immunodeficiency virus 2.", "preferredTerm": "HIV-2 gp36", "submissionValue": "HIV-2 GP36"}, {"conceptId": "C181360", "definition": "An animal allergen in the form of dander (skin flakes) produced by the species Equus caballus (domestic horse).", "preferredTerm": "Horse Dander Antigen", "submissionValue": "HORSE DANDER ANTIGEN", "synonyms": ["Domestic Horse Dander Antigen", "Equus caballus Dander Antigen"]}, {"conceptId": "C187774", "definition": "A mixture of different species (or below the species level classifications) of the human T-cell lymphotropic viruses.", "preferredTerm": "Mixed Human T-cell Lymphotropic Viruses", "submissionValue": "HTLV VIRUSES, MULTIPLE"}, {"conceptId": "C181353", "definition": "A group of autoimmune substances found in the nucleus of a cell that are the target of autoantibodies.", "preferredTerm": "Nuclear Autoantigen", "submissionValue": "NUCLEAR AUTOANTIGENS"}, {"conceptId": "C181991", "definition": "The approximately 45.6 kDa structural protein that forms the nucleocapsid of the Severe Acute Respiratory Syndrome Coronavirus 2 virus (SARS-CoV-2).", "preferredTerm": "SARS-CoV-2 Nucleoprotein", "submissionValue": "SARS-COV-2 NUCLEOCAPSID PROTEIN", "synonyms": ["SARS-CoV-2 Nucleocapsid N Protein"]}, {"conceptId": "C178209", "definition": "The approximately 180-200 kDa transmembrane, receptor binding protein from the Severe Acute Respiratory Syndrome Coronavirus 2 virus (SARS-CoV-2).", "preferredTerm": "SARS-CoV-2 Spike Glycoprotein", "submissionValue": "SARS-COV-2 SPIKE PROTEIN", "synonyms": ["SARS-CoV-2 S Protein"]}, {"conceptId": "C181355", "definition": "An autoantigen encoded by the Ro52 gene (also called the TRIM21 gene) and has a molecular weight of 52 kDa. It is associated with the autoimmune disease Sjogrens Syndrome.", "preferredTerm": "Sjogrens SS-A52 Antigen", "submissionValue": "SJOGRENS SS-A52 ANTIGEN", "synonyms": ["Ro52", "Sjogrens Ro 52kDa Antigen", "SSA-52"]}, {"conceptId": "C181354", "definition": "An autoantigen encoded by the Ro60 gene and has a molecular weight of 60 kDa. It is associated with the autoimmune disease Sjogrens Syndrome.", "preferredTerm": "Sjogrens SS-A60 Antigen", "submissionValue": "SJOGRENS SS-A60 ANTIGEN", "synonyms": ["Ro60", "Sjogrens Ro 60kDa Antigen", "SSA-60"]}, {"conceptId": "C181356", "definition": "An autoantigen encoded by the SSB gene. It is associated with the autoimmune disease Sjogrens Syndrome.", "preferredTerm": "Sjogrens SS-B Antigen", "submissionValue": "SJOGRENS SS-B ANTIGEN", "synonyms": ["Sjogrens La Antigen", "SSB"]}, {"conceptId": "C187775", "definition": "The approximately 60 kDa protein that is an oxygen-labile exotoxin produced by beta-hemolytic streptococci.", "preferredTerm": "Streptococcal Toxin Streptolysin O", "submissionValue": "STREPTOLYSIN O", "synonyms": ["SLO", "Streptococcal Toxin Streptolysin O"]}, {"conceptId": "C187756", "definition": "The approximately 55 kDa, receptor binding B subunit of the Cholera toxin and the virulence factor for Vibrio cholerae.", "preferredTerm": "Cholera Toxin B Subunit", "submissionValue": "VIBRIO CHOLERA TOXIN B SUBUNIT", "synonyms": ["CTB"]}]}