{"_links": {"parentPackage": {"href": "/mdr/ct/packages/sdtmct-2022-06-24", "title": "SDTM Controlled Terminology Package 50 Effective 2022-06-24", "type": "Terminology"}, "priorVersion": {"href": "/mdr/ct/packages/sdtmct-2022-03-25/codelists/C181174", "title": "CDISC SDTM Cell Phenotyping Test Name Terminology", "type": "Code List"}, "rootItem": {"href": "/mdr/root/ct/sdtmct/codelists/C181174", "title": "Version-agnostic anchor resource for codelist C181174", "type": "Root Value Domain"}, "self": {"href": "/mdr/ct/packages/sdtmct-2022-06-24/codelists/C181174", "title": "CDISC SDTM Cell Phenotyping Test Name Terminology", "type": "Code List"}}, "conceptId": "C181174", "definition": "Terminology relevant to the test names that describe cell phenotype findings.", "extensible": "true", "name": "Cell Phenotyping Test Name", "preferredTerm": "CDISC SDTM Cell Phenotyping Test Name Terminology", "submissionValue": "CPTEST", "synonyms": ["Cell Phenotyping Test Name"], "terms": [{"conceptId": "C174314", "definition": "A measurement of the B-lymphocytes in a biological specimen.", "preferredTerm": "B-Lymphocyte Count", "submissionValue": "B-Lymphocytes", "synonyms": ["B-Cell Lymphocytes", "B-Cells", "B-Lymphocytes"]}, {"conceptId": "C174315", "definition": "A relative measurement (ratio or percentage) of the B-lymphocytes to total lymphocytes in a biological specimen.", "preferredTerm": "B-Lymphocyte to Lymphocyte Ratio Measurement", "submissionValue": "B-Lymphocytes/Lymphocytes", "synonyms": ["B-Lymphocytes/Lymphocytes"]}, {"conceptId": "C174317", "definition": "A relative measurement (ratio or percentage) of the B-lymphocytes to total cells in a biological specimen.", "preferredTerm": "B-Lymphocyte to Total Cells Ratio Measurement", "submissionValue": "B-Lymphocytes/Total Cells", "synonyms": ["B-Lymphocytes/Total Cells"]}, {"conceptId": "C181308", "definition": "A measurement of a subpopulation of B-lymphocytes B1 in a biological specimen.", "preferredTerm": "B-Lymphocytes B1 Subpopulation Count", "submissionValue": "BLym B1 Sub", "synonyms": ["B-lym B1 Subpopulation", "BLym B1 Sub"]}, {"conceptId": "C184399", "definition": "A measurement of the transitional B1 B-lymphocytes in a biological specimen.", "preferredTerm": "Transitional B-Lymphocyte B1 Count", "submissionValue": "BLym B1 Trans", "synonyms": ["B-Lymphocytes B1 Transitional", "BLym B1 Trans"]}, {"conceptId": "C181307", "definition": "A measurement of B-lymphocytes B1 in a biological specimen.", "preferredTerm": "B-Lymphocytes B1 Count", "submissionValue": "BLym B1", "synonyms": ["B-Lymphocytes B1", "BLym B1"]}, {"conceptId": "C184400", "definition": "A measurement of the B1a B-lymphocytes in a biological specimen.", "preferredTerm": "B-Lymphocyte B1a Count", "submissionValue": "BLym B1a", "synonyms": ["B-Lymphocytes B1a", "BLym B1a"]}, {"conceptId": "C184401", "definition": "A measurement of the B1b B-lymphocytes in a biological specimen.", "preferredTerm": "B-Lymphocyte B1b Count", "submissionValue": "BLym B1b", "synonyms": ["B-Lymphocytes B1b", "BLym B1b"]}, {"conceptId": "C184402", "definition": "A measurement of the immature B2 B-lymphocytes in a biological specimen.", "preferredTerm": "Immature B-Lymphocyte B2 Count", "submissionValue": "BLym B2 Immat", "synonyms": ["B-Lymphocytes B2 Immature", "BLym B2 Immat"]}, {"conceptId": "C184403", "definition": "A measurement of the mature B2 B-lymphocytes in a biological specimen.", "preferredTerm": "Mature B-Lymphocyte B2 Count", "submissionValue": "BLym B2 Mat", "synonyms": ["B-Lymphocytes B2 Mature", "BLym B2 Mat"]}, {"conceptId": "C184404", "definition": "A measurement of the transitional B2 B-lymphocytes in a biological specimen.", "preferredTerm": "Transitional B-Lymphocyte B2 Count", "submissionValue": "BLym B2 Trans", "synonyms": ["B-Lymphocytes B2 Transitional", "BLym B2 Trans"]}, {"conceptId": "C184405", "definition": "A measurement of a sub-population of effector 1 B-lymphocytes in a biological specimen.", "preferredTerm": "Effector 1 B-Lymphocyte Subpopulation Count", "submissionValue": "BLym Eff 1 Sub", "synonyms": ["B-Lymphocytes Effector 1 Sub-Population", "BLym Eff 1 Sub"]}, {"conceptId": "C184362", "definition": "A measurement of the effector 1 B-lymphocytes in a biological specimen.", "preferredTerm": "Effector 1 B-Lymphocyte Count", "submissionValue": "BLym Eff 1", "synonyms": ["B-Lymphocytes Effector 1", "BLym Eff 1"]}, {"conceptId": "C184406", "definition": "A measurement of a sub-population of effector 2 B-lymphocytes in a biological specimen.", "preferredTerm": "Effector 2 B-Lymphocyte Subpopulation Count", "submissionValue": "BLym Eff 2 Sub", "synonyms": ["B-Lymphocytes Effector 2 Sub-Population", "BLym Eff 2 Sub"]}, {"conceptId": "C184363", "definition": "A measurement of the effector 2 B-lymphocytes in a biological specimen.", "preferredTerm": "Effector 2 B-Lymphocyte Count", "submissionValue": "BLym Eff 2", "synonyms": ["B-Lymphocytes Effector 2", "BLym Eff 2"]}, {"conceptId": "C184361", "definition": "A measurement of a sub-population of effector B-lymphocytes in a biological specimen.", "preferredTerm": "Effector B-Lymphocyte Subpopulation Count", "submissionValue": "BLym Eff Sub", "synonyms": ["B-Lymphocytes Effector Sub-Population", "BLym Eff Sub"]}, {"conceptId": "C184354", "definition": "A measurement of the effector B-lymphocytes in a biological specimen.", "preferredTerm": "Effector B-Lymphocyte Count", "submissionValue": "BLym Eff", "synonyms": ["B-Lymphocytes Effector", "BLym Eff"]}, {"conceptId": "C184407", "definition": "A measurement of a sub-population of follicular B-lymphocytes in a biological specimen.", "preferredTerm": "Follicular B-Lymphocyte Subpopulation Count", "submissionValue": "BLym Foll Sub", "synonyms": ["B-Lymphocytes Follicular Sub-Population", "BLym Foll Sub"]}, {"conceptId": "C184355", "definition": "A measurement of the follicular B-lymphocytes in a biological specimen.", "preferredTerm": "Follicular B-Lymphocyte Count", "submissionValue": "BLym Foll", "synonyms": ["B-Lymphocytes Follicular", "BLym Foll"]}, {"conceptId": "C184408", "definition": "A measurement of a sub-population of germinal center B-lymphocytes in a biological specimen.", "preferredTerm": "Germinal Center B-Lymphocyte Subpopulation Count", "submissionValue": "BLym Germ Ctr Sub", "synonyms": ["B-Lymphocytes Germinal Center Sub-Population", "BLym Germ Ctr Sub"]}, {"conceptId": "C184345", "definition": "A measurement of the germinal center B-lymphocytes in a biological specimen.", "preferredTerm": "Germinal Center B-Lymphocyte Count", "submissionValue": "BLym Germ Ctr", "synonyms": ["B-Lymphocytes Germinal Center", "BLym Germ Ctr"]}, {"conceptId": "C184346", "definition": "A measurement of the immature B-lymphocytes in a biological specimen.", "preferredTerm": "Immature B-Lymphocyte Count", "submissionValue": "BLym Immat", "synonyms": ["B-Lymphocytes Immature", "BLym Immat"]}, {"conceptId": "C184409", "definition": "A measurement of the marginal zone B-lymphocytes in a biological specimen.", "preferredTerm": "Marginal Zone B-Lymphocyte Count", "submissionValue": "BLym Marg Zn", "synonyms": ["B-Lymphocytes Marginal Zone", "BLym Marg Zn"]}, {"conceptId": "C184347", "definition": "A measurement of the mature B-lymphocytes in a biological specimen.", "preferredTerm": "Mature B-Lymphocyte Count", "submissionValue": "BLym Mat", "synonyms": ["B-Lymphocytes Mature", "BLym Mat"]}, {"conceptId": "C184410", "definition": "A measurement of the cB1 memory B-lymphocytes in a biological specimen.", "preferredTerm": "Memory B-Lymphocyte cB1 Count", "submissionValue": "BLym Mem cB1", "synonyms": ["B-Lymphocytes Memory cB1", "BLym Mem cB1"]}, {"conceptId": "C184411", "definition": "A measurement of the cB2 memory B-lymphocytes in a biological specimen.", "preferredTerm": "Memory B-Lymphocyte cB2 Count", "submissionValue": "BLym Mem cB2", "synonyms": ["B-Lymphocytes Memory cB2", "BLym Mem cB2"]}, {"conceptId": "C184412", "definition": "A measurement of the cB3 memory B-lymphocytes in a biological specimen.", "preferredTerm": "Memory B-Lymphocyte cB3 Count", "submissionValue": "BLym Mem cB3", "synonyms": ["B-Lymphocytes Memory cB3", "BLym Mem cB3"]}, {"conceptId": "C184415", "definition": "A measurement of the memory immature B-lymphocytes in a biological specimen.", "preferredTerm": "Immature Memory B-Lymphocyte Count", "submissionValue": "BLym Mem Immat", "synonyms": ["B-Lymphocytes Memory Immature", "BLym Mem Immat"]}, {"conceptId": "C184416", "definition": "A measurement of the memory mature B-lymphocytes in a biological specimen.", "preferredTerm": "Mature Memory B-Lymphocyte Count", "submissionValue": "BLym Mem Mat", "synonyms": ["B-Lymphocytes Memory Mature", "BLym Mem Mat"]}, {"conceptId": "C184414", "definition": "A measurement of a sub-population of non-class-switched memory B-lymphocytes in a biological specimen.", "preferredTerm": "Nonclass-switched Memory B-Lymphocyte Subpopulation Count", "submissionValue": "BLym Mem NSw Sub", "synonyms": ["B-Lymphocytes Memory Non-Class-Switched Sub-Population", "B-Lymphocytes Memory Unswitched Sub-Population", "BLym Mem NSw Sub"]}, {"conceptId": "C187729", "definition": "A relative measurement (ratio or percentage) of a sub-population of non-class-switched memory B-lymphocytes to total non-class-switched memory B-lymphocytes in a biological specimen.", "preferredTerm": "Non-class-switched Memory B-Lymphocyte Subpopulation to Total Non-class-switched Memory B-Lymphocyte Ratio Measurement", "submissionValue": "BLym Mem NSw Sub/BLymMNSw", "synonyms": ["B-Lymphocytes Memory Non-Class-Switched Sub-Population/B-Lymphocytes Memory Non-Class-Switched", "B-Lymphocytes Memory Unswitched Sub-Population/B-Lymphocytes Memory Unswitched", "BLym Mem NSw Sub/BLymMNSw"]}, {"conceptId": "C184359", "definition": "A measurement of the non-class-switched memory B-lymphocytes in a biological specimen.", "preferredTerm": "Nonclass-switched Memory B-Lymphocyte Count", "submissionValue": "BLym Mem NSw", "synonyms": ["B-Lymphocytes Memory Non-Class-Switched", "B-Lymphocytes Memory Unswitched", "BLym Mem NSw"]}, {"conceptId": "C187730", "definition": "A relative measurement (ratio or percentage) of the non-class-switched memory B-lymphocytes to total B-lymphocytes in a biological specimen.", "preferredTerm": "Non-class-switched Memory B-Lymphocyte to Total B-Lymphocyte Ratio Measurement", "submissionValue": "BLym Mem NSw/BLym", "synonyms": ["B-Lymphocytes Memory Non-Class-Switched/B-Lymphocytes", "B-Lymphocytes Memory Unswitched/B-Lymphocytes", "BLym Mem NSw/BLym"]}, {"conceptId": "C184357", "definition": "A measurement of a sub-population of memory B-lymphocytes in a biological specimen.", "preferredTerm": "Memory B-Lymphocyte Subpopulation Count", "submissionValue": "BLym Mem Sub", "synonyms": ["B-Lymphocytes Memory Sub-Population", "BLym Mem Sub"]}, {"conceptId": "C187714", "definition": "A measurement of the IgG+ class-switched memory B-lymphocytes in a biological specimen.", "preferredTerm": "Immunoglobulin G Positive Class-switched Memory B-Lymphocyte Count", "submissionValue": "BLym Mem Sw IgG+", "synonyms": ["B-Lymphocytes Memory Switched IgG+", "BLym Mem Sw IgG+"]}, {"conceptId": "C187715", "definition": "A relative measurement (ratio or percentage) of IgG+ memory switched B-Lymphocytes to class-switched memory B-lymphocytes in a biological specimen.", "preferredTerm": "Immunoglobulin G Positive Memory Switched B-Lymphocyte to Memory Switched B-Lymphocyte Ratio Measurement", "submissionValue": "BLym Mem Sw IgG+/BLym Mem Sw", "synonyms": ["B-Lymphocytes Memory Switched IgG+/B-Lymphocytes Memory Switched", "BLym Mem Sw IgG+/BLym Mem Sw"]}, {"conceptId": "C187719", "definition": "A measurement of the IgM+ class-switched memory B-lymphocytes in a biological specimen.", "preferredTerm": "Immunoglobulin M Positive Class-switched Memory B-Lymphocyte Count", "submissionValue": "BLym Mem Sw IgM+", "synonyms": ["B-Lymphocytes Memory Switched IgM+", "BLym Mem Sw IgM+"]}, {"conceptId": "C187720", "definition": "A relative measurement (ratio or percentage) of IgM+ class-switched memory B-Lymphocytes to class-switched memory B-lymphocytes in a biological specimen.", "preferredTerm": "Immunoglobulin M Positive Memory Switched B-Lymphocyte to Memory Switched B-Lymphocyte Ratio Measurement", "submissionValue": "BLym Mem Sw IgM+/BLym Mem Sw", "synonyms": ["B-Lymphocytes Memory Switched IgM+/B-Lymphocytes Memory Switched", "BLym Mem Sw IgM+/BLym Mem Sw"]}, {"conceptId": "C184413", "definition": "A measurement of a sub-population of class-switched memory B-lymphocytes in a biological specimen.", "preferredTerm": "Class-switched Memory B-Lymphocyte Subpopulation Count", "submissionValue": "BLym Mem Sw Sub", "synonyms": ["B-Lymphocytes Memory Class-Switched Sub-Population", "BLym Mem Sw Sub"]}, {"conceptId": "C187711", "definition": "A relative measurement (ratio or percentage) of a sub-population of class-switched memory B-lymphocytes to class-switched memory B-lymphocytes in a biological specimen.", "preferredTerm": "Class-switched Memory B-Lymphocyte Subpopulation to Class-switched Memory B-Lymphocyte Ratio Measurement", "submissionValue": "BLym Mem Sw Sub/BLym Mem Sw", "synonyms": ["B-Lymphocytes Memory Class-Switched Sub-Population/B-Lymphocytes Memory Class-Switched", "B-Lymphocytes Memory Switched Sub-Population/B-Lymphocytes Memory Switched", "BLym Mem Sw Sub/BLym Mem Sw"]}, {"conceptId": "C187712", "definition": "A relative measurement (ratio or percentage) of a sub-population of class-switched memory B-lymphocytes to total B-lymphocytes in a biological specimen.", "preferredTerm": "Class-switched Memory B-Lymphocyte Subpopulation to Total B-Lymphocyte Ratio Measurement", "submissionValue": "BLym Mem Sw Sub/BLym", "synonyms": ["B-Lymphocytes Memory Class-Switched Sub-Population/B-Lymphocytes", "B-Lymphocytes Memory Switched Sub-Population/B-Lymphocytes", "BLym Mem Sw Sub/BLym"]}, {"conceptId": "C187713", "definition": "A relative measurement (ratio or percentage) of a sub-population of class-switched memory B-lymphocytes to total class-switched memory B-lymphocytes in a biological specimen.", "preferredTerm": "Class-switched Memory B-Lymphocytes Subpopulation to Total Class-switched Memory B-Lymphocytes Ratio Measurement", "submissionValue": "BLym Mem Sw Sub/BLymMSw", "synonyms": ["B-Lymphocytes Memory Class-Switched Sub-Population/B-Lymphocytes Memory Class-Switched", "B-Lymphocytes Memory Switched Sub-Population/B-Lymphocytes Memory Switched", "BLym Mem Sw Sub/BLymMSw"]}, {"conceptId": "C187749", "definition": "A measurement of a sub-population of unconventional class-switched memory B-lymphocytes in a biological specimen.", "preferredTerm": "Unconventional Class-switched Memory B-Lymphocyte Subpopulation Count", "submissionValue": "BLym Mem Sw Uncv Sub", "synonyms": ["B-Lymphocytes Memory Class-Switched Unconventional Sub-Population", "B-Lymphocytes Memory Switched Unconventional Sub-Population", "BLym Mem Sw Uncv Sub"]}, {"conceptId": "C187750", "definition": "A relative measurement (ratio or percentage) of a sub-population of unconventional class-switched memory B-lymphocytes to unconventional class-switched memory B-lymphocytes in a biological specimen.", "preferredTerm": "Unconventional Class-switched Memory B-Lymphocyte Subpopulation to Unconventional Class-switched Memory B-Lymphocyte Ratio Measurement", "submissionValue": "BLym Mem Sw Uncv Sub/BLym Mem Sw Uncv", "synonyms": ["B-Lymphocytes Memory Class-Switched Unconventional Sub-Population/B-Lymphocytes Memory Class-Switched Unconventional", "B-Lymphocytes Memory Switched Unconventional Sub-Population/B-Lymphocytes Memory Switched Unconventional", "BLym Mem Sw Uncv Sub/BLym Mem Sw Uncv"]}, {"conceptId": "C187748", "definition": "A measurement of the unconventional class-switched memory B-lymphocytes in a biological specimen.", "preferredTerm": "Unconventional Class-switched Memory B-Lymphocyte Count", "submissionValue": "BLym Mem Sw Uncv", "synonyms": ["B-Lymphocytes Memory Class-Switched Unconventional", "B-Lymphocytes Memory Switched Unconventional", "BLym Mem Sw Uncv"]}, {"conceptId": "C187751", "definition": "A relative measurement (ratio or percentage) the unconventional class-switched memory B-lymphocytes to B-lymphocytes in a biological specimen.", "preferredTerm": "Unconventional Class-switched Memory B-Lymphocyte to B-Lymphocyte Ratio Measurement", "submissionValue": "BLym Mem Sw Uncv/BLym", "synonyms": ["B-Lymphocytes Memory Class-Switched Unconventional/B-Lymphocytes", "B-Lymphocytes Memory Switched Unconventional/B-Lymphocytes", "BLym Mem Sw Uncv/BLym"]}, {"conceptId": "C184358", "definition": "A measurement of the class-switched memory B-lymphocytes in a biological specimen.", "preferredTerm": "Class-switched Memory B-Lymphocyte Count", "submissionValue": "BLym Mem Sw", "synonyms": ["B-Lymphocytes Memory Class-Switched", "B-Lymphocytes Memory Switched", "BLym Mem Sw"]}, {"conceptId": "C184348", "definition": "A measurement of the memory B-lymphocytes in a biological specimen.", "preferredTerm": "Memory B-Lymphocyte Count", "submissionValue": "BLym Mem", "synonyms": ["B-Lymphocytes Memory", "BLym Mem"]}, {"conceptId": "C185965", "definition": "A relative measurement (ratio or percentage) of memory B-lymphocytes to total B-lymphocytes in a biological specimen.", "preferredTerm": "Memory B-Lymphocytes to Total B-Lymphocytes Ratio Measurement", "submissionValue": "BLym Mem/BLym", "synonyms": ["B-Lymphocytes Memory/B-Lymphocytes", "BLym Mem/BLym"]}, {"conceptId": "C187727", "definition": "A measurement of a sub-population of naive mature B-lymphocytes in a biological specimen.", "preferredTerm": "Naive Mature B-Lymphocyte Subpopulation Count", "submissionValue": "BLym Naive Mat Sub", "synonyms": ["B-Lymphocytes Naive Mature Sub-Population", "BLym Naive Mat Sub"]}, {"conceptId": "C187728", "definition": "A relative measurement (ratio or percentage) a sub-population of naive mature B-lymphocytes to total naive mature B-lymphocytes in a biological specimen.", "preferredTerm": "Naive Mature B-Lymphocyte Subpopulation to Total Naive Mature B-Lymphocyte Ratio Measurement", "submissionValue": "BLym Naive Mat Sub/BLymNM", "synonyms": ["B-Lymphocytes Naive Mature Sub-Population/B-Lymphocytes Naive Mature", "BLym Naive Mat Sub/BLym Naive Mat", "BLym Naive Mat Sub/BLymNM"]}, {"conceptId": "C184356", "definition": "A measurement of the naive mature B-lymphocytes in a biological specimen.", "preferredTerm": "Naive Mature B-Lymphocyte Count", "submissionValue": "BLym Naive Mat", "synonyms": ["B-Lymphocytes Naive Mature", "BLym Naive Mat"]}, {"conceptId": "C185964", "definition": "A relative measurement (ratio or percentage) of naive mature B-lymphocytes to B-lymphocytes in a biological specimen.", "preferredTerm": "Naive Mature B-Lymphocytes to Total B-Lymphocytes Ratio Measurement", "submissionValue": "BLym Naive Mat/BLym", "synonyms": ["B-Lymphocytes Naive Mature/B-Lymphocytes", "BLym Naive Mat/BLym"]}, {"conceptId": "C184417", "definition": "A measurement of a sub-population of naive B-lymphocytes in a biological specimen.", "preferredTerm": "Naive B-Lymphocyte Subpopulation Count", "submissionValue": "BLym Naive Sub", "synonyms": ["B-Lymphocytes Naive Sub-Population", "BLym Naive Sub"]}, {"conceptId": "C181263", "definition": "A relative measurement (ratio or percentage) of a subpopulation of naive B-lymphocytes to naive B-lymphocytes in a biological specimen.", "preferredTerm": "Naive B-Lymphocytes Subpopulation to Total B-Lymphocytes Naive Ratio Measurement", "submissionValue": "BLym Naive Sub/BLym Naive", "synonyms": ["B Cells, Naive Subpopulation/B Cells, Naive", "B-Lymphocyte, Naive Subpopulation/B-Lymphocyte, Naive", "B-Lymphocyte, Naive Subset/B-Lymphocyte, Naive", "BLym Naive Sub/BLym Naive"]}, {"conceptId": "C181262", "definition": "A measurement of the naive B-lymphocytes in a biological specimen.", "preferredTerm": "Naive B-Lymphocyte Measurement", "submissionValue": "BLym Naive", "synonyms": ["B-Lymphocytes, Naive", "BLym Naive", "Naive B Cells", "Naive B-Lymphocytes"]}, {"conceptId": "C181264", "definition": "A relative measurement (ratio or percentage) of naive B-lymphocytes to B-lymphocytes in a biological specimen.", "preferredTerm": "Naive B-Lymphocytes to Total B-Lymphocytes Ratio Measurement", "submissionValue": "BLym Naive/BLym", "synonyms": ["B Cell, Naive/B Cell", "B-Lymphocyte, Naive/B-Lymphocyte", "BLym Naive/Blym", "Naive B-Lymphocytes/B-Lymphocytes"]}, {"conceptId": "C184418", "definition": "A measurement of the sub-population of regulatory B-lymphocytes in a biological specimen.", "preferredTerm": "Regulatory B-Lymphocyte Subpopulation Count", "submissionValue": "BLym Reg Sub", "synonyms": ["B-Lymphocytes Regulatory Sub-Population", "BLym Reg Sub"]}, {"conceptId": "C184349", "definition": "A measurement of the regulatory B-lymphocytes in a biological specimen.", "preferredTerm": "Regulatory B-Lymphocyte Count", "submissionValue": "BLym Reg", "synonyms": ["B-Lymphocytes Regulatory", "BLym Reg"]}, {"conceptId": "C181187", "definition": "A measurement of a subpopulation of B-lymphocytes in a biological specimen.", "preferredTerm": "B-Lymphocytes Subpopulation Count", "submissionValue": "BLym Sub", "synonyms": ["B-Lymphocytes Subpopulation", "BLym Sub"]}, {"conceptId": "C181265", "definition": "A relative measurement (ratio or percentage) of a subpopulation of B-lymphocytes to B-lymphocytes in a biological specimen.", "preferredTerm": "B-Lymphocytes Subpopulation to Total B-Lymphocytes Ratio Measurement", "submissionValue": "BLym Sub/BLym", "synonyms": ["B-Lymphocyte Sub-Population/B-Lymphocyte", "BLym Sub/BLym"]}, {"conceptId": "C187710", "definition": "A relative measurement (ratio or percentage) of a sub-population of B-lymphocytes to lymphocytes in a biological specimen.", "preferredTerm": "B-Lymphocyte Subpopulation to Lymphocyte Ratio Measurement", "submissionValue": "BLym Sub/Lym", "synonyms": ["B-Lymphocytes Sub-Population/Lymphocytes", "BLym Sub/Lym"]}, {"conceptId": "C184419", "definition": "A measurement of the transitional 1 B-lymphocytes in a biological specimen.", "preferredTerm": "Transitional 1 B-Lymphocyte Count", "submissionValue": "BLym Trans 1", "synonyms": ["B-Lymphocytes Transitional 1", "BLym Trans 1"]}, {"conceptId": "C184420", "definition": "A measurement of the transitional 2 B-lymphocytes in a biological specimen.", "preferredTerm": "Transitional 2 B-Lymphocyte Count", "submissionValue": "BLym Trans 2", "synonyms": ["B-Lymphocytes Transitional 2", "BLym Trans 2"]}, {"conceptId": "C184421", "definition": "A measurement of the transitional 3 B-lymphocytes in a biological specimen.", "preferredTerm": "Transitional 3 B-Lymphocyte Count", "submissionValue": "BLym Trans 3", "synonyms": ["B-Lymphocytes Transitional 3", "BLym Trans 3"]}, {"conceptId": "C187736", "definition": "A measurement of a sub-population of transitional B-lymphocytes in a biological specimen.", "preferredTerm": "Transitional B-Lymphocyte Subpopulation Count", "submissionValue": "BLym Trans Sub", "synonyms": ["B-Lymphocytes Transitional Sub-Population", "BLym Trans Sub"]}, {"conceptId": "C187737", "definition": "A relative measurement (ratio or percentage) of a sub-population of transitional B-lymphocytes to total transitional B-lymphocytes in a biological specimen.", "preferredTerm": "Transitional B-Lymphocyte Subpopulation to Total Transitional B-Lymphocyte Ratio Measurement", "submissionValue": "BLym Trans Sub/BLym Trans", "synonyms": ["B-Lymphocytes Transitional Sub-Population/B-Lymphocytes Transitional", "BLym Trans Sub/BLym Trans"]}, {"conceptId": "C184360", "definition": "A measurement of the transitional B-lymphocytes in a biological specimen.", "preferredTerm": "Transitional B-Lymphocyte Count", "submissionValue": "BLym Trans", "synonyms": ["B-Lymphocytes Transitional", "BLym Trans"]}, {"conceptId": "C185966", "definition": "A relative measurement (ratio or percentage) of transitional B-lymphocytes to B-lymphocytes in a biological specimen.", "preferredTerm": "Transitional B-Lymphocytes to B-Lymphocytes Ratio Measurement", "submissionValue": "BLym Trans/BLym", "synonyms": ["B-Lymphocytes Transitional/B-Lymphocytes", "BLym Trans/BLym"]}, {"conceptId": "C181309", "definition": "A relative measurement (ratio or percentage) of B-lymphocytes to leukocytes in a biological specimen.", "preferredTerm": "B-Lymphocytes to Leukocytes Ratio Measurement", "submissionValue": "BLym/Leuk", "synonyms": ["B Cells/Leukocytes", "B-Lymphocytes/Leukocytes", "BLym/Leuk"]}, {"conceptId": "C82006", "definition": "A measurement of CD40 expression in a biological specimen.", "preferredTerm": "CD40 Measurement", "submissionValue": "CD40 Expression", "synonyms": ["CD40 Expression"]}, {"conceptId": "C181266", "definition": "A measurement of CD80 expression in a biological specimen.", "preferredTerm": "CD80 Expression Measurement", "submissionValue": "CD80 Expression", "synonyms": ["CD80 Expression"]}, {"conceptId": "C181267", "definition": "A measurement of CD83 expression in a biological specimen.", "preferredTerm": "CD83 Expression Measurement", "submissionValue": "CD83 Expression", "synonyms": ["CD83 Expression"]}, {"conceptId": "C181268", "definition": "A measurement of CD95 expression in a biological specimen.", "preferredTerm": "CD95 Expression Measurement", "submissionValue": "CD95 Expression", "synonyms": ["CD95 Expression"]}, {"conceptId": "C187739", "definition": "A measurement of a sub-population of type 1 myeloid dendritic cells in a biological specimen.", "preferredTerm": "Type 1 Myeloid Dendritic Cell Subpopulation Count", "submissionValue": "DC Myeloid 1 Sub", "synonyms": ["cDC1 Sub-Population", "Classical DC Type 1 Sub-Population", "Conventional DC Type 1 Sub-Population", "DC Myeloid 1 Sub", "Dendritic Cells Myeloid 1 Sub-Population", "mDC1 Sub-Population"]}, {"conceptId": "C187740", "definition": "A relative measurement (ratio or percentage) of a sub-population of type 1 myeloid dendritic cells to total myeloid dendritic cells in a biological specimen.", "preferredTerm": "Type 1 Myeloid Dendritic Cell Subpopulation to Total Myeloid Dendritic Cell Ratio Measurement", "submissionValue": "DC Myeloid 1 Sub/DCM", "synonyms": ["cDC1 Sub-Population/cDC", "Classical DC Type 1 Sub-Population/Classical DC", "Conventional DC Type 1 Sub-Population/Conventional DC", "DC Myeloid 1 Sub/DCM", "Dendritic Cells Myeloid 1 Sub-Population/Dendritic Cells Myeloid", "mDC1 Sub-Population/mDC"]}, {"conceptId": "C187738", "definition": "A measurement of the type 1 myeloid dendritic cells in a biological specimen.", "preferredTerm": "Type 1 Myeloid Dendritic Cell Count", "submissionValue": "DC Myeloid 1", "synonyms": ["cDC1", "Classical DC Type 1", "Conventional DC Type 1", "DC Myeloid 1", "DC Myeloid Type 1", "Dendritic Cells Myeloid 1", "mDC1"]}, {"conceptId": "C187742", "definition": "A relative measurement (ratio or percentage) of the type 1 myeloid dendritic cells to total myeloid dendritic cells in a biological specimen.", "preferredTerm": "Type 1 Myeloid Dendritic Cell to Total Myeloid Dendritic Cell Ratio Measurement", "submissionValue": "DC Myeloid 1/DCM", "synonyms": ["cDC1/cDC", "Classical DC Type 1/Classical DC", "Conventional DC Type 1/Conventional DC", "DC Myeloid 1/DC Myeloid", "DC Myeloid 1/DCM", "mDC1/mDC"]}, {"conceptId": "C187741", "definition": "A relative measurement (ratio or percentage) of the type 1 myeloid dendritic cells to leukocytes in a biological specimen.", "preferredTerm": "Type 1 Myeloid Dendritic Cell to Leukocyte Ratio Measurement", "submissionValue": "DC Myeloid 1/Leuk", "synonyms": ["cDC1/Leukocytes", "Classical DC Type 1/Leukocytes", "Conventional DC Type 1/Leukocytes", "DC Myeloid 1/Leuk", "DC Myeloid 1/Leukocytes", "mDC1/Leukocytes"]}, {"conceptId": "C187744", "definition": "A measurement of a sub-population of type 2 myeloid dendritic cells in a biological specimen.", "preferredTerm": "Type 2 Myeloid Dendritic Cell Subpopulation Count", "submissionValue": "DC Myeloid 2 Sub", "synonyms": ["cDC2 Sub-Population", "Classical DC Type 2 Sub-Population", "Conventional DC Type 2 Sub-Population", "DC Myeloid 2 Sub", "Dendritic Cells Myeloid 2 Sub-Population", "mDC2 Sub-Population"]}, {"conceptId": "C187745", "definition": "A relative measurement (ratio or percentage) of a sub-population of type 2 myeloid dendritic cells to total myeloid dendritic cells in a biological specimen.", "preferredTerm": "Type 2 Myeloid Dendritic Cell Subpopulation to Total Myeloid Dendritic Cell Ratio Measurement", "submissionValue": "DC Myeloid 2 Sub/DCM", "synonyms": ["cDC2 Sub-Population/cDC", "Classical DC Type 2 Sub-Population/Classical DC", "Conventional DC Type 2 Sub-Population/Conventional DC", "DC Myeloid 2 Sub/DCM", "Dendritic Cells Myeloid 2 Sub-Population/Dendritic Cells Myeloid", "mDC2 Sub-Population/mDC"]}, {"conceptId": "C187743", "definition": "A measurement of the type 2 myeloid dendritic cells in a biological specimen.", "preferredTerm": "Type 2 Myeloid Dendritic Cell Count", "submissionValue": "DC Myeloid 2", "synonyms": ["cDC2", "Classical DC Type 2", "Conventional DC Type 2", "DC Myeloid 2", "DC Myeloid Type 2", "Dendritic Cells Myeloid 2", "mDC2"]}, {"conceptId": "C187747", "definition": "A relative measurement (ratio or percentage) of the type 2 myeloid dendritic cells to total myeloid dendritic cells in a biological specimen.", "preferredTerm": "Type 2 Myeloid Dendritic Cell to Total Myeloid Dendritic Cell Ratio Measurement", "submissionValue": "DC Myeloid 2/DCM", "synonyms": ["cDC2/cDC", "Classical DC Type 2/Classical DC", "Conventional DC Type 2/Conventional DC", "DC Myeloid 2/DC Myeloid", "DC Myeloid 2/DCM", "mDC2/mDC"]}, {"conceptId": "C187746", "definition": "A relative measurement (ratio or percentage) of the type 2 myeloid dendritic cells to leukocytes in a biological specimen.", "preferredTerm": "Type 2 Myeloid Dendritic Cell to Leukocyte Ratio Measurement", "submissionValue": "DC Myeloid 2/Leuk", "synonyms": ["cDC2/Leukocytes", "Classical DC Type 2/Leukocytes", "Conventional DC Type 2/Leukocytes", "DC Myeloid 2/Leuk", "DC Myeloid 2/Leukocytes", "mDC2/Leukocytes"]}, {"conceptId": "C184423", "definition": "A measurement of a sub-population of myeloid dendritic cells in a biological specimen.", "preferredTerm": "Myeloid Dendritic Cell Subpopulation Count", "submissionValue": "DC Myeloid Sub", "synonyms": ["DC Myeloid Sub", "Dendritic Cells Myeloid Sub-Population"]}, {"conceptId": "C187725", "definition": "A relative measurement (ratio or percentage) of a sub-population of myeloid dendritic cells to total dendritic cells in a biological specimen.", "preferredTerm": "Myeloid Dendritic Cell Subpopulation to Total Dendritic Cell Ratio Measurement", "submissionValue": "DC Myeloid Sub/DC", "synonyms": ["cDC Sub-Population/DC", "Classical DC Sub-Population/DC", "Conventional DC Sub-Population/DC", "DC Myeloid Sub/DC", "Dendritic Cells Myeloid Sub-Population/Dendritic Cells", "mDC Sub-Population/DC"]}, {"conceptId": "C187672", "definition": "A relative measurement (ratio or percentage) of a sub-population of myeloid dendritic cells to total myeloid dendritic cells in a biological specimen.", "preferredTerm": "Myeloid Dendritic Cell Subpopulation to Total Myeloid Dendritic Cell Ratio Measurement", "submissionValue": "DC Myeloid Sub/DCM", "synonyms": ["cDC Sub-Population/cDC", "Classical DC Sub-Population/Classical DC", "Conventional DC Sub-Population/Conventional DC", "DC Myeloid Sub/DCM", "Dendritic Cells Myeloid Sub-Population/Dendritic Cells Myeloid", "mDC Sub-Population/mDC"]}, {"conceptId": "C184350", "definition": "A measurement of the myeloid dendritic cells in a biological specimen.", "preferredTerm": "Myeloid Dendritic Cell Count", "submissionValue": "DC Myeloid", "synonyms": ["cDC", "Conventional DC", "DC Myeloid", "Dendritic Cells Myeloid", "mDC"]}, {"conceptId": "C187726", "definition": "A relative measurement (ratio or percentage) of the myeloid dendritic cells to total dendritic cells in a biological specimen.", "preferredTerm": "Myeloid Dendritic Cell to Total Dendritic Cell Ratio Measurement", "submissionValue": "DC Myeloid/DC", "synonyms": ["cDC/DC", "Classical DC/DC", "Conventional DC/DC", "DC Myeloid/DC", "Dendritic Cells Myeloid/Dendritic Cells", "mDC/DC"]}, {"conceptId": "C187673", "definition": "A relative measurement (ratio or percentage) of the myeloid dendritic cells to leukocytes in a biological specimen.", "preferredTerm": "Myeloid Dendritic Cell to Leukocyte Ratio Measurement", "submissionValue": "DC Myeloid/Leuk", "synonyms": ["cDC/Leukocytes", "Classical DC/Leukocytes", "Conventional DC/Leukocytes", "DC Myeloid/Leuk", "DC Myeloid/Leukocytes", "mDC/Leukocytes"]}, {"conceptId": "C181270", "definition": "A measurement of a subpopulation of plasmacytoid dendritic cells in a biological specimen.", "preferredTerm": "Plasmacytoid Dendritic Cell Subpopulation Count", "submissionValue": "DC Plasmacytoid Sub", "synonyms": ["DC Plasmacytoid Sub", "Plasmacytoid Dendritic Cells Subpopulation"]}, {"conceptId": "C181271", "definition": "A relative measurement (ratio or percentage) of a subpopulation of plasmacytoid dendritic cells to total plasmacytoid dendritic cells in a biological specimen.", "preferredTerm": "Plasmacytoid Dendritic Cells Subpopulation to Dendritic Cells Plasmacytoid Ratio Measurement", "submissionValue": "DC Plasmacytoid Sub/DC Plasmacytoid", "synonyms": ["DC Plasmacytoid Sub/DC Plasmacytoid", "Plasmacytoid Dendritic Cells Subpopulation/Plasmacytoid Dendritic Cells"]}, {"conceptId": "C181195", "definition": "A measurement of the plasmacytoid dendritic cells in a biological specimen.", "preferredTerm": "Plasmacytoid Dendritic Cell Count", "submissionValue": "DC Plasmacytoid", "synonyms": ["DC Plasmacytoid", "Plasmacytoid Dendritic Cells"]}, {"conceptId": "C181272", "definition": "A relative measurement (ratio or percentage) of the plasmacytoid dendritic cells to dendritic cells in a biological specimen.", "preferredTerm": "Plasmacytoid Dendritic Cells to Dendritic Cells Ratio Measurement", "submissionValue": "DC Plasmacytoid/DC", "synonyms": ["DC Plasmacytoid/DC", "DC Plasmacytoid/Dendritic Cells", "Plasmacytoid Dendritic Cells/Dendritic Cells"]}, {"conceptId": "C184422", "definition": "A measurement of a sub-population of dendritic cells in a biological specimen.", "preferredTerm": "Dendritic Cell Subpopulation Count", "submissionValue": "DC Sub", "synonyms": ["DC Sub", "Dendritic Cells Sub-Population"]}, {"conceptId": "C181185", "definition": "A measurement of the dendritic cells in a biological specimen.", "preferredTerm": "Dendritic Cells Count", "submissionValue": "Dendritic Cells", "synonyms": ["DC", "Dendritic Cells"]}, {"conceptId": "C181269", "definition": "A relative measurement (ratio or percentage) of the dendritic cells to lymphocytes and monocytes in a biological specimen.", "preferredTerm": "Dendritic Cells to Lymphocytes and Monocytes Ratio Measurement", "submissionValue": "Dendritic Cells/Lym+Mono", "synonyms": ["Dendritic Cells/Lym+Mono", "Dendritic Cells/Lymphocytes and Monocytes"]}, {"conceptId": "C181252", "definition": "A relative measurement (ratio or percentage) of the dendritic cells to total cells in a biological specimen.", "preferredTerm": "Dendritic Cells to Total Cells Ratio Measurement", "submissionValue": "Dendritic Cells/Total Cells", "synonyms": ["Dendritic Cells/Total Cells"]}, {"conceptId": "C185967", "definition": "A measurement of the endothelial cells in a biological specimen.", "preferredTerm": "Endothelial Cell Count", "submissionValue": "Endothelial Cells", "synonyms": ["Endothelial Cells"]}, {"conceptId": "C64550", "definition": "A measurement of the eosinophils in a biological specimen.", "preferredTerm": "Eosinophil Count", "submissionValue": "Eosinophils", "synonyms": ["Eosinophils"]}, {"conceptId": "C64604", "definition": "A relative measurement (ratio or percentage) of the eosinophils to leukocytes in a biological specimen.", "preferredTerm": "Eosinophil to Leukocyte Ratio", "submissionValue": "Eosinophils/Leukocytes", "synonyms": ["Eosinophils/Leukocytes"]}, {"conceptId": "C150840", "definition": "A relative measurement (ratio or percentage) of eosinophils to nucleated cells in a biological specimen.", "preferredTerm": "Eosinophils to Nucleated Cells Ratio Measurement", "submissionValue": "Eosinophils/Nucleated Cells", "synonyms": ["Eosinophils/Nucleated Cells"]}, {"conceptId": "C98720", "definition": "A relative measurement (ratio or percentage) of the eosinophils to total cells in a biological specimen (for example a bone marrow specimen).", "preferredTerm": "Eosinophils to Total Cell Ratio Measurement", "submissionValue": "Eosinophils/Total Cells", "synonyms": ["Eosinophils/Total Cells"]}, {"conceptId": "C64605", "definition": "A measurement of the epithelial cells in a biological specimen.", "preferredTerm": "Epithelial Cell Count", "submissionValue": "Epithelial Cells", "synonyms": ["Epithelial Cells"]}, {"conceptId": "C130161", "definition": "A relative measurement (ratio or percentage) of the epithelial cells to total cells in a biological specimen.", "preferredTerm": "Epithelial Cells to Total Cells Ratio Measurement", "submissionValue": "Epithelial Cells/Total Cells", "synonyms": ["Epithelial Cells/Total Cells"]}, {"conceptId": "C51946", "definition": "A measurement of the total erythrocytes in a biological specimen.", "preferredTerm": "Erythrocyte Count", "submissionValue": "Erythrocytes", "synonyms": ["Erythrocytes", "Red Blood Cells"]}, {"conceptId": "C185968", "definition": "A measurement of the fibroblasts in a biological specimen.", "preferredTerm": "Fibroblast Count", "submissionValue": "Fibroblasts", "synonyms": ["Fibroblasts"]}, {"conceptId": "C184424", "definition": "A measurement of the intraepithelial lymphocytes in a biological specimen.", "preferredTerm": "Intraepithelial Lymphocyte Count", "submissionValue": "IE Lym", "synonyms": ["IE Lym", "Intraepithelial Lymphocytes"]}, {"conceptId": "C96676", "definition": "A measurement of the immature monocytes in a biological specimen.", "preferredTerm": "Immature Monocyte Count", "submissionValue": "Immature Monocytes", "synonyms": ["Immature Monocytes"]}, {"conceptId": "C51948", "definition": "A measurement of the leukocytes in a biological specimen.", "preferredTerm": "Leukocyte Count", "submissionValue": "Leukocytes", "synonyms": ["Leukocytes", "White Blood Cells"]}, {"conceptId": "C135451", "definition": "A relative measurement (ratio or percentage) of the leukocytes to total cells in a biological specimen.", "preferredTerm": "Leukocytes to Total Cells Ratio Measurement", "submissionValue": "Leukocytes/Total Cells", "synonyms": ["Leukocytes/Total Cells", "WBC/Total Cells"]}, {"conceptId": "C181275", "definition": "A measurement of a subpopulation of lymphocytes in a biological specimen.", "preferredTerm": "Lymphocytes Subpopulation Count", "submissionValue": "Lym Sub", "synonyms": ["Lym Sub", "Lymphocytes Sub", "Lymphocytes Subpopulation"]}, {"conceptId": "C181276", "definition": "A relative measurement (ratio or percentage) of a subpopulation of lymphocytes to lymphocytes in a biological specimen.", "preferredTerm": "Lymphocyte Subpopulation to Total Lymphocytes Ratio Measurement", "submissionValue": "Lym Sub/Lym", "synonyms": ["Lym Sub/Lym", "Lymphocytes Sub/Lymphocytes", "Lymphocytes Subpopulation/Lymphocytes"]}, {"conceptId": "C181277", "definition": "A relative measurement (ratio) of viable lymphocytes to non-viable lymphocytes in a biological specimen.", "preferredTerm": "Viable Lymphocytes to Nonviable Lymphocytes Ratio Measurement", "submissionValue": "Lym Viable/Lym NonViable", "synonyms": ["Lym Viable/Lym NonViable", "Lymphocytes Viable/Lymphocytes Non-Viable", "Lymphocytes Viable/Lymphocytes NonViable"]}, {"conceptId": "C181273", "definition": "A measurement of the leukocytes and monocytes in a biological specimen.", "preferredTerm": "Lymphocytes and Monocytes Count", "submissionValue": "Lym+Mono", "synonyms": ["Lym+Mono", "Lym+Mono/Leuk", "Lymphocytes and Monocytes"]}, {"conceptId": "C181274", "definition": "A relative measurement (ratio or percentage) of the lymphocytes and monocytes to total leukocytes in a biological specimen.", "preferredTerm": "Lymphocytes and Monocytes to Leukocytes Ratio Measurement", "submissionValue": "Lym+Mono/Leuk", "synonyms": ["Lymphocytes and Monocytes/Leukocytes"]}, {"conceptId": "C51949", "definition": "A measurement of the lymphocytes in a biological specimen.", "preferredTerm": "Lymphocyte Count", "submissionValue": "Lymphocytes", "synonyms": ["Lymphocytes"]}, {"conceptId": "C64820", "definition": "A relative measurement (ratio or percentage) of the lymphocytes to leukocytes in a biological specimen.", "preferredTerm": "Lymphocyte to Leukocyte Ratio", "submissionValue": "Lymphocytes/Leukocytes", "synonyms": ["Lymphocytes/Leukocytes"]}, {"conceptId": "C98751", "definition": "A relative measurement (ratio or percentage) of the lymphocytes to total cells in a biological specimen (for example a bone marrow specimen).", "preferredTerm": "Lymphocyte to Total Cell Ratio Measurement", "submissionValue": "Lymphocytes/Total Cells", "synonyms": ["Lymphocytes/Total Cells"]}, {"conceptId": "C185969", "definition": "A measurement of the M1 macrophages in a biological specimen.", "preferredTerm": "M1 Macrophage Count", "submissionValue": "Macrophages M1", "synonyms": ["Macrophages M1"]}, {"conceptId": "C185970", "definition": "A measurement of the M2 macrophages in a biological specimen.", "preferredTerm": "M2 Macrophage Count", "submissionValue": "Macrophages M2", "synonyms": ["Macrophages M2"]}, {"conceptId": "C185971", "definition": "A measurement of a sub-population of macrophages in a biological specimen.", "preferredTerm": "Macrophage Subpopulation Count", "submissionValue": "Macrophages Sub", "synonyms": ["Macrophages Sub", "Macrophages Sub-Population"]}, {"conceptId": "C74798", "definition": "A measurement of the macrophages in a biological specimen.", "preferredTerm": "Macrophage Count", "submissionValue": "Macrophages", "synonyms": ["Macrophages"]}, {"conceptId": "C123460", "definition": "A relative measurement (ratio or percentage) of the macrophages to leukocytes in a biological specimen.", "preferredTerm": "Macrophage to Leukocyte Ratio", "submissionValue": "Macrophages/Leukocytes", "synonyms": ["Macrophages/Leukocytes"]}, {"conceptId": "C111244", "definition": "A relative measurement (ratio or percentage) of the macrophages to total cells in a biological specimen.", "preferredTerm": "Macrophage to Total Cell Ratio Measurement", "submissionValue": "Macrophages/Total Cells", "synonyms": ["Macrophages/Total Cells"]}, {"conceptId": "C111246", "definition": "A measurement of the mast cells in a biological specimen.", "preferredTerm": "Mast Cell Count", "submissionValue": "Mast Cells", "synonyms": ["Mast Cells", "Mastocytes"]}, {"conceptId": "C111247", "definition": "A relative measurement (ratio or percentage) of the mast cells to total cells in a biological specimen.", "preferredTerm": "Mast Cell to Total Cell Ratio Measurement", "submissionValue": "Mast Cells/Total Cells", "synonyms": ["Mast Cells/Total Cells"]}, {"conceptId": "C185972", "definition": "A measurement of a subpopulation of granulocytic myeloid-derived suppressor cells in a biological specimen.", "preferredTerm": "Granulocytic Myeloid-Derived Suppressor Cell Subpopulation Count", "submissionValue": "MDSC Gran Sub", "synonyms": ["MDSC Gran Sub", "Myeloid-Derived Suppressor Cells Granulocytic Sub-Population"]}, {"conceptId": "C185906", "definition": "A measurement of the granulocytic myeloid-derived suppressor cells in a biological specimen.", "preferredTerm": "Granulocytic Myeloid-Derived Suppressor Cell Count", "submissionValue": "MDSC Gran", "synonyms": ["G-MDSC", "gMDSC", "MDSC Gran", "Myeloid-Derived Suppressor Cells Granulocytic", "PMN-MDSC"]}, {"conceptId": "C185973", "definition": "A measurement of a subpopulation of monocytic myeloid-derived suppressor cells in a biological specimen.", "preferredTerm": "Monocytic Myeloid-Derived Suppressor Cell Subpopulation Count", "submissionValue": "MDSC Mono Sub", "synonyms": ["MDSC Mono Sub", "Myeloid-Derived Suppressor Cells Monocytic Sub-Population"]}, {"conceptId": "C185907", "definition": "A measurement of the monocytic myeloid-derived suppressor cells in a biological specimen.", "preferredTerm": "Monocytic Myeloid-Derived Suppressor Cell Count", "submissionValue": "MDSC Mono", "synonyms": ["M-MDSC", "MDSC Mono", "mMDSC", "Myeloid-Derived Suppressor Cells Monocytic"]}, {"conceptId": "C185974", "definition": "A measurement of a subpopulation of myeloid-derived suppressor cells in a biological specimen.", "preferredTerm": "Myeloid-Derived Suppressor Cell Subpopulation Count", "submissionValue": "MDSC Sub", "synonyms": ["MDSC Sub", "MDSC Sub-Population", "Myeloid-Derived Suppressor Cells Sub-Population"]}, {"conceptId": "C185904", "definition": "A measurement of the myeloid-derived suppressor cells in a biological specimen.", "preferredTerm": "Myeloid-Derived Suppressor Cell Count", "submissionValue": "MDSC", "synonyms": ["MDSC", "Myeloid-Derived Suppressor Cells"]}, {"conceptId": "C154722", "definition": "A relative measurement (ratio or percentage) of the megakaryocytes to leukocytes in a biological specimen.", "preferredTerm": "Megakaryocytes to Leukocytes Ratio Measurement", "submissionValue": "Megakaryocytes/Leukocytes", "synonyms": ["Megakaryocytes/Leukocytes"]}, {"conceptId": "C98867", "definition": "A relative measurement (ratio or percentage) of the megakaryocytes to total cells in a biological specimen (for example a bone marrow specimen).", "preferredTerm": "Megakaryocyte to Total Cell Ratio Measurement", "submissionValue": "Megakaryocytes/Total Cells", "synonyms": ["Megakaryocytes/Total Cells"]}, {"conceptId": "C181281", "definition": "A measurement of the classical monocytes in a biological specimen.", "preferredTerm": "Classic Monocytes Count", "submissionValue": "Mono Classic", "synonyms": ["Mono Classic", "Monocytes Classical"]}, {"conceptId": "C181282", "definition": "A measurement of the inflammatory monocytes in a biological specimen.", "preferredTerm": "Inflammatory Monocytes Count", "submissionValue": "Mono Inflamm", "synonyms": ["Mono Inflamm", "Monocytes Inflammatory"]}, {"conceptId": "C181283", "definition": "A measurement of the intermediate monocytes in a biological specimen.", "preferredTerm": "Intermediate Monocytes Count", "submissionValue": "Mono Intermed", "synonyms": ["Mono Intermed", "Monocytes Intermediate"]}, {"conceptId": "C181287", "definition": "A measurement of the mature monocytes in a biological specimen.", "preferredTerm": "Mature Monocytes Count", "submissionValue": "Mono Mat", "synonyms": ["Mono Mat", "Monocytes Mature"]}, {"conceptId": "C181284", "definition": "A measurement of the non-classical monocytes in a biological specimen.", "preferredTerm": "Non-Classical Monocytes Count", "submissionValue": "Mono NonClassic", "synonyms": ["Mono NonClassic", "Monocytes Non-Classical"]}, {"conceptId": "C181285", "definition": "A measurement of the pro-inflammatory monocytes in a biological specimen.", "preferredTerm": "Proinflammatory Monocytes Count", "submissionValue": "Mono Proinflam", "synonyms": ["Mono Proinflam", "Monocytes Proinflammatory"]}, {"conceptId": "C181279", "definition": "A relative measurement (ratio) of proliferating monocytes to non-proliferating monocytes in a biological specimen.", "preferredTerm": "Proliferating Monocytes to Total Monocytes Non-Proliferating Ratio Measurement", "submissionValue": "Mono Prolif/Mono NonProlif", "synonyms": ["Mono Prolif/Mono NonProlif", "Monocytes Prolif/Monocytes NonProlif", "Monocytes Proliferating/Monocytes Non-Proliferating"]}, {"conceptId": "C181286", "definition": "A measurement of the resident monocytes in a biological specimen.", "preferredTerm": "Resident Monocytes Count", "submissionValue": "Mono Resident", "synonyms": ["Mono Resident", "Monocytes Resident"]}, {"conceptId": "C181278", "definition": "A measurement of a subpopulation of monocytes in a biological specimen.", "preferredTerm": "Monocytes Subpopulation Count", "submissionValue": "Mono Sub", "synonyms": ["Mono Sub", "Monocytes Sub", "Monocytes Subpopulation"]}, {"conceptId": "C181280", "definition": "A relative measurement (ratio or percentage) of a subpopulation of monocytes to monocytes in a biological specimen.", "preferredTerm": "Monocyte Subpopulation to Total Monocytes Ratio Measurement", "submissionValue": "Mono Sub/Mono", "synonyms": ["Mono Sub/Mono", "Monocytes Sub/Monocytes", "Monocytes Subpopulation/Monocytes"]}, {"conceptId": "C147396", "definition": "A relative measurement (ratio or percentage) of the monocytes and macrophages to total leukocytes in a biological specimen.", "preferredTerm": "Monocytes and Macrophages to Leukocytes Ratio Measurement", "submissionValue": "Monocytes and Macrophages/Leukocytes", "synonyms": ["Monocytes and Macrophages/Leukocytes"]}, {"conceptId": "C64823", "definition": "A measurement of the monocytes in a biological specimen.", "preferredTerm": "Monocyte Count", "submissionValue": "Monocytes", "synonyms": ["Monocytes"]}, {"conceptId": "C64824", "definition": "A relative measurement (ratio or percentage) of the monocytes to leukocytes in a biological specimen.", "preferredTerm": "Monocyte to Leukocyte Ratio", "submissionValue": "Monocytes/Leukocytes", "synonyms": ["Monocytes/Leukocytes"]}, {"conceptId": "C98872", "definition": "A relative measurement (ratio or percentage) of the monocytes to total cells in a biological specimen (for example a bone marrow specimen).", "preferredTerm": "Monocytes to Total Cell Ratio Measurement", "submissionValue": "Monocytes/Total Cells", "synonyms": ["Monocytes/Total Cells"]}, {"conceptId": "C184425", "definition": "A measurement of the myeloid cells in a biological specimen.", "preferredTerm": "Myeloid Cell Count", "submissionValue": "Myel Cells", "synonyms": ["Myel Cells", "Myeloid Cells"]}, {"conceptId": "C98762", "definition": "A measurement of the total natural killer cells in a biological specimen.", "preferredTerm": "Natural Killer Cell Count", "submissionValue": "Natural Killer Cells", "synonyms": ["Natural Killer Cells"]}, {"conceptId": "C181257", "definition": "A relative measurement (ratio or percentage) of the natural killer cells to total cells in a biological specimen.", "preferredTerm": "Natural Killer Cells to Total Cells Ratio Measurement", "submissionValue": "Natural Killer Cells/Total Cells", "synonyms": ["Natural Killer Cells/Total Cells"]}, {"conceptId": "C63321", "definition": "A measurement of the neutrophils in a biological specimen.", "preferredTerm": "Absolute Neutrophil Count", "submissionValue": "Neutrophils", "synonyms": ["Neutrophils"]}, {"conceptId": "C181260", "definition": "A measurement of a subpopulation of natural killer cells in a biological specimen.", "preferredTerm": "Natural Killer Cells Subpopulation Count", "submissionValue": "NK Cells Sub", "synonyms": ["NK Cells Sub", "NK Cells Subpopulation"]}, {"conceptId": "C181259", "definition": "A relative measurement (ratio or percentage) of a sub population of natural killer cells to total natural killer cells in a biological specimen.", "preferredTerm": "Natural Killer Cells Subpopulation to Total Natural Killer Cells Ratio Measurement", "submissionValue": "NK Cells Sub/NK Cells", "synonyms": ["Natural Killer Cells Subpopulation/Natural Killer Cells", "NK Cells Sub/NK Cells"]}, {"conceptId": "C181306", "definition": "A relative measurement (ratio or percentage) of the natural killer cells to leukocytes in a biological specimen.", "preferredTerm": "Natural Killer Cells to Leukocytes Ratio Measurement", "submissionValue": "NK Cells/Leuk", "synonyms": ["Natural Killer Cells/Leukocytes", "NK Cells/Leuk"]}, {"conceptId": "C181258", "definition": "A relative measurement (ratio or percentage) of the natural killer cells to lymphocytes in a biological specimen.", "preferredTerm": "Natural Killer Cells to Lymphocytes Ratio Measurement", "submissionValue": "NK Cells/Lym", "synonyms": ["Natural Killer Cells/Lymphocytes", "NK Cells/Lym"]}, {"conceptId": "C185975", "definition": "A measurement of a sub-population of natural killer T-lymphocytes in a biological specimen.", "preferredTerm": "Natural Killer T-Lymphocyte Subpopulation Count", "submissionValue": "NK TLym Sub", "synonyms": ["Natural Killer T-Cells Sub-Population", "Natural Killer T-Lymphocytes Sub-Population", "NK TLym Sub"]}, {"conceptId": "C184426", "definition": "A measurement of the natural killer T-lymphocytes in a biological specimen.", "preferredTerm": "Natural Killer T-Lymphocyte Count", "submissionValue": "NK TLym", "synonyms": ["Natural Killer T-Cells", "Natural Killer T-Lymphocytes", "NK Tlym"]}, {"conceptId": "C185977", "definition": "A measurement of a sub-population of plasma cells in a biological specimen.", "preferredTerm": "Plasma Cell Subpopulation Count", "submissionValue": "Plasma Cells Sub", "synonyms": ["Plasma Cells Sub", "Plasma Cells Sub-Population", "Total Plasma Cells Sub"]}, {"conceptId": "C128974", "definition": "A measurement of the total plasma cells in a biological specimen.", "preferredTerm": "Plasma Cell Count", "submissionValue": "Plasma Cells", "synonyms": ["Total Plasma Cells"]}, {"conceptId": "C187716", "definition": "A measurement of a sub-population of IgG+ plasmablasts in a biological specimen.", "preferredTerm": "Immunoglobulin G Positive Plasmablast Subpopulation Count", "submissionValue": "Plasmablasts IgG+ Sub", "synonyms": ["Plasmablasts IgG+ Sub", "Plasmablasts IgG+ Sub-Population"]}, {"conceptId": "C187717", "definition": "A relative measurement (ratio or percentage) of a sub-population of IgG+ plasmablasts to total IgG+ plasmablasts in a biological specimen.", "preferredTerm": "Immunoglobulin G Positive Plasmablast Subpopulation to Total Immunoglobulin G Positive Plasmablast Ratio Measurement", "submissionValue": "Plasmablasts IgG+ Sub/PB IgG+", "synonyms": ["Plasmablasts IgG+ Sub-Population/Plasmablasts IgG+", "Plasmablasts IgG+ Sub/PB IgG+"]}, {"conceptId": "C187671", "definition": "A measurement of the IgG+ plasmablasts in a biological specimen.", "preferredTerm": "Immunoglobulin G Positive Plasmablast Count", "submissionValue": "Plasmablasts IgG+", "synonyms": ["Plasmablasts IgG+"]}, {"conceptId": "C187718", "definition": "A relative measurement (ratio or percentage) of the IgG+ plasmablasts to total plasmablasts in a biological specimen.", "preferredTerm": "Immunoglobulin G Positive Plasmablast to Plasmablast Ratio Measurement", "submissionValue": "Plasmablasts IgG+/PB", "synonyms": ["Plasmablasts IgG+/PB", "Plasmablasts IgG+/Plasmablasts"]}, {"conceptId": "C187722", "definition": "A measurement of a sub-population of IgM+ plasmablasts in a biological specimen.", "preferredTerm": "Immunoglobulin M Positive Plasmablast Subpopulation Count", "submissionValue": "Plasmablasts IgM+ Sub", "synonyms": ["Plasmablasts IgM+ Sub", "Plasmablasts IgM+ Sub-Population"]}, {"conceptId": "C187723", "definition": "A relative measurement (ratio or percentage) of a sub-population of IgM+ plasmablasts to total IgM+ plasmablasts in a biological specimen.", "preferredTerm": "Immunoglobulin M Positive Plasmablast Subpopulation to Total Immunoglobulin M Positive Plasmablast Ratio Measurement", "submissionValue": "Plasmablasts IgM+ Sub/PB IgM+", "synonyms": ["Plasmablasts IgG+ Sub-Population/Plasmablasts IgG+", "Plasmablasts IgM+ Sub/PB IgM+"]}, {"conceptId": "C187721", "definition": "A measurement of the IgM+ plasmablasts in a biological specimen.", "preferredTerm": "Immunoglobulin M Positive Plasmablast Count", "submissionValue": "Plasmablasts IgM+", "synonyms": ["Plasmablasts IgM+"]}, {"conceptId": "C187724", "definition": "A relative measurement (ratio or percentage) of the IgM+ plasmablasts to total plasmablasts in a biological specimen.", "preferredTerm": "Immunoglobulin M Positive Plasmablast to Plasmablast Ratio Measurement", "submissionValue": "Plasmablasts IgM+/PB", "synonyms": ["Plasmablasts IgM+/PB", "Plasmablasts IgM+/Plasmablasts"]}, {"conceptId": "C187731", "definition": "A measurement of a sub-population of plasmablasts in a biological specimen.", "preferredTerm": "Plasmablast Subpopulation Count", "submissionValue": "Plasmablasts Sub", "synonyms": ["Plasmablasts Sub", "Plasmablasts Sub-Population", "Precursor Plasma Cells Sub-Population"]}, {"conceptId": "C187732", "definition": "A relative measurement (ratio or percentage) of a sub-population of plasmablasts to B-lymphocytes in a biological specimen.", "preferredTerm": "Plasmablast Subpopulation to B-Lymphocyte Ratio Measurement", "submissionValue": "Plasmablasts Sub/BLym", "synonyms": ["Plasmablasts Sub-Population/B-Lymphocytes", "Plasmablasts Sub/BLym"]}, {"conceptId": "C187733", "definition": "A relative measurement (ratio or percentage) of a sub-population of plasmablasts to leukocytes in a biological specimen.", "preferredTerm": "Plasmablast Subpopulation to Leukocyte Ratio Measurement", "submissionValue": "Plasmablasts Sub/Leuk", "synonyms": ["Plasmablasts Sub-Population/Leukocytes", "Plasmablasts Sub/Leuk"]}, {"conceptId": "C187734", "definition": "A relative measurement (ratio or percentage) of a sub-population of plasmablasts to total plasmablasts in a biological specimen.", "preferredTerm": "Plasmablast Subpopulation to Total Plasmablast Ratio Measurement", "submissionValue": "Plasmablasts Sub/PB", "synonyms": ["Plasmablasts Sub-Population/Plasmablasts", "Plasmablasts Sub/PB"]}, {"conceptId": "C74619", "definition": "A measurement of the precursor (blast stage) plasma cells (antibody secreting cells derived from B cells via antigen stimulation) in a biological specimen.", "preferredTerm": "Precursor Plasma Cell Count", "submissionValue": "Plasmablasts", "synonyms": ["Plasmablast", "Precursor Plasma Cells"]}, {"conceptId": "C185976", "definition": "A relative measurement (ratio or percentage) of plasmablasts to B-lymphocytes in a biological specimen.", "preferredTerm": "Plasmablasts to Total B-Lymphocytes Ratio Measurement", "submissionValue": "Plasmablasts/BLym", "synonyms": ["Plasmablasts/B-Lymphocytes", "Plasmablasts/BLym", "Precursor Plasma Cells/B-Lymphocytes"]}, {"conceptId": "C185978", "definition": "A measurement of a sub-population of platelets in a biological specimen.", "preferredTerm": "Platelet Subpopulation Count", "submissionValue": "Platelets Sub", "synonyms": ["Platelets Sub-Population"]}, {"conceptId": "C51951", "definition": "A measurement of the platelets (non-nucleated thrombocytes) in a biological specimen.", "preferredTerm": "Platelet Count", "submissionValue": "Platelets", "synonyms": ["Platelets"]}, {"conceptId": "C181300", "definition": "A relative measurement (ratio or percentage) of a cell characteristic or response in the presence of a stimulating agent relative to a non-stimulated control.", "preferredTerm": "Stimulation Index Count", "submissionValue": "Stimulation Index", "synonyms": ["Stimulation Index"]}, {"conceptId": "C122157", "definition": "A measurement of the total thymocyte-derived lymphocytes in a biological specimen.", "preferredTerm": "T-Lymphocyte Count", "submissionValue": "T-Lymphocytes", "synonyms": ["T-Cell Lymphocytes", "T-Cells", "T-Lymphocytes"]}, {"conceptId": "C181295", "definition": "A measurement of the bound target in a biological specimen, prior to background subtraction.", "preferredTerm": "Target Bound Measurement", "submissionValue": "Target Bound", "synonyms": ["Target Bound"]}, {"conceptId": "C181294", "definition": "A measurement of the background associated with the bound target measurement in a biological specimen.", "preferredTerm": "Target Bound, Background Measurement", "submissionValue": "Target Bound, Background", "synonyms": ["Target Bound, Background"]}, {"conceptId": "C181288", "definition": "A measurement of the difference between bound target and background target in a biological specimen.", "preferredTerm": "Target, Bound Delta Bound Background Measurement", "submissionValue": "Target Bound, Delta Bound Background", "synonyms": ["Target Bound, Delta Bound Background"]}, {"conceptId": "C181296", "definition": "A measurement of the free target in a biological specimen, prior to background subtraction.", "preferredTerm": "Target Free Measurement", "submissionValue": "Target Free", "synonyms": ["Target Free"]}, {"conceptId": "C181292", "definition": "A measurement of the background associated with the free target measurement in a biological specimen.", "preferredTerm": "Target Free, Background Measurement", "submissionValue": "Target Free, Background", "synonyms": ["Target Free, Background"]}, {"conceptId": "C181289", "definition": "A measurement of the difference between free target and free background target in a biological specimen.", "preferredTerm": "Target, Free Delta Free Background Measurement", "submissionValue": "Target Free, Delta Free Background", "synonyms": ["Target Free, Delta Free Background"]}, {"conceptId": "C181291", "definition": "A relative measurement (ratio or percentage) of the specifically bound target to total target in a biological specimen.", "preferredTerm": "Target Occupancy Ratio Measurement", "submissionValue": "Target Occupancy", "synonyms": ["Percent Occupancy", "Percent Saturation", "Target Occupancy"]}, {"conceptId": "C181297", "definition": "A measurement of the total target in a biological specimen, prior to background subtraction.", "preferredTerm": "Target Total Measurement", "submissionValue": "Target Total", "synonyms": ["Target Total"]}, {"conceptId": "C181293", "definition": "A measurement of the background associated with the total target measurement in a biological specimen.", "preferredTerm": "Target Total, Background Measurement", "submissionValue": "Target Total, Background", "synonyms": ["Target Total, Background"]}, {"conceptId": "C181290", "definition": "A measurement of the difference between total target and target total background in a biological specimen.", "preferredTerm": "Target, Total Delta Total Background Measurement", "submissionValue": "Target Total, Delta Total Background", "synonyms": ["Target Total, Delta Total Background"]}, {"conceptId": "C185980", "definition": "A measurement of a sub-population of alpha-beta T-lymphocytes in a biological specimen.", "preferredTerm": "Alpha-Beta T-Lymphocyte Subpopulation Count", "submissionValue": "TLym AB Sub", "synonyms": ["T-Lymphocytes Alpha-Beta", "TLym AB Sub"]}, {"conceptId": "C185979", "definition": "A measurement of the alpha-beta T-lymphocytes in a biological specimen.", "preferredTerm": "Alpha-Beta T-Lymphocyte Count", "submissionValue": "TLym AB", "synonyms": ["T-Lymphocytes Alpha-Beta", "TCR Alpha-Beta T-Cells", "TLym AB"]}, {"conceptId": "C186268", "definition": "A measurement of the central memory T-lymphocytes in a biological specimen.", "preferredTerm": "Central Memory T-Lymphocyte Count", "submissionValue": "TLym Cen Mem", "synonyms": ["T-Lymphocytes Central Memory", "TLym Cen Mem"]}, {"conceptId": "C185981", "definition": "A measurement of a sub-population of cytotoxic alpha-beta T-lymphocytes in a biological specimen.", "preferredTerm": "Alpha-Beta Cytotoxic T-Lymphocyte Subpopulation Count", "submissionValue": "TLym Cytx AB Sub", "synonyms": ["T-Lymphocytes Cytotoxic Alpha-Beta", "TLym Cytx AB Sub"]}, {"conceptId": "C185909", "definition": "A measurement of the cytotoxic alpha-beta T-lymphocytes in a biological specimen.", "preferredTerm": "Cytotoxic Alpha-Beta T-Lymphocyte Count", "submissionValue": "TLym Cytx AB", "synonyms": ["T-Lymphocytes Cytotoxic Alpha-Beta", "TLym Cytx AB"]}, {"conceptId": "C185982", "definition": "A measurement of a sub-population of cytotoxic central memory T-lymphocytes in a biological specimen.", "preferredTerm": "Central Memory Cytotoxic T-Lymphocyte Subpopulation Count", "submissionValue": "TLym Cytx Cen Mem Sub", "synonyms": ["T-Lymphocytes Cytotoxic Central Memory Sub-Population", "TLym Cytx Cen Mem Sub"]}, {"conceptId": "C185911", "definition": "A measurement of the cytotoxic central memory T-lymphocytes in a biological specimen.", "preferredTerm": "Central Memory Cytotoxic T-Lymphocyte Count", "submissionValue": "TLym Cytx Cen Mem", "synonyms": ["T-Lymphocytes Cytotoxic Central Memory", "TLym Cytx Cen Mem"]}, {"conceptId": "C185983", "definition": "A measurement of a sub-population of cytotoxic effector memory T-lymphocytes in a biological specimen.", "preferredTerm": "Effector Memory Cytotoxic T-Lymphocyte Subpopulation Count", "submissionValue": "TLym Cytx Eff Mem Sub", "synonyms": ["T-Lymphocytes Cytotoxic Effector Memory Sub-Population", "TLym Cytx Eff Mem Sub"]}, {"conceptId": "C185913", "definition": "A measurement of the cytotoxic effector memory T-lymphocytes in a biological specimen.", "preferredTerm": "Effector Memory Cytotoxic T-Lymphocyte Count", "submissionValue": "TLym Cytx Eff Mem", "synonyms": ["T-Lymphocytes Cytotoxic Effector Memory", "TLym Cytx Eff Mem"]}, {"conceptId": "C185984", "definition": "A measurement of a sub-population of cytotoxic effector T-lymphocytes in a biological specimen.", "preferredTerm": "Effector Cytotoxic T-Lymphocyte Subpopulation Count", "submissionValue": "TLym Cytx Eff Sub", "synonyms": ["T-Lymphocytes Cytotoxic Effector Sub-Population", "TLym Cytx Eff Sub"]}, {"conceptId": "C185912", "definition": "A measurement of the cytotoxic effector T-lymphocytes in a biological specimen.", "preferredTerm": "Effector Cytotoxic T-Lymphocyte Count", "submissionValue": "TLym Cytx Eff", "synonyms": ["T-Lymphocytes Cytotoxic Effector", "TLym Cytx Eff"]}, {"conceptId": "C185985", "definition": "A measurement of a sub-population of cytotoxic gamma-delta T-lymphocytes in a biological specimen.", "preferredTerm": "Cytotoxic Gamma-Delta T-Lymphocyte Subpopulation Count", "submissionValue": "TLym Cytx GD Sub", "synonyms": ["T-Lymphocytes Cytotoxic Gamma-Delta", "TLym Cytx GD Sub"]}, {"conceptId": "C185910", "definition": "A measurement of the cytotoxic gamma-delta T-lymphocytes in a biological specimen.", "preferredTerm": "Cytotoxic Gamma-Delta T-Lymphocyte Count", "submissionValue": "TLym Cytx GD", "synonyms": ["T-Lymphocytes Cytotoxic Gamma-Delta", "TLym Cytx GD"]}, {"conceptId": "C185987", "definition": "A measurement of a sub-population of cytotoxic naive T-lymphocytes in a biological specimen.", "preferredTerm": "Naive Cytotoxic T-Lymphocyte Subpopulation Count", "submissionValue": "TLym Cytx Naive Sub", "synonyms": ["T-Lymphocytes Cytotoxic Naive Sub-Population", "TLym Cytx Naive Sub"]}, {"conceptId": "C185914", "definition": "A measurement of the cytotoxic naive T-lymphocytes in a biological specimen.", "preferredTerm": "Naive Cytotoxic T-Lymphocyte Count", "submissionValue": "TLym Cytx Naive", "synonyms": ["T-Lymphocytes Cytotoxic Naive", "TLym Cytx Naive"]}, {"conceptId": "C185988", "definition": "A measurement of a sub-population of cytotoxic regulatory T-lymphocytes in a biological specimen.", "preferredTerm": "Regulatory Cytotoxic T-Lymphocyte Subpopulation Count", "submissionValue": "TLym Cytx Reg Sub", "synonyms": ["T-Lymphocytes Cytotoxic Regulatory Sub-Population", "TLym Cytx Reg Sub"]}, {"conceptId": "C185915", "definition": "A measurement of the cytotoxic regulatory T-lymphocytes in a biological specimen.", "preferredTerm": "Regulatory Cytotoxic T-Lymphocyte Count", "submissionValue": "TLym Cytx Reg", "synonyms": ["T-Lymphocytes Cytotoxic Regulatory", "TLym Cytx Reg"]}, {"conceptId": "C181299", "definition": "A measurement of the subpopulation of cytotoxic T-lymphocytes in a biological specimen.", "preferredTerm": "Cytotoxic T-Lymphocyte Subpopulation Count", "submissionValue": "TLym Cytx Sub", "synonyms": ["Cytotoxic T Cells Subpopulation", "Cytotoxic T-Lymphocytes Subpopulation", "TLym Cytx Sub"]}, {"conceptId": "C181298", "definition": "A relative measurement (ratio or percentage) of the cytotoxic T-lymphocyte subpopulation to total cytotoxic T-lymphocytes in a biological specimen.", "preferredTerm": "Cytotoxic T-Lymphocyte Subpopulation to Total Cytotoxic T-Lymphocytes Ratio Measurement", "submissionValue": "TLym Cytx Sub/TLym Cytx", "synonyms": ["Cytotoxic T-Lymphocytes Subpopulation/Cytotoxic T-Lymphocytes", "T Cells Subpopulation/Cytotoxic T-Lymphocytes", "TLym Cytx Sub/TLym Cytx"]}, {"conceptId": "C185989", "definition": "A measurement of a sub-population of cytotoxic terminal memory T-lymphocytes in a biological specimen.", "preferredTerm": "Terminal Memory Cytotoxic T-Lymphocyte Subpopulation Count", "submissionValue": "TLym Cytx Term Mem Sub", "synonyms": ["T-Lymphocytes Cytotoxic Terminal Memory Sub-Population", "TLym Cytx Term Mem Sub"]}, {"conceptId": "C185916", "definition": "A measurement of the cytotoxic terminal memory T-lymphocytes in a biological specimen.", "preferredTerm": "Terminal Memory Cytotoxic T-Lymphocyte Count", "submissionValue": "TLym Cytx Term Mem", "synonyms": ["T-Lymphocytes Cytotoxic Terminal Memory", "TLym Cytx Term Mem"]}, {"conceptId": "C181186", "definition": "A measurement of the cytotoxic T-lymphocytes in a biological specimen.", "preferredTerm": "Cytotoxic T-Lymphocyte Count", "submissionValue": "TLym Cytx", "synonyms": ["Cytotoxic T Cells", "Cytotoxic T-Lymphocytes", "TLym Cytx"]}, {"conceptId": "C181254", "definition": "A relative measurement (ratio or percentage) of the cytotoxic T-lymphocytes to leukocytes in a biological specimen.", "preferredTerm": "Cytotoxic T-Lymphocytes to Leukocytes Ratio Measurement", "submissionValue": "TLym Cytx/Leuk", "synonyms": ["T Cells, Cytotoxic/Leukocytes", "T-Lymphocytes, Cytotoxic/Leukocytes", "TLym Cytx/Leuk"]}, {"conceptId": "C181304", "definition": "A relative measurement (ratio or percentage) of the cytotoxic T-lymphocytes to total T-lymphocytes in a biological specimen.", "preferredTerm": "Cytotoxic T-Lymphocytes to Total T-Lymphocytes Ratio Measurement", "submissionValue": "TLym Cytx/TLym", "synonyms": ["Cytotoxic T Cells/T Cells", "Cytotoxic T-Lymphocytes/T-Lymphocytes", "TLym Cytx/TLym"]}, {"conceptId": "C181256", "definition": "A relative measurement (ratio or percentage) of the cytotoxic T-lymphocytes to total cells in a biological specimen.", "preferredTerm": "Cytotoxic T-Lymphocytes to Total Cells Ratio Measurement", "submissionValue": "TLym Cytx/Total Cells", "synonyms": ["T Cells, Cytotoxic/Total Cells", "T-Lym, CTX/Total Cells", "T-Lymphocytes, Cytotoxic/Total Cells", "TLym Cytx/Total Cells"]}, {"conceptId": "C185990", "definition": "A measurement of a sub-population of effector memory T-lymphocytes in a biological specimen.", "preferredTerm": "Effector Memory T-Lymphocyte Subpopulation Count", "submissionValue": "TLym Eff Mem Sub", "synonyms": ["T-Lymphocytes Effector Memory Sub-Population", "TLym Eff Mem Sub"]}, {"conceptId": "C185908", "definition": "A measurement of the effector memory T-lymphocytes in a biological specimen.", "preferredTerm": "Effector Memory T-Lymphocyte Count", "submissionValue": "TLym Eff Mem", "synonyms": ["T-Lymphocytes Effector Memory", "TLym Eff Mem"]}, {"conceptId": "C185992", "definition": "A measurement of a sub-population of gamma-delta T-lymphocytes in a biological specimen.", "preferredTerm": "Gamma-Delta T-Lymphocyte Subpopulation Count", "submissionValue": "TLym GD Sub", "synonyms": ["T-Lymphocytes Gamma-Delta", "TLym GD Sub"]}, {"conceptId": "C185991", "definition": "A measurement of the gamma-delta T-lymphocytes in a biological specimen.", "preferredTerm": "Gamma-Delta T-Lymphocyte Count", "submissionValue": "TLym GD", "synonyms": ["T-Lymphocytes Gamma-Delta", "TCR Gamma-Delta T-Cells", "TLym GD"]}, {"conceptId": "C185995", "definition": "A measurement of a sub-population of helper 1 T-lymphocytes in a biological specimen.", "preferredTerm": "Helper 1 T-Lymphocyte Subpopulation Count", "submissionValue": "TLym Help 1 Sub", "synonyms": ["T-Lymphocytes Helper 1 Sub-Population", "Th1 Sub", "TLym Help 1 Sub"]}, {"conceptId": "C185917", "definition": "A measurement of the helper 1 T-lymphocytes in a biological specimen.", "preferredTerm": "Helper 1 T-Lymphocyte Count", "submissionValue": "TLym Help 1", "synonyms": ["T-Lymphocytes Helper 1", "Th1", "TLym Help 1"]}, {"conceptId": "C185994", "definition": "A measurement of a sub-population of helper 17 T-lymphocytes in a biological specimen.", "preferredTerm": "Helper 17 T-Lymphocyte Subpopulation Count", "submissionValue": "TLym Help 17 Sub", "synonyms": ["T-Lymphocytes Helper 17 Sub-Population", "Th17 Sub", "TLym Help 17 Su"]}, {"conceptId": "C185918", "definition": "A measurement of the helper 17 T-lymphocytes in a biological specimen.", "preferredTerm": "Helper 17 T-Lymphocyte Count", "submissionValue": "TLym Help 17", "synonyms": ["T-Lymphocytes Helper 17", "Th17", "TLym Help 17"]}, {"conceptId": "C185993", "definition": "A measurement of a sub-population of helper 17.1 T-lymphocytes in a biological specimen.", "preferredTerm": "Helper 17.1 T-Lymphocyte Subpopulation Count", "submissionValue": "TLym Help 17.1 Sub", "synonyms": ["T-Lymphocytes Helper 17.1 Sub-Population", "Th17.1 Sub", "TLym Help 17.1 Sub"]}, {"conceptId": "C185919", "definition": "A measurement of the helper 17.1 T-lymphocytes in a biological specimen.", "preferredTerm": "Helper 17.1 T-Lymphocyte Count", "submissionValue": "TLym Help 17.1", "synonyms": ["T-Lymphocytes Helper 17.1", "Th17.1", "TLym Help 17.1"]}, {"conceptId": "C185997", "definition": "A measurement of a sub-population of helper 2 T-lymphocytes in a biological specimen.", "preferredTerm": "Helper 2 T-Lymphocyte Subpopulation Count", "submissionValue": "TLym Help 2 Sub", "synonyms": ["T-Lymphocytes Helper 2 Sub-Population", "Th2 Sub", "TLym Help 2 Sub"]}, {"conceptId": "C185920", "definition": "A measurement of the helper 2 T-lymphocytes in a biological specimen.", "preferredTerm": "Helper 2 T-Lymphocyte Count", "submissionValue": "TLym Help 2", "synonyms": ["T-Lymphocytes Helper 2", "Th2", "TLym Help 2"]}, {"conceptId": "C185996", "definition": "A measurement of a sub-population of helper 22 T-lymphocytes in a biological specimen.", "preferredTerm": "Helper 22 T-Lymphocyte Subpopulation Count", "submissionValue": "TLym Help 22 Sub", "synonyms": ["T-Lymphocytes Helper 22 Sub-Population", "Th22 Sub", "TLym Help 22 Sub"]}, {"conceptId": "C185921", "definition": "A measurement of the helper 22 T-lymphocytes in a biological specimen.", "preferredTerm": "Helper 22 T-Lymphocyte Count", "submissionValue": "TLym Help 22", "synonyms": ["T-Lymphocytes Helper 22", "Th22", "TLym Help 22"]}, {"conceptId": "C185998", "definition": "A measurement of a sub-population of helper 22 T-lymphocytes in a biological specimen.", "preferredTerm": "Helper 9 T-Lymphocyte Subpopulation Count", "submissionValue": "TLym Help 9 Sub", "synonyms": ["T-Lymphocytes Helper 9 Sub-Population", "Th9 Sub", "TLym Help 9 Sub"]}, {"conceptId": "C185922", "definition": "A measurement of the helper 9 T-lymphocytes in a biological specimen.", "preferredTerm": "Helper 9 T-Lymphocyte Count", "submissionValue": "TLym Help 9", "synonyms": ["T-Lymphocytes Helper 9", "Th9", "TLym Help 9"]}, {"conceptId": "C186000", "definition": "A measurement of a sub-population of helper alpha-beta T-lymphocytes in a biological specimen.", "preferredTerm": "Alpha-Beta Helper T-Lymphocyte Subpopulation Count", "submissionValue": "TLym Help AB Sub", "synonyms": ["T-Lymphocytes Helper Alpha-Beta", "TLym Help AB Sub"]}, {"conceptId": "C185999", "definition": "A measurement of the helper alpha-beta T-lymphocytes in a biological specimen.", "preferredTerm": "Alpha-Beta Helper T-Lymphocyte Count", "submissionValue": "TLym Help AB", "synonyms": ["T-Lymphocytes Helper Alpha-Beta", "TLym Help AB"]}, {"conceptId": "C186001", "definition": "A measurement of a sub-population of helper central memory T-lymphocytes in a biological specimen.", "preferredTerm": "Central Memory Helper T-Lymphocyte Sub-Population Count", "submissionValue": "TLym Help Cen Mem Sub", "synonyms": ["T-Lymphocytes Helper Central Memory Sub-Population", "TLym Help Cen Mem Sub"]}, {"conceptId": "C185923", "definition": "A measurement of the helper central memory T-lymphocytes in a biological specimen.", "preferredTerm": "Central Memory Helper T-Lymphocyte Count", "submissionValue": "TLym Help Cen Mem", "synonyms": ["T-Lymphocytes Helper Central Memory", "TLym Help Cen Mem"]}, {"conceptId": "C186002", "definition": "A measurement of a sub-population of helper effector memory T-lymphocytes in a biological specimen.", "preferredTerm": "Effector Memory Helper T-Lymphocyte Subpopulation Count", "submissionValue": "TLym Help Eff Mem Sub", "synonyms": ["T-Lymphocytes Helper Effector Memory Sub-Population", "TLym Help Eff Mem Sub"]}, {"conceptId": "C185925", "definition": "A measurement of the helper effector memory T-lymphocytes in a biological specimen.", "preferredTerm": "Effector Memory Helper T-Lymphocyte Count", "submissionValue": "TLym Help Eff Mem", "synonyms": ["T-Lymphocytes Helper Effector Memory", "TLym Help Eff Mem"]}, {"conceptId": "C186003", "definition": "A measurement of a sub-population of helper effector T-lymphocytes in a biological specimen.", "preferredTerm": "Effector Helper T-Lymphocyte Subpopulation Count", "submissionValue": "TLym Help Eff Sub", "synonyms": ["T-Lymphocytes Helper Effector Sub-Population", "TLym Help Eff Sub"]}, {"conceptId": "C185924", "definition": "A measurement of the helper effector T-lymphocytes in a biological specimen.", "preferredTerm": "Effector Helper T-Lymphocyte Count", "submissionValue": "TLym Help Eff", "synonyms": ["T-Lymphocytes Helper Effector", "TLym Help Eff"]}, {"conceptId": "C186004", "definition": "A measurement of the helper follicular T-lymphocytes in a biological specimen.", "preferredTerm": "Follicular Helper T-Lymphocyte Count", "submissionValue": "TLym Help Foll", "synonyms": ["T-Lymphocytes Helper Follicular", "TLym Help Foll"]}, {"conceptId": "C186006", "definition": "A measurement of a sub-population of helper gamma-delta T-lymphocytes in a biological specimen.", "preferredTerm": "Helper Gamma-Delta T-Lymphocyte Subpopulation Count", "submissionValue": "TLym Help GD Sub", "synonyms": ["T-Lymphocytes Helper Gamma-Delta", "TLym Help GD Sub"]}, {"conceptId": "C186005", "definition": "A measurement of the helper gamma-delta T-lymphocytes in a biological specimen.", "preferredTerm": "Gamma-Delta Helper T-Lymphocyte Count", "submissionValue": "TLym Help GD", "synonyms": ["T-Lymphocytes Helper Gamma-Delta", "TLym Help GD"]}, {"conceptId": "C186007", "definition": "A measurement of a sub-population of helper memory T-lymphocytes in a biological specimen.", "preferredTerm": "Memory Helper T-Lymphocyte Subpopulation Count", "submissionValue": "TLym Help Mem Sub", "synonyms": ["T-Lymphocytes Helper Memory Sub-Population", "TLym Help Mem Sub"]}, {"conceptId": "C185926", "definition": "A measurement of the helper memory T-lymphocytes in a biological specimen.", "preferredTerm": "Memory Helper T-Lymphocyte Count", "submissionValue": "TLym Help Mem", "synonyms": ["T-Lymphocytes Helper Memory", "TLym Help Mem"]}, {"conceptId": "C186008", "definition": "A measurement of a sub-population of helper naive T-lymphocytes in a biological specimen.", "preferredTerm": "Naive Helper T-Lymphocyte Subpopulation Count", "submissionValue": "TLym Help Naive Sub", "synonyms": ["T-Lymphocytes Helper Naive Sub-Population", "TLym Help Naive Sub"]}, {"conceptId": "C185927", "definition": "A measurement of the helper naive T-lymphocytes in a biological specimen.", "preferredTerm": "Naive Helper T-Lymphocyte Count", "submissionValue": "TLym Help Naive", "synonyms": ["T-Lymphocytes Helper Naive", "TLym Help Naive"]}, {"conceptId": "C186009", "definition": "A measurement of a sub-population of helper regulatory effector T-lymphocytes in a biological specimen.", "preferredTerm": "Regulatory Effector Helper T-Lymphocyte Subpopulation Count", "submissionValue": "TLym Help Reg Eff Sub", "synonyms": ["T-Lymphocytes, Helper Regulatory Effector Sub-Population", "TLym Help Reg Eff Sub"]}, {"conceptId": "C185929", "definition": "A measurement of the helper regulatory effector T-lymphocytes in a biological specimen.", "preferredTerm": "Regulatory Effector Helper T-Lymphocyte Count", "submissionValue": "TLym Help Reg Eff", "synonyms": ["T-Lymphocytes Helper Regulatory Effector", "TLym Help Reg Eff"]}, {"conceptId": "C186010", "definition": "A measurement of a sub-population of helper regulatory memory T-lymphocytes in a biological specimen.", "preferredTerm": "Regulatory Memory Helper T-Lymphocyte Subpopulation Count", "submissionValue": "TLym Help Reg Mem Sub", "synonyms": ["T-Lymphocytes Helper Regulatory Memory Sub-Population", "TLym Help Reg Mem Sub"]}, {"conceptId": "C185930", "definition": "A measurement of the helper regulatory memory T-lymphocytes in a biological specimen.", "preferredTerm": "Regulatory Memory Helper T-Lymphocyte Count", "submissionValue": "TLym Help Reg Mem", "synonyms": ["T-Lymphocytes Helper Regulatory Memory", "TLym Help Reg Mem"]}, {"conceptId": "C185928", "definition": "A measurement of a sub-population of helper regulatory T-lymphocytes in a biological specimen.", "preferredTerm": "Helper Regulatory T-Lymphocyte Subpopulation Count", "submissionValue": "TLym Help Reg Sub", "synonyms": ["T-Lymphocytes Helper Regulatory Sub-Population", "TLym Help Reg Sub"]}, {"conceptId": "C184428", "definition": "A measurement of helper regulatory T-lymphocytes in a biological specimen.", "preferredTerm": "Helper Regulatory T-Lymphocyte Count", "submissionValue": "TLym Help Reg", "synonyms": ["T-Lymphocytes Helper Regulatory", "TLym Help Reg"]}, {"conceptId": "C184351", "definition": "A measurement of a subpopulation of helper T-lymphocytes in a biological specimen.", "preferredTerm": "Helper T-Lymphocyte Subpopulation Count", "submissionValue": "TLym Help Sub", "synonyms": ["T-Lymphocytes Helper Subpopulation", "TLym Help Sub"]}, {"conceptId": "C184429", "definition": "A relative measurement (ratio or percentage) of the subpopulation of helper T-lymphocytes to total lymphocytes in a biological specimen.", "preferredTerm": "Helper T-Lymphocyte Subpopulation to Total Lymphocyte Ratio Measurement", "submissionValue": "TLym Help Sub/Lym", "synonyms": ["Lymphocytes Helper Subpopulation/Lymphocytes", "TLym Help Sub/Lym"]}, {"conceptId": "C186011", "definition": "A measurement of a sub-population of helper terminal memory T-lymphocytes in a biological specimen.", "preferredTerm": "Terminal Memory Helper T-Lymphocyte Subpopulation Count", "submissionValue": "TLym Help Term Mem Sub", "synonyms": ["T-Lymphocytes Helper Terminal Memory Sub-Population", "TLym Help Term Mem Sub"]}, {"conceptId": "C185931", "definition": "A measurement of the helper terminal memory T-lymphocytes in a biological specimen.", "preferredTerm": "Terminal Memory Helper T-Lymphocyte Count", "submissionValue": "TLym Help Term Mem", "synonyms": ["T-Lymphocytes Helper Terminal Memory", "TLym Help Term Mem"]}, {"conceptId": "C181302", "definition": "A measurement of the helper T-lymphocytes in a biological specimen.", "preferredTerm": "Helper T-Lymphocytes Count", "submissionValue": "TLym Help", "synonyms": ["Helper T Cells", "Helper T-Lymphocytes", "TLym Help"]}, {"conceptId": "C181253", "definition": "A relative measurement (ratio or percentage) of the helper T-lymphocytes to leukocytes in a biological specimen.", "preferredTerm": "Helper T-Lymphocytes to Leukocytes Ratio Measurement", "submissionValue": "TLym Help/Leuk", "synonyms": ["T Cells, Helper/Leukocytes", "T-Lymphocytes, Helper/Leukocytes", "TLym Help/Leuk"]}, {"conceptId": "C181305", "definition": "A relative measurement (ratio) of the helper T-lymphocytes to cytotoxic T-lymphocytes in a biological specimen.", "preferredTerm": "Helper T-Lymphocytes to Cytotoxic T-Lymphocytes Ratio Measurement", "submissionValue": "TLym Help/TLym Cytx", "synonyms": ["Helper T Cells/Cytotoxic T Cells", "Helper T-Lymphocytes/Cytotoxic T-Lymphocytes", "TLym Help/TLym Cytx"]}, {"conceptId": "C181303", "definition": "A relative measurement (ratio or percentage) of the helper T-lymphocytes to total T-lymphocytes in a biological specimen.", "preferredTerm": "Helper T-Lymphocytes to Total T-Lymphocytes Ratio Measurement", "submissionValue": "TLym Help/TLym", "synonyms": ["Helper T Cells/T Cells", "Helper T-Lymphocytes/T-Lymphocytes", "TLym Help/TLym"]}, {"conceptId": "C181255", "definition": "A relative measurement (ratio or percentage) of the helper T-lymphocytes to total cells in a biological specimen.", "preferredTerm": "Helper T-Lymphocytes to Total Cells Ratio Measurement", "submissionValue": "TLym Help/Total Cells", "synonyms": ["T Cells, Helper/Total Cells", "T-Lym, Helper/Total Cells", "T-Lymphocytes, Helper/Total Cells", "TLym Help/Total Cells"]}, {"conceptId": "C186012", "definition": "A measurement of the naive T-lymphocytes in a biological specimen.", "preferredTerm": "Naive T-Lymphocyte Count", "submissionValue": "TLym Naive", "synonyms": ["T-Lymphocytes Naive", "TLym Naive"]}, {"conceptId": "C186013", "definition": "A measurement of the regulatory T-lymphocytes in a biological specimen.", "preferredTerm": "Regulatory T-Lymphocyte Count", "submissionValue": "TLym Reg", "synonyms": ["T-Lymphocytes Regulatory", "TLym Reg"]}, {"conceptId": "C187735", "definition": "A relative measurement (ratio or percentage) of the regulatory T-lymphocytes to total lymphocytes in a biological specimen.", "preferredTerm": "Regulatory T-Lymphocyte to Total Lymphocyte Ratio Measurement", "submissionValue": "TLym Reg/Lym", "synonyms": ["T-Lymphocytes Regulatory/Lymphocytes", "TLym Reg/Lym"]}, {"conceptId": "C184427", "definition": "A measurement of a subpopulation of T-lymphocytes in a biological specimen.", "preferredTerm": "T-Lymphocyte Subpopulation Count", "submissionValue": "TLym Sub", "synonyms": ["T-lymphocytes Subpopulation", "TLym Sub"]}, {"conceptId": "C184352", "definition": "A relative measurement (ratio or percentage) of the subpopulation of T-lymphocytes to total lymphocytes in a biological specimen.", "preferredTerm": "T-Lymphocyte Subpopulation to Total Lymphocyte Ratio Measurement", "submissionValue": "TLym Sub/Lym", "synonyms": ["T-Lymphocytes Subpopulation/Lymphocytes", "TLym Sub/Lym"]}, {"conceptId": "C181261", "definition": "A relative measurement (ratio or percentage) of the T-lymphocyte subpopulation to total T-lymphocytes in a biological specimen.", "preferredTerm": "T-Lymphocytes Subpopulation to Total T-Lymphocytes Ratio Measurement", "submissionValue": "TLym Sub/TLym", "synonyms": ["T-Lymphocytes Subpopulation/T-Lymphocytes", "TLym Sub/Tlym"]}, {"conceptId": "C186269", "definition": "A measurement of the terminal memory T-lymphocytes in a biological specimen.", "preferredTerm": "Terminal Memory T-Lymphocyte Count", "submissionValue": "TLym Term Mem", "synonyms": ["T-Lymphocytes Terminal Memory", "TEMRA", "TLym Term Mem"]}, {"conceptId": "C181184", "definition": "A relative measurement (ratio or percentage) of the T-lymphocytes to leukocytes in a biological specimen.", "preferredTerm": "T-Lymphocytes to Leukocytes Ratio Measurement", "submissionValue": "TLym/Leuk", "synonyms": ["T Cells/Leukocytes", "T-Lymphocytes/Leukocytes", "TLym/Leuk"]}, {"conceptId": "C181301", "definition": "A relative measurement (ratio or percentage) of the T-lymphocytes to total lymphocytes in a biological specimen.", "preferredTerm": "T-Lymphocytes to Lymphocytes Ratio Measurement", "submissionValue": "TLym/Lym", "synonyms": ["T Cells/Lymphocytes", "T-Lymphocytes/Lymphocytes", "TLym/Lym"]}]}