{"_links": {"parentPackage": {"href": "/mdr/ct/packages/sdtmct-2022-06-24", "title": "SDTM Controlled Terminology Package 50 Effective 2022-06-24", "type": "Terminology"}, "priorVersion": {"href": "/mdr/ct/packages/sdtmct-2022-03-25/codelists/C182529", "title": "CDISC Clinical Classification Acute Physiology and Chronic Health Evaluation II APCH106B Standardized Character Response Terminology", "type": "Code List"}, "rootItem": {"href": "/mdr/root/ct/sdtmct/codelists/C182529", "title": "Version-agnostic anchor resource for codelist C182529", "type": "Root Value Domain"}, "self": {"href": "/mdr/ct/packages/sdtmct-2022-06-24/codelists/C182529", "title": "CDISC Clinical Classification Acute Physiology and Chronic Health Evaluation II APCH106B Standardized Character Response Terminology", "type": "Code List"}}, "conceptId": "C182529", "definition": "Acute Physiology and Chronic Health Evaluation II standardized character result for APCH106B test and test code.", "extensible": "false", "name": "Acute Physiology and Chronic Health Evaluation II Clinical Classification STRESC for APCH106B TN/TC", "preferredTerm": "CDISC Clinical Classification Acute Physiology and Chronic Health Evaluation II APCH106B Standardized Character Response Terminology", "submissionValue": "APCH106BSTR", "synonyms": ["Acute Physiology and Chronic Health Evaluation II Clinical Classification STRESC for APCH106B TN/TC"], "terms": [{"conceptId": "C182967", "definition": "Acute Physiology and Chronic Health Evaluation II standardized character result for APCH106B-22-31.9.", "preferredTerm": "Acute Physiology and Chronic Health Evaluation II APCH106B Standardized Character Result 0", "submissionValue": "0", "synonyms": ["APCH106B-0"]}, {"conceptId": "C182966", "definition": "Acute Physiology and Chronic Health Evaluation II standardized character result for APCH106B-32-40.9.", "preferredTerm": "Acute Physiology and Chronic Health Evaluation II APCH106B Standardized Character Result 1", "submissionValue": "1", "synonyms": ["APCH106B-1"]}, {"conceptId": "C182965", "definition": "Acute Physiology and Chronic Health Evaluation II standardized character result for APCH106B-18-21.9.", "preferredTerm": "Acute Physiology and Chronic Health Evaluation II APCH106B Standardized Character Result 2", "submissionValue": "2", "synonyms": ["APCH106B-2"]}, {"conceptId": "C182964", "definition": "Acute Physiology and Chronic Health Evaluation II standardized character result for APCH106B-41-51.9; 15-17.9.", "preferredTerm": "Acute Physiology and Chronic Health Evaluation II APCH106B Standardized Character Result 3", "submissionValue": "3", "synonyms": ["APCH106B-3"]}, {"conceptId": "C182963", "definition": "Acute Physiology and Chronic Health Evaluation II standardized character result for APCH106B-Greater than or equal to 52; Less than 15.", "preferredTerm": "Acute Physiology and Chronic Health Evaluation II APCH106B Standardized Character Result 4", "submissionValue": "4", "synonyms": ["APCH106B-4"]}]}