{"_links": {"parentPackage": {"href": "/mdr/ct/packages/sdtmct-2022-06-24", "title": "SDTM Controlled Terminology Package 50 Effective 2022-06-24", "type": "Terminology"}, "priorVersion": {"href": "/mdr/ct/packages/sdtmct-2022-03-25/codelists/C182517", "title": "CDISC Clinical Classification Kurtzke Functional System Scores KFSS104 Standardized Character Response Terminology", "type": "Code List"}, "rootItem": {"href": "/mdr/root/ct/sdtmct/codelists/C182517", "title": "Version-agnostic anchor resource for codelist C182517", "type": "Root Value Domain"}, "self": {"href": "/mdr/ct/packages/sdtmct-2022-06-24/codelists/C182517", "title": "CDISC Clinical Classification Kurtzke Functional System Scores KFSS104 Standardized Character Response Terminology", "type": "Code List"}}, "conceptId": "C182517", "definition": "Kurtzke Functional System Scores standardized character result for KFSS104 test and test code.", "extensible": "false", "name": "Kurtzke Functional System Scores Clinical Classification STRESC for KFSS104 TN/TC", "preferredTerm": "CDISC Clinical Classification Kurtzke Functional System Scores KFSS104 Standardized Character Response Terminology", "submissionValue": "KFSS104STR", "synonyms": ["Kurtzke Functional System Scores Clinical Classification STRESC for KFSS104 TN/TC"], "terms": [{"conceptId": "C182822", "definition": "Kurtzke Functional System Scores standardized character result for KFSS104-Normal.", "preferredTerm": "Kurtzke Functional System Scores KFSS104 Standardized Character Result 0", "submissionValue": "0", "synonyms": ["KFSS104-0"]}, {"conceptId": "C182823", "definition": "Kurtzke Functional System Scores standardized character result for KFSS104-Vibration or figure-writing decrease only, in one or two limbs.", "preferredTerm": "Kurtzke Functional System Scores KFSS104 Standardized Character Result 1", "submissionValue": "1", "synonyms": ["KFSS104-1"]}, {"conceptId": "C182824", "definition": "Kurtzke Functional System Scores standardized character result for KFSS104-Mild decrease in touch or pain or position sense, and/or moderate decrease in vibration in one or two limbs; or vibratory (c/s figure writing) decrease alone in three or four limbs.", "preferredTerm": "Kurtzke Functional System Scores KFSS104 Standardized Character Result 2", "submissionValue": "2", "synonyms": ["KFSS104-2"]}, {"conceptId": "C182825", "definition": "Kurtzke Functional System Scores standardized character result for KFSS104-Moderate decrease in touch or pain or position sense, and/or lost vibration in 1 or 2 limbs; or mild decrease in touch or pain and/or moderate decrease in all proprioceptive tests in 3 or 4 limbs.", "preferredTerm": "Kurtzke Functional System Scores KFSS104 Standardized Character Result 3", "submissionValue": "3", "synonyms": ["KFSS104-3"]}, {"conceptId": "C182826", "definition": "Kurtzke Functional System Scores standardized character result for KFSS104-Marked decrease in touch or pain or loss of proprioception, alone or combined, in one or two limbs; or moderate decrease in touch or pain and/or severe proprioceptive decrease in more than two limbs.", "preferredTerm": "Kurtzke Functional System Scores KFSS104 Standardized Character Result 4", "submissionValue": "4", "synonyms": ["KFSS104-4"]}, {"conceptId": "C182827", "definition": "Kurtzke Functional System Scores standardized character result for KFSS104-Loss (essentially) of sensation in one or two limbs; or moderate decrease in touch or pain and/or loss of proprioception for most of the body below the head.", "preferredTerm": "Kurtzke Functional System Scores KFSS104 Standardized Character Result 5", "submissionValue": "5", "synonyms": ["KFSS104-5"]}, {"conceptId": "C182828", "definition": "Kurtzke Functional System Scores standardized character result for KFSS104-Sensation essentially lost below the head.", "preferredTerm": "Kurtzke Functional System Scores KFSS104 Standardized Character Result 6", "submissionValue": "6", "synonyms": ["KFSS104-6"]}, {"conceptId": "C182829", "definition": "Kurtzke Functional System Scores standardized character result for KFSS104-Unknown.", "preferredTerm": "Kurtzke Functional System Scores KFSS104 Standardized Character Result Unknown", "submissionValue": "Unknown", "synonyms": ["KFSS104-Unknown"]}]}