{"_links": {"parentPackage": {"href": "/mdr/ct/packages/sdtmct-2022-06-24", "title": "SDTM Controlled Terminology Package 50 Effective 2022-06-24", "type": "Terminology"}, "priorVersion": {"href": "/mdr/ct/packages/sdtmct-2022-03-25/codelists/C182462", "title": "CDISC Questionnaire International Prostate Symptom Score IPS0107 Original Response Terminology", "type": "Code List"}, "rootItem": {"href": "/mdr/root/ct/sdtmct/codelists/C182462", "title": "Version-agnostic anchor resource for codelist C182462", "type": "Root Value Domain"}, "self": {"href": "/mdr/ct/packages/sdtmct-2022-06-24/codelists/C182462", "title": "CDISC Questionnaire International Prostate Symptom Score IPS0107 Original Response Terminology", "type": "Code List"}}, "conceptId": "C182462", "definition": "International Prostate Symptom Score original result for IPS0107 test and test code.", "extensible": "false", "name": "International Prostate Symptom Score Questionnaire ORRES for IPS0107 TN/TC", "preferredTerm": "CDISC Questionnaire International Prostate Symptom Score IPS0107 Original Response Terminology", "submissionValue": "IPS0107OR", "synonyms": ["International Prostate Symptom Score Questionnaire ORRES for IPS0107 TN/TC"], "terms": [{"conceptId": "C182647", "definition": "International Prostate Symptom Score original result for IPS0107-1 time.", "preferredTerm": "International Prostate Symptom Score IPS0107 Original Result - 1 Time", "submissionValue": "1 Time", "synonyms": ["IPS0107-1 Time"]}, {"conceptId": "C182648", "definition": "International Prostate Symptom Score original result for IPS0107-2 times.", "preferredTerm": "International Prostate Symptom Score IPS0107 Original Result - 2 Times", "submissionValue": "2 Times", "synonyms": ["IPS0107-2 Times"]}, {"conceptId": "C182649", "definition": "International Prostate Symptom Score original result for IPS0107-3 times.", "preferredTerm": "International Prostate Symptom Score IPS0107 Original Result - 3 Times", "submissionValue": "3 Times", "synonyms": ["IPS0107-3 Times"]}, {"conceptId": "C182650", "definition": "International Prostate Symptom Score original result for IPS0107-4 times.", "preferredTerm": "International Prostate Symptom Score IPS0107 Original Result - 4 Times", "submissionValue": "4 Times", "synonyms": ["IPS0107-4 Times"]}, {"conceptId": "C182651", "definition": "International Prostate Symptom Score original result for IPS0107-5 or more times.", "preferredTerm": "International Prostate Symptom Score IPS0107 Original Result - 5 or More Times", "submissionValue": "5 or More Times", "synonyms": ["IPS0107-5 or More Times"]}, {"conceptId": "C182646", "definition": "International Prostate Symptom Score original result for IPS0107-None.", "preferredTerm": "International Prostate Symptom Score IPS0107 Original Result - None", "submissionValue": "None", "synonyms": ["IPS0107-None"]}]}