{"_links": {"parentPackage": {"href": "/mdr/ct/packages/sdtmct-2022-06-24", "title": "SDTM Controlled Terminology Package 50 Effective 2022-06-24", "type": "Terminology"}, "priorVersion": {"href": "/mdr/ct/packages/sdtmct-2022-03-25/codelists/C182488", "title": "CDISC Clinical Classification Acute Physiology and Chronic Health Evaluation II APCH105A Original Response Terminology", "type": "Code List"}, "rootItem": {"href": "/mdr/root/ct/sdtmct/codelists/C182488", "title": "Version-agnostic anchor resource for codelist C182488", "type": "Root Value Domain"}, "self": {"href": "/mdr/ct/packages/sdtmct-2022-06-24/codelists/C182488", "title": "CDISC Clinical Classification Acute Physiology and Chronic Health Evaluation II APCH105A Original Response Terminology", "type": "Code List"}}, "conceptId": "C182488", "definition": "Acute Physiology and Chronic Health Evaluation II original result for APCH105A test and test code.", "extensible": "false", "name": "Acute Physiology and Chronic Health Evaluation II Clinical Classification ORRES for APCH105A TN/TC", "preferredTerm": "CDISC Clinical Classification Acute Physiology and Chronic Health Evaluation II APCH105A Original Response Terminology", "submissionValue": "APCH105AOR", "synonyms": ["Acute Physiology and Chronic Health Evaluation II Clinical Classification ORRES for APCH105A TN/TC"], "terms": [{"conceptId": "C182930", "definition": "Acute Physiology and Chronic Health Evaluation II original result for APCH105A-200-349.", "preferredTerm": "Acute Physiology and Chronic Health Evaluation II APCH105A Original Result - 200-349", "submissionValue": "200-349", "synonyms": ["APCH105A-200-349"]}, {"conceptId": "C182929", "definition": "Acute Physiology and Chronic Health Evaluation II original result for APCH105A-350-499.", "preferredTerm": "Acute Physiology and Chronic Health Evaluation II APCH105A Original Result - 350-499", "submissionValue": "350-499", "synonyms": ["APCH105A-350-499"]}, {"conceptId": "C182931", "definition": "Acute Physiology and Chronic Health Evaluation II original result for APCH105A-Less than 200.", "preferredTerm": "Acute Physiology and Chronic Health Evaluation II APCH105A Original Result - <200", "submissionValue": "<200", "synonyms": ["APCH105A-<200"]}, {"conceptId": "C182928", "definition": "Acute Physiology and Chronic Health Evaluation II original result for APCH105A-Greater than or equal to 500.", "preferredTerm": "Acute Physiology and Chronic Health Evaluation II APCH105A Original Result - >=500", "submissionValue": ">=500", "synonyms": ["APCH105A->=500"]}]}