{"_links": {"parentPackage": {"href": "/mdr/ct/packages/sdtmct-2022-06-24", "title": "SDTM Controlled Terminology Package 50 Effective 2022-06-24", "type": "Terminology"}, "priorVersion": {"href": "/mdr/ct/packages/sdtmct-2022-03-25/codelists/C182471", "title": "CDISC Clinical Classification ATLAS Score ATLAS102 Original Response Terminology", "type": "Code List"}, "rootItem": {"href": "/mdr/root/ct/sdtmct/codelists/C182471", "title": "Version-agnostic anchor resource for codelist C182471", "type": "Root Value Domain"}, "self": {"href": "/mdr/ct/packages/sdtmct-2022-06-24/codelists/C182471", "title": "CDISC Clinical Classification ATLAS Score ATLAS102 Original Response Terminology", "type": "Code List"}}, "conceptId": "C182471", "definition": "ATLAS original result for ATLAS102 test and test code.", "extensible": "false", "name": "ATLAS Clinical Classification ORRES for ATLAS102 TN/TC", "preferredTerm": "CDISC Clinical Classification ATLAS Score ATLAS102 Original Response Terminology", "submissionValue": "ATLAS102OR", "synonyms": ["ATLAS Clinical Classification ORRES for ATLAS102 TN/TC"], "terms": [{"conceptId": "C182744", "definition": "ATLAS original result for ATLAS102-No.", "preferredTerm": "ATLAS Score ATLAS102 Original Result - No", "submissionValue": "No", "synonyms": ["ATLAS102-No"]}, {"conceptId": "C182745", "definition": "ATLAS original result for ATLAS102-Yes.", "preferredTerm": "ATLAS Score ATLAS102 Original Result - Yes", "submissionValue": "Yes", "synonyms": ["ATLAS102-Yes"]}]}