{"_links": {"parentPackage": {"href": "/mdr/ct/packages/sdtmct-2022-06-24", "title": "SDTM Controlled Terminology Package 50 Effective 2022-06-24", "type": "Terminology"}, "priorVersion": {"href": "/mdr/ct/packages/sdtmct-2022-03-25/codelists/C182463", "title": "CDISC Questionnaire International Prostate Symptom Score IPS0109 Original Response Terminology", "type": "Code List"}, "rootItem": {"href": "/mdr/root/ct/sdtmct/codelists/C182463", "title": "Version-agnostic anchor resource for codelist C182463", "type": "Root Value Domain"}, "self": {"href": "/mdr/ct/packages/sdtmct-2022-06-24/codelists/C182463", "title": "CDISC Questionnaire International Prostate Symptom Score IPS0109 Original Response Terminology", "type": "Code List"}}, "conceptId": "C182463", "definition": "International Prostate Symptom Score original result for IPS0109 test and test code.", "extensible": "false", "name": "International Prostate Symptom Score Questionnaire ORRES for IPS0109 TN/TC", "preferredTerm": "CDISC Questionnaire International Prostate Symptom Score IPS0109 Original Response Terminology", "submissionValue": "IPS0109OR", "synonyms": ["International Prostate Symptom Score Questionnaire ORRES for IPS0109 TN/TC"], "terms": [{"conceptId": "C182658", "definition": "International Prostate Symptom Score original result for IPS0109-Delighted.", "preferredTerm": "International Prostate Symptom Score IPS0109 Original Result - Delighted", "submissionValue": "Delighted", "synonyms": ["IPS0109-Delighted"]}, {"conceptId": "C182661", "definition": "International Prostate Symptom Score original result for IPS0109-Mixed (about equally satisfied and dissatisfied).", "preferredTerm": "International Prostate Symptom Score IPS0109 Original Result - Mixed (about equally satisfied and dissatisfied)", "submissionValue": "Mixed (about equally satisfied and dissatisfied)", "synonyms": ["IPS0109-Mixed (about equally satisfied and dissatisfied)"]}, {"conceptId": "C182662", "definition": "International Prostate Symptom Score original result for IPS0109-Mostly dissatisfied.", "preferredTerm": "International Prostate Symptom Score IPS0109 Original Result - Mostly dissatisfied", "submissionValue": "Mostly dissatisfied", "synonyms": ["IPS0109-Mostly dissatisfied"]}, {"conceptId": "C182660", "definition": "International Prostate Symptom Score original result for IPS0109-Mostly satisfied.", "preferredTerm": "International Prostate Symptom Score IPS0109 Original Result - Mostly satisfied", "submissionValue": "Mostly satisfied", "synonyms": ["IPS0109-Mostly satisfied"]}, {"conceptId": "C182659", "definition": "International Prostate Symptom Score original result for IPS0109-Pleased.", "preferredTerm": "International Prostate Symptom Score IPS0109 Original Result - Pleased", "submissionValue": "Pleased", "synonyms": ["IPS0109-Pleased"]}, {"conceptId": "C182664", "definition": "International Prostate Symptom Score original result for IPS0109-Terrible.", "preferredTerm": "International Prostate Symptom Score IPS0109 Original Result - Terrible", "submissionValue": "Terrible", "synonyms": ["IPS0109-Terrible"]}, {"conceptId": "C182663", "definition": "International Prostate Symptom Score original result for IPS0109-Unhappy.", "preferredTerm": "International Prostate Symptom Score IPS0109 Original Result - Unhappy", "submissionValue": "Unhappy", "synonyms": ["IPS0109-Unhappy"]}]}