{"_links": {"parentPackage": {"href": "/mdr/ct/packages/sdtmct-2022-06-24", "title": "SDTM Controlled Terminology Package 50 Effective 2022-06-24", "type": "Terminology"}, "priorVersion": {"href": "/mdr/ct/packages/sdtmct-2022-03-25/codelists/C182505", "title": "CDISC Clinical Classification Abnormal Involuntary Movement Scale AIMS0111 Through AIMS0112 Standardized Character Response Terminology", "type": "Code List"}, "rootItem": {"href": "/mdr/root/ct/sdtmct/codelists/C182505", "title": "Version-agnostic anchor resource for codelist C182505", "type": "Root Value Domain"}, "self": {"href": "/mdr/ct/packages/sdtmct-2022-06-24/codelists/C182505", "title": "CDISC Clinical Classification Abnormal Involuntary Movement Scale AIMS0111 Through AIMS0112 Standardized Character Response Terminology", "type": "Code List"}}, "conceptId": "C182505", "definition": "Abnormal Involuntary Movement Scale standardized character result for AIMS0111 through AIMS0112 test and test code.", "extensible": "false", "name": "Abnormal Involuntary Movement Scale Clinical Classification STRESC for AIMS0111 Through AIMS0112 TN/TC", "preferredTerm": "CDISC Clinical Classification Abnormal Involuntary Movement Scale AIMS0111 Through AIMS0112 Standardized Character Response Terminology", "submissionValue": "AIMS0111T12STR", "synonyms": ["Abnormal Involuntary Movement Scale Clinical Classification STRESC for AIMS0111 Through AIMS0112 TN/TC"], "terms": [{"conceptId": "C182704", "definition": "Abnormal Involuntary Movement Scale standardized character result for AIMS0111 through AIMS0112-No.", "preferredTerm": "Abnormal Involuntary Movement Scale AIMS0111 through AIMS0112 Standardized Character Result 0", "submissionValue": "0", "synonyms": ["AIMS0111 through AIMS0112-0"]}, {"conceptId": "C182705", "definition": "Abnormal Involuntary Movement Scale standardized character result for AIMS0111 through AIMS0112-Yes.", "preferredTerm": "Abnormal Involuntary Movement Scale AIMS0111 through AIMS0112 Standardized Character Result 1", "submissionValue": "1", "synonyms": ["AIMS0111 through AIMS0112-1"]}]}