{"_links": {"parentPackage": {"href": "/mdr/ct/packages/sdtmct-2022-06-24", "title": "SDTM Controlled Terminology Package 50 Effective 2022-06-24", "type": "Terminology"}, "priorVersion": {"href": "/mdr/ct/packages/sdtmct-2022-03-25/codelists/C182465", "title": "CDISC Clinical Classification Abnormal Involuntary Movement Scale AIMS0108 Through AIMS0109 Original Response Terminology", "type": "Code List"}, "rootItem": {"href": "/mdr/root/ct/sdtmct/codelists/C182465", "title": "Version-agnostic anchor resource for codelist C182465", "type": "Root Value Domain"}, "self": {"href": "/mdr/ct/packages/sdtmct-2022-06-24/codelists/C182465", "title": "CDISC Clinical Classification Abnormal Involuntary Movement Scale AIMS0108 Through AIMS0109 Original Response Terminology", "type": "Code List"}}, "conceptId": "C182465", "definition": "Abnormal Involuntary Movement Scale original result for AIMS0108 through AIMS0109 test and test code.", "extensible": "false", "name": "Abnormal Involuntary Movement Scale Clinical Classification ORRES for AIMS0108 Through AIMS0109 TN/TC", "preferredTerm": "CDISC Clinical Classification Abnormal Involuntary Movement Scale AIMS0108 Through AIMS0109 Original Response Terminology", "submissionValue": "AIMS0108T09OR", "synonyms": ["Abnormal Involuntary Movement Scale Clinical Classification ORRES for AIMS0108 Through AIMS0109 TN/TC"], "terms": [{"conceptId": "C182684", "definition": "Abnormal Involuntary Movement Scale original result for AIMS0108 through AIMS0109-Mild.", "preferredTerm": "Abnormal Involuntary Movement Scale AIMS0108 Through AIMS0109 Original Result - Mild", "submissionValue": "Mild", "synonyms": ["AIMS0108 through AIMS0109-Mild"]}, {"conceptId": "C182683", "definition": "Abnormal Involuntary Movement Scale original result for AIMS0108 through AIMS0109-Minimal.", "preferredTerm": "Abnormal Involuntary Movement Scale AIMS0108 Through AIMS0109 Original Result - Minimal", "submissionValue": "Minimal", "synonyms": ["AIMS0108 through AIMS0109-Minimal"]}, {"conceptId": "C182685", "definition": "Abnormal Involuntary Movement Scale original result for AIMS0108 through AIMS0109-Moderate.", "preferredTerm": "Abnormal Involuntary Movement Scale AIMS0108 Through AIMS0109 Original Result - Moderate", "submissionValue": "Moderate", "synonyms": ["AIMS0108 through AIMS0109-Moderate"]}, {"conceptId": "C182682", "definition": "Abnormal Involuntary Movement Scale original result for AIMS0108 through AIMS0109-None, normal.", "preferredTerm": "Abnormal Involuntary Movement Scale AIMS0108 Through AIMS0109 Original Result - None, normal", "submissionValue": "None, normal", "synonyms": ["AIMS0108 through AIMS0109-None, normal"]}, {"conceptId": "C182686", "definition": "Abnormal Involuntary Movement Scale original result for AIMS0108 through AIMS0109-Severe.", "preferredTerm": "Abnormal Involuntary Movement Scale AIMS0108 Through AIMS0109 Original Result - Severe", "submissionValue": "Severe", "synonyms": ["AIMS0108 through AIMS0109-Severe"]}]}