{"_links": {"parentPackage": {"href": "/mdr/ct/packages/sdtmct-2022-06-24", "title": "SDTM Controlled Terminology Package 50 Effective 2022-06-24", "type": "Terminology"}, "rootItem": {"href": "/mdr/root/ct/sdtmct/codelists/C187462", "title": "Version-agnostic anchor resource for codelist C187462", "type": "Root Value Domain"}, "self": {"href": "/mdr/ct/packages/sdtmct-2022-06-24/codelists/C187462", "title": "CDISC Questionnaire Stanford Sleepiness Scale SSS0101 Original Response Terminology", "type": "Code List"}}, "conceptId": "C187462", "definition": "Stanford Sleepiness Scale original result for SSS0101 test and test code.", "extensible": "false", "name": "Stanford Sleepiness Scale Questionnaire ORRES for SSS0101 TN/TC", "preferredTerm": "CDISC Questionnaire Stanford Sleepiness Scale SSS0101 Original Response Terminology", "submissionValue": "SSS0101OR", "synonyms": ["Stanford Sleepiness Scale Questionnaire ORRES for SSS0101 TN/TC"], "terms": [{"conceptId": "C187498", "definition": "Stanford Sleepiness Scale original result for SSS0101-A little foggy; not at peak; let down.", "preferredTerm": "Stanford Sleepiness Scale SSS0101 Original Result - A Little Foggy; Not at Peak; Let Down", "submissionValue": "A little foggy; not at peak; let down.", "synonyms": ["SSS0101-A little foggy", "not at peak", "let down"]}, {"conceptId": "C187501", "definition": "Stanford Sleepiness Scale original result for SSS0101-Almost in reverie; sleep onset soon; lost struggle to remain awake.", "preferredTerm": "Stanford Sleepiness Scale SSS0101 Original Result - Almost in Reverie; Sleep Onset Soon; Lost Struggle to Remain Awake", "submissionValue": "Almost in reverie; sleep onset soon; lost struggle to remain awake.", "synonyms": ["SSS0101-Almost in reverie", "sleep onset soon", "lost struggle to remain awake"]}, {"conceptId": "C187495", "definition": "Stanford Sleepiness Scale original result for SSS0101-Feeling active and vital; alert; wide awake.", "preferredTerm": "Stanford Sleepiness Scale SSS0101 Original Result - Feeling Active and Vital; Alert; Wide Awake", "submissionValue": "Feeling active and vital; alert; wide awake.", "synonyms": ["SSS0101-Feeling active and vital", "alert", "wide awake"]}, {"conceptId": "C187499", "definition": "Stanford Sleepiness Scale original result for SSS0101-Fogginess; beginning to lose interest in remaining awake; slowed down.", "preferredTerm": "Stanford Sleepiness Scale SSS0101 Original Result - Fogginess; Beginning to Lose Interest in Remaining Awake; Slowed Down", "submissionValue": "Fogginess; beginning to lose interest in remaining awake; slowed down.", "synonyms": ["SSS0101-Fogginess", "beginning to lose interest in remaining awake", "slowed down"]}, {"conceptId": "C187496", "definition": "Stanford Sleepiness Scale original result for SSS0101-Functioning at a high level, but not at peak; able to concentrate.", "preferredTerm": "Stanford Sleepiness Scale SSS0101 Original Result - Functioning at a High Level, But Not at Peak; Able to Concentrate", "submissionValue": "Functioning at a high level, but not at peak; able to concentrate.", "synonyms": ["SSS0101-Functioning at a high level, but not at peak", "able to concentrate"]}, {"conceptId": "C187497", "definition": "Stanford Sleepiness Scale original result for SSS0101-Relaxed; awake; not at full alertness; responsive.", "preferredTerm": "Stanford Sleepiness Scale SSS0101 Original Result - Relaxed; Awake; Not at Full Alertness; Responsive", "submissionValue": "Relaxed; awake; not at full alertness; responsive.", "synonyms": ["SSS0101-Relaxed", "awake", "not at full alertness", "responsive"]}, {"conceptId": "C187500", "definition": "Stanford Sleepiness Scale original result for SSS0101-Sleepiness; prefer to be lying down; fighting sleep; woozy.", "preferredTerm": "Stanford Sleepiness Scale SSS0101 Original Result - Sleepiness; Prefer to Be Lying Down; Fighting Sleep; Woozy", "submissionValue": "Sleepiness; prefer to be lying down; fighting sleep; woozy.", "synonyms": ["SSS0101-Sleepiness", "prefer to be lying down", "fighting sleep", "woozy"]}]}