{"_links": {"parentPackage": {"href": "/mdr/ct/packages/sdtmct-2022-06-24", "title": "SDTM Controlled Terminology Package 50 Effective 2022-06-24", "type": "Terminology"}, "priorVersion": {"href": "/mdr/ct/packages/sdtmct-2022-03-25/codelists/C66789", "title": "CDISC SDTM Not Done Terminology", "type": "Code List"}, "rootItem": {"href": "/mdr/root/ct/sdtmct/codelists/C66789", "title": "Version-agnostic anchor resource for codelist C66789", "type": "Root Value Domain"}, "self": {"href": "/mdr/ct/packages/sdtmct-2022-06-24/codelists/C66789", "title": "CDISC SDTM Not Done Terminology", "type": "Code List"}}, "conceptId": "C66789", "definition": "Indicates a task, process or examination that has either not been initiated or completed. (NCI)", "extensible": "false", "name": "Not Done", "preferredTerm": "CDISC SDTM Not Done Terminology", "submissionValue": "ND", "synonyms": ["Not Done"], "terms": [{"conceptId": "C49484", "definition": "Indicates a task, process or examination that has either not been initiated or completed. (NCI)", "preferredTerm": "Not Done", "submissionValue": "NOT DONE"}]}