{"_links": {"parentPackage": {"href": "/mdr/ct/packages/sdtmct-2022-06-24", "title": "SDTM Controlled Terminology Package 50 Effective 2022-06-24", "type": "Terminology"}, "priorVersion": {"href": "/mdr/ct/packages/sdtmct-2022-03-25/codelists/C66790", "title": "CDISC SDTM Ethnic Group Terminology", "type": "Code List"}, "rootItem": {"href": "/mdr/root/ct/sdtmct/codelists/C66790", "title": "Version-agnostic anchor resource for codelist C66790", "type": "Root Value Domain"}, "self": {"href": "/mdr/ct/packages/sdtmct-2022-06-24/codelists/C66790", "title": "CDISC SDTM Ethnic Group Terminology", "type": "Code List"}}, "conceptId": "C66790", "definition": "A social group characterized by a distinctive social and cultural tradition maintained from generation to generation, a common history and origin and a sense of identification with the group; members of the group have distinctive features in their way of life, shared experiences and often a common genetic heritage; these features may be reflected in their experience of health and disease. (NCI)", "extensible": "false", "name": "Ethnic Group", "preferredTerm": "CDISC SDTM Ethnic Group Terminology", "submissionValue": "ETHNIC", "synonyms": ["Ethnic Group"], "terms": [{"conceptId": "C17459", "definition": "A person of Mexican, Puerto Rican, Cuban, Central or South American or other Spanish culture or origin, regardless of race. (NCI)", "preferredTerm": "Hispanic or Latino", "submissionValue": "HISPANIC OR LATINO"}, {"conceptId": "C41222", "definition": "A person not of Cuban, Mexican, Puerto Rican, South or Central American, or other Spanish culture or origin, regardless of race. An arbitrary ethnic classification. (NCI)", "preferredTerm": "Not Hispanic or Latino", "submissionValue": "NOT HISPANIC OR LATINO"}, {"conceptId": "C43234", "definition": "Not provided or available.", "preferredTerm": "Not Reported", "submissionValue": "NOT REPORTED", "synonyms": ["Not reported"]}, {"conceptId": "C17998", "definition": "Not known, not observed, not recorded, or refused. (NCI)", "preferredTerm": "Unknown", "submissionValue": "UNKNOWN", "synonyms": ["U", "UNK", "Unknown"]}]}