{"_links": {"parentPackage": {"href": "/mdr/ct/packages/sdtmct-2022-06-24", "title": "SDTM Controlled Terminology Package 50 Effective 2022-06-24", "type": "Terminology"}, "priorVersion": {"href": "/mdr/ct/packages/sdtmct-2022-03-25/codelists/C96783", "title": "CDISC SDTM Tumor Identification Test Name Terminology", "type": "Code List"}, "rootItem": {"href": "/mdr/root/ct/sdtmct/codelists/C96783", "title": "Version-agnostic anchor resource for codelist C96783", "type": "Root Value Domain"}, "self": {"href": "/mdr/ct/packages/sdtmct-2022-06-24/codelists/C96783", "title": "CDISC SDTM Tumor Identification Test Name Terminology", "type": "Code List"}}, "conceptId": "C96783", "definition": "Terminology relevant to the test names that describe tumor or lesion assessments for identification purposes.", "extensible": "true", "name": "Tumor or Lesion Identification Test Name", "preferredTerm": "CDISC SDTM Tumor Identification Test Name Terminology", "submissionValue": "TUTEST", "synonyms": ["Tumor or Lesion Identification Test Name"], "terms": [{"conceptId": "C186217", "definition": "An indication as to whether bone tumors are present.", "preferredTerm": "Bone Tumors Indicator", "submissionValue": "Bone Tumors Indicator", "synonyms": ["Bone Tumors Indicator"]}, {"conceptId": "C161485", "definition": "An indication as to whether a cardiovascular lesion is present.", "preferredTerm": "Cardiovascular Lesion Indicator", "submissionValue": "Cardiovascular Lesion Indicator", "synonyms": ["Cardiovascular Lesion Indicator"]}, {"conceptId": "C123633", "definition": "A description of the region or relative location for the disease recurrence.", "preferredTerm": "Disease Recurrence Relative Location", "submissionValue": "Disease Recurrence Relative Location", "synonyms": ["Disease Recurrence Relative Location"]}, {"conceptId": "C186218", "definition": "An indication as to whether extramedullary disease is present.", "preferredTerm": "Extramedullary Disease Indicator", "submissionValue": "Extramedullary Disease Indicator", "synonyms": ["Extramedullary Disease Indicator"]}, {"conceptId": "C161484", "definition": "An indication as to whether a fibrotic lesion is present.", "preferredTerm": "Fibrotic Lesion Indicator", "submissionValue": "Fibrotic Lesion Indicator", "synonyms": ["Fibrotic Lesion Indicator"]}, {"conceptId": "C119567", "definition": "An indication that a graft with a lesion has been located and characterized.", "preferredTerm": "Graft Lesion Identification", "submissionValue": "Graft Lesion Identification", "synonyms": ["Graft Lesion Identification"]}, {"conceptId": "C94189", "definition": "An indication that a lesion has been located and characterized.", "preferredTerm": "Lesion Identification", "submissionValue": "Lesion Identification", "synonyms": ["Lesion Identification"]}, {"conceptId": "C119568", "definition": "An indication that a limb containing a lesion has been selected and characterized.", "preferredTerm": "Limb Associated Lesion Identification", "submissionValue": "Limb Lesion Identification", "synonyms": ["Limb Lesion Identification"]}, {"conceptId": "C161482", "definition": "An indication as to whether a measurable tumor is present.", "preferredTerm": "Measurable Tumor Indicator", "submissionValue": "Measurable Tumor Indicator", "synonyms": ["Measurable Tumor Indicator"]}, {"conceptId": "C154853", "definition": "An indication as to whether an anatomical location contains metastases.", "preferredTerm": "Metastatic Tumor Site Indicator", "submissionValue": "Metastatic Tumor Site Indicator", "synonyms": ["Metastatic Tumor Site Indicator"]}, {"conceptId": "C161483", "definition": "An indication as to whether a non-target tumor, lesion, or site of disease is present.", "preferredTerm": "Non-Target Indicator", "submissionValue": "Non-Target Indicator", "synonyms": ["Non-Target Indicator"]}, {"conceptId": "C172602", "definition": "An indication as to whether an anatomical location is the primary tumor site of disease.", "preferredTerm": "Primary Tumor Site Indicator", "submissionValue": "Primary Tumor Site Indicator", "synonyms": ["Primary Tumor Site Indicator"]}, {"conceptId": "C178053", "definition": "An indication as to whether a target tumor, lesion, or site of disease is present.", "preferredTerm": "Target Indicator", "submissionValue": "Target Indicator", "synonyms": ["Target Indicator"]}, {"conceptId": "C94523", "definition": "A classification of malignant disease manifestation as part of the response assessment.", "preferredTerm": "Tumor Identification", "submissionValue": "Tumor Identification", "synonyms": ["Tumor Identification"]}, {"conceptId": "C94525", "definition": "An indication that multiple tumors have coalesced into one tumor.", "preferredTerm": "Matted Tumor Mass Present", "submissionValue": "Tumor Merged", "synonyms": ["Tumor Merged"]}, {"conceptId": "C96642", "definition": "An indication that a single tumor has divided into two or more tumors.", "preferredTerm": "Tumor Fragmentation", "submissionValue": "Tumor Split", "synonyms": ["Tumor Split"]}, {"conceptId": "C119569", "definition": "An indication that a vessel with a lesion has been located and characterized.", "preferredTerm": "Vessel Lesion Identification", "submissionValue": "Vessel Lesion Identification", "synonyms": ["Vessel Lesion Identification"]}]}