{
  "_links": {
    "priorVersion": {
      "href": "",
      "title": "",
      "type": "Terminology"
    },
    "self": {
      "href": "",
      "title": "",
      "type": "Terminology"
    }
  },
  "codelists": [
    {
      "conceptId": "C66781",
      "definition": "Those units of time that are routinely used to express the age of a subject.",
      "extensible": "No",
      "name": "Age Unit",
      "preferredTerm": "CDISC SDTM Age Unit Terminology",
      "submissionValue": "AGEU",
      "synonyms": [
        "Age Unit"
      ],
      "terms": [
        {
          "conceptId": "C25301",
          "definition": "The time for Earth to make a complete rotation on its axis; ordinarily divided into twenty-four hours. This also refers to a specific day. (NCI)",
          "preferredTerm": "Day",
          "submissionValue": "DAYS",
          "synonyms": []
        },
        {
          "conceptId": "C25529",
          "definition": "A unit measure of time equal to 3,600 seconds or 60 minutes. It is approximately 1/24 of a median day. (NCI)",
          "preferredTerm": "Hour",
          "submissionValue": "HOURS",
          "synonyms": [
            "Hour",
            " hr"
          ]
        },
        {
          "conceptId": "C29846",
          "definition": "One of the 12 divisions of a year as determined by a calendar. It corresponds to the unit of time of approximately to one cycle of the moon's phases, about 30 days or 4 weeks. (NCI)",
          "preferredTerm": "Month",
          "submissionValue": "MONTHS",
          "synonyms": []
        },
        {
          "conceptId": "C29844",
          "definition": "Any period of seven consecutive days. (NCI)",
          "preferredTerm": "Week",
          "submissionValue": "WEEKS",
          "synonyms": []
        },
        {
          "conceptId": "C29848",
          "definition": "The period of time that it takes for Earth to make a complete revolution around the sun, approximately 365 days; a specific one year period. (NCI)",
          "preferredTerm": "Year",
          "submissionValue": "YEARS",
          "synonyms": []
        }
      ]
    },
    {
      "conceptId": "C88026",
      "definition": "The terminology that includes concepts relevant to anatomical structure that consists of organs and organ subclasses responsible for certain body functions.",
      "extensible": "Yes",
      "name": "Body System",
      "preferredTerm": "CDISC SEND Body System Terminology",
      "submissionValue": "BODSYS",
      "synonyms": [
        "Body System"
      ],
      "terms": [
        {
          "conceptId": "C35552",
          "definition": "Symptoms, physical examination results, and/or laboratory test results related to the cardiovascular system. (NCI)",
          "preferredTerm": "Cardiovascular System Finding",
          "submissionValue": "CARDIOVASCULAR SYSTEM",
          "synonyms": []
        },
        {
          "conceptId": "C36285",
          "definition": "Symptoms, physical examination results, and/or laboratory test results related to the endocrine system. (NCI)",
          "preferredTerm": "Endocrine System Finding",
          "submissionValue": "ENDOCRINE SYSTEM",
          "synonyms": []
        },
        {
          "conceptId": "C36279",
          "definition": "Symptoms, physical examination results, and/or laboratory test results related to the gastrointestinal system. (NCI)",
          "preferredTerm": "Gastrointestinal System Finding",
          "submissionValue": "GASTROINTESTINAL SYSTEM",
          "synonyms": []
        },
        {
          "conceptId": "C36289",
          "definition": "Symptoms, physical examination results, and/or laboratory test results related to the hematopoietic system. (NCI)",
          "preferredTerm": "Hematopoietic System Finding",
          "submissionValue": "HEMATOPOIETIC SYSTEM",
          "synonyms": []
        },
        {
          "conceptId": "C39723",
          "definition": "Symptoms, physical examination results, and/or laboratory test results related to the immune system. (NCI)",
          "preferredTerm": "Immune System Finding",
          "submissionValue": "IMMUNE SYSTEM",
          "synonyms": []
        },
        {
          "conceptId": "C36281",
          "definition": "Symptoms, physical examination results, and/or laboratory test results related to the integumentary system. (NCI)",
          "preferredTerm": "Integumentary System Finding",
          "submissionValue": "INTEGUMENTARY SYSTEM",
          "synonyms": []
        },
        {
          "conceptId": "C36288",
          "definition": "Symptoms, physical examination results, and/or laboratory test results related to the musculoskeletal system, also including connective and soft tissue.",
          "preferredTerm": "Connective and Soft Tissue Finding",
          "submissionValue": "MUSCULOSKELETAL SYSTEM",
          "synonyms": []
        },
        {
          "conceptId": "C36280",
          "definition": "Symptoms, physical examination results, and/or laboratory test results related to the nervous system. (NCI)",
          "preferredTerm": "Nervous System Finding",
          "submissionValue": "NERVOUS SYSTEM",
          "synonyms": []
        },
        {
          "conceptId": "C36284",
          "definition": "Symptoms, physical examination results, and/or laboratory test results related to the reproductive system. (NCI)",
          "preferredTerm": "Reproductive System Finding",
          "submissionValue": "REPRODUCTIVE SYSTEM",
          "synonyms": []
        },
        {
          "conceptId": "C45233",
          "definition": "Symptoms, physical examination results, and/or laboratory test results related to the respiratory system. (NCI)",
          "preferredTerm": "Respiratory System Finding",
          "submissionValue": "RESPIRATORY SYSTEM",
          "synonyms": []
        },
        {
          "conceptId": "C36283",
          "definition": "Symptoms, physical examination results, and/or laboratory test results related to the organs of special sense. (NCI)",
          "preferredTerm": "Eye and Ear Finding",
          "submissionValue": "SPECIAL SENSES SYSTEM",
          "synonyms": []
        },
        {
          "conceptId": "C36286",
          "definition": "Symptoms, physical examination results, and/or laboratory test results related to the urinary system.",
          "preferredTerm": "Urinary Tract Finding",
          "submissionValue": "URINARY SYSTEM",
          "synonyms": []
        }
      ]
    },
    {
      "conceptId": "C89960",
      "definition": "Terminology for the test codes concerned with the increase in overall body mass.",
      "extensible": "Yes",
      "name": "Body Weight Gain Test Code",
      "preferredTerm": "CDISC SEND Body Weight Gain Test Code Terminology",
      "submissionValue": "BGTESTCD",
      "synonyms": [
        "Body Weight Gain Test Code"
      ],
      "terms": [
        {
          "conceptId": "C62754",
          "definition": "A change in overall body weight, relative to the beginning of the collection period.",
          "preferredTerm": "Weight Gain",
          "submissionValue": "BWGAIN",
          "synonyms": [
            "Body Weight Gain"
          ]
        },
        {
          "conceptId": "C90363",
          "definition": "The mean value of the amount of weight change over a period of time, relative to the beginning of the collection period.",
          "preferredTerm": "Average Body Weight Gain",
          "submissionValue": "BWGAINA",
          "synonyms": [
            "Average Body Weight Gain"
          ]
        },
        {
          "conceptId": "C90434",
          "definition": "The amount of weight change over a period of time in relation to the total weight, relative to the beginning of the collection period.",
          "preferredTerm": "Percentage Body Weight Gain",
          "submissionValue": "BWGAINP",
          "synonyms": [
            "Percentage Body Weight Gain"
          ]
        }
      ]
    },
    {
      "conceptId": "C89959",
      "definition": "Terminology for the test names concerned with the increase in overall body mass.",
      "extensible": "Yes",
      "name": "Body Weight Gain Test Name",
      "preferredTerm": "CDISC SEND Body Weight Gain Test Name Terminology",
      "submissionValue": "BGTEST",
      "synonyms": [
        "Body Weight Gain Test Name"
      ],
      "terms": [
        {
          "conceptId": "C90363",
          "definition": "The mean value of the amount of weight change over a period of time, relative to the beginning of the collection period.",
          "preferredTerm": "Average Body Weight Gain",
          "submissionValue": "Average Body Weight Gain",
          "synonyms": [
            "Average Body Weight Gain"
          ]
        },
        {
          "conceptId": "C62754",
          "definition": "A change in overall body weight, relative to the beginning of the collection period.",
          "preferredTerm": "Weight Gain",
          "submissionValue": "Body Weight Gain",
          "synonyms": [
            "Body Weight Gain"
          ]
        },
        {
          "conceptId": "C90434",
          "definition": "The amount of weight change over a period of time in relation to the total weight, relative to the beginning of the collection period.",
          "preferredTerm": "Percentage Body Weight Gain",
          "submissionValue": "Percentage Body Weight Gain",
          "synonyms": [
            "Percentage Body Weight Gain"
          ]
        }
      ]
    },
    {
      "conceptId": "C89962",
      "definition": "Terminology for the test codes concerned with the measurement of body mass.",
      "extensible": "Yes",
      "name": "Body Weight Test Code",
      "preferredTerm": "CDISC SEND Body Weight Test Code Terminology",
      "submissionValue": "BWTESTCD",
      "synonyms": [
        "Body Weight Test Code"
      ],
      "terms": [
        {
          "conceptId": "C81328",
          "definition": "The weight of a subject. (NCI)",
          "preferredTerm": "Body Weight",
          "submissionValue": "BW",
          "synonyms": [
            "Body Weight"
          ]
        },
        {
          "conceptId": "C90464",
          "definition": "The weight of a subject at a specified end point. (NCI)",
          "preferredTerm": "Terminal Body Weight",
          "submissionValue": "TERMBW",
          "synonyms": [
            "Terminal Body Weight"
          ]
        }
      ]
    },
    {
      "conceptId": "C89961",
      "definition": "Terminology for the test names concerned with the measurement of body mass.",
      "extensible": "Yes",
      "name": "Body Weight Test Name",
      "preferredTerm": "CDISC SEND Body Weight Test Name Terminology",
      "submissionValue": "BWTEST",
      "synonyms": [
        "Body Weight Test Name"
      ],
      "terms": [
        {
          "conceptId": "C81328",
          "definition": "The weight of a subject. (NCI)",
          "preferredTerm": "Body Weight",
          "submissionValue": "Body Weight",
          "synonyms": [
            "Body Weight"
          ]
        },
        {
          "conceptId": "C90464",
          "definition": "The weight of a subject at a specified end point. (NCI)",
          "preferredTerm": "Terminal Body Weight",
          "submissionValue": "Terminal Body Weight",
          "synonyms": [
            "Terminal Body Weight"
          ]
        }
      ]
    },
    {
      "conceptId": "C89963",
      "definition": "Terminology related to classifications that describe and group clinical observations.",
      "extensible": "Yes",
      "name": "Category for Clinical Observation",
      "preferredTerm": "CDISC SEND Category for Clinical Observation Terminology",
      "submissionValue": "CLCAT",
      "synonyms": [
        "Category for Clinical Observation"
      ],
      "terms": [
        {
          "conceptId": "C3367",
          "definition": "Objective evidence of disease perceptible to the examiner (sign) and subjective evidence of disease perceived by the subject (symptom).",
          "preferredTerm": "Finding",
          "submissionValue": "CLINICAL SIGNS",
          "synonyms": [
            "Clinical Signs"
          ]
        },
        {
          "conceptId": "C25478",
          "definition": "Of or relating to or located in the dermis. When used in the context of clinical observations, dermal may also include findings related to other components of the skin.",
          "preferredTerm": "Dermal",
          "submissionValue": "DERMAL",
          "synonyms": [
            "Dermal"
          ]
        },
        {
          "conceptId": "C16939",
          "definition": "A medical specialty concerned with the structure and function of the eye and the medical and surgical treatment of its defects and diseases. (NCI)",
          "preferredTerm": "Ophthalmology",
          "submissionValue": "OPHTHALMOLOGY",
          "synonyms": [
            "Ophthalmology"
          ]
        },
        {
          "conceptId": "C20989",
          "definition": "A systemic evaluation of the body and its functions using visual inspection, palpation, percussion and auscultation. The purpose is to determine the presence or absence of physical signs of disease or abnormality for an individual's health assessment.",
          "preferredTerm": "Physical Examination",
          "submissionValue": "PHYSICAL EXAM",
          "synonyms": [
            "Physical Exam"
          ]
        }
      ]
    },
    {
      "conceptId": "C90018",
      "definition": "Terminology related to the sense of awareness of self and of the environment.",
      "extensible": "Yes",
      "name": "Consciousness State",
      "preferredTerm": "CDISC SEND Consciousness State Terminology",
      "submissionValue": "CSTATE",
      "synonyms": [
        "Consciousness State"
      ],
      "terms": [
        {
          "conceptId": "C88434",
          "definition": "A level of awareness that can be described as being alert. (NCI)",
          "preferredTerm": "Conscious State",
          "submissionValue": "CONSCIOUS",
          "synonyms": [
            "Conscious State"
          ]
        },
        {
          "conceptId": "C78253",
          "definition": "A neurologic state characterized by decreased ability to perceive and respond. (NCI)",
          "preferredTerm": "Depressed Level Of Consciousness",
          "submissionValue": "DEPRESSED",
          "synonyms": [
            "Depressed Level of Consciousness"
          ]
        },
        {
          "conceptId": "C88440",
          "definition": "A level of awareness that can be described as varied and intermittent periods of consciousness and unconsciousness.",
          "preferredTerm": "Semi-conscious",
          "submissionValue": "SEMI-CONSCIOUS",
          "synonyms": [
            "Semi-conscious State"
          ]
        },
        {
          "conceptId": "C50635",
          "definition": "The neurologic status characterized by the occurrence of a loss of the ability to perceive and respond.",
          "preferredTerm": "Loss of Consciousness",
          "submissionValue": "UNCONSCIOUS",
          "synonyms": [
            "Unconscious State",
            " Loss of Consciousness"
          ]
        },
        {
          "conceptId": "C90482",
          "definition": "The state of consciousness is not controlled. The possibility exists for having multiple conscious states over a period of time. (NCI)",
          "preferredTerm": "Unspecified State of Consciousness",
          "submissionValue": "UNSPECIFIED",
          "synonyms": [
            "Unspecified State of Consciousness"
          ]
        }
      ]
    },
    {
      "conceptId": "C66786",
      "definition": "A collective generic term that refers here to a wide variety of dependencies, areas of special sovereignty, uninhabited islands, and other entities in addition to the traditional countries or independent states. (NCI)",
      "extensible": "No",
      "name": "Country",
      "preferredTerm": "CDISC SDTM Country Terminology",
      "submissionValue": "COUNTRY",
      "synonyms": [
        "Country"
      ],
      "terms": [
        {
          "conceptId": "C17884",
          "definition": "Island in the Caribbean Sea, north of Venezuela. (NCI)",
          "preferredTerm": "Aruba",
          "submissionValue": "ABW",
          "synonyms": [
            "ARUBA"
          ]
        },
        {
          "conceptId": "C16267",
          "definition": "A country in Southern Asia, north and west of Pakistan, east of Iran. (NCI)",
          "preferredTerm": "Afghanistan",
          "submissionValue": "AFG",
          "synonyms": [
            "AFGHANISTAN"
          ]
        },
        {
          "conceptId": "C16292",
          "definition": "A country in Southern Africa, bordering the South Atlantic Ocean, between Namibia and Democratic Republic of the Congo. (NCI)",
          "preferredTerm": "Angola",
          "submissionValue": "AGO",
          "synonyms": [
            "ANGOLA"
          ]
        },
        {
          "conceptId": "C20133",
          "definition": "An island in the Caribbean Sea, east of Puerto Rico. (NCI)",
          "preferredTerm": "Anguilla",
          "submissionValue": "AIA",
          "synonyms": [
            "ANGUILLA"
          ]
        },
        {
          "conceptId": "C44481",
          "definition": "An archipelago in the Baltic Sea at the entrance to the Gulf of Bothnia between Sweden and Finland. (NCI)",
          "preferredTerm": "Aland Islands",
          "submissionValue": "ALA",
          "synonyms": [
            "ALAND ISLANDS"
          ]
        },
        {
          "conceptId": "C16271",
          "definition": "A country in Southeastern Europe, bordering the Adriatic Sea and Ionian Sea, between Greece and Serbia and Montenegro. (NCI)",
          "preferredTerm": "Albania",
          "submissionValue": "ALB",
          "synonyms": [
            "ALBANIA"
          ]
        },
        {
          "conceptId": "C16289",
          "definition": "A country in Southwestern Europe, between France and Spain. (NCI)",
          "preferredTerm": "Andorra",
          "submissionValue": "AND",
          "synonyms": [
            "ANDORRA"
          ]
        },
        {
          "conceptId": "C16904",
          "definition": "A country in the Caribbean, comprising two island groups in the Caribbean Sea - one includes Curacao and Bonaire north of Venezuela; the other is east of the Virgin Islands. (NCI)",
          "preferredTerm": "Netherlands Antilles",
          "submissionValue": "ANT",
          "synonyms": [
            "NETHERLANDS ANTILLES"
          ]
        },
        {
          "conceptId": "C17232",
          "definition": "A country in the Middle East, bordering the Gulf of Oman and the Persian Gulf, between Oman and Saudi Arabia. (NCI)",
          "preferredTerm": "United Arab Emirates",
          "submissionValue": "ARE",
          "synonyms": [
            "UNITED ARAB EMIRATES"
          ]
        },
        {
          "conceptId": "C16305",
          "definition": "A country in Southern South America, bordering the South Atlantic Ocean, between Chile and Uruguay. (NCI)",
          "preferredTerm": "Argentina",
          "submissionValue": "ARG",
          "synonyms": [
            "ARGENTINA"
          ]
        },
        {
          "conceptId": "C16306",
          "definition": "A country in Southwestern Asia, east of Turkey. (NCI)",
          "preferredTerm": "Armenia",
          "submissionValue": "ARM",
          "synonyms": [
            "ARMENIA"
          ]
        },
        {
          "conceptId": "C17739",
          "definition": "A group of islands in the South Pacific Ocean, about half way between Hawaii and New Zealand. (NCI)",
          "preferredTerm": "American Samoa",
          "submissionValue": "ASM",
          "synonyms": [
            "AMERICAN SAMOA"
          ]
        },
        {
          "conceptId": "C18007",
          "definition": "The continent lying mostly south of the Antarctic Circle. (NCI)",
          "preferredTerm": "Antarctica",
          "submissionValue": "ATA",
          "synonyms": [
            "ANTARCTICA"
          ]
        },
        {
          "conceptId": "C20105",
          "definition": "Islands in the southern Indian Ocean, south of Africa, about equidistant between Africa, Antarctica, and Australia. (NCI)",
          "preferredTerm": "French Southern Territories",
          "submissionValue": "ATF",
          "synonyms": [
            "FRENCH SOUTHERN TERRITORIES"
          ]
        },
        {
          "conceptId": "C16303",
          "definition": "Islands between the Caribbean Sea and the North Atlantic Ocean, east-southeast of Puerto Rico. (NCI)",
          "preferredTerm": "Antigua and Barbuda",
          "submissionValue": "ATG",
          "synonyms": [
            "ANTIGUA AND BARBUDA"
          ]
        },
        {
          "conceptId": "C16311",
          "definition": "The continent between the Indian Ocean and the South Pacific Ocean. (NCI)",
          "preferredTerm": "Australia",
          "submissionValue": "AUS",
          "synonyms": [
            "AUSTRALIA"
          ]
        },
        {
          "conceptId": "C16312",
          "definition": "A country in Central Europe, north of Italy and Slovenia. (NCI)",
          "preferredTerm": "Austria",
          "submissionValue": "AUT",
          "synonyms": [
            "AUSTRIA"
          ]
        },
        {
          "conceptId": "C16316",
          "definition": "A country in Southwestern Asia, bordering the Caspian Sea, between Iran and Russia. (NCI)",
          "preferredTerm": "Azerbaijan",
          "submissionValue": "AZE",
          "synonyms": [
            "AZERBAIJAN"
          ]
        },
        {
          "conceptId": "C16371",
          "definition": "A country in Central Africa, east of Democratic Republic of the Congo. (NCI)",
          "preferredTerm": "Burundi",
          "submissionValue": "BDI",
          "synonyms": [
            "BURUNDI"
          ]
        },
        {
          "conceptId": "C16329",
          "definition": "A country in Western Europe, bordering the North Sea, between France and the Netherlands. (NCI)",
          "preferredTerm": "Belgium",
          "submissionValue": "BEL",
          "synonyms": [
            "BELGIUM"
          ]
        },
        {
          "conceptId": "C16333",
          "definition": "A country in Western Africa, bordering the North Atlantic Ocean, between Nigeria and Togo. (NCI)",
          "preferredTerm": "Benin",
          "submissionValue": "BEN",
          "synonyms": [
            "BENIN REPUBLIC"
          ]
        },
        {
          "conceptId": "C16369",
          "definition": "A country in Western Africa, north of Ghana. (NCI)",
          "preferredTerm": "Burkina Faso",
          "submissionValue": "BFA",
          "synonyms": [
            "BURKINA FASO"
          ]
        },
        {
          "conceptId": "C16323",
          "definition": "A country in Southern Asia, bordering the Bay of Bengal, between Burma and India. (NCI)",
          "preferredTerm": "Bangladesh",
          "submissionValue": "BGD",
          "synonyms": [
            "BANGLADESH"
          ]
        },
        {
          "conceptId": "C16368",
          "definition": "A country in Southeastern Europe, bordering the Black Sea, between Romania and Turkey. (NCI)",
          "preferredTerm": "Bulgaria",
          "submissionValue": "BGR",
          "synonyms": [
            "BULGARIA"
          ]
        },
        {
          "conceptId": "C16322",
          "definition": "An archipelago in the Persian Gulf, east of Saudi Arabia. (NCI)",
          "preferredTerm": "Bahrain",
          "submissionValue": "BHR",
          "synonyms": [
            "BAHRAIN"
          ]
        },
        {
          "conceptId": "C16321",
          "definition": "A chain of islands in the North Atlantic Ocean, southeast of Florida. (NCI)",
          "preferredTerm": "Bahamas",
          "submissionValue": "BHS",
          "synonyms": [
            "BAHAMAS"
          ]
        },
        {
          "conceptId": "C16361",
          "definition": "A country in Southeastern Europe, bordering the Adriatic Sea and Croatia. (NCI)",
          "preferredTerm": "Bosnia and Herzegovina",
          "submissionValue": "BIH",
          "synonyms": [
            "BOSNIA-HERZEGOVINA"
          ]
        },
        {
          "conceptId": "C83609",
          "definition": "An island in the Caribbean sea, between Saint Martin and Saint Kitts and Nevis. (NCI)",
          "preferredTerm": "Saint Barthelemy",
          "submissionValue": "BLM",
          "synonyms": [
            "SAINT BARTHELEMY"
          ]
        },
        {
          "conceptId": "C16372",
          "definition": "A country in Eastern Europe, east of Poland. (NCI)",
          "preferredTerm": "Belarus",
          "submissionValue": "BLR",
          "synonyms": [
            "BELARUS"
          ]
        },
        {
          "conceptId": "C16331",
          "definition": "A country in Central America, bordering the Caribbean Sea, between Guatemala and Mexico. (NCI)",
          "preferredTerm": "Belize",
          "submissionValue": "BLZ",
          "synonyms": [
            "BELIZE"
          ]
        },
        {
          "conceptId": "C16334",
          "definition": "A group of islands in the North Atlantic Ocean, east of South Carolina. (NCI)",
          "preferredTerm": "Bermuda",
          "submissionValue": "BMU",
          "synonyms": [
            "BERMUDA"
          ]
        },
        {
          "conceptId": "C16359",
          "definition": "A country in Central South America, southwest of Brazil. (NCI)",
          "preferredTerm": "Bolivia",
          "submissionValue": "BOL",
          "synonyms": [
            "BOLIVIA"
          ]
        },
        {
          "conceptId": "C16364",
          "definition": "A country in Eastern South America, bordering the Atlantic Ocean. (NCI)",
          "preferredTerm": "Brazil",
          "submissionValue": "BRA",
          "synonyms": [
            "BRAZIL"
          ]
        },
        {
          "conceptId": "C16324",
          "definition": "An island between the Caribbean Sea and the North Atlantic Ocean, northeast of Venezuela. (NCI)",
          "preferredTerm": "Barbados",
          "submissionValue": "BRB",
          "synonyms": [
            "BARBADOS"
          ]
        },
        {
          "conceptId": "C16367",
          "definition": "A country in Southeastern Asia, bordering the South China Sea and Malaysia. (NCI)",
          "preferredTerm": "Brunei Darussalam",
          "submissionValue": "BRN",
          "synonyms": [
            "BRUNEI"
          ]
        },
        {
          "conceptId": "C16336",
          "definition": "A country in Southern Asia, between China and India. (NCI)",
          "preferredTerm": "Bhutan",
          "submissionValue": "BTN",
          "synonyms": [
            "BHUTAN"
          ]
        },
        {
          "conceptId": "C20104",
          "definition": "An island in the South Atlantic Ocean, south-southwest of the Cape of Good Hope (South Africa). (NCI)",
          "preferredTerm": "Bouvet Island",
          "submissionValue": "BVT",
          "synonyms": [
            "BOUVET ISLAND"
          ]
        },
        {
          "conceptId": "C16363",
          "definition": "A country in Southern Africa, north of South Africa. (NCI)",
          "preferredTerm": "Botswana",
          "submissionValue": "BWA",
          "synonyms": [
            "BOTSWANA"
          ]
        },
        {
          "conceptId": "C16409",
          "definition": "A country in Central Africa, north of Democratic Republic of the Congo. (NCI)",
          "preferredTerm": "Central African Republic",
          "submissionValue": "CAF",
          "synonyms": [
            "CENTRAL AFRICAN REPUBLIC"
          ]
        },
        {
          "conceptId": "C16380",
          "definition": "A country in Northern North America, bordering the North Atlantic Ocean on the east, North Pacific Ocean on the west, and the Arctic Ocean on the north, north of the conterminous US. (NCI)",
          "preferredTerm": "Canada",
          "submissionValue": "CAN",
          "synonyms": [
            "CANADA"
          ]
        },
        {
          "conceptId": "C16445",
          "definition": "A group of islands in the Indian Ocean, south of Indonesia, about halfway from Australia to Sri Lanka. (NCI)",
          "preferredTerm": "Cocos (Keeling) Islands",
          "submissionValue": "CCK",
          "synonyms": [
            "COCOS (KEELING) ISLANDS"
          ]
        },
        {
          "conceptId": "C17181",
          "definition": "A country in Central Europe, east of France, north of Italy. (NCI)",
          "preferredTerm": "Switzerland",
          "submissionValue": "CHE",
          "synonyms": [
            "SWITZERLAND"
          ]
        },
        {
          "conceptId": "C16427",
          "definition": "A country in Southern South America, bordering the South Atlantic Ocean and South Pacific Ocean, between Argentina and Peru. (NCI)",
          "preferredTerm": "Chile",
          "submissionValue": "CHL",
          "synonyms": [
            "CHILE"
          ]
        },
        {
          "conceptId": "C16428",
          "definition": "A country in Eastern Asia, bordering the East China Sea, Korea Bay, Yellow Sea, and South China Sea, between North Korea and Vietnam. (NCI)",
          "preferredTerm": "China",
          "submissionValue": "CHN",
          "synonyms": [
            "CHINA"
          ]
        },
        {
          "conceptId": "C16762",
          "definition": "A country in Western Africa, bordering the North Atlantic Ocean, between Ghana and Liberia. (NCI)",
          "preferredTerm": "Cote d'Ivoire",
          "submissionValue": "CIV",
          "synonyms": [
            "COTE D'IVOIRE"
          ]
        },
        {
          "conceptId": "C16379",
          "definition": "A country in Western Africa, bordering the Bight of Biafra, between Equatorial Guinea and Nigeria. (NCI)",
          "preferredTerm": "Cameroon",
          "submissionValue": "CMR",
          "synonyms": [
            "CAMEROON"
          ]
        },
        {
          "conceptId": "C17266",
          "definition": "A country in Central Africa, northeast of Angola. (NCI)",
          "preferredTerm": "Congo, the Democratic Republic of the",
          "submissionValue": "COD",
          "synonyms": [
            "DEMOCRATIC REPUBLIC OF THE CONGO"
          ]
        },
        {
          "conceptId": "C16467",
          "definition": "A country in Western Africa, bordering the South Atlantic Ocean, between Angola and Gabon. (NCI)",
          "preferredTerm": "Congo",
          "submissionValue": "COG",
          "synonyms": [
            "CONGO"
          ]
        },
        {
          "conceptId": "C16469",
          "definition": "A group of islands in the South Pacific Ocean, about one-half of the way from Hawaii to New Zealand. (NCI)",
          "preferredTerm": "Cook Islands",
          "submissionValue": "COK",
          "synonyms": [
            "COOK ISLANDS"
          ]
        },
        {
          "conceptId": "C16449",
          "definition": "A country in Northern South America, bordering the Caribbean Sea, between Panama and Venezuela, and bordering the North Pacific Ocean, between Ecuador and Panama. (NCI)",
          "preferredTerm": "Colombia",
          "submissionValue": "COL",
          "synonyms": [
            "COLOMBIA"
          ]
        },
        {
          "conceptId": "C16458",
          "definition": "A group of islands in the Mozambique Channel, about two-thirds of the way between northern Madagascar and northern Mozambique. (NCI)",
          "preferredTerm": "Comoros",
          "submissionValue": "COM",
          "synonyms": [
            "COMOROS"
          ]
        },
        {
          "conceptId": "C16382",
          "definition": "A group of islands in the North Atlantic Ocean, west of Senegal. (NCI)",
          "preferredTerm": "Cape Verde",
          "submissionValue": "CPV",
          "synonyms": [
            "CAPE VERDE"
          ]
        },
        {
          "conceptId": "C16470",
          "definition": "A country in Central America, bordering both the Caribbean Sea and the North Pacific Ocean, between Nicaragua and Panama. (NCI)",
          "preferredTerm": "Costa Rica",
          "submissionValue": "CRI",
          "synonyms": [
            "COSTA RICA"
          ]
        },
        {
          "conceptId": "C16477",
          "definition": "An island between the Caribbean Sea and the North Atlantic Ocean, 150 km south of Key West, Florida. (NCI)",
          "preferredTerm": "Cuba",
          "submissionValue": "CUB",
          "synonyms": [
            "CUBA"
          ]
        },
        {
          "conceptId": "C44482",
          "definition": "An Australian-administered island in the eastern Indian Ocean south of Java, Indonesia. (NCI)",
          "preferredTerm": "Christmas Island",
          "submissionValue": "CXR",
          "synonyms": [
            "CHRISTMAS ISLAND"
          ]
        },
        {
          "conceptId": "C16391",
          "definition": "An island group in the Caribbean Sea, nearly one-half of the way from Cuba to Honduras. (NCI)",
          "preferredTerm": "Cayman Islands",
          "submissionValue": "CYM",
          "synonyms": [
            "CAYMAN ISLANDS"
          ]
        },
        {
          "conceptId": "C16480",
          "definition": "An island in the Mediterranean Sea, south of Turkey. (NCI)",
          "preferredTerm": "Cyprus",
          "submissionValue": "CYP",
          "synonyms": [
            "CYPRUS"
          ]
        },
        {
          "conceptId": "C17668",
          "definition": "A country in Central Europe, southeast of Germany. (NCI)",
          "preferredTerm": "Czech Republic",
          "submissionValue": "CZE",
          "synonyms": [
            "CZECH REPUBLIC"
          ]
        },
        {
          "conceptId": "C16636",
          "definition": "A country in Central Europe, bordering the Baltic Sea and the North Sea, between the Netherlands and Poland, south of Denmark. (NCI)",
          "preferredTerm": "Germany",
          "submissionValue": "DEU",
          "synonyms": [
            "GERMANY"
          ]
        },
        {
          "conceptId": "C16506",
          "definition": "A country in Eastern Africa, bordering the Gulf of Aden and the Red Sea, between Eritrea and Somalia. (NCI)",
          "preferredTerm": "Djibouti",
          "submissionValue": "DJI",
          "synonyms": [
            "DJIBOUTI"
          ]
        },
        {
          "conceptId": "C16519",
          "definition": "An island between the Caribbean Sea and the North Atlantic Ocean, about one-half of the way from Puerto Rico to Trinidad and Tobago. (NCI)",
          "preferredTerm": "Dominica",
          "submissionValue": "DMA",
          "synonyms": [
            "DOMINICA"
          ]
        },
        {
          "conceptId": "C16496",
          "definition": "A country in Northern Europe, bordering the Baltic Sea and the North Sea, on a peninsula north of Germany (Jutland); also includes two major islands (Sjaelland and Fyn). (NCI)",
          "preferredTerm": "Denmark",
          "submissionValue": "DNK",
          "synonyms": [
            "DENMARK"
          ]
        },
        {
          "conceptId": "C16520",
          "definition": "A country comprising the eastern two-thirds of the island of Hispaniola, between the Caribbean Sea and the North Atlantic Ocean, east of Haiti. (NCI)",
          "preferredTerm": "Dominican Republic",
          "submissionValue": "DOM",
          "synonyms": [
            "DOMINICAN REPUBLIC"
          ]
        },
        {
          "conceptId": "C16274",
          "definition": "A country in Northern Africa, bordering the Mediterranean Sea, between Morocco and Tunisia. (NCI)",
          "preferredTerm": "Algeria",
          "submissionValue": "DZA",
          "synonyms": [
            "ALGERIA"
          ]
        },
        {
          "conceptId": "C16528",
          "definition": "A country in Western South America, bordering the Pacific Ocean at the Equator, between Colombia and Peru. (NCI)",
          "preferredTerm": "Ecuador",
          "submissionValue": "ECU",
          "synonyms": [
            "ECUADOR"
          ]
        },
        {
          "conceptId": "C16530",
          "definition": "A country in Northern Africa, bordering the Mediterranean Sea, between Libya and the Gaza Strip. (NCI)",
          "preferredTerm": "Egypt",
          "submissionValue": "EGY",
          "synonyms": [
            "EGYPT"
          ]
        },
        {
          "conceptId": "C16558",
          "definition": "A country in Eastern Africa, bordering the Red Sea, between Djibouti and Sudan. (NCI)",
          "preferredTerm": "Eritrea",
          "submissionValue": "ERI",
          "synonyms": [
            "ERITREA"
          ]
        },
        {
          "conceptId": "C20113",
          "definition": "A country in Northern Africa, bordering the North Atlantic Ocean, between Mauritania and Morocco. (NCI)",
          "preferredTerm": "Western Sahara",
          "submissionValue": "ESH",
          "synonyms": [
            "WESTERN SAHARA"
          ]
        },
        {
          "conceptId": "C17152",
          "definition": "A country in Southwestern Europe, bordering the Bay of Biscay, Mediterranean Sea, North Atlantic Ocean, and Pyrenees Mountains, southwest of France. (NCI)",
          "preferredTerm": "Spain",
          "submissionValue": "ESP",
          "synonyms": [
            "SPAIN"
          ]
        },
        {
          "conceptId": "C16562",
          "definition": "A country in Eastern Europe, bordering the Baltic Sea and Gulf of Finland, between Latvia and Russia. (NCI)",
          "preferredTerm": "Estonia",
          "submissionValue": "EST",
          "synonyms": [
            "ESTONIA"
          ]
        },
        {
          "conceptId": "C16563",
          "definition": "A country in Eastern Africa, west of Somalia. (NCI)",
          "preferredTerm": "Ethiopia",
          "submissionValue": "ETH",
          "synonyms": [
            "ETHIOPIA"
          ]
        },
        {
          "conceptId": "C16584",
          "definition": "A country in Northern Europe, bordering the Baltic Sea, Gulf of Bothnia, and Gulf of Finland, between Sweden and Russia. (NCI)",
          "preferredTerm": "Finland",
          "submissionValue": "FIN",
          "synonyms": [
            "FINLAND"
          ]
        },
        {
          "conceptId": "C16582",
          "definition": "An island group in the South Pacific Ocean, about two-thirds of the way from Hawaii to New Zealand. (NCI)",
          "preferredTerm": "Fiji",
          "submissionValue": "FJI",
          "synonyms": [
            "FIJI"
          ]
        },
        {
          "conceptId": "C17954",
          "definition": "Islands in the South Atlantic Ocean, east of southern Argentina. (NCI)",
          "preferredTerm": "Falkland Islands (Malvinas)",
          "submissionValue": "FLK",
          "synonyms": [
            "FALKLAND ISLANDS"
          ]
        },
        {
          "conceptId": "C16592",
          "definition": "A country in Western Europe, bordering the Bay of Biscay and English Channel, between Belgium and Spain, southeast of the UK; bordering the Mediterranean Sea, between Italy and Spain. (NCI)",
          "preferredTerm": "France",
          "submissionValue": "FRA",
          "synonyms": [
            "FRANCE"
          ]
        },
        {
          "conceptId": "C16573",
          "definition": "An island group between the Norwegian Sea and the North Atlantic Ocean, about one-half of the way from Iceland to Norway. (NCI)",
          "preferredTerm": "Faroe Islands",
          "submissionValue": "FRO",
          "synonyms": [
            "FAROE ISLANDS"
          ]
        },
        {
          "conceptId": "C17881",
          "definition": "An island group in the North Pacific Ocean, about three-quarters of the way from Hawaii to Indonesia. (NCI)",
          "preferredTerm": "Micronesia, Federated States of",
          "submissionValue": "FSM",
          "synonyms": [
            "MICRONESIA, FEDERATED STATES OF"
          ]
        },
        {
          "conceptId": "C16596",
          "definition": "A country in Western Africa, bordering the Atlantic Ocean at the Equator, between Republic of the Congo and Equatorial Guinea. (NCI)",
          "preferredTerm": "Gabon",
          "submissionValue": "GAB",
          "synonyms": [
            "GABON"
          ]
        },
        {
          "conceptId": "C17233",
          "definition": "A country in Western Europe, comprising islands, including the northern one-sixth of the island of Ireland, between the North Atlantic Ocean and the North Sea, northwest of France. (NCI)",
          "preferredTerm": "United Kingdom",
          "submissionValue": "GBR",
          "synonyms": [
            "UNITED KINGDOM"
          ]
        },
        {
          "conceptId": "C16634",
          "definition": "A country in Southwestern Asia, bordering the Black Sea, between Turkey and Russia. (NCI)",
          "preferredTerm": "Georgia",
          "submissionValue": "GEO",
          "synonyms": [
            "GEORGIA"
          ]
        },
        {
          "conceptId": "C64375",
          "definition": "The island of Guernsey and the other Channel Islands represent the last remnants of the medieval Dukedom of Normandy, which held sway in both France and England. Guernsey is a British crown dependency, but is not part of the UK. (NCI)",
          "preferredTerm": "Guernsey",
          "submissionValue": "GGY",
          "synonyms": [
            "GUERNSEY"
          ]
        },
        {
          "conceptId": "C26330",
          "definition": "A country in Western Africa, bordering the Gulf of Guinea, between Cote d'Ivoire and Togo. (NCI)",
          "preferredTerm": "Ghana",
          "submissionValue": "GHA",
          "synonyms": [
            "GHANA"
          ]
        },
        {
          "conceptId": "C16638",
          "definition": "A dependency in Southwestern Europe, bordering the Strait of Gibraltar, on the southern coast of Spain. (NCI)",
          "preferredTerm": "Gibraltar",
          "submissionValue": "GIB",
          "synonyms": [
            "GIBRALTAR"
          ]
        },
        {
          "conceptId": "C16655",
          "definition": "A country in Western Africa, bordering the North Atlantic Ocean, between Guinea-Bissau and Sierra Leone. (NCI)",
          "preferredTerm": "Guinea",
          "submissionValue": "GIN",
          "synonyms": [
            "GUINEA"
          ]
        },
        {
          "conceptId": "C16651",
          "definition": "Islands in the eastern Caribbean Sea, southeast of Puerto Rico. (NCI)",
          "preferredTerm": "Guadeloupe",
          "submissionValue": "GLP",
          "synonyms": [
            "GUADELOUPE"
          ]
        },
        {
          "conceptId": "C16598",
          "definition": "A country in Western Africa, bordering the North Atlantic Ocean and Senegal. (NCI)",
          "preferredTerm": "Gambia",
          "submissionValue": "GMB",
          "synonyms": [
            "GAMBIA"
          ]
        },
        {
          "conceptId": "C16656",
          "definition": "A country in Western Africa, bordering the North Atlantic Ocean, between Guinea and Senegal. (NCI)",
          "preferredTerm": "Guinea-Bissau",
          "submissionValue": "GNB",
          "synonyms": [
            "GUINEA-BISSAU"
          ]
        },
        {
          "conceptId": "C16557",
          "definition": "A country in Western Africa, bordering the Bight of Biafra, between Cameroon and Gabon; composed of a mainland portion and five inhabited islands. (NCI)",
          "preferredTerm": "Equatorial Guinea",
          "submissionValue": "GNQ",
          "synonyms": [
            "EQUATORIAL GUINEA"
          ]
        },
        {
          "conceptId": "C16645",
          "definition": "A country in Southern Europe, bordering the Aegean Sea, Ionian Sea, and the Mediterranean Sea, between Albania and Turkey. (NCI)",
          "preferredTerm": "Greece",
          "submissionValue": "GRC",
          "synonyms": [
            "GREECE"
          ]
        },
        {
          "conceptId": "C16647",
          "definition": "An island between the Caribbean Sea and Atlantic Ocean, north of Trinidad and Tobago. (NCI)",
          "preferredTerm": "Grenada",
          "submissionValue": "GRD",
          "synonyms": [
            "GRENADA"
          ]
        },
        {
          "conceptId": "C16646",
          "definition": "An island between the Arctic Ocean and the North Atlantic Ocean, northeast of Canada. (NCI)",
          "preferredTerm": "Greenland",
          "submissionValue": "GRL",
          "synonyms": [
            "GREENLAND"
          ]
        },
        {
          "conceptId": "C16654",
          "definition": "A country in Central America, bordering the Caribbean Sea, between Honduras and Belize and bordering the North Pacific Ocean, between El Salvador and Mexico. (NCI)",
          "preferredTerm": "Guatemala",
          "submissionValue": "GTM",
          "synonyms": [
            "GUATEMALA"
          ]
        },
        {
          "conceptId": "C16593",
          "definition": "A country in Northern South America, bordering the North Atlantic Ocean, between Brazil and Suriname. (NCI)",
          "preferredTerm": "French Guiana",
          "submissionValue": "GUF",
          "synonyms": [
            "FRENCH GUIANA"
          ]
        },
        {
          "conceptId": "C16652",
          "definition": "Island in the North Pacific Ocean, about three-quarters of the way from Hawaii to the Philippines. (NCI)",
          "preferredTerm": "Guam",
          "submissionValue": "GUM",
          "synonyms": [
            "GUAM"
          ]
        },
        {
          "conceptId": "C16657",
          "definition": "A country in Northern South America, bordering the North Atlantic Ocean, between Suriname and Venezuela. (NCI)",
          "preferredTerm": "Guyana",
          "submissionValue": "GUY",
          "synonyms": [
            "GUYANA"
          ]
        },
        {
          "conceptId": "C16695",
          "definition": "A special administrative region of China, bordering the South China Sea and China. (NCI)",
          "preferredTerm": "Hong Kong",
          "submissionValue": "HKG",
          "synonyms": [
            "HONG KONG"
          ]
        },
        {
          "conceptId": "C20106",
          "definition": "Islands in the Indian Ocean, about two-thirds of the way from Madagascar to Antarctica. (NCI)",
          "preferredTerm": "Heard Island and McDonald Islands",
          "submissionValue": "HMD",
          "synonyms": [
            "HEARD ISLAND AND MCDONALD ISLANDS"
          ]
        },
        {
          "conceptId": "C16694",
          "definition": "A country in Central America, bordering the Caribbean Sea, between Guatemala and Nicaragua and bordering the North Pacific Ocean, between El Salvador and Nicaragua. (NCI)",
          "preferredTerm": "Honduras",
          "submissionValue": "HND",
          "synonyms": [
            "HONDURAS"
          ]
        },
        {
          "conceptId": "C16474",
          "definition": "A country in Southeastern Europe, bordering the Adriatic Sea, between Bosnia and Herzegovina and Slovenia. (NCI)",
          "preferredTerm": "Croatia",
          "submissionValue": "HRV",
          "synonyms": [
            "CROATIA"
          ]
        },
        {
          "conceptId": "C16660",
          "definition": "A country comprising the western one-third of the island of Hispaniola, between the Caribbean Sea and the North Atlantic Ocean, west of the Dominican Republic. (NCI)",
          "preferredTerm": "Haiti",
          "submissionValue": "HTI",
          "synonyms": [
            "HAITI"
          ]
        },
        {
          "conceptId": "C16699",
          "definition": "A country in Central Europe, northwest of Romania. (NCI)",
          "preferredTerm": "Hungary",
          "submissionValue": "HUN",
          "synonyms": [
            "HUNGARY"
          ]
        },
        {
          "conceptId": "C16728",
          "definition": "A country in Southeastern Asia, comprising the archipelago between the Indian Ocean and the Pacific Ocean. (NCI)",
          "preferredTerm": "Indonesia",
          "submissionValue": "IDN",
          "synonyms": [
            "INDONESIA"
          ]
        },
        {
          "conceptId": "C44480",
          "definition": "An island in the Irish Sea, between Great Britain and Ireland. (NCI)",
          "preferredTerm": "Isle of Man",
          "submissionValue": "IMN",
          "synonyms": [
            "ISLE OF MAN"
          ]
        },
        {
          "conceptId": "C16727",
          "definition": "A country in Southern Asia, bordering the Arabian Sea and the Bay of Bengal, between Burma and Pakistan. (NCI)",
          "preferredTerm": "India",
          "submissionValue": "IND",
          "synonyms": [
            "INDIA"
          ]
        },
        {
          "conceptId": "C16365",
          "definition": "An archipelago in the Indian Ocean, about one-half the way from Africa to Indonesia. (NCI)",
          "preferredTerm": "British Indian Ocean Territory",
          "submissionValue": "IOT",
          "synonyms": [
            "BRITISH INDIAN OCEAN TERRITORY"
          ]
        },
        {
          "conceptId": "C16757",
          "definition": "A country in Western Europe, occupying five-sixths of the island of Ireland in the North Atlantic Ocean, west of Great Britain. (NCI)",
          "preferredTerm": "Ireland",
          "submissionValue": "IRL",
          "synonyms": [
            "IRELAND"
          ]
        },
        {
          "conceptId": "C16755",
          "definition": "A country in the Middle East, bordering the Gulf of Oman, the Persian Gulf, and the Caspian Sea, between Iraq and Pakistan. (NCI)",
          "preferredTerm": "Iran, Islamic Republic of",
          "submissionValue": "IRN",
          "synonyms": [
            "IRAN"
          ]
        },
        {
          "conceptId": "C16756",
          "definition": "A country in the Middle East, bordering the Persian Gulf, between Iran and Kuwait. (NCI)",
          "preferredTerm": "Iraq",
          "submissionValue": "IRQ",
          "synonyms": [
            "IRAQ"
          ]
        },
        {
          "conceptId": "C16704",
          "definition": "A country in Northern Europe, island between the Greenland Sea and the North Atlantic Ocean, northwest of the UK. (NCI)",
          "preferredTerm": "Iceland",
          "submissionValue": "ISL",
          "synonyms": [
            "ICELAND"
          ]
        },
        {
          "conceptId": "C16760",
          "definition": "A country in the Middle East, bordering the Mediterranean Sea, between Egypt and Lebanon. (NCI)",
          "preferredTerm": "Israel",
          "submissionValue": "ISR",
          "synonyms": [
            "ISRAEL"
          ]
        },
        {
          "conceptId": "C16761",
          "definition": "A country in Southern Europe, occupying a peninsula extending into the central Mediterranean Sea, northeast of Tunisia. (NCI)",
          "preferredTerm": "Italy",
          "submissionValue": "ITA",
          "synonyms": [
            "ITALY"
          ]
        },
        {
          "conceptId": "C16763",
          "definition": "An island in the Caribbean Sea, south of Cuba. (NCI)",
          "preferredTerm": "Jamaica",
          "submissionValue": "JAM",
          "synonyms": [
            "JAMAICA"
          ]
        },
        {
          "conceptId": "C64374",
          "definition": "Jersey and the other Channel Islands represent the last remnants of the medieval Dukedom of Normandy that held sway in both France and England. Jersey is a British crown dependency, but is not part of the UK. (NCI)",
          "preferredTerm": "Jersey",
          "submissionValue": "JEY",
          "synonyms": [
            "JERSEY"
          ]
        },
        {
          "conceptId": "C16765",
          "definition": "A country in the Middle East, northwest of Saudi Arabia. (NCI)",
          "preferredTerm": "Jordan",
          "submissionValue": "JOR",
          "synonyms": [
            "JORDAN"
          ]
        },
        {
          "conceptId": "C16764",
          "definition": "A country in Eastern Asia, occupying an island chain between the North Pacific Ocean and the Sea of Japan, east of the Korean Peninsula. (NCI)",
          "preferredTerm": "Japan",
          "submissionValue": "JPN",
          "synonyms": [
            "JAPAN"
          ]
        },
        {
          "conceptId": "C20107",
          "definition": "A country in Central Asia, northwest of China. (NCI)",
          "preferredTerm": "Kazakhstan",
          "submissionValue": "KAZ",
          "synonyms": [
            "KAZAKHSTAN"
          ]
        },
        {
          "conceptId": "C16769",
          "definition": "A country in Eastern Africa, bordering the Indian Ocean, between Somalia and Tanzania. (NCI)",
          "preferredTerm": "Kenya",
          "submissionValue": "KEN",
          "synonyms": [
            "KENYA"
          ]
        },
        {
          "conceptId": "C16771",
          "definition": "A country in Central Asia, west of China. (NCI)",
          "preferredTerm": "Kyrgyzstan",
          "submissionValue": "KGZ",
          "synonyms": [
            "KYRGYZSTAN"
          ]
        },
        {
          "conceptId": "C16378",
          "definition": "A country in Southeastern Asia, bordering the Gulf of Thailand, between Thailand, Vietnam, and Laos. (NCI)",
          "preferredTerm": "Cambodia",
          "submissionValue": "KHM",
          "synonyms": [
            "CAMBODIA"
          ]
        },
        {
          "conceptId": "C16639",
          "definition": "A group of 33 coral atolls in the Pacific Ocean, straddling the equator; the capital Tarawa is about one-half of the way from Hawaii to Australia. (NCI)",
          "preferredTerm": "Kiribati",
          "submissionValue": "KIR",
          "synonyms": [
            "KIRIBATI"
          ]
        },
        {
          "conceptId": "C17885",
          "definition": "Islands in the Caribbean Sea, about one-third of the way from Puerto Rico to Trinidad and Tobago. (NCI)",
          "preferredTerm": "Saint Kitts and Nevis",
          "submissionValue": "KNA",
          "synonyms": [
            "SAINT KITTS AND NEVIS"
          ]
        },
        {
          "conceptId": "C16774",
          "definition": "A country in Eastern Asia, occupying the southern half of the Korean Peninsula, bordering the Sea of Japan and the Yellow Sea. (NCI)",
          "preferredTerm": "Korea, Republic of",
          "submissionValue": "KOR",
          "synonyms": [
            "SOUTH KOREA"
          ]
        },
        {
          "conceptId": "C16775",
          "definition": "A country in the Middle East, bordering the Persian Gulf, between Iraq and Saudi Arabia. (NCI)",
          "preferredTerm": "Kuwait",
          "submissionValue": "KWT",
          "synonyms": [
            "KUWAIT"
          ]
        },
        {
          "conceptId": "C16780",
          "definition": "A country in Southeastern Asia, northeast of Thailand, west of Vietnam. (NCI)",
          "preferredTerm": "Lao People's Democratic Republic",
          "submissionValue": "LAO",
          "synonyms": [
            "LAO PEOPLE'S DEMOCRATIC REPUBLIC"
          ]
        },
        {
          "conceptId": "C16784",
          "definition": "A country in the Middle East, bordering the Mediterranean Sea, between Israel and Syria. (NCI)",
          "preferredTerm": "Lebanon",
          "submissionValue": "LBN",
          "synonyms": [
            "LEBANON"
          ]
        },
        {
          "conceptId": "C16791",
          "definition": "A country in Western Africa, bordering the North Atlantic Ocean, between Cote d'Ivoire and Sierra Leone. (NCI)",
          "preferredTerm": "Liberia",
          "submissionValue": "LBR",
          "synonyms": [
            "LIBERIA"
          ]
        },
        {
          "conceptId": "C16793",
          "definition": "A country in Northern Africa, bordering the Mediterranean Sea, between Egypt and Tunisia. (NCI)",
          "preferredTerm": "Libyan Arab Jamahiriya",
          "submissionValue": "LBY",
          "synonyms": [
            "LIBYAN ARAB JAMAHIRIYA"
          ]
        },
        {
          "conceptId": "C17113",
          "definition": "A country in the Caribbean, occupying an island between the Caribbean Sea and North Atlantic Ocean, north of Trinidad and Tobago. (NCI)",
          "preferredTerm": "Saint Lucia",
          "submissionValue": "LCA",
          "synonyms": [
            "SAINT LUCIA"
          ]
        },
        {
          "conceptId": "C16794",
          "definition": "A country in Central Europe, between Austria and Switzerland. (NCI)",
          "preferredTerm": "Liechtenstein",
          "submissionValue": "LIE",
          "synonyms": [
            "LIECHTENSTEIN"
          ]
        },
        {
          "conceptId": "C17163",
          "definition": "A country in Southern Asia, occupying an island in the Indian Ocean, south of India. (NCI)",
          "preferredTerm": "Sri Lanka",
          "submissionValue": "LKA",
          "synonyms": [
            "SRI LANKA"
          ]
        },
        {
          "conceptId": "C16787",
          "definition": "A country in Southern Africa, an enclave of South Africa. (NCI)",
          "preferredTerm": "Lesotho",
          "submissionValue": "LSO",
          "synonyms": [
            "LESOTHO"
          ]
        },
        {
          "conceptId": "C16799",
          "definition": "A country in Eastern Europe, bordering the Baltic Sea, between Latvia and Russia. (NCI)",
          "preferredTerm": "Lithuania",
          "submissionValue": "LTU",
          "synonyms": [
            "LITHUANIA"
          ]
        },
        {
          "conceptId": "C16803",
          "definition": "A country in Western Europe, between France, Belgium, and Germany. (NCI)",
          "preferredTerm": "Luxembourg",
          "submissionValue": "LUX",
          "synonyms": [
            "LUXEMBOURG"
          ]
        },
        {
          "conceptId": "C16783",
          "definition": "A country in Eastern Europe, bordering the Baltic Sea, between Estonia and Lithuania. (NCI)",
          "preferredTerm": "Latvia",
          "submissionValue": "LVA",
          "synonyms": [
            "LATVIA"
          ]
        },
        {
          "conceptId": "C16807",
          "definition": "A country in Eastern Asia, bordering the South China Sea and China. (NCI)",
          "preferredTerm": "Macao",
          "submissionValue": "MAC",
          "synonyms": [
            "MACAO"
          ]
        },
        {
          "conceptId": "C83610",
          "definition": "An island in the Caribbean sea, between Anguilla and Saint Barthelemy. (NCI)",
          "preferredTerm": "Saint Martin, French",
          "submissionValue": "MAF",
          "synonyms": [
            "SAINT MARTIN, FRENCH"
          ]
        },
        {
          "conceptId": "C16878",
          "definition": "A country in Northern Africa, bordering the North Atlantic Ocean and the Mediterranean Sea, between Algeria and Western Sahara. (NCI)",
          "preferredTerm": "Morocco",
          "submissionValue": "MAR",
          "synonyms": [
            "MOROCCO"
          ]
        },
        {
          "conceptId": "C16874",
          "definition": "A country in Western Europe, bordering the Mediterranean Sea on the southern coast of France, near the border with Italy. (NCI)",
          "preferredTerm": "Monaco",
          "submissionValue": "MCO",
          "synonyms": [
            "MONACO"
          ]
        },
        {
          "conceptId": "C16871",
          "definition": "A country in Eastern Europe, northeast of Romania. (NCI)",
          "preferredTerm": "Moldova, Republic of",
          "submissionValue": "MDA",
          "synonyms": [
            "MOLDOVA, REPUBLIC OF"
          ]
        },
        {
          "conceptId": "C16808",
          "definition": "A country in Southern Africa, occupying an island in the Indian Ocean, east of Mozambique. (NCI)",
          "preferredTerm": "Madagascar",
          "submissionValue": "MDG",
          "synonyms": [
            "MADAGASCAR"
          ]
        },
        {
          "conceptId": "C16815",
          "definition": "A country in Southern Asia, occupying a group of atolls in the Indian Ocean, south-southwest of India. (NCI)",
          "preferredTerm": "Maldives",
          "submissionValue": "MDV",
          "synonyms": [
            "MALDIVES"
          ]
        },
        {
          "conceptId": "C16850",
          "definition": "A country in Central America, bordering the Caribbean Sea and the Gulf of Mexico, between Belize and the US and bordering the North Pacific Ocean, between Guatemala and the US. (NCI)",
          "preferredTerm": "Mexico",
          "submissionValue": "MEX",
          "synonyms": [
            "MEXICO"
          ]
        },
        {
          "conceptId": "C16822",
          "definition": "A group of atolls and reefs in the North Pacific Ocean, about one-half of the way from Hawaii to Australia. (NCI)",
          "preferredTerm": "Marshall Islands",
          "submissionValue": "MHL",
          "synonyms": [
            "MARSHALL ISLANDS"
          ]
        },
        {
          "conceptId": "C17654",
          "definition": "A country in Southeastern Europe, north of Greece. (NCI)",
          "preferredTerm": "Macedonia, the Former Yugoslav Republic of",
          "submissionValue": "MKD",
          "synonyms": [
            "REPUBLIC OF MACEDONIA"
          ]
        },
        {
          "conceptId": "C16816",
          "definition": "A country in Western Africa, southwest of Algeria. (NCI)",
          "preferredTerm": "Mali",
          "submissionValue": "MLI",
          "synonyms": [
            "MALI"
          ]
        },
        {
          "conceptId": "C16817",
          "definition": "A country in Southern Europe, occupying islands in the Mediterranean Sea, south of Sicily (Italy). (NCI)",
          "preferredTerm": "Malta",
          "submissionValue": "MLT",
          "synonyms": [
            "MALTA"
          ]
        },
        {
          "conceptId": "C16370",
          "definition": "A country in Southeastern Asia, bordering the Andaman Sea and the Bay of Bengal, between Bangladesh and Thailand. (NCI)",
          "preferredTerm": "Myanmar",
          "submissionValue": "MMR",
          "synonyms": [
            "MYANMAR"
          ]
        },
        {
          "conceptId": "C64378",
          "definition": "A republic in Southeastern Europe, bordering the Adriatic Sea, between Albania and Bosnia and Herzegovina. Formerly part of Serbia and Montenegro (Federation Republic of Yugoslavia). (NCI)",
          "preferredTerm": "Montenegro",
          "submissionValue": "MNE",
          "synonyms": [
            "MONTENEGRO"
          ]
        },
        {
          "conceptId": "C16875",
          "definition": "A country in Northern Asia, between China and Russia. (NCI)",
          "preferredTerm": "Mongolia",
          "submissionValue": "MNG",
          "synonyms": [
            "MONGOLIA"
          ]
        },
        {
          "conceptId": "C17882",
          "definition": "A country in the Pacific, comprising islands in the North Pacific Ocean, about three-quarters of the way from Hawaii to the Philippines. (NCI)",
          "preferredTerm": "Northern Mariana Islands",
          "submissionValue": "MNP",
          "synonyms": [
            "NORTHERN MARIANA ISLANDS"
          ]
        },
        {
          "conceptId": "C16882",
          "definition": "A country in Southern Africa, bordering the Mozambique Channel, between South Africa and Tanzania. (NCI)",
          "preferredTerm": "Mozambique",
          "submissionValue": "MOZ",
          "synonyms": [
            "MOZAMBIQUE"
          ]
        },
        {
          "conceptId": "C16826",
          "definition": "A country in Northern Africa, bordering the North Atlantic Ocean, between Senegal and Western Sahara. (NCI)",
          "preferredTerm": "Mauritania",
          "submissionValue": "MRT",
          "synonyms": [
            "MAURITANIA"
          ]
        },
        {
          "conceptId": "C16876",
          "definition": "A country in the Caribbean, occupying an island in the Caribbean Sea, southeast of Puerto Rico. (NCI)",
          "preferredTerm": "Montserrat",
          "submissionValue": "MSR",
          "synonyms": [
            "MONTSERRAT"
          ]
        },
        {
          "conceptId": "C16823",
          "definition": "An island in the Caribbean Sea, north of Trinidad and Tobago. (NCI)",
          "preferredTerm": "Martinique",
          "submissionValue": "MTQ",
          "synonyms": [
            "MARTINIQUE"
          ]
        },
        {
          "conceptId": "C16827",
          "definition": "A country in Southern Africa, occupying an island in the Indian Ocean, east of Madagascar. (NCI)",
          "preferredTerm": "Mauritius",
          "submissionValue": "MUS",
          "synonyms": [
            "MAURITIUS"
          ]
        },
        {
          "conceptId": "C16813",
          "definition": "A country in Southern Africa, east of Zambia. (NCI)",
          "preferredTerm": "Malawi",
          "submissionValue": "MWI",
          "synonyms": [
            "MALAWI"
          ]
        },
        {
          "conceptId": "C16814",
          "definition": "A country in Southeastern Asia, occupying a peninsula and the northern one-third of the island of Borneo, bordering Indonesia and the South China Sea, south of Vietnam. (NCI)",
          "preferredTerm": "Malaysia",
          "submissionValue": "MYS",
          "synonyms": [
            "MALAYSIA"
          ]
        },
        {
          "conceptId": "C16828",
          "definition": "A country in Southern Africa, occupying an island in the Mozambique Channel, about one-half of the way from northern Madagascar to northern Mozambique. (NCI)",
          "preferredTerm": "Mayotte",
          "submissionValue": "MYT",
          "synonyms": [
            "MAYOTTE"
          ]
        },
        {
          "conceptId": "C16891",
          "definition": "A country in Southern Africa, bordering the South Atlantic Ocean, between Angola and South Africa. (NCI)",
          "preferredTerm": "Namibia",
          "submissionValue": "NAM",
          "synonyms": [
            "NAMIBIA"
          ]
        },
        {
          "conceptId": "C16913",
          "definition": "A country in the Pacific, comprised of islands in the South Pacific Ocean, east of Australia. (NCI)",
          "preferredTerm": "New Caledonia",
          "submissionValue": "NCL",
          "synonyms": [
            "NEW CALEDONIA"
          ]
        },
        {
          "conceptId": "C16916",
          "definition": "A country in Western Africa, southeast of Algeria. (NCI)",
          "preferredTerm": "Niger",
          "submissionValue": "NER",
          "synonyms": [
            "NIGER"
          ]
        },
        {
          "conceptId": "C16919",
          "definition": "A country in the Pacific, occupying an island in the South Pacific Ocean, east of Australia. (NCI)",
          "preferredTerm": "Norfolk Island",
          "submissionValue": "NFK",
          "synonyms": [
            "NORFOLK ISLAND"
          ]
        },
        {
          "conceptId": "C16917",
          "definition": "A country in Western Africa, bordering the Gulf of Guinea, between Benin and Cameroon. (NCI)",
          "preferredTerm": "Nigeria",
          "submissionValue": "NGA",
          "synonyms": [
            "NIGERIA"
          ]
        },
        {
          "conceptId": "C16915",
          "definition": "A country in Central America, bordering both the Caribbean Sea and the North Pacific Ocean, between Costa Rica and Honduras. (NCI)",
          "preferredTerm": "Nicaragua",
          "submissionValue": "NIC",
          "synonyms": [
            "NICARAGUA"
          ]
        },
        {
          "conceptId": "C16918",
          "definition": "A country in the Pacific, occupying an island in the South Pacific Ocean, east of Tonga. (NCI)",
          "preferredTerm": "Niue",
          "submissionValue": "NIU",
          "synonyms": [
            "NIUE"
          ]
        },
        {
          "conceptId": "C16903",
          "definition": "A country in Western Europe, bordering the North Sea, between Belgium and Germany. (NCI)",
          "preferredTerm": "Netherlands",
          "submissionValue": "NLD",
          "synonyms": [
            "NETHERLANDS"
          ]
        },
        {
          "conceptId": "C16920",
          "definition": "A country in Northern Europe, bordering the North Sea and the North Atlantic Ocean, west of Sweden. (NCI)",
          "preferredTerm": "Norway",
          "submissionValue": "NOR",
          "synonyms": [
            "NORWAY"
          ]
        },
        {
          "conceptId": "C16901",
          "definition": "A country in Southern Asia, between China and India. (NCI)",
          "preferredTerm": "Nepal",
          "submissionValue": "NPL",
          "synonyms": [
            "NEPAL"
          ]
        },
        {
          "conceptId": "C16896",
          "definition": "A country in Oceania, occupying an island in the South Pacific Ocean, south of the Marshall Islands. (NCI)",
          "preferredTerm": "Nauru",
          "submissionValue": "NRU",
          "synonyms": [
            "NAURU"
          ]
        },
        {
          "conceptId": "C16914",
          "definition": "A country in the Pacific, comprised of islands in the South Pacific Ocean, southeast of Australia. (NCI)",
          "preferredTerm": "New Zealand",
          "submissionValue": "NZL",
          "synonyms": [
            "NEW ZEALAND"
          ]
        },
        {
          "conceptId": "C16933",
          "definition": "A country in the Middle East, bordering the Arabian Sea, Gulf of Oman, and Persian Gulf, between Yemen and the United Arab Emirates. (NCI)",
          "preferredTerm": "Oman",
          "submissionValue": "OMN",
          "synonyms": [
            "OMAN"
          ]
        },
        {
          "conceptId": "C16949",
          "definition": "A country in Southern Asia, bordering the Arabian Sea, between India on the east and Iran and Afghanistan on the west and China in the north. (NCI)",
          "preferredTerm": "Pakistan",
          "submissionValue": "PAK",
          "synonyms": [
            "PAKISTAN"
          ]
        },
        {
          "conceptId": "C16951",
          "definition": "A country in Central America, bordering both the Caribbean Sea and the North Pacific Ocean, between Colombia and Costa Rica. (NCI)",
          "preferredTerm": "Panama",
          "submissionValue": "PAN",
          "synonyms": [
            "PANAMA"
          ]
        },
        {
          "conceptId": "C16993",
          "definition": "A country in the Pacific, comprised of islands in the South Pacific Ocean, about midway between Peru and New Zealand. (NCI)",
          "preferredTerm": "Pitcairn",
          "submissionValue": "PCN",
          "synonyms": [
            "PITCAIRN"
          ]
        },
        {
          "conceptId": "C16972",
          "definition": "A country in Western South America, bordering the South Pacific Ocean, between Chile and Ecuador. (NCI)",
          "preferredTerm": "Peru",
          "submissionValue": "PER",
          "synonyms": [
            "PERU"
          ]
        },
        {
          "conceptId": "C16978",
          "definition": "A country in Southeastern Asia, comprised of an archipelago between the Philippine Sea and the South China Sea, east of Vietnam. (NCI)",
          "preferredTerm": "Philippines",
          "submissionValue": "PHL",
          "synonyms": [
            "PHILIPPINES"
          ]
        },
        {
          "conceptId": "C17733",
          "definition": "A country in the Pacific, comprising a group of islands in the North Pacific Ocean, southeast of the Philippines. (NCI)",
          "preferredTerm": "Palau",
          "submissionValue": "PLW",
          "synonyms": [
            "PALAU"
          ]
        },
        {
          "conceptId": "C16952",
          "definition": "A country in Southeastern Asia, comprising a group of islands and including the eastern half of the island of New Guinea, between the Coral Sea and the South Pacific Ocean, east of Indonesia. (NCI)",
          "preferredTerm": "Papua New Guinea",
          "submissionValue": "PNG",
          "synonyms": [
            "PAPUA NEW GUINEA"
          ]
        },
        {
          "conceptId": "C17002",
          "definition": "A country in Central Europe, east of Germany. (NCI)",
          "preferredTerm": "Poland",
          "submissionValue": "POL",
          "synonyms": [
            "POLAND"
          ]
        },
        {
          "conceptId": "C17043",
          "definition": "An island between the Caribbean Sea and the North Atlantic Ocean, east of the Dominican Republic. (NCI)",
          "preferredTerm": "Puerto Rico",
          "submissionValue": "PRI",
          "synonyms": [
            "PUERTO RICO"
          ]
        },
        {
          "conceptId": "C16773",
          "definition": "A country in Eastern Asia, occupying the northern half of the Korean Peninsula, bordering the Korea Bay and the Sea of Japan, between China and South Korea. (NCI)",
          "preferredTerm": "Korea, Democratic People's Republic of",
          "submissionValue": "PRK",
          "synonyms": [
            "NORTH KOREA"
          ]
        },
        {
          "conceptId": "C17006",
          "definition": "A country in Southwestern Europe, bordering the North Atlantic Ocean, west of Spain. (NCI)",
          "preferredTerm": "Portugal",
          "submissionValue": "PRT",
          "synonyms": [
            "PORTUGAL"
          ]
        },
        {
          "conceptId": "C16953",
          "definition": "A country in Central South America, northeast of Argentina. (NCI)",
          "preferredTerm": "Paraguay",
          "submissionValue": "PRY",
          "synonyms": [
            "PARAGUAY"
          ]
        },
        {
          "conceptId": "C20110",
          "definition": "A collective name for the West Bank and the Gaza Strip, two territories in Palestine. (NCI)",
          "preferredTerm": "Palestinian Territory, Occupied",
          "submissionValue": "PSE",
          "synonyms": [
            "PALESTINIAN TERRITORY, OCCUPIED"
          ]
        },
        {
          "conceptId": "C16594",
          "definition": "An archipelago in the South Pacific Ocean, about one-half of the way from South America to Australia. (NCI)",
          "preferredTerm": "French Polynesia",
          "submissionValue": "PYF",
          "synonyms": [
            "FRENCH POLYNESIA"
          ]
        },
        {
          "conceptId": "C17045",
          "definition": "A country in the Middle East, occupying a peninsula bordering the Persian Gulf and Saudi Arabia. (NCI)",
          "preferredTerm": "Qatar",
          "submissionValue": "QAT",
          "synonyms": [
            "QATAR"
          ]
        },
        {
          "conceptId": "C17095",
          "definition": "A country in Southern Africa, occupying an island in the Indian Ocean, east of Madagascar. (NCI)",
          "preferredTerm": "Reunion",
          "submissionValue": "REU",
          "synonyms": [
            "REUNION"
          ]
        },
        {
          "conceptId": "C17108",
          "definition": "A country in Southeastern Europe, bordering the Black Sea, between Bulgaria and Ukraine. (NCI)",
          "preferredTerm": "Romania",
          "submissionValue": "ROU",
          "synonyms": [
            "ROMANIA"
          ]
        },
        {
          "conceptId": "C17111",
          "definition": "A country in Northern Asia (that part west of the Urals is sometimes included with Europe), bordering the Arctic Ocean, between Europe and the North Pacific Ocean. (NCI)",
          "preferredTerm": "Russian Federation",
          "submissionValue": "RUS",
          "synonyms": [
            "RUSSIAN FEDERATION"
          ]
        },
        {
          "conceptId": "C17112",
          "definition": "A country in Central Africa, east of Democratic Republic of the Congo. (NCI)",
          "preferredTerm": "Rwanda",
          "submissionValue": "RWA",
          "synonyms": [
            "RWANDA"
          ]
        },
        {
          "conceptId": "C17117",
          "definition": "A country in the Middle East, bordering the Persian Gulf and the Red Sea, north of Yemen. (NCI)",
          "preferredTerm": "Saudi Arabia",
          "submissionValue": "SAU",
          "synonyms": [
            "SAUDI ARABIA"
          ]
        },
        {
          "conceptId": "C17170",
          "definition": "A country in Northern Africa, bordering the Red Sea, between Egypt and Eritrea. (NCI)",
          "preferredTerm": "Sudan",
          "submissionValue": "SDN",
          "synonyms": [
            "SUDAN"
          ]
        },
        {
          "conceptId": "C17121",
          "definition": "A country in Western Africa, bordering the North Atlantic Ocean, between Guinea-Bissau and Mauritania. (NCI)",
          "preferredTerm": "Senegal",
          "submissionValue": "SEN",
          "synonyms": [
            "SENEGAL"
          ]
        },
        {
          "conceptId": "C17134",
          "definition": "A country in Southeastern Asia, comprised of islands between Malaysia and Indonesia. (NCI)",
          "preferredTerm": "Singapore",
          "submissionValue": "SGP",
          "synonyms": [
            "SINGAPORE"
          ]
        },
        {
          "conceptId": "C20111",
          "definition": "A group of islands in the South Atlantic Ocean, east of the tip of South America. (NCI)",
          "preferredTerm": "South Georgia and the South Sandwich Islands",
          "submissionValue": "SGS",
          "synonyms": [
            "SOUTH GEORGIA AND THE SOUTH SANDWICH ISLANDS"
          ]
        },
        {
          "conceptId": "C17164",
          "definition": "Islands in the South Atlantic Ocean, about midway between South America and Africa. (NCI)",
          "preferredTerm": "Saint Helena",
          "submissionValue": "SHN",
          "synonyms": [
            "SAINT HELENA"
          ]
        },
        {
          "conceptId": "C17178",
          "definition": "Islands between the Arctic Ocean, Barents Sea, Greenland Sea, and Norwegian Sea, northeast of Iceland and north of Norway. (NCI)",
          "preferredTerm": "Svalbard and Jan Mayen",
          "submissionValue": "SJM",
          "synonyms": [
            "SVALBARD AND JAN MAYEN"
          ]
        },
        {
          "conceptId": "C17148",
          "definition": "A group of islands in the South Pacific Ocean, east of Papua New Guinea. (NCI)",
          "preferredTerm": "Solomon Islands",
          "submissionValue": "SLB",
          "synonyms": [
            "SOLOMON ISLANDS"
          ]
        },
        {
          "conceptId": "C17130",
          "definition": "A country in Western Africa, bordering the North Atlantic Ocean, between Guinea and Liberia. (NCI)",
          "preferredTerm": "Sierra Leone",
          "submissionValue": "SLE",
          "synonyms": [
            "SIERRA LEONE"
          ]
        },
        {
          "conceptId": "C16532",
          "definition": "A country in Central America, bordering the North Pacific Ocean, between Guatemala and Honduras. (NCI)",
          "preferredTerm": "El Salvador",
          "submissionValue": "SLV",
          "synonyms": [
            "EL SALVADOR"
          ]
        },
        {
          "conceptId": "C17115",
          "definition": "A country in Southern Europe, an enclave in central Italy. (NCI)",
          "preferredTerm": "San Marino",
          "submissionValue": "SMR",
          "synonyms": [
            "SAN MARINO"
          ]
        },
        {
          "conceptId": "C17149",
          "definition": "A country in Eastern Africa, bordering the Gulf of Aden and the Indian Ocean, east of Ethiopia. (NCI)",
          "preferredTerm": "Somalia",
          "submissionValue": "SOM",
          "synonyms": [
            "SOMALIA"
          ]
        },
        {
          "conceptId": "C17165",
          "definition": "A country in Northern North America, comprised of islands in the North Atlantic Ocean, south of Newfoundland (Canada). (NCI)",
          "preferredTerm": "Saint Pierre and Miquelon",
          "submissionValue": "SPM",
          "synonyms": [
            "SAINT PIERRE AND MIQUELON"
          ]
        },
        {
          "conceptId": "C64377",
          "definition": "A republic in Southeastern Europe, bordering the Adriatic Sea, between Albania and Bosnia and Herzegovina. Formerly part of Serbia and Montenegro (Federation Republic of Yugoslavia). (NCI)",
          "preferredTerm": "Serbia",
          "submissionValue": "SRB",
          "synonyms": [
            "SERBIA"
          ]
        },
        {
          "conceptId": "C17116",
          "definition": "A country in Western Africa, comprised of islands in the Gulf of Guinea, straddling the Equator, west of Gabon. (NCI)",
          "preferredTerm": "Sao Tome and Principe",
          "submissionValue": "STP",
          "synonyms": [
            "SAO TOME AND PRINCIPE"
          ]
        },
        {
          "conceptId": "C17175",
          "definition": "A country in Northern South America, bordering the North Atlantic Ocean, between French Guiana and Guyana. (NCI)",
          "preferredTerm": "Suriname",
          "submissionValue": "SUR",
          "synonyms": [
            "SURINAME"
          ]
        },
        {
          "conceptId": "C17669",
          "definition": "A country in Central Europe, south of Poland. (NCI)",
          "preferredTerm": "Slovakia",
          "submissionValue": "SVK",
          "synonyms": [
            "SLOVAKIA"
          ]
        },
        {
          "conceptId": "C17138",
          "definition": "A country in Central Europe, bordering the Adriatic Sea, between Austria and Croatia. (NCI)",
          "preferredTerm": "Slovenia",
          "submissionValue": "SVN",
          "synonyms": [
            "SLOVENIA"
          ]
        },
        {
          "conceptId": "C17180",
          "definition": "A country in Northern Europe, bordering the Baltic Sea, Gulf of Bothnia, Kattegat, and Skagerrak, between Finland and Norway. (NCI)",
          "preferredTerm": "Sweden",
          "submissionValue": "SWE",
          "synonyms": [
            "SWEDEN"
          ]
        },
        {
          "conceptId": "C17179",
          "definition": "A country in Southern Africa, between Mozambique and South Africa. (NCI)",
          "preferredTerm": "Swaziland",
          "submissionValue": "SWZ",
          "synonyms": [
            "SWAZILAND"
          ]
        },
        {
          "conceptId": "C17129",
          "definition": "A country in Eastern Africa, comprised of a group of islands in the Indian Ocean, northeast of Madagascar. (NCI)",
          "preferredTerm": "Seychelles",
          "submissionValue": "SYC",
          "synonyms": [
            "SEYCHELLES"
          ]
        },
        {
          "conceptId": "C17182",
          "definition": "A country in the Middle East, bordering the Mediterranean Sea, between Lebanon and Turkey. (NCI)",
          "preferredTerm": "Syrian Arab Republic",
          "submissionValue": "SYR",
          "synonyms": [
            "SYRIAN ARAB REPUBLIC"
          ]
        },
        {
          "conceptId": "C17224",
          "definition": "Two island groups in the North Atlantic Ocean, southeast of The Bahamas. (NCI)",
          "preferredTerm": "Turks and Caicos Islands",
          "submissionValue": "TCA",
          "synonyms": [
            "TURKS AND CAICOS ISLANDS"
          ]
        },
        {
          "conceptId": "C16412",
          "definition": "A country in Central Africa, south of Libya. (NCI)",
          "preferredTerm": "Chad",
          "submissionValue": "TCD",
          "synonyms": [
            "CHAD"
          ]
        },
        {
          "conceptId": "C17202",
          "definition": "A country in Western Africa, bordering the Bight of Benin, between Benin and Ghana. (NCI)",
          "preferredTerm": "Togo",
          "submissionValue": "TGO",
          "synonyms": [
            "TOGO"
          ]
        },
        {
          "conceptId": "C17192",
          "definition": "A country in Southeastern Asia, bordering the Andaman Sea and the Gulf of Thailand, southeast of Burma. (NCI)",
          "preferredTerm": "Thailand",
          "submissionValue": "THA",
          "synonyms": [
            "THAILAND"
          ]
        },
        {
          "conceptId": "C17183",
          "definition": "A country in Central Asia, west of China. (NCI)",
          "preferredTerm": "Tajikistan",
          "submissionValue": "TJK",
          "synonyms": [
            "TAJIKISTAN"
          ]
        },
        {
          "conceptId": "C17704",
          "definition": "A group of three atolls in the South Pacific Ocean, about one-half of the way from Hawaii to New Zealand. (NCI)",
          "preferredTerm": "Tokelau",
          "submissionValue": "TKL",
          "synonyms": [
            "TOKELAU"
          ]
        },
        {
          "conceptId": "C17223",
          "definition": "A country in Central Asia, bordering the Caspian Sea, between Iran and Kazakhstan. (NCI)",
          "preferredTerm": "Turkmenistan",
          "submissionValue": "TKM",
          "synonyms": [
            "TURKMENISTAN"
          ]
        },
        {
          "conceptId": "C17200",
          "definition": "A country in Southeastern Asia, northwest of Australia in the Lesser Sunda Islands at the eastern end of the Indonesian archipelago. East Timor includes the eastern half of the island of Timor, the Oecussi (Ambeno) region on the northwest portion of the island of Timor, and the islands of Pulau Atauro and Pulau Jaco. (NCI)",
          "preferredTerm": "Timor-Leste",
          "submissionValue": "TLS",
          "synonyms": [
            "TIMOR-LESTE"
          ]
        },
        {
          "conceptId": "C17205",
          "definition": "An archipelago in the South Pacific Ocean, about two-thirds of the way from Hawaii to New Zealand. (NCI)",
          "preferredTerm": "Tonga",
          "submissionValue": "TON",
          "synonyms": [
            "TONGA"
          ]
        },
        {
          "conceptId": "C17217",
          "definition": "Islands between the Caribbean Sea and the North Atlantic Ocean, northeast of Venezuela. (NCI)",
          "preferredTerm": "Trinidad and Tobago",
          "submissionValue": "TTO",
          "synonyms": [
            "TRINIDAD AND TOBAGO"
          ]
        },
        {
          "conceptId": "C17221",
          "definition": "A country in Northern Africa, bordering the Mediterranean Sea, between Algeria and Libya. (NCI)",
          "preferredTerm": "Tunisia",
          "submissionValue": "TUN",
          "synonyms": [
            "TUNISIA"
          ]
        },
        {
          "conceptId": "C17222",
          "definition": "A country in southeastern Europe and southwestern Asia (that portion of Turkey west of the Bosporus is geographically part of Europe), bordering the Black Sea, between Bulgaria and Georgia, and bordering the Aegean Sea and the Mediterranean Sea, between Greece and Syria. (NCI)",
          "preferredTerm": "Turkey",
          "submissionValue": "TUR",
          "synonyms": [
            "TURKEY"
          ]
        },
        {
          "conceptId": "C17225",
          "definition": "An island group consisting of nine coral atolls in the South Pacific Ocean, about one-half of the way from Hawaii to Australia. (NCI)",
          "preferredTerm": "Tuvalu",
          "submissionValue": "TUV",
          "synonyms": [
            "TUVALU"
          ]
        },
        {
          "conceptId": "C17184",
          "definition": "A group of islands bordering the East China Sea, Philippine Sea, South China Sea, and Taiwan Strait, north of the Philippines, off the southeastern coast of China. (NCI)",
          "preferredTerm": "Taiwan, Province of China",
          "submissionValue": "TWN",
          "synonyms": [
            "TAIWAN"
          ]
        },
        {
          "conceptId": "C17185",
          "definition": "A country in Eastern Africa, bordering the Indian Ocean, between Kenya and Mozambique. (NCI)",
          "preferredTerm": "Tanzania, United Republic of",
          "submissionValue": "TZA",
          "synonyms": [
            "TANZANIA, UNITED REPUBLIC OF"
          ]
        },
        {
          "conceptId": "C17228",
          "definition": "A country in Eastern Africa, west of Kenya. (NCI)",
          "preferredTerm": "Uganda",
          "submissionValue": "UGA",
          "synonyms": [
            "UGANDA"
          ]
        },
        {
          "conceptId": "C17229",
          "definition": "A country in Eastern Europe, bordering the Black Sea, between Poland and Russia. (NCI)",
          "preferredTerm": "Ukraine",
          "submissionValue": "UKR",
          "synonyms": [
            "UKRAINE"
          ]
        },
        {
          "conceptId": "C20112",
          "definition": "The U.S. Minor Outlying Islands consist of Baker Island, Howland Island, Jarvis Island, Johnston Atoll, Kingman Reef, Midway Island, Navassa Island, Palmyra Atoll, and Wake Island (Wake Atoll). (NCI)",
          "preferredTerm": "United States Minor Outlying Islands",
          "submissionValue": "UMI",
          "synonyms": [
            "UNITED STATES MINOR OUTLYING ISLANDS"
          ]
        },
        {
          "conceptId": "C17244",
          "definition": "A country in Southern South America, bordering the South Atlantic Ocean, between Argentina and Brazil. (NCI)",
          "preferredTerm": "Uruguay",
          "submissionValue": "URY",
          "synonyms": [
            "URUGUAY"
          ]
        },
        {
          "conceptId": "C17234",
          "definition": "A country in North America, bordering both the North Atlantic Ocean and the North Pacific Ocean, between Canada and Mexico. (NCI)",
          "preferredTerm": "United States",
          "submissionValue": "USA",
          "synonyms": [
            "UNITED STATES"
          ]
        },
        {
          "conceptId": "C17246",
          "definition": "A country in Central Asia, north of Afghanistan. (NCI)",
          "preferredTerm": "Uzbekistan",
          "submissionValue": "UZB",
          "synonyms": [
            "UZBEKISTAN"
          ]
        },
        {
          "conceptId": "C17249",
          "definition": "An enclave of Rome (Italy). (NCI)",
          "preferredTerm": "Holy See (Vatican City State)",
          "submissionValue": "VAT",
          "synonyms": [
            "VATICAN CITY STATE"
          ]
        },
        {
          "conceptId": "C17114",
          "definition": "A country in the Caribbean, comprised of islands in the Caribbean Sea, north of Trinidad and Tobago. (NCI)",
          "preferredTerm": "Saint Vincent and the Grenadines",
          "submissionValue": "VCT",
          "synonyms": [
            "SAINT VINCENT AND THE GRENADINES"
          ]
        },
        {
          "conceptId": "C17250",
          "definition": "A country in Northern South America, bordering the Caribbean Sea and the North Atlantic Ocean, between Colombia and Guyana. (NCI)",
          "preferredTerm": "Venezuela",
          "submissionValue": "VEN",
          "synonyms": [
            "VENEZUELA"
          ]
        },
        {
          "conceptId": "C17653",
          "definition": "Islands between the Caribbean Sea and the North Atlantic Ocean, east of Puerto Rico. (NCI)",
          "preferredTerm": "Virgin Islands, British",
          "submissionValue": "VGB",
          "synonyms": [
            "VIRGIN ISLANDS, BRITISH"
          ]
        },
        {
          "conceptId": "C17255",
          "definition": "Islands between the Caribbean Sea and the North Atlantic Ocean, east of Puerto Rico. (NCI)",
          "preferredTerm": "Virgin Islands, U.S.",
          "submissionValue": "VIR",
          "synonyms": [
            "VIRGIN ISLANDS, U.S."
          ]
        },
        {
          "conceptId": "C17252",
          "definition": "A country in Southeastern Asia, bordering the Gulf of Thailand, Gulf of Tonkin, and South China Sea, alongside China, Laos, and Cambodia. (NCI)",
          "preferredTerm": "Viet Nam",
          "submissionValue": "VNM",
          "synonyms": [
            "VIETNAM"
          ]
        },
        {
          "conceptId": "C17247",
          "definition": "A group of islands in the South Pacific Ocean, about three-quarters of the way from Hawaii to Australia. (NCI)",
          "preferredTerm": "Vanuatu",
          "submissionValue": "VUT",
          "synonyms": [
            "VANUATU"
          ]
        },
        {
          "conceptId": "C17259",
          "definition": "Islands in the South Pacific Ocean, about two-thirds of the way from Hawaii to New Zealand. (NCI)",
          "preferredTerm": "Wallis and Futuna",
          "submissionValue": "WLF",
          "synonyms": [
            "WALLIS AND FUTUNA"
          ]
        },
        {
          "conceptId": "C17740",
          "definition": "A group of islands in the South Pacific Ocean, about one-half of the way from Hawaii to New Zealand. (NCI)",
          "preferredTerm": "Samoa",
          "submissionValue": "WSM",
          "synonyms": [
            "SAMOA"
          ]
        },
        {
          "conceptId": "C17264",
          "definition": "A country in the Middle East, bordering the Arabian Sea, Gulf of Aden, and Red Sea, between Oman and Saudi Arabia. (NCI)",
          "preferredTerm": "Yemen",
          "submissionValue": "YEM",
          "synonyms": [
            "YEMEN"
          ]
        },
        {
          "conceptId": "C17151",
          "definition": "A country in Southern Africa, at the southern tip of the continent of Africa. (NCI)",
          "preferredTerm": "South Africa",
          "submissionValue": "ZAF",
          "synonyms": [
            "SOUTH AFRICA"
          ]
        },
        {
          "conceptId": "C17267",
          "definition": "A country in Southern Africa, east of Angola. (NCI)",
          "preferredTerm": "Zambia",
          "submissionValue": "ZMB",
          "synonyms": [
            "ZAMBIA"
          ]
        },
        {
          "conceptId": "C17268",
          "definition": "A country in Southern Africa, between South Africa and Zambia. (NCI)",
          "preferredTerm": "Zimbabwe",
          "submissionValue": "ZWE",
          "synonyms": [
            "ZIMBABWE"
          ]
        }
      ]
    },
    {
      "conceptId": "C89966",
      "definition": "Terminology for the test codes concerned with the circumstance or condition that results in the death of a living being.",
      "extensible": "Yes",
      "name": "Death Diagnosis Test Code",
      "preferredTerm": "CDISC SEND Death Diagnosis Test Code Terminology",
      "submissionValue": "DDTESTCD",
      "synonyms": [
        "Death Diagnosis Test Code"
      ],
      "terms": [
        {
          "conceptId": "C81239",
          "definition": "The circumstance or condition that results in the death of a living being. (NCI)",
          "preferredTerm": "Cause of Death",
          "submissionValue": "DEATHD",
          "synonyms": [
            "Death Diagnosis"
          ]
        }
      ]
    },
    {
      "conceptId": "C89965",
      "definition": "Terminology for the test names concerned with the circumstance or condition that results in the death of a living being.",
      "extensible": "Yes",
      "name": "Death Diagnosis Test Name",
      "preferredTerm": "CDISC SEND Death Diagnosis Test Name Terminology",
      "submissionValue": "DDTEST",
      "synonyms": [
        "Death Diagnosis Test Name"
      ],
      "terms": [
        {
          "conceptId": "C81239",
          "definition": "The circumstance or condition that results in the death of a living being. (NCI)",
          "preferredTerm": "Cause of Death",
          "submissionValue": "Death Diagnosis",
          "synonyms": [
            "Death Diagnosis"
          ]
        }
      ]
    },
    {
      "conceptId": "C99074",
      "definition": "CDISC terminology for anatomical location or specimen further detailing directionality.",
      "extensible": "Yes",
      "name": "Directionality",
      "preferredTerm": "CDISC SDTM Directionality Terminology",
      "submissionValue": "DIR",
      "synonyms": [
        "Directionality"
      ],
      "terms": [
        {
          "conceptId": "C25231",
          "definition": "Denoting the front portion of the body or a structure.",
          "preferredTerm": "Anterior",
          "submissionValue": "ANTERIOR",
          "synonyms": []
        },
        {
          "conceptId": "C25423",
          "definition": "Relating to or located at the apex.",
          "preferredTerm": "Apical",
          "submissionValue": "APICAL",
          "synonyms": []
        },
        {
          "conceptId": "C90067",
          "definition": "Relating to or located at the lowest portion of a structure.",
          "preferredTerm": "Basal",
          "submissionValue": "BASAL",
          "synonyms": []
        },
        {
          "conceptId": "C73851",
          "definition": "Toward the tail in a body.",
          "preferredTerm": "Caudal",
          "submissionValue": "CAUDAL",
          "synonyms": []
        },
        {
          "conceptId": "C25445",
          "definition": "A point or area that is approximately central within some larger region or structure. (NCI)",
          "preferredTerm": "Center",
          "submissionValue": "CENTRAL",
          "synonyms": []
        },
        {
          "conceptId": "C37936",
          "definition": "Toward the head in a body.",
          "preferredTerm": "Cranial",
          "submissionValue": "CRANIAL",
          "synonyms": []
        },
        {
          "conceptId": "C25240",
          "definition": "Extending relatively far inward. (NCI)",
          "preferredTerm": "Deep",
          "submissionValue": "DEEP",
          "synonyms": []
        },
        {
          "conceptId": "C25237",
          "definition": "Situated farthest from a point of reference.",
          "preferredTerm": "Distal",
          "submissionValue": "DISTAL",
          "synonyms": []
        },
        {
          "conceptId": "C45874",
          "definition": "Pertaining to the back or upper surface of the body.",
          "preferredTerm": "Dorsal",
          "submissionValue": "DORSAL",
          "synonyms": []
        },
        {
          "conceptId": "C90376",
          "definition": "Toward the back and side of a body.",
          "preferredTerm": "Dorsolateral",
          "submissionValue": "DORSOLATERAL",
          "synonyms": []
        },
        {
          "conceptId": "C90386",
          "definition": "Of or involving the front of a main body. (NCI)",
          "preferredTerm": "Fore",
          "submissionValue": "FORE",
          "synonyms": []
        },
        {
          "conceptId": "C90393",
          "definition": "Of or involving the back of a main body. (NCI)",
          "preferredTerm": "Hind",
          "submissionValue": "HIND",
          "synonyms": []
        },
        {
          "conceptId": "C25353",
          "definition": "Pertaining to a point below a given reference point.",
          "preferredTerm": "Inferior",
          "submissionValue": "INFERIOR",
          "synonyms": []
        },
        {
          "conceptId": "C37980",
          "definition": "Inside or closer to the inside of the body or object. (NCI)",
          "preferredTerm": "Inner",
          "submissionValue": "INNER",
          "synonyms": []
        },
        {
          "conceptId": "C73705",
          "definition": "Located between two points or extremes.",
          "preferredTerm": "Intermediate",
          "submissionValue": "INTERMEDIATE",
          "synonyms": []
        },
        {
          "conceptId": "C25309",
          "definition": "The bottom one of two. (NCI)",
          "preferredTerm": "Lower",
          "submissionValue": "LOWER",
          "synonyms": []
        },
        {
          "conceptId": "C25232",
          "definition": "Toward the middle or in a limb toward the median plane.",
          "preferredTerm": "Medial",
          "submissionValue": "MEDIAL",
          "synonyms": []
        },
        {
          "conceptId": "C38166",
          "definition": "Being on or toward the outside of the body or object. (NCI)",
          "preferredTerm": "Outer",
          "submissionValue": "OUTER",
          "synonyms": []
        },
        {
          "conceptId": "C25233",
          "definition": "On or near an edge or constituting an outer boundary; the outer area. (NCI)",
          "preferredTerm": "Peripheral",
          "submissionValue": "PERIPHERAL",
          "synonyms": []
        },
        {
          "conceptId": "C25622",
          "definition": "Denoting the back portion of the body or a structure.",
          "preferredTerm": "Posterior",
          "submissionValue": "POSTERIOR",
          "synonyms": []
        },
        {
          "conceptId": "C25236",
          "definition": "Situated nearest to a point of reference.",
          "preferredTerm": "Proximal",
          "submissionValue": "PROXIMAL",
          "synonyms": []
        },
        {
          "conceptId": "C94393",
          "definition": "Toward the muzzle in the head.",
          "preferredTerm": "Rostral",
          "submissionValue": "ROSTRAL",
          "synonyms": []
        },
        {
          "conceptId": "C25239",
          "definition": "Of or pertaining to the exterior surface. (NCI)",
          "preferredTerm": "Superficial",
          "submissionValue": "SUPERFICIAL",
          "synonyms": []
        },
        {
          "conceptId": "C25235",
          "definition": "Pertaining to a point above a given reference point.",
          "preferredTerm": "Superior",
          "submissionValue": "SUPERIOR",
          "synonyms": []
        },
        {
          "conceptId": "C25245",
          "definition": "The extended two-dimensional outer layer or area of a three-dimensional object. (NCI)",
          "preferredTerm": "Surface",
          "submissionValue": "SURFACE",
          "synonyms": []
        },
        {
          "conceptId": "C90069",
          "definition": "The pointed end of a structure.",
          "preferredTerm": "Tip",
          "submissionValue": "TIP",
          "synonyms": []
        },
        {
          "conceptId": "C25355",
          "definition": "The top one of two.",
          "preferredTerm": "Upper",
          "submissionValue": "UPPER",
          "synonyms": []
        },
        {
          "conceptId": "C45875",
          "definition": "Pertaining to the front or lower surface of the body.",
          "preferredTerm": "Ventral",
          "submissionValue": "VENTRAL",
          "synonyms": []
        },
        {
          "conceptId": "C98798",
          "definition": "Of or pertaining to the front and side of a main body. (NCI)",
          "preferredTerm": "Ventrolateral",
          "submissionValue": "VENTROLATERAL",
          "synonyms": []
        }
      ]
    },
    {
      "conceptId": "C66734",
      "definition": "A unique, 2-character domain code used in the regulatory submission process. The domain abbreviation is used consistently throughout the submission, i.e. in the dataset name, as the value of the domain variable within the dataset, and as a prefix for most variable names in the dataset. (CDISC Glossary)",
      "extensible": "Yes",
      "name": "Domain Abbreviation",
      "preferredTerm": "CDISC SDTM Submission Domain Abbreviation Terminology",
      "submissionValue": "DOMAIN",
      "synonyms": [
        "Domain Abbreviation"
      ],
      "terms": [
        {
          "conceptId": "C49563",
          "definition": "Datasets used for statistical analysis and reporting by the sponsor. These are submitted in addition to the data tabulation datasets.",
          "preferredTerm": "Analysis Dataset Domain",
          "submissionValue": "AD",
          "synonyms": [
            "Analysis Dataset"
          ]
        },
        {
          "conceptId": "C49562",
          "definition": "Adverse events may be captured either as free text or a pre-specified list of terms.",
          "preferredTerm": "Adverse Event Domain",
          "submissionValue": "AE",
          "synonyms": [
            "Adverse Events"
          ]
        },
        {
          "conceptId": "C49565",
          "definition": "Additional data about deaths, specific to findings from autopsies.",
          "preferredTerm": "Autopsy Domain",
          "submissionValue": "AU",
          "synonyms": [
            "Autopsy"
          ]
        },
        {
          "conceptId": "C95083",
          "definition": "Body weight gain is the actual difference between two body weight measurements for any given interval for a subject. This is most commonly shown as the difference between two consecutive body weight measurements.",
          "preferredTerm": "Body Weight Gain Domain",
          "submissionValue": "BG",
          "synonyms": [
            "Body Weight Gain"
          ]
        },
        {
          "conceptId": "C95084",
          "definition": "This domain captures behavioral testing measurements on individual subjects.",
          "preferredTerm": "Behavioral Domain",
          "submissionValue": "BH",
          "synonyms": [
            "Behavioral"
          ]
        },
        {
          "conceptId": "C49566",
          "definition": "Findings resulting from evaluations of bone mineral density.",
          "preferredTerm": "Bone Measurements Domain",
          "submissionValue": "BM",
          "synonyms": [
            "Bone Measurements"
          ]
        },
        {
          "conceptId": "C49567",
          "definition": "Findings resulting from biopsies.",
          "preferredTerm": "Biopsy Domain",
          "submissionValue": "BR",
          "synonyms": [
            "Biopsy"
          ]
        },
        {
          "conceptId": "C95085",
          "definition": "This domain captures body weights collected for subjects during the study and at the end of the study (terminal body weights).",
          "preferredTerm": "Body Weight Domain",
          "submissionValue": "BW",
          "synonyms": [
            "Body Weight"
          ]
        },
        {
          "conceptId": "C85441",
          "definition": "A dataset used to capture clinical events of interest that would not be classified as adverse events.",
          "preferredTerm": "Clinical Events Domain",
          "submissionValue": "CE",
          "synonyms": [
            "Clinical Events"
          ]
        },
        {
          "conceptId": "C95086",
          "definition": "This domain captures clinical sign information including ophthalmology, physical examination, and dermal examination collected in life while executing the study.",
          "preferredTerm": "Clinical Observation Domain",
          "submissionValue": "CL",
          "synonyms": [
            "Clinical Observation"
          ]
        },
        {
          "conceptId": "C49568",
          "definition": "Case report form (CRF) data that captures the Concomitant and Prior Medications/Therapies used by the subject. Examples are the Concomitant Medications/Therapies given on an as needed basis and the usual Background Medications/Therapies given for a condition.",
          "preferredTerm": "Concomitant Medication Domain",
          "submissionValue": "CM",
          "synonyms": [
            "Concomitant Meds"
          ]
        },
        {
          "conceptId": "C49569",
          "definition": "The Comments dataset accommodates two sources of comments: 1) those collected alongside other data on topical case report form (CRF) pages such as Adverse Events and 2) those collected on a separate page specifically dedicated to comments.",
          "preferredTerm": "Comment Domain",
          "submissionValue": "CO",
          "synonyms": [
            "Comments"
          ]
        },
        {
          "conceptId": "C49578",
          "definition": "Data regarding the accountability of study drug, such as information on the receipt, dispensing, return, and packaging.",
          "preferredTerm": "Drug Accountability Domain",
          "submissionValue": "DA",
          "synonyms": [
            "Drug Accountability"
          ]
        },
        {
          "conceptId": "C49570",
          "definition": "Data related to the characteristics of a specific disease state under study for a subject.",
          "preferredTerm": "Disease Characteristics Domain",
          "submissionValue": "DC",
          "synonyms": [
            "Disease Characteristics"
          ]
        },
        {
          "conceptId": "C95087",
          "definition": "This domain captures the diagnosis of the cause of death for a subject.",
          "preferredTerm": "Death Diagnosis Domain",
          "submissionValue": "DD",
          "synonyms": [
            "Death Diagnosis"
          ]
        },
        {
          "conceptId": "C49572",
          "definition": "The Demographics domain includes a set of essential standard variables that describe each subject in a clinical study. It is the parent domain for all other observations for human clinical subjects",
          "preferredTerm": "Demographics Domain",
          "submissionValue": "DM",
          "synonyms": [
            "Demographics"
          ]
        },
        {
          "conceptId": "C95088",
          "definition": "This domain captures the outcome of developmental milestone testing during a scheduled period of observation.",
          "preferredTerm": "Developmental Milestone Domain",
          "submissionValue": "DP",
          "synonyms": [
            "Developmental Milestone"
          ]
        },
        {
          "conceptId": "C49576",
          "definition": "A subject domain utilized for the submission of information encompassing and representing data, vocabulary or records related to disposition. (NCI)",
          "preferredTerm": "Disposition Domain",
          "submissionValue": "DS",
          "synonyms": [
            "Disposition"
          ]
        },
        {
          "conceptId": "C49585",
          "definition": "The intent of the domain is to capture protocol violations and deviations during the course of the study and will store only those criteria violation by or deviated from by the subject and not a response to each violation or deviation.",
          "preferredTerm": "Protocol Deviations Domain",
          "submissionValue": "DV",
          "synonyms": [
            "Protocol Deviations"
          ]
        },
        {
          "conceptId": "C49625",
          "definition": "Findings resulting from electroencephalogram (EEG) tests.",
          "preferredTerm": "Electroencephalogram Domain",
          "submissionValue": "EE",
          "synonyms": [
            "Electroencephalogram"
          ]
        },
        {
          "conceptId": "C49626",
          "definition": "Findings related to the collection of ECG data, including position of the subject, method of evaluation, all cycle measurements and all findings from the ECG including an overall interpretation if collected or derived.",
          "preferredTerm": "Electrocardiogram Domain",
          "submissionValue": "EG",
          "synonyms": [
            "Electrocardiogram"
          ]
        },
        {
          "conceptId": "C49587",
          "definition": "The Exposure domain model records the details of a subject's exposure to protocol-specified study treatment. Study treatment may be any intervention that is prospectively defined as a test material within a study, and is typically but not always supplied to the subject.",
          "preferredTerm": "Exposure Domain",
          "submissionValue": "EX",
          "synonyms": [
            "Exposure"
          ]
        },
        {
          "conceptId": "C85442",
          "definition": "A dataset used to capture the findings about an event or intervention that cannot be represented within an event or intervention record or as a supplemental qualifier.",
          "preferredTerm": "Findings About Events or Interventions Domain",
          "submissionValue": "FA",
          "synonyms": [
            "Findings About Events or Interventions"
          ]
        },
        {
          "conceptId": "C95089",
          "definition": "This domain captures test results relative to male and female fertility.",
          "preferredTerm": "Fertility Domain",
          "submissionValue": "FE",
          "synonyms": [
            "Fertility"
          ]
        },
        {
          "conceptId": "C49588",
          "definition": "A subject domain utilized for the submission of information encompassing and representing data, vocabulary or records related to family history. (NCI)",
          "preferredTerm": "Family History Domain",
          "submissionValue": "FH",
          "synonyms": [
            "Family History"
          ]
        },
        {
          "conceptId": "C95090",
          "definition": "This domain captures food/water consumption of animals in the study. The data in this domain is derived data.",
          "preferredTerm": "Food and Water Consumption Domain",
          "submissionValue": "FW",
          "synonyms": [
            "Food And Water"
          ]
        },
        {
          "conceptId": "C95091",
          "definition": "This domain captures observations for fetal and pup morphological examinations.",
          "preferredTerm": "Fetal and Neonatal Developmental Morphology Domain",
          "submissionValue": "FX",
          "synonyms": [
            "Fetal and Neonatal Developmental Morphology"
          ]
        },
        {
          "conceptId": "C49589",
          "definition": "Healthcare resource utilization data such as subject visits to physicians, hospitalizations, and nursing home stays.",
          "preferredTerm": "Healthcare Resource Utilization Domain",
          "submissionValue": "HU",
          "synonyms": [
            "Healthcare Resource Utilization"
          ]
        },
        {
          "conceptId": "C95092",
          "definition": "The Implantation Classification domain provides a record for each implantation identified for the scheduled cesarean section component of a study.",
          "preferredTerm": "Implantation Classification Domain",
          "submissionValue": "IC",
          "synonyms": [
            "Implantation Classification"
          ]
        },
        {
          "conceptId": "C61536",
          "definition": "The intent of the domain model is to only collect those criteria that cause the subject to be in violation of the inclusion/exclusion criteria not a response to each criterion.",
          "preferredTerm": "Inclusion Exclusion Domain",
          "submissionValue": "IE",
          "synonyms": [
            "Inclusion/Exclusion"
          ]
        },
        {
          "conceptId": "C49592",
          "definition": "Laboratory test findings including, but is not limited to hematology, clinical chemistry and urinalysis data. This domain does not include microbiology or pharmacokinetic data, which are stored in separate domains.",
          "preferredTerm": "Laboratory Data Domain",
          "submissionValue": "LB",
          "synonyms": [
            "Laboratory Data"
          ]
        },
        {
          "conceptId": "C95093",
          "definition": "This domain captures litter based results in female animals for cesarean section and/or delivery components of a study, including litter survival during preweaning.",
          "preferredTerm": "Cesarean Section and Delivery Litter Results Domain",
          "submissionValue": "LR",
          "synonyms": [
            "Cesarean Section and Delivery Litter Results"
          ]
        },
        {
          "conceptId": "C95094",
          "definition": "The gross pathology findings recorded at necropsy.",
          "preferredTerm": "Macroscopic Findings Domain",
          "submissionValue": "MA",
          "synonyms": [
            "Macroscopic Findings"
          ]
        },
        {
          "conceptId": "C49602",
          "definition": "Microbiology specimen findings, including gram stain results, and organisms found.",
          "preferredTerm": "Microbiology Specimen Domain",
          "submissionValue": "MB",
          "synonyms": [
            "Microbiology"
          ]
        },
        {
          "conceptId": "C49603",
          "definition": "The medical history dataset includes the subject's prior history at the start of the trial. Examples of subject medical history information could include general medical history, gynecological history, and primary diagnosis.",
          "preferredTerm": "Medical History Domain",
          "submissionValue": "MH",
          "synonyms": [
            "Medical History"
          ]
        },
        {
          "conceptId": "C95095",
          "definition": "The histopathology findings and microscopic evaluations recorded.",
          "preferredTerm": "Microscopic Findings Domain",
          "submissionValue": "MI",
          "synonyms": [
            "Microscopic Findings"
          ]
        },
        {
          "conceptId": "C49604",
          "definition": "Information regarding the subject's meal consumption, such as fluid intake, amounts, form (solid or liquid state), frequency, etc., typically used for pharmacokinetic analysis.",
          "preferredTerm": "Meal Data Domain",
          "submissionValue": "ML",
          "synonyms": [
            "Meal Data"
          ]
        },
        {
          "conceptId": "C61531",
          "definition": "This includes microbiology susceptibility test results, plus results of any other organism-related tests.",
          "preferredTerm": "Microbiology Susceptibility Domain",
          "submissionValue": "MS",
          "synonyms": [
            "Microbiology Susceptibility"
          ]
        },
        {
          "conceptId": "C49605",
          "definition": "Findings from organ measurement evaluations.",
          "preferredTerm": "Organ Measurement Domain",
          "submissionValue": "OM",
          "synonyms": [
            "Organ Measurements"
          ]
        },
        {
          "conceptId": "C49606",
          "definition": "Concentrations of drugs/metabolites in fluids or tissues as a function of time.",
          "preferredTerm": "Pharmacokinetic Concentration Domain",
          "submissionValue": "PC",
          "synonyms": [
            "Pharmacokinetic Concentration"
          ]
        },
        {
          "conceptId": "C49608",
          "definition": "Findings collected during a physical examination of the subject. It has findings that are discovered that are related to body systems. Does not include vital signs measurements, which are stored in the vital signs domain.",
          "preferredTerm": "Physical Exam Domain",
          "submissionValue": "PE",
          "synonyms": [
            "Physical Exam"
          ]
        },
        {
          "conceptId": "C61529",
          "definition": "Pharmacogenomics findings that initially focus on genotype and gene expression data.",
          "preferredTerm": "Pharmacogenomics Domain",
          "submissionValue": "PG",
          "synonyms": [
            "Pharmacogenomics"
          ]
        },
        {
          "conceptId": "C95097",
          "definition": "This domain captures information of any palpable masses examined during the experimental phase.",
          "preferredTerm": "Palpable Masses Domain",
          "submissionValue": "PM",
          "synonyms": [
            "Palpable Masses"
          ]
        },
        {
          "conceptId": "C49607",
          "definition": "Pharmacokinetic parameters derived from pharmacokinetic concentration-time (PC) data.",
          "preferredTerm": "Pharmacokinetic Parameters Domain",
          "submissionValue": "PP",
          "synonyms": [
            "Pharmacokinetic Parameters"
          ]
        },
        {
          "conceptId": "C49609",
          "definition": "Questionnaire data may include, but are not limited to the following: subject reported outcomes, validated or non-validated questionnaires, and validated or non-validated diaries (i.e. data with a common topicality).",
          "preferredTerm": "Questionnaire Domain",
          "submissionValue": "QS",
          "synonyms": [
            "Questionnaires"
          ]
        },
        {
          "conceptId": "C49610",
          "definition": "The subject characteristics domain is for data not collected in other domains that is subject-related.",
          "preferredTerm": "Subject Characteristics Domain",
          "submissionValue": "SC",
          "synonyms": [
            "Subject Characteristics"
          ]
        },
        {
          "conceptId": "C49616",
          "definition": "The subject element table describes the actual order of elements followed by the subject, together with the start date/time and end date/time for each element.",
          "preferredTerm": "Subject Element Domain",
          "submissionValue": "SE",
          "synonyms": [
            "Subject Element"
          ]
        },
        {
          "conceptId": "C49611",
          "definition": "Surgical information.",
          "preferredTerm": "Surgery Domain",
          "submissionValue": "SG",
          "synonyms": [
            "Surgery"
          ]
        },
        {
          "conceptId": "C95099",
          "definition": "The Subject Stages domain captures subject level non-treatment related blocks of time known as stages, such as Gestation, Lactation and Premating.",
          "preferredTerm": "Subject Stages Domain",
          "submissionValue": "SJ",
          "synonyms": [
            "Subject Stages"
          ]
        },
        {
          "conceptId": "C49612",
          "definition": "Findings from diagnostic skin tests.",
          "preferredTerm": "Skin Test Domain",
          "submissionValue": "SK",
          "synonyms": [
            "Skin Test"
          ]
        },
        {
          "conceptId": "C49613",
          "definition": "Findings from diagnostic sleep tests (polysomnography).",
          "preferredTerm": "Sleep Polysomnography Domain",
          "submissionValue": "SL",
          "synonyms": [
            "Sleep Polysomnography Data"
          ]
        },
        {
          "conceptId": "C49614",
          "definition": "Findings from exercise stress tests.",
          "preferredTerm": "Stress Exercise Test Data Domain",
          "submissionValue": "ST",
          "synonyms": [
            "Stress (Exercise) Test Data"
          ]
        },
        {
          "conceptId": "C49615",
          "definition": "The intent of the domain is to capture substance use information that may be used to assess the efficacy and/or safety of therapies that look to mitigate the effects of chronic substance use.",
          "preferredTerm": "Substance Use Domain",
          "submissionValue": "SU",
          "synonyms": [
            "Substance Use"
          ]
        },
        {
          "conceptId": "C49617",
          "definition": "The subject visits table describes the actual start and end data/time for each visit of each individual subject.",
          "preferredTerm": "Subject Visits Domain",
          "submissionValue": "SV",
          "synonyms": [
            "Subject Visits"
          ]
        },
        {
          "conceptId": "C49618",
          "definition": "The trial arms table describes each planned arm in the trial. An arm is described as an ordered sequence of elements.",
          "preferredTerm": "Trial Arms Domain",
          "submissionValue": "TA",
          "synonyms": [
            "Trial Arms"
          ]
        },
        {
          "conceptId": "C49619",
          "definition": "The trial elements table describes the element code that is unique for each element, the element description, and the rules for starting and ending an element.",
          "preferredTerm": "Trial Elements Domain",
          "submissionValue": "TE",
          "synonyms": [
            "Trial Elements"
          ]
        },
        {
          "conceptId": "C95100",
          "definition": "This domain captures the tumor findings of the nonclinical subject.",
          "preferredTerm": "Tumor Findings Domain",
          "submissionValue": "TF",
          "synonyms": [
            "Tumor Findings"
          ]
        },
        {
          "conceptId": "C49620",
          "definition": "The trial summary information domain is not subject oriented. It contains one record for each of the inclusion and exclusion criteria for the trial.",
          "preferredTerm": "Trial Inclusion and Exclusion Criteria Domain",
          "submissionValue": "TI",
          "synonyms": [
            "Trial Inclusion/Exclusion Criteria"
          ]
        },
        {
          "conceptId": "C95101",
          "definition": "The trial paths domain is not subject oriented. This domain provides the complete planned non-treatment related sequences of stages for each path in a study.",
          "preferredTerm": "Trial Paths Domain",
          "submissionValue": "TP",
          "synonyms": [
            "Trial Paths"
          ]
        },
        {
          "conceptId": "C53483",
          "definition": "The trial summary information domain is not subject oriented. It contains one record for each trial summary characteristic.",
          "preferredTerm": "Trial Summary Domain",
          "submissionValue": "TS",
          "synonyms": [
            "Trial Summary"
          ]
        },
        {
          "conceptId": "C95102",
          "definition": "The trial stages domain is not subject oriented. It captures non-treatment related planned blocks of time known as stages, such as Gestation, Lactation and Premating.",
          "preferredTerm": "Trial Stages Domain",
          "submissionValue": "TT",
          "synonyms": [
            "Trial Stages"
          ]
        },
        {
          "conceptId": "C49621",
          "definition": "The trial visits table describes the planned order and number of visits in the study within each arm.",
          "preferredTerm": "Trial Visits Domain",
          "submissionValue": "TV",
          "synonyms": [
            "Trial Visits"
          ]
        },
        {
          "conceptId": "C95103",
          "definition": "The trial stages domain is not subject oriented. It contains one record for each trial set characteristic including experimental factors, treatment factors, inherent characteristics, or distinct sponsor designations.",
          "preferredTerm": "Trial Sets Domain",
          "submissionValue": "TX",
          "synonyms": [
            "Trial Sets"
          ]
        },
        {
          "conceptId": "C49622",
          "definition": "Measurements including but not limited to blood pressure, temperature, respiration, body surface area, BMI, height and weight.",
          "preferredTerm": "Vital Signs Domain",
          "submissionValue": "VS",
          "synonyms": [
            "Vital Signs"
          ]
        }
      ]
    },
    {
      "conceptId": "C90013",
      "definition": "Terminology related to electrocardiogram lead names.",
      "extensible": "Yes",
      "name": "ECG Lead",
      "preferredTerm": "CDISC SDTM Electrocardiogram Lead Terminology",
      "submissionValue": "EGLEAD",
      "synonyms": [
        "ECG Lead"
      ],
      "terms": [
        {
          "conceptId": "C90403",
          "definition": "An augmented unipolar lead placed at the sixth intercostal space on the midaxillary line. (NCI)",
          "preferredTerm": "Lead Site aV6",
          "submissionValue": "LEAD aV6",
          "synonyms": []
        },
        {
          "conceptId": "C90360",
          "definition": "An augmented unipolar electrocardiogram limb lead in which the positive (red) electrode is situated on the left pelvic limb and the negative electrode is a combination of the right thoracic limb (white) electrode and the left thoracic limb (black) electrode. Measures the electrical activity of the electrode on the left pelvic limb.",
          "preferredTerm": "Augmented Vector Foot",
          "submissionValue": "LEAD aVF",
          "synonyms": []
        },
        {
          "conceptId": "C90361",
          "definition": "An augmented unipolar electrocardiogram limb lead in which the positive (black) electrode is situated on the left thoracic limb and the negative electrode is a combination of the right thoracic limb (white) electrode and the left pelvic limb (red) electrode. Measures the electrical activity of the electrode on the left thoracic limb. (NCI)",
          "preferredTerm": "Augmented Vector Left",
          "submissionValue": "LEAD aVL",
          "synonyms": []
        },
        {
          "conceptId": "C90362",
          "definition": "An augmented unipolar electrocardiogram limb lead in which the positive (white) electrode is situated on the right thoracic limb and the negative electrode is a combination of the left thoracic limb (black) electrode and the left pelvic limb (red) electrode. Measures the electrical activity of the electrode on the right thoracic limb. (NCI)",
          "preferredTerm": "Augmented Vector Right",
          "submissionValue": "LEAD aVR",
          "synonyms": []
        },
        {
          "conceptId": "C90404",
          "definition": "A bipolar EKG lead with the right thoracic limb electrode placed on the manubrium and left thoracic limb electrode placed at the surface marking of the V5 position (just above the 5th interspace in the anterior axillary line). The left pelvic limb lead acts as a neutral and may be placed anywhere. The C refers to 'clavicle' where it is often placed. (NCI)",
          "preferredTerm": "Lead Site CM5",
          "submissionValue": "LEAD CM5",
          "synonyms": []
        },
        {
          "conceptId": "C90405",
          "definition": "A unipolar chest lead used mostly in large animals. Placed on the sixth ICS on the right side of the thorax along a line parallel to the level of the point of the humeralradial joint.",
          "preferredTerm": "Lead Site CV5RL",
          "submissionValue": "LEAD CV5RL",
          "synonyms": []
        },
        {
          "conceptId": "C90406",
          "definition": "V1 electrode (+) placed in the 6th intercostal space on the left side of the thorax along a line parallel to the level of the point of the humeralradial joint.",
          "preferredTerm": "Lead Site CV6LL",
          "submissionValue": "LEAD CV6LL",
          "synonyms": []
        },
        {
          "conceptId": "C90407",
          "definition": "V2 electrode (+) placed in the 6th intercostal space on the left side of the thorax along a line parallel to the level of the point of the shoulder. (NCI)",
          "preferredTerm": "Lead Site CV6LU",
          "submissionValue": "LEAD CV6LU",
          "synonyms": []
        },
        {
          "conceptId": "C90408",
          "definition": "A bipolar electrocardiogram limb lead which records the voltage between the negative electrode on the right thoracic limb and the positive electrode on the left thoracic limb. (NCI)",
          "preferredTerm": "Lead Site I",
          "submissionValue": "LEAD I",
          "synonyms": []
        },
        {
          "conceptId": "C90409",
          "definition": "A bipolar electrocardiogram limb lead which records the voltage between the negative electrode on the right thoracic limb and the positive electrode on the left pelvic limb. (NCI)",
          "preferredTerm": "Lead Site II",
          "submissionValue": "LEAD II",
          "synonyms": []
        },
        {
          "conceptId": "C90410",
          "definition": "A bipolar electrocardiogram limb lead which records the voltage between the negative electrode on the left thoracic limb and the positive electrode on the left pelvic limb. (NCI)",
          "preferredTerm": "Lead Site III",
          "submissionValue": "LEAD III",
          "synonyms": []
        },
        {
          "conceptId": "C90411",
          "definition": "A unipolar precordial lead placed at the second intercostal space to the left of the sternum. (NCI)",
          "preferredTerm": "Lead Site rV2",
          "submissionValue": "LEAD rV2",
          "synonyms": []
        },
        {
          "conceptId": "C90412",
          "definition": "A unipolar electrocardiogram lead site; the electrode is placed at the fourth intercostal space on the anterior chest wall (between ribs 4 and 5) to the right of the sternal border. In small animals, it is placed at the right fifth intercostal space near the sternum. (NCI)",
          "preferredTerm": "Lead Site V1",
          "submissionValue": "LEAD V1",
          "synonyms": []
        },
        {
          "conceptId": "C90413",
          "definition": "A unipolar chest lead at which the electrode is placed over the dorsal spinous process of 7th thoracic vertebra. (NCI)",
          "preferredTerm": "Lead Site V10",
          "submissionValue": "LEAD V10",
          "synonyms": []
        },
        {
          "conceptId": "C90414",
          "definition": "A unipolar electrocardiogram lead site; the electrode is placed on the anterior chest wall at the fourth intercostal space (between ribs 4 and 5) to the left of the sternal border. In small animals it corresponds to V2-V3 where it is placed at the 6th left intercostal space near the sternum. In large animals it is placed over the 6th rib at the level of the costochondral junction on the left side of the thorax.",
          "preferredTerm": "Lead Site V2",
          "submissionValue": "LEAD V2",
          "synonyms": []
        },
        {
          "conceptId": "C90415",
          "definition": "A unipolar electrocardiogram lead site; the electrode is placed on the anterior chest wall midway between leads V2 and V4. In large and small animals, it is placed over the dorsal spinous process of the 7th thoracic vertebra. (NCI)",
          "preferredTerm": "Lead Site V3",
          "submissionValue": "LEAD V3",
          "synonyms": []
        },
        {
          "conceptId": "C90416",
          "definition": "A unipolar electrocardiogram lead site; the electrode is placed at the fifth intercostal space on the anterior chest wall (between ribs 5 and 6) at the left midclavicular line. In small animals it corresponds to V4-V6 where it is placed at the 6th left intercostal space near the costochondral junction. In large animals it is placed over the 6th rib at the level of a horizontal line drawn through the scapulohumeral articulation on the left side of the thorax. (NCI)",
          "preferredTerm": "Lead Site V4",
          "submissionValue": "LEAD V4",
          "synonyms": []
        },
        {
          "conceptId": "C90417",
          "definition": "A unipolar electrocardiogram lead site; the electrode is placed on the anterior chest wall level with lead V4 at the left anterior axillary line. In large animals it is placed on the sixth ICS on the right side of the thorax along a line parallel to the level of the point of the shoulder corresponding to the electrical center of the heart (central terminal). (NCI)",
          "preferredTerm": "Lead Site V5",
          "submissionValue": "LEAD V5",
          "synonyms": []
        },
        {
          "conceptId": "C90418",
          "definition": "A unipolar electrocardiogram lead site at which the electrode is placed on the anterior chest wall level with lead V5 at the left midaxillary line .",
          "preferredTerm": "Lead Site V6",
          "submissionValue": "LEAD V6",
          "synonyms": []
        }
      ]
    },
    {
      "conceptId": "C71150",
      "definition": "Terminology codelist used with ECG Findings and Abnormalities within CDISC.",
      "extensible": "Yes",
      "name": "ECG Result",
      "preferredTerm": "CDISC SDTM ECG Finding Terminology",
      "submissionValue": "EGSTRESC",
      "synonyms": [
        "ECG Result"
      ],
      "terms": [
        {
          "conceptId": "C62015",
          "definition": "A delay in the time required for the conduction of an electrical impulse through the atrioventricular (AV) node beyond 0.2 seconds; prolongation of the PR interval beyond 200 milliseconds. (NCI)",
          "preferredTerm": "AV Block First Degree",
          "submissionValue": "1ST DEGREE AV BLOCK",
          "synonyms": [
            "1st degree AV block"
          ]
        },
        {
          "conceptId": "C71044",
          "definition": "A electrocardiographic finding of an electrical phenomenon in which the ratio of electrical impulse generated above the atrioventricular node to the number of impulses conducted through to the ventricles is 2:1. (NCI)",
          "preferredTerm": "2:1 Atrioventricular Block",
          "submissionValue": "2:1 AV BLOCK",
          "synonyms": [
            "2:1 AV block"
          ]
        },
        {
          "conceptId": "C62016",
          "definition": "Intermittent failure of atrial electrical impulse conduction through the atrioventricular (AV) node to the ventricles. (NCI)",
          "preferredTerm": "AV Block Second Degree",
          "submissionValue": "2ND DEGREE AV BLOCK",
          "synonyms": [
            "2nd degree AV block"
          ]
        },
        {
          "conceptId": "C50501",
          "definition": "Complete failure of atrial electrical impulse conduction through the AV node to the ventricles. (NCI)",
          "preferredTerm": "AV Block Third Degree",
          "submissionValue": "3RD DEGREE AV BLOCK",
          "synonyms": [
            "3rd degree AV block"
          ]
        },
        {
          "conceptId": "C62266",
          "definition": "The term accelerated idioventricular rhythm describes an ectopic ventricular rhythm with 3 or more consecutive ventricular premature beats with a rate faster than the normal ventricular intrinsic escape rate of 30 to 40 beats per minute, but slower than ventricular tachycardia. Accelerated idioventricular rhythm differs from ventricular tachycardia by additional features such as the onset with a long coupling interval and the end by a gradual decrease of the ventricular rate or increase of the sinus rate. (NCI)",
          "preferredTerm": "Accelerated Idioventricular Rhythm",
          "submissionValue": "ACCELERATED IDIOVENTRICULAR RHYTHM",
          "synonyms": [
            "Accelerated idioventricular rhythm"
          ]
        },
        {
          "conceptId": "C71065",
          "definition": "Electrocardiographic finding showing a current of injury in leads corresponding to the anatomic region of the anterior wall of the heart. (NCI)",
          "preferredTerm": "Acute Anterior Wall Myocardial Infarction",
          "submissionValue": "ACUTE ANTERIOR WALL MI",
          "synonyms": [
            "Acute Anterior Wall Myocardial Infarction"
          ]
        },
        {
          "conceptId": "C71066",
          "definition": "Electrocardiographic finding showing a current of injury in leads corresponding to the anatomic region of the inferior wall of the heart. (NCI)",
          "preferredTerm": "Acute Inferior Wall Myocardial Infarction",
          "submissionValue": "ACUTE INFERIOR WALL MI",
          "synonyms": [
            "Acute Inferior Wall Myocardial Infarction"
          ]
        },
        {
          "conceptId": "C71067",
          "definition": "Electrocardiographic finding showing a current of injury in leads corresponding to the anatomic region of the lateral wall of the heart. (NCI)",
          "preferredTerm": "Acute Lateral Wall Myocardial Infarction",
          "submissionValue": "ACUTE LATERAL WALL MI",
          "synonyms": [
            "Acute Lateral Wall Myocardial Infarction"
          ]
        },
        {
          "conceptId": "C71068",
          "definition": "Electrocardiographic finding showing a current of injury in leads corresponding to the anatomic region of the posterior wall of the heart. (NCI)",
          "preferredTerm": "Acute Posterior Wall Myocardial Infarction",
          "submissionValue": "ACUTE POSTERIOR WALL MI",
          "synonyms": [
            "Acute Posterior Wall Myocardial Infarction"
          ]
        },
        {
          "conceptId": "C71057",
          "definition": "A condition that occurs as a result of cAMP-mediated triggered activity and typically originates from the right ventricular outflow tract (RVOT). This type of tachycardia occurs in patients with apparently normal hearts. (NCI)",
          "preferredTerm": "Adenosine-Sensitive Ventricular Tachycardia",
          "submissionValue": "ADENOSINE-SENSITIVE VENTRICULAR TACHYCARDIA",
          "synonyms": [
            "Adenosine-sensitive ventricular tachycardia"
          ]
        },
        {
          "conceptId": "C71069",
          "definition": "Electrocardiographic finding showing an injury in leads corresponding to the anatomic region of the anterior wall of the heart. (NCI)",
          "preferredTerm": "Anterior Wall Myocardial Infarction",
          "submissionValue": "ANTERIOR WALL MYOCARDIAL INFARCTION",
          "synonyms": [
            "Anterior Wall Myocardial Infarction"
          ]
        },
        {
          "conceptId": "C71039",
          "definition": "An electrocardiographic finding which comprises left, right or bilateral atrial enlargement. (NCI)",
          "preferredTerm": "EKG Finding Atrial Enlargement",
          "submissionValue": "ATRIAL ENLARGEMENT",
          "synonyms": [
            "Atrial Enlargement"
          ]
        },
        {
          "conceptId": "C50466",
          "definition": "A supraventricular arrhythmia characterized by uncoordinated atrial myocardium activation due to multiple reentry circuits with consequent deterioration of atrial mechanical function. Instead of intermittently contracting, the atria quiver continuously in a chaotic pattern, causing a totally irregular, often tachycardia ventricular rate. On the ECG it is described by the replacement of consistent P waves by rapid oscillations or fibrillatory waves that vary in size, shape, and timing, associated with an irregular, frequently rapid ventricular response when atrioventricular conduction is intact. (NCI)",
          "preferredTerm": "Atrial Fibrillation",
          "submissionValue": "ATRIAL FIBRILLATION",
          "synonyms": [
            "Atrial fibrillation"
          ]
        },
        {
          "conceptId": "C51224",
          "definition": "An electrocardiographic finding of an organized rhythmic contraction of the atria which is generally at a rate of 200-300 beats per minute. (NCI)",
          "preferredTerm": "Atrial Flutter",
          "submissionValue": "ATRIAL FLUTTER",
          "synonyms": [
            "Atrial flutter"
          ]
        },
        {
          "conceptId": "C35481",
          "definition": "Any rapid heart rhythm originating in the atria. Atrial fibrillation and atrial flutter are varieties of atrial tachycardia. Atrial tachycardia is an electrical circuit originating in the upper or atrial chambers. This electrical circuit or focus takes over and generates rapid impulses across the atrial chambers. These impulses are transmitted to the ventricular chambers resulting in a rapid rate. These arrhythmias may originate from a variety of places across the atria. They may exist as an isolated problem or be related to an ongoing structural problem within the heart. (NCI)",
          "preferredTerm": "Atrial Tachycardia",
          "submissionValue": "ATRIAL TACHYCARDIA",
          "synonyms": [
            "Atrial tachycardia"
          ]
        },
        {
          "conceptId": "C71045",
          "definition": "An electrocardiographic finding in which the electrical activity of the atria and ventricles are causally independent of one another. (NCI)",
          "preferredTerm": "Atrioventricular Dissociation",
          "submissionValue": "ATRIOVENTRICULAR DISSOCIATION",
          "synonyms": [
            "Atrioventricular dissociation"
          ]
        },
        {
          "conceptId": "C83811",
          "definition": "Intermittent failure of atrial electrical impulse conduction through the atrioventricular (AV) node to the ventricles, characterized by a progressively lengthening PR interval prior to the block of an atrial impulse.",
          "preferredTerm": "AV Mobitz I",
          "submissionValue": "AV MOBITZ I",
          "synonyms": [
            "AV Mobitz I"
          ]
        },
        {
          "conceptId": "C83812",
          "definition": "Intermittent failure of atrial electrical impulse conduction through the atrioventricular (AV) node to the ventricles, characterized by a relatively constant PR interval prior to the block of an atrial impulse.",
          "preferredTerm": "AV Mobitz II",
          "submissionValue": "AV MOBITZ II",
          "synonyms": [
            "AV Mobitz II"
          ]
        },
        {
          "conceptId": "C35058",
          "definition": "A supraventricular tachycardia due to reentry along a circuit contained within the AV node. AVNRT is the most common form of supraventricular tachycardia and usually presents as a narrow QRS complex tachycardia at a rate between 150 and 250 beats per minute. (NCI)",
          "preferredTerm": "Atrioventricular Nodal Reentry Tachycardia",
          "submissionValue": "AV NODE RE-ENTRY",
          "synonyms": [
            "AV node re-entry"
          ]
        },
        {
          "conceptId": "C62261",
          "definition": "A supraventricular tachycardia due to reentry along a circuit including a concealed AV nodal bypass tract. This tachycardia circuit proceeds in an antegrade fashion through the AV node and then is conducted retrograde through the bypass tract into the atria. (NCI)",
          "preferredTerm": "Atrioventricular Reentrant Tachycardia",
          "submissionValue": "AV RE-ENTRANT TACHYCARDIA",
          "synonyms": [
            "AV re-entrant tachycardia"
          ]
        },
        {
          "conceptId": "C71046",
          "definition": "An electrocardiographic finding comprising right bundle branch block and left anterior fascicular block, or right bundle branch block and left posterior fascicular block. Defects occurring in two of the three divisions of the conduction system of the heart are considered bifascicular blocks. Technically left bundle branch block may be considered a bifascicular block. (NCI)",
          "preferredTerm": "Bifascicular Block",
          "submissionValue": "BIFASCICULAR BLOCK",
          "synonyms": [
            "Bifascicular block"
          ]
        },
        {
          "conceptId": "C71054",
          "definition": "An electrocardiographic finding of a normal QRS followed by a premature ventricular contraction; a rhythmic pairing of normal and abnormal beats originating in the ventricles in a 1-1 ratio. (NCI)",
          "preferredTerm": "Bigeminy",
          "submissionValue": "BIGEMINY",
          "synonyms": [
            "Bigeminy"
          ]
        },
        {
          "conceptId": "C92228",
          "definition": "An electrocardiographic finding in which the QTcB is approximately 430-470 msec. There is variation among subpopulations.",
          "preferredTerm": "Borderline QTcB",
          "submissionValue": "BORDERLINE QTcB",
          "synonyms": [
            "Borderline QTcB"
          ]
        },
        {
          "conceptId": "C92229",
          "definition": "An electrocardiographic finding in which the QTcF is approximately 430-470 msec. There is variation among subpopulations.",
          "preferredTerm": "Borderline QTcF",
          "submissionValue": "BORDERLINE QTcF",
          "synonyms": [
            "Borderline QTcF"
          ]
        },
        {
          "conceptId": "C37920",
          "definition": "Non-sinus origin slow heart rate.",
          "preferredTerm": "Bradycardia",
          "submissionValue": "BRADYCARDIA",
          "synonyms": [
            "Bradycardia"
          ]
        },
        {
          "conceptId": "C71062",
          "definition": "An uncommon form of ventricular tachycardia (VT) incorporating both bundle branches into the reentry circuit. Surface electrocardiogram (ECG) of sinus rhythm (SR) characteristically shows intraventricular conduction defects. Patients typically present with presyncope, syncope or sudden death because of VT with fast rates frequently above 200 beats per minute. The QRS morphology during VT is a typical bundle branch block pattern, usually left bundle branch block, and may be identical to that in SR. (NCI)",
          "preferredTerm": "Bundle Branch Re-Entrant Ventricular Tachycardia",
          "submissionValue": "BUNDLE BRANCH REENTRANT TACHYCARDIA",
          "synonyms": [
            "Bundle branch reentrant tachycardia"
          ]
        },
        {
          "conceptId": "C62258",
          "definition": "An initial slurring (delta wave) of the QRS complex due to the presence of an accessory pathway. This characteristic EKG pattern is typically seen in Wolff-Parkinson-White syndrome. (NCI)",
          "preferredTerm": "EKG Delta Wave",
          "submissionValue": "DELTA WAVE",
          "synonyms": [
            "Delta wave"
          ]
        },
        {
          "conceptId": "C92230",
          "definition": "An electrocardiographic finding in which the amplitude of the R wave is abnormally increased in the anterior precordial leads.",
          "preferredTerm": "Early R Wave Progression",
          "submissionValue": "EARLY R WAVE PROGRESSION",
          "synonyms": [
            "Early R Wave Progression"
          ]
        },
        {
          "conceptId": "C62245",
          "definition": "A cardiac rhythm resulting from either an abnormal electrical focus in the atria or intra-atrial reentry. Atrial ectopic beats (AEB) refer to a contraction of the upper heart chamber which occurs before it would be expected. Atrial ectopic beats are also known as premature atrial beats, premature atrial complex (PAC), or atrial extrasystole. (NCI)",
          "preferredTerm": "Ectopic Atrial Rhythm",
          "submissionValue": "ECTOPIC ATRIAL RHYTHM",
          "synonyms": [
            "Ectopic atrial rhythm"
          ]
        },
        {
          "conceptId": "C71043",
          "definition": "An electrocardiographic finding of a rhythm originating at a site other than the sinoatrial node, which is also above the atrioventricular node. (NCI)",
          "preferredTerm": "Ectopic Supraventricular Rhythm",
          "submissionValue": "ECTOPIC SUPRAVENTRICULAR RHYTHM",
          "synonyms": [
            "Ectopic supraventricular rhythm"
          ]
        },
        {
          "conceptId": "C71042",
          "definition": "A cardiac rhythm resulting from either an abnormal electrical focus in the ventricle. Ventricular ectopic beats (VEB) refer to a contraction of the lower heart chamber which occurs before it would be expected. Ventricular ectopic beats are also known as premature ventricular beats, premature ventricular complex (PVC), or ventricular extrasystole. (NCI)",
          "preferredTerm": "Ectopic Ventricular Rhythm",
          "submissionValue": "ECTOPIC VENTRICULAR RHYTHM",
          "synonyms": [
            "Ectopic ventricular rhythm"
          ]
        },
        {
          "conceptId": "C71035",
          "definition": "An electrocardiographic finding in which there is an alternating pattern of any of the waveform components. (NCI)",
          "preferredTerm": "Electrical Alternans",
          "submissionValue": "ELECTRICAL ALTERNANS",
          "synonyms": [
            "Electrical alternans"
          ]
        },
        {
          "conceptId": "C71061",
          "definition": "A distinct subgroup of idiopathic ventricular tachycardia (VT) that may be confused with either typical VT or supraventricular tachycardia (SVT). It is characterized by the absence of structural heart disease and classic electrocardiographic and electrophysiological features. It originates from the region of the posterior fascicle (or occasionally the anterior fascicle) of the left bundle branch and is partly propagated by the His-Purkinje network. It therefore produces QRS complexes of relatively short duration (0.11-0.14)s. (NCI)",
          "preferredTerm": "Fascicular Tachycardia",
          "submissionValue": "FASCICULAR TACHYCARDIA",
          "synonyms": [
            "Fascicular tachycardia"
          ]
        },
        {
          "conceptId": "C71063",
          "definition": "Idiopathic ventricular tachycardia (VT) is a type of ventricular tachycardia occurring unrelated to any organic cardiac disease. The abnormality is probably congenital, be it a focus of abnormal automaticity or myocardial tissue that can sustain re-entry. The clinical presentation for idiopathic VT can be very much like a paroxysmal supraventricular tachycardia. That is, most patients are generally younger without overt cardiac disease and present with paroxysmal palpitations. Idiopathic ventricular tachycardia is not generally life-threatening. (NCI)",
          "preferredTerm": "Idiopathic Right Bundle Branch Block",
          "submissionValue": "IDIOPATHIC RIGHT BUNDLE BRANCH BLOCK VENTRICULAR TACHYCARDIA",
          "synonyms": [
            "Idiopathic right bundle branch block ventricular tachycardia"
          ]
        },
        {
          "conceptId": "C62253",
          "definition": "Inappropriate sinus tachycardia (IST) is a rare form of supraventricular tachycardia involving the sinus node, in which a patient has an abnormally high heart rate, occurring both at rest and in response to stressors (such as physical activity). (NCI)",
          "preferredTerm": "Inappropriate Sinus Tachycardia",
          "submissionValue": "INAPPROPRIATE SINUS TACHYCARDIA",
          "synonyms": [
            "Inappropriate sinus tachycardia"
          ]
        },
        {
          "conceptId": "C71049",
          "definition": "An electrocardiographic finding of bundle branch block which does not meet the criteria for a more specific bundle branch block. (NCI)",
          "preferredTerm": "Incomplete Bundle Branch Block",
          "submissionValue": "INCOMPLETE BUNDLE BRANCH BLOCK",
          "synonyms": [
            "Incomplete bundle branch block"
          ]
        },
        {
          "conceptId": "C71047",
          "definition": "An partial impairment of transmission of the cardiac electrical impulse along the fibers of the left bundle branch. (NCI)",
          "preferredTerm": "Incomplete Left Bundle Branch Block",
          "submissionValue": "INCOMPLETE LEFT BUNDLE BRANCH BLOCK",
          "synonyms": [
            "Incomplete left bundle branch block"
          ]
        },
        {
          "conceptId": "C71048",
          "definition": "Various mechanisms may result in a pattern showing an incomplete right bundle branch block (RBBB). These include different degrees of conduction delay through the main trunk of the right bundle branch; increased conduction time through an elongated right bundle branch; diffuse Purkinje-myocardial delay due to right ventricular stretch or dilatation; surgical trauma or disease-related interruption of the major ramifications of the right branch (distal RBBB or right fascicular blocks); congenital variations of the distribution of the major ramifications resulting in a slight delay in the activation of the crista supraventricularis. (NCI)",
          "preferredTerm": "Incomplete Right Bundle Branch Block",
          "submissionValue": "INCOMPLETE RIGHT BUNDLE BRANCH BLOCK",
          "synonyms": [
            "Incomplete right bundle branch block"
          ]
        },
        {
          "conceptId": "C71070",
          "definition": "Electrocardiographic finding showing an injury in leads corresponding to the anatomic region of the inferior wall of the heart. (NCI)",
          "preferredTerm": "Inferior Wall Myocardial Infarction",
          "submissionValue": "INFERIOR WALL MYOCARDIAL INFARCTION",
          "synonyms": [
            "Inferior Wall Myocardial Infarction"
          ]
        },
        {
          "conceptId": "C71073",
          "definition": "A delay in impulse propagation through the atria. (NCI)",
          "preferredTerm": "Intra-Atrial Conduction Delay",
          "submissionValue": "INTRAATRIAL CONDUCTION DELAY",
          "synonyms": [
            "Intraatrial Conduction Delay"
          ]
        },
        {
          "conceptId": "C62271",
          "definition": "A delay in transmission of cardiac electrical impulses in the His-Purkinje system, diagnosed when the QRS is modestly prolonged (< 120 msec) and the QRS pattern and axis are not typical of a hemiblock. The conduction delay is considered to occur beyond the Purkinje's myocardial gates and arises from slow cell-to-cell conduction. The phenomenon is common in patients with acute MI. (NCI)",
          "preferredTerm": "Nonspecific Intraventricular Conduction Delay",
          "submissionValue": "INTRAVENTRICULAR CONDUCTION DELAY, NONSPECIFIC",
          "synonyms": [
            "Intraventricular conduction delay, nonspecific"
          ]
        },
        {
          "conceptId": "C62248",
          "definition": "A type of atrioventricular dissociation characterized by atria and ventricles beating at similar rates, although independently. (NCI)",
          "preferredTerm": "Isorhythmic Atrioventricular Dissociation",
          "submissionValue": "ISORHYTHMIC DISSOCIATION",
          "synonyms": [
            "Isorhythmic dissociation"
          ]
        },
        {
          "conceptId": "C71030",
          "definition": "Elevation of the J point above the baseline; the J point represents the end of ventricular depolarization and located at the terminus of the QRS complex. (NCI)",
          "preferredTerm": "J Point Elevation",
          "submissionValue": "J POINT ELEVATION",
          "synonyms": [
            "J point elevation"
          ]
        },
        {
          "conceptId": "C71074",
          "definition": "An electrocardiographic finding in which the pacer of the heart is located in the AV junction, normally presenting with a narrow QRS complex at a rate less than 60 beats per minute. (NCI)",
          "preferredTerm": "Junctional Bradycardia",
          "submissionValue": "JUNCTIONAL BRADYCARDIA",
          "synonyms": [
            "Junctional bradycardia"
          ]
        },
        {
          "conceptId": "C71051",
          "definition": "An electrocardiographic finding in which the pacer of the heart is located in the AV junction, normally presenting with a narrow QRS complex and a rate of 60-100 beats per minute. (NCI)",
          "preferredTerm": "Junctional Rhythm",
          "submissionValue": "JUNCTIONAL RHYTHM",
          "synonyms": [
            "Junctional rhythm"
          ]
        },
        {
          "conceptId": "C35059",
          "definition": "An automatic tachycardia originating in the atrioventricular junction, typically arising in the conduction tissues surrounding the atrioventricular node. A junctional tachycardia tends to be a regular, narrow complex tachycardia and usually occurs during myocardial infarction, after heart surgery, or in digitalis intoxication. The rate may range from 140 to 250 beats per minute. (NCI)",
          "preferredTerm": "Junctional Tachycardia",
          "submissionValue": "JUNCTIONAL TACHYCARDIA",
          "synonyms": [
            "Junctional tachycardia"
          ]
        },
        {
          "conceptId": "C71075",
          "definition": "Electrocardiographic finding showing an injury in leads corresponding to the anatomic region of the lateral wall of the heart. (NCI)",
          "preferredTerm": "Lateral Wall Myocardial Infarction",
          "submissionValue": "LATERAL WALL MYOCARDIAL INFARCTION",
          "synonyms": [
            "Lateral Wall Myocardial Infarction"
          ]
        },
        {
          "conceptId": "C62267",
          "definition": "An impairment of transmission of the cardiac electrical impulse along the fibers of the left anterior fascicle. In left anterior fascicular block (LAFB) the posteroinferior regions of the left ventricular endocardium are activated abnormally before the anterosuperior left ventricular area. After emerging from the posteroinferior division of the left bundle branch, the impulse first propagates in an inferior, rightward, and usually anterior direction for a short period of time. This orientation is responsible for the small Q waves in leads 1 and aVL and for the R waves in leads II, III, and aVF. (NCI)",
          "preferredTerm": "Left Anterior Fascicular Block",
          "submissionValue": "LEFT ANTERIOR FASCICULAR BLOCK",
          "synonyms": [
            "Left anterior fascicular block"
          ]
        },
        {
          "conceptId": "C71040",
          "definition": "An electrocardiographic finding suggesting underlying hypertrophy or dilatation of the left atrium. Electrocardiographic criteria used for the diagnosis of left atrial abnormality may include a bifid p wave, a biphasic p wave and/or a p wave duration of greater than 0.12 seconds. (NCI)",
          "preferredTerm": "P-mitrale",
          "submissionValue": "LEFT ATRIAL ENLARGEMENT",
          "synonyms": [
            "P-mitrale"
          ]
        },
        {
          "conceptId": "C62269",
          "definition": "An impairment of transmission of the cardiac electrical impulse along the fibers of the left main bundle branch, or both the left anterior fascicle and left posterior fascicle. This conduction disturbance is characterized by wide (greater than 0.11s) QRS complexes. The diagnostic criteria consist of prolongation of the QRS complexes (over 0.11s) with neither a Q wave nor an S wave in lead V1 and in the properly placed V6. A wide R wave with a notch on its top (plateau) is seen in these leads. In hearts with an electrical (and anatomic) vertical position a small Q wave may be seen in AVL in the absence of MI. Right chest lead V1 may or may not show an initial R wave, but the latter should be present in lead V2. (NCI)",
          "preferredTerm": "Left Bundle Branch Block",
          "submissionValue": "LEFT BUNDLE BRANCH BLOCK",
          "synonyms": [
            "Left bundle branch block"
          ]
        },
        {
          "conceptId": "C62268",
          "definition": "An impairment of transmission of the cardiac electrical impulse along the fibers of the left posterior fascicle. In pure left posterior fascicular block (LPFB), the impulse emerges from the unblocked anterosuperior division, thus producing small q waves in leads II, III, and aVF. Thereafter, the impulse moves through the electrically predominant left ventricle in an inferior and rightward direction, thus explaining the S waves in leads I and aVL as well as the R waves in leads II, III, and aVF. (NCI)",
          "preferredTerm": "Left Posterior Fascicular Block",
          "submissionValue": "LEFT POSTERIOR FASCICULAR BLOCK",
          "synonyms": [
            "Left posterior fascicular block"
          ]
        },
        {
          "conceptId": "C92231",
          "definition": "An electrocardiographic finding in which there is evidence that electrical transmission through the left ventricle is impaired.",
          "preferredTerm": "Left Ventricular Conduction Delay",
          "submissionValue": "LEFT VENTRICULAR CONDUCTION DELAY",
          "synonyms": [
            "Left Ventricular Conduction Delay"
          ]
        },
        {
          "conceptId": "C71076",
          "definition": "Electrocardiographic findings suggestive of a hypertrophic left ventricle. (NCI)",
          "preferredTerm": "EKG Finding Left Ventricular Hypertrophy",
          "submissionValue": "LEFT VENTRICULAR HYPERTROPHY",
          "synonyms": [
            "Left Ventricular Hypertrophy"
          ]
        },
        {
          "conceptId": "C71078",
          "definition": "An electrocardiographic finding of a QRS amplitude less than or equal to 5mm in the limb leads or QRS amplitude less than or equal to 10mm in the precordial leads. (NCI)",
          "preferredTerm": "Low QRS Voltage",
          "submissionValue": "LOW QRS VOLTAGE",
          "synonyms": [
            "Low QRS voltage"
          ]
        },
        {
          "conceptId": "C71050",
          "definition": "An electrocardiographic finding in which the electrical axis of the p wave is variable and the rate is greater than 100 beats per minute. To meet criteria for multifocal atrial tachycardia, the p wave must exhibit three distinct morphologies on the rhythm strip. (NCI)",
          "preferredTerm": "Multifocal Atrial Tachycardia",
          "submissionValue": "MULTIFOCAL ATRIAL TACHYCARDIA",
          "synonyms": [
            "Multifocal atrial tachycardia"
          ]
        },
        {
          "conceptId": "C71080",
          "definition": "A myocardial infarction in the absence of observable Q wave abnormalities in the ECG. (NCI)",
          "preferredTerm": "Non Q Wave Myocardial Infarction",
          "submissionValue": "NON Q WAVE MYOCARDIAL INFARCTION",
          "synonyms": [
            "Non Q Wave Myocardial Infarction"
          ]
        },
        {
          "conceptId": "C71031",
          "definition": "An electrocardiographic finding of changes in the ST segment and T wave that do not meet criteria for ischemia or infarction. (NCI)",
          "preferredTerm": "Non-Specific ST-T Changes",
          "submissionValue": "NON-SPECIFIC ST-T CHANGES",
          "synonyms": [
            "Non-specific ST-T changes"
          ]
        },
        {
          "conceptId": "C71053",
          "definition": "An electrocardiographic finding of ventricular tachycardia less than 30 seconds in duration. (NCI)",
          "preferredTerm": "Non-Sustained Ventricular Tachycardia",
          "submissionValue": "NON-SUSTAINED VENTRICULAR TACHYCARDIA",
          "synonyms": [
            "Non-sustained ventricular tachycardia"
          ]
        },
        {
          "conceptId": "C71032",
          "definition": "Any depression occurring in a positive t wave. (NCI)",
          "preferredTerm": "Notched T-Waves",
          "submissionValue": "NOTCHED T-WAVES",
          "synonyms": [
            "Notched T-waves"
          ]
        },
        {
          "conceptId": "C71064",
          "definition": "Right ventricular outflow tract tachycardia (RVOT) is the most common with a female predominance. It is often exercise induced or enhanced. The site of origin is the right ventricular outflow tract and hence the electrocardiographic appearance is that of left bundle branch block and inferior axis. The mechanism is thought to be abnormal automaticity that is sensitive to adenosine. (NCI)",
          "preferredTerm": "Right Ventricular Outflow Tract Tachycardia",
          "submissionValue": "OUTFLOW TRACT VENTRICULAR TACHYCARDIA",
          "synonyms": [
            "Outflow tract ventricular tachycardia"
          ]
        },
        {
          "conceptId": "C90430",
          "definition": "An electrocardiographic finding for the P wave that is atypical either for the shape, duration, amplitude, axis or polarity. Abnormality of the P wave signifies aberrant propagation of the electrical impulse through the atria. (NCI)",
          "preferredTerm": "P Wave Abnormality",
          "submissionValue": "P WAVE ABNORMALITY",
          "synonyms": [
            "P Wave Abnormality"
          ]
        },
        {
          "conceptId": "C90431",
          "definition": "P waves with two peaks longer in duration than normal and amplitude greater than normal. (NCI)",
          "preferredTerm": "P Wave Notched",
          "submissionValue": "P WAVE NOTCHED",
          "synonyms": [
            "P Wave Notched"
          ]
        },
        {
          "conceptId": "C92232",
          "definition": "An electrocardiographic finding in which both the atrial and ventricular rhythm is controlled by an electrical impulse from a mechanical cardiac pacemaker.",
          "preferredTerm": "Paced Atrial And Ventricular Rhythm",
          "submissionValue": "PACED ATRIAL AND VENTRICULAR RHYTHM",
          "synonyms": [
            "Paced Atrial And Ventricular Rhythm"
          ]
        },
        {
          "conceptId": "C92233",
          "definition": "An electrocardiographic finding in which the atrial rhythm is controlled by an electrical impulse from a mechanical cardiac pacemaker.",
          "preferredTerm": "Paced Atrial Rhythm",
          "submissionValue": "PACED ATRIAL RHYTHM",
          "synonyms": [
            "Paced Atrial Rhythm"
          ]
        },
        {
          "conceptId": "C88140",
          "definition": "An electrocardiographic finding in which the cardiac rhythm is controlled by an electrical impulse from a mechanical cardiac pacemaker.",
          "preferredTerm": "Paced Rhythm",
          "submissionValue": "PACED RHYTHM",
          "synonyms": [
            "Paced Rhythm",
            " Atrial and/or Ventricular Paced Rhythm"
          ]
        },
        {
          "conceptId": "C92234",
          "definition": "An electrocardiographic finding in which the ventricular rhythm is controlled by an electrical impulse from a mechanical cardiac pacemaker.",
          "preferredTerm": "Paced Ventricular Rhythm",
          "submissionValue": "PACED VENTRICULAR RHYTHM",
          "synonyms": [
            "Paced Ventricular Rhythm"
          ]
        },
        {
          "conceptId": "C62250",
          "definition": "Sudden onset AV block, often associated with preexisting conduction disorders. (NCI)",
          "preferredTerm": "Paroxysmal Atrioventricular Block",
          "submissionValue": "PAROXYSMAL AV BLOCK",
          "synonyms": [
            "Paroxysmal AV block"
          ]
        },
        {
          "conceptId": "C34902",
          "definition": "An episodic form of ventricular tachycardia, with abrupt onset and termination. (NCI)",
          "preferredTerm": "Paroxysmal Ventricular Tachycardia",
          "submissionValue": "PAROXYSMAL VENTRICULAR TACHYCARDIA",
          "synonyms": [
            "Paroxysmal Ventricular Tachycardia"
          ]
        },
        {
          "conceptId": "C71033",
          "definition": "Lack of progression of R wave height across precordial leads. (NCI)",
          "preferredTerm": "Poor R Wave Progression",
          "submissionValue": "POOR R WAVE PROGRESSION",
          "synonyms": [
            "Poor R Wave Progression"
          ]
        },
        {
          "conceptId": "C71081",
          "definition": "Electrocardiographic finding showing an injury in leads corresponding to the anatomic region of the posterior wall of the heart. (NCI)",
          "preferredTerm": "Posterior Wall Myocardial Infarction",
          "submissionValue": "POSTERIOR WALL MYOCARDIAL INFARCTION",
          "synonyms": [
            "Posterior Wall Myocardial Infarction"
          ]
        },
        {
          "conceptId": "C62247",
          "definition": "A PR interval of more than 0.20 seconds in adults. (NCI)",
          "preferredTerm": "Prolonged PR Interval",
          "submissionValue": "PR PROLONGATION",
          "synonyms": [
            "PR prolongation"
          ]
        },
        {
          "conceptId": "C34940",
          "definition": "A condition characterized by the activation of the whole or some part of the ventricle by the transmission of an atrial impulse along an accessory pathway rather than by way of the normal specific conduction system which includes a delay at the atrioventricular node. (NCI)",
          "preferredTerm": "Pre-Excitation Syndrome",
          "submissionValue": "PRE-EXCITATION",
          "synonyms": [
            "Pre-excitation"
          ]
        },
        {
          "conceptId": "C62257",
          "definition": "Ectopic impulses originating in the atria. (NCI)",
          "preferredTerm": "Atrial Premature Complex",
          "submissionValue": "PREMATURE ATRIAL COMPLEXES",
          "synonyms": [
            "Premature atrial complexes"
          ]
        },
        {
          "conceptId": "C62256",
          "definition": "Ectopic impulses originating in the ventricles. (NCI)",
          "preferredTerm": "Ventricular Premature Complex",
          "submissionValue": "PREMATURE VENTRICULAR COMPLEX",
          "synonyms": [
            "PVC"
          ]
        },
        {
          "conceptId": "C71034",
          "definition": "A QT interval that is prolonged. The length of the QT interval varies with the heart rate. (NCI)",
          "preferredTerm": "Prolonged QT Interval",
          "submissionValue": "PROLONGED QT",
          "synonyms": [
            "Prolonged QT"
          ]
        },
        {
          "conceptId": "C71094",
          "definition": "Q axis from -30 to -90 degrees. (NCI)",
          "preferredTerm": "Q Axis Left Axis Deviation",
          "submissionValue": "Q AXIS, LEFT AXIS DEVIATION",
          "synonyms": [
            "Q Axis, Left axis deviation"
          ]
        },
        {
          "conceptId": "C71095",
          "definition": "Q axis from +90 to +180 degrees. (NCI)",
          "preferredTerm": "Q Axis Right Axis Deviation",
          "submissionValue": "Q AXIS, RIGHT AXIS DEVIATION",
          "synonyms": [
            "Q Axis, Right axis deviation"
          ]
        },
        {
          "conceptId": "C90440",
          "definition": "An electrocardiographic finding for the QRS complex that is atypical either for the shape, duration, amplitude, axis or polarity. (NCI)",
          "preferredTerm": "QRS Complex Abnormality",
          "submissionValue": "QRS COMPLEX ABNORMALITY",
          "synonyms": [
            "QRS Complex Abnormality"
          ]
        },
        {
          "conceptId": "C90441",
          "definition": "A disturbance in the depolarization of the ventricular myocardium which leads to an absence of the QRS complex in the electrocardiogram tracing. (NCI)",
          "preferredTerm": "QRS Complex Absent",
          "submissionValue": "QRS COMPLEX ABSENT",
          "synonyms": [
            "QRS Complex Absent"
          ]
        },
        {
          "conceptId": "C71096",
          "definition": "Corrected QT interval longer than 500 msec, in accordance with Bazett's correction formula. (NCI)",
          "preferredTerm": "QTcB Prolongation Greater Than 500 msec",
          "submissionValue": "QTCB PROLONGATION >500 MSEC",
          "synonyms": [
            "QTcB prolongation >500 msec"
          ]
        },
        {
          "conceptId": "C71097",
          "definition": "Corrected QT interval greater than 500 msec, in accordance with Fridericia's correction formula. (NCI)",
          "preferredTerm": "QTcF Prolongation Greater Than 500 msec",
          "submissionValue": "QTCF PROLONGATION >500 MSEC",
          "synonyms": [
            "QTcF prolongation >500 msec"
          ]
        },
        {
          "conceptId": "C61395",
          "definition": "An electrocardiographic finding phenomena in which the R wave occurs on top of the T wave; this can trigger ventricular fibrillation or ventricular tachycardia. (NCI)",
          "preferredTerm": "R On T Phenomenon",
          "submissionValue": "R ON T PHENOMENON",
          "synonyms": [
            "R on T phenomenon"
          ]
        },
        {
          "conceptId": "C90443",
          "definition": "An abnormal R wave that is part of the QRS complex in an electrocardiographic recording, which occurs due to a disturbance in the depolarization mechanism of the ventricular myocardium. (NCI)",
          "preferredTerm": "R Wave Abnormality",
          "submissionValue": "R WAVE ABNORMALITY",
          "synonyms": [
            "R Wave Abnormality"
          ]
        },
        {
          "conceptId": "C90444",
          "definition": "An R wave variant in which there is a small deflection of the R wave, with changing polarity, within the QRS complex. (NCI)",
          "preferredTerm": "R Wave Notched",
          "submissionValue": "R WAVE NOTCHED",
          "synonyms": [
            "R Wave Notched"
          ]
        },
        {
          "conceptId": "C90450",
          "definition": "The inherent change of a subject's heart rate associated with each excursion of breath, which can be traced in an electrocardiographic recording. (NCI)",
          "preferredTerm": "Respiratory Sinus Arrhythmia",
          "submissionValue": "RESPIRATORY SINUS ARRHYTHMIA",
          "synonyms": [
            "Respiratory Sinus Arrhythmia"
          ]
        },
        {
          "conceptId": "C71041",
          "definition": "An electrocardiographic finding suggesting underlying hypertrophy or dilatation of the right atrium. Electrocardiographic criteria used for the diagnosis of right atrial abnormality may include a peaked p wave greater than 2.5 millimeters in amplitude in the inferior leads. (NCI)",
          "preferredTerm": "P-pulmonale",
          "submissionValue": "RIGHT ATRIAL ABNORMALITY",
          "synonyms": [
            "P-pulmonale"
          ]
        },
        {
          "conceptId": "C62270",
          "definition": "An impairment of transmission of the cardiac electrical impulse along the fibers of the right bundle branch. A \"complete RBBB pattern\" (with QRS duration > 0.11s) does not necessarily reflect the existence of a total conduction block in the right branch. This pattern only indicates that the entire or major parts of both ventricles are activated by the impulse emerging from the left branch. Thus, a significant degree of conduction delay (\"high-grade\" or \"incomplete RBBB\") can produce a similar pattern. (NCI)",
          "preferredTerm": "Right Bundle Branch Block",
          "submissionValue": "RIGHT BUNDLE BRANCH BLOCK",
          "synonyms": [
            "Right Bundle Branch Block"
          ]
        },
        {
          "conceptId": "C92235",
          "definition": "An electrocardiographic finding in which there is evidence that electrical transmission through the right ventricle is impaired.",
          "preferredTerm": "Right Ventricular Conduction Delay",
          "submissionValue": "RIGHT VENTRICULAR CONDUCTION DELAY",
          "synonyms": [
            "Right Ventricular Conduction Delay",
            " Right Ventricular Delay"
          ]
        },
        {
          "conceptId": "C71077",
          "definition": "Electrocardiographic findings suggestive of an enlarged right ventricle. (NCI)",
          "preferredTerm": "EKG Finding Right Ventricular Hypertrophy",
          "submissionValue": "RIGHT VENTRICULAR HYPERTROPHY",
          "synonyms": [
            "Right ventricular Hypertrophy"
          ]
        },
        {
          "conceptId": "C92227",
          "definition": "An electrocardiographic finding in which there are two R waves, which are two deflections above the baseline resulting from a single ventricular depolarization. The first upward deflection in the complex is the R wave. The S is the first downward deflection. A second upward deflection is called the R-prime wave.",
          "preferredTerm": "RSR'",
          "submissionValue": "RSR PRIME",
          "synonyms": [
            "RSR'"
          ]
        },
        {
          "conceptId": "C90451",
          "definition": "An abnormal S wave that is part of the QRS complex in an electrocardiographic recording, which occurs due to a disturbance in the depolarization of the ventricular myocardium. (NCI)",
          "preferredTerm": "S Wave Abnormality",
          "submissionValue": "S WAVE ABNORMALITY",
          "synonyms": [
            "S Wave Abnormality"
          ]
        },
        {
          "conceptId": "C71082",
          "definition": "Electrocardiographic findings suggesting an infarction in the anatomic location of the cardiac septum. (NCI)",
          "preferredTerm": "Septal Myocardial Infarction",
          "submissionValue": "SEPTAL MYOCARDIAL INFARCTION",
          "synonyms": [
            "Septal myocardial infarction"
          ]
        },
        {
          "conceptId": "C62246",
          "definition": "A PR interval of less than 0.12 seconds. (NCI)",
          "preferredTerm": "Short PR Interval",
          "submissionValue": "SHORT PR INTERVAL",
          "synonyms": [
            "Short PR interval"
          ]
        },
        {
          "conceptId": "C62244",
          "definition": "A constellation of signs and symptoms which may include syncope, fatigue, dizziness, and alternating periods of bradycardia and atrial tachycardia, which is caused by sinoatrial node dysfunction. (NCI)",
          "preferredTerm": "Sick Sinus Syndrome",
          "submissionValue": "SICK SINUS SYNDROME",
          "synonyms": [
            "Sick sinus syndrome"
          ]
        },
        {
          "conceptId": "C50553",
          "definition": "A blockage of electrical conduction within the sinoatrial node resulting in the failure of impulse transmission from the sinoatrial node. (NCI)",
          "preferredTerm": "Sinoatrial Node Exit Block",
          "submissionValue": "SINOATRIAL EXIT BLOCK",
          "synonyms": [
            "Sinoatrial exit block"
          ]
        },
        {
          "conceptId": "C62242",
          "definition": "A failure of impulse formation in the sinus node. Sinus arrest is indistinguishable from third degree sinoatrial exit block on the standard ECG. (NCI)",
          "preferredTerm": "Sinus Arrest",
          "submissionValue": "SINUS ARREST/PAUSE",
          "synonyms": [
            "Sinus arrest/pause"
          ]
        },
        {
          "conceptId": "C62239",
          "definition": "Irregularity of the heartbeat due to a variation in the sinus rhythm resulting in cyclic changes in the heart rate during breathing. This rhythm is most commonly seen with breathing due to fluctuations in parasympathetic vagal tone. During inspiration stretch receptors in the lungs stimulate the cardioinhibitory centers in the medulla via fibers in the vagus nerve. Irregularity of the heartbeat due to a variation in the sinus rhythm resulting in cyclic changes in the heart rate during breathing. This rhythm is most commonly seen with breathing due to fluctuations in parasympathetic vagal tone. During inspiration stretch receptors in the lungs stimulate the cardioinhibitory centers in the medulla via fibers in the vagus nerve. (NCI)",
          "preferredTerm": "Sinus Arrhythmia",
          "submissionValue": "SINUS ARRHYTHMIA",
          "synonyms": [
            "Sinus arrhythmia"
          ]
        },
        {
          "conceptId": "C26923",
          "definition": "A heart rate of less than 60 beats per minute, with its origin in the sinus node. (NCI)",
          "preferredTerm": "Sinus Bradycardia",
          "submissionValue": "SINUS BRADYCARDIA",
          "synonyms": [
            "Sinus bradycardia"
          ]
        },
        {
          "conceptId": "C62243",
          "definition": "A derangement in the normal functioning of the sinoatrial node. Typically, SA node dysfunction is manifest as sinoatrial exit block or sinus arrest, but may present as an absolute or relative bradycardia in the presence of a stressor. It may be associated with bradycardia-tachycardia syndrome. (NCI)",
          "preferredTerm": "Sinus Node Dysfunction",
          "submissionValue": "SINUS NODE DYSFUNCTION (BRADYCARDIA)",
          "synonyms": [
            "Sinus node dysfunction (bradycardia)"
          ]
        },
        {
          "conceptId": "C26889",
          "definition": "A heart rate of more than 100 beats per minute, with its origin in the sinus node. (NCI)",
          "preferredTerm": "Sinus Tachycardia",
          "submissionValue": "SINUS TACHYCARDIA",
          "synonyms": [
            "Sinus tachycardia"
          ]
        },
        {
          "conceptId": "C71027",
          "definition": "An electrocardiographic finding of ST segment depression below the baseline, often described as up sloping, down sloping or horizontal. (NCI)",
          "preferredTerm": "ST Depression",
          "submissionValue": "ST DEPRESSION",
          "synonyms": [
            "ST depression"
          ]
        },
        {
          "conceptId": "C71028",
          "definition": "An electrocardiographic finding of ST segment elevation above the baseline. (NCI)",
          "preferredTerm": "ST Elevation",
          "submissionValue": "ST ELEVATION",
          "synonyms": [
            "ST elevation"
          ]
        },
        {
          "conceptId": "C71029",
          "definition": "An electrocardiographic finding of ST changes consistent with pericarditis. (NCI)",
          "preferredTerm": "ST Elevation Pericarditis",
          "submissionValue": "ST ELEVATION PERICARDITIS",
          "synonyms": [
            "ST elevation pericarditis"
          ]
        },
        {
          "conceptId": "C71026",
          "definition": "An electrocardiographic finding of the ST segment elevation or depression which is not indicative of ischemia or infarction. (NCI)",
          "preferredTerm": "ST Segment Abnormality",
          "submissionValue": "ST SEGMENT ABNORMALITY",
          "synonyms": [
            "ST segment abnormality"
          ]
        },
        {
          "conceptId": "C35061",
          "definition": "A generic expression for any tachycardia that originates in the atria or the atrioventricular node. (NCI)",
          "preferredTerm": "Supraventricular Tachycardia",
          "submissionValue": "SUPRAVENTRICULAR TACHYCARDIA",
          "synonyms": [
            "Supraventricular tachycardia"
          ]
        },
        {
          "conceptId": "C71052",
          "definition": "An electrocardiographic finding of ventricular tachycardia greater than 30 seconds in duration. (NCI)",
          "preferredTerm": "Sustained Ventricular Tachycardia",
          "submissionValue": "SUSTAINED VENTRICULAR TACHYCARDIA",
          "synonyms": [
            "Sustained ventricular tachycardia"
          ]
        },
        {
          "conceptId": "C71083",
          "definition": "An electrocardiographic finding of a T wave which appears peaked, inverted, flattened or biphasic. (NCI)",
          "preferredTerm": "T Wave Abnormality",
          "submissionValue": "T WAVE ABNORMALITY",
          "synonyms": [
            "T wave abnormality"
          ]
        },
        {
          "conceptId": "C71085",
          "definition": "An electrocardiographic finding of an inversion of the T wave from the expected axis. (NCI)",
          "preferredTerm": "T Wave Inversion",
          "submissionValue": "T WAVE INVERSION",
          "synonyms": [
            "T Wave Inversion"
          ]
        },
        {
          "conceptId": "C71086",
          "definition": "An electrocardiographic finding in which the T wave appears increased in amplitude and cresting at a point. (NCI)",
          "preferredTerm": "T Wave Peaked",
          "submissionValue": "T WAVE PEAKED",
          "synonyms": [
            "T wave peaked"
          ]
        },
        {
          "conceptId": "C71087",
          "definition": "An electrocardiographic finding in which the T wave is asymmetric. (NCI)",
          "preferredTerm": "T Waves Biphasic",
          "submissionValue": "T WAVES BIPHASIC",
          "synonyms": [
            "T waves biphasic"
          ]
        },
        {
          "conceptId": "C71088",
          "definition": "An electrocardiographic finding in which the T wave appears decreased in amplitude. (NCI)",
          "preferredTerm": "T Waves Flat",
          "submissionValue": "T WAVES FLAT",
          "synonyms": [
            "T waves flat"
          ]
        },
        {
          "conceptId": "C38029",
          "definition": "An abnormally rapid heartbeat, usually applied to a heart rate above 100 per minute.",
          "preferredTerm": "Tachycardia",
          "submissionValue": "TACHYCARDIA",
          "synonyms": [
            "Tachycardia"
          ]
        },
        {
          "conceptId": "C50779",
          "definition": "An atypical rapid polymorphic ventricular tachycardia with a characteristic rotation of the QRS complex around the isoelectric baseline. In addition the QRS complex displays a periodic waxing and waning of amplitude on the electrogram. (NCI)",
          "preferredTerm": "Torsades De Pointes",
          "submissionValue": "TORSADES DE POINTES",
          "synonyms": [
            "Torsades de pointes"
          ]
        },
        {
          "conceptId": "C71055",
          "definition": "An electrocardiographic finding of normal QRS followed by a premature ventricular contraction; a rhythmic pairing of normal and abnormal beats originating from the ventricles in a 1-2 ratio. (NCI)",
          "preferredTerm": "Trigeminy",
          "submissionValue": "TRIGEMINY",
          "synonyms": [
            "Trigeminy"
          ]
        },
        {
          "conceptId": "C71089",
          "definition": "An electrocardiographic finding of a small hump following the T wave occurring during the final phase of Purkinje repolarization. (NCI)",
          "preferredTerm": "U Waves",
          "submissionValue": "U WAVES",
          "synonyms": [
            "U waves"
          ]
        },
        {
          "conceptId": "C71059",
          "definition": "A condition characterized by a pattern of right bundle branch block (RBBB) and ST-segment elevation within electrocardiogram (ECG) leads V1-V3 . This pattern emerges as a result of a defect in ion channel genes, resulting in abnormal electrophysiological activity in the right ventricle and a propensity to malignant tachyarrhythmias. (NCI)",
          "preferredTerm": "Brugada Syndrome",
          "submissionValue": "VENTRICULAR ARRHYTHMIA ASSOCIATED WITH BRUGADA SYNDROME",
          "synonyms": [
            "Ventricular arrhythmia associated with Brugada syndrome"
          ]
        },
        {
          "conceptId": "C34786",
          "definition": "A ventricular arrhythmia characterized by syncopal episodes and a long QT interval, sometimes leading to sudden death due to paroxysmal ventricular arrhythmia. This arrhythmia is associated with a prolongation of repolarization following depolarization of the cardiac ventricles. The prolongation of the Q-T interval combined with torsades de pointes manifests as several different forms; some may be acquired or congenital; some may lead to serious arrhythmia and sudden cardiac death. (NCI)",
          "preferredTerm": "Long QT Syndrome",
          "submissionValue": "VENTRICULAR ARRHYTHMIA ASSOCIATED WITH LONG QT SYNDROME",
          "synonyms": [
            "Ventricular arrhythmia associated with long QT syndrome"
          ]
        },
        {
          "conceptId": "C71060",
          "definition": "Ventricular tachyarrhythmias occurring in association with short QT syndrome. (NCI)",
          "preferredTerm": "Short QT Syndrome",
          "submissionValue": "VENTRICULAR ARRHYTHMIA ASSOCIATED WITH SHORT QT SYNDROME",
          "synonyms": [
            "Ventricular arrhythmia associated with short QT syndrome"
          ]
        },
        {
          "conceptId": "C62259",
          "definition": "Two sequential ventricular premature complexes. An otherwise normal finding, but possibly indicative of electrical heart disease particularly in comparison with a single ventricular premature complexes. (NCI)",
          "preferredTerm": "Ventricular Couplet",
          "submissionValue": "VENTRICULAR COUPLET",
          "synonyms": [
            "Ventricular couplet"
          ]
        },
        {
          "conceptId": "C90483",
          "definition": "A compensatory ectopic beat that occurs in the ventricle after a pause in the ventricular rhythm, which is due to an absence in electrical activity to the ventricles. (NCI)",
          "preferredTerm": "Ventricular Escape Beat",
          "submissionValue": "VENTRICULAR ESCAPE BEAT",
          "synonyms": [
            "Ventricular Escape Beat"
          ]
        },
        {
          "conceptId": "C50799",
          "definition": "An arrhythmia characterized by an irregular pattern of high or low-amplitude waves that cannot be differentiated into QRS complexes or T waves. These electrocardiographic waves occur as a result of fibrillary contractions of the ventricular muscle due to rapid repetitive excitation of myocardial fibers without coordinated contraction of the ventricle. (NCI)",
          "preferredTerm": "Ventricular Fibrillation",
          "submissionValue": "VENTRICULAR FIBRILLATION",
          "synonyms": [
            "Ventricular fibrillation"
          ]
        },
        {
          "conceptId": "C50800",
          "definition": "A ventricular tachyarrhythmia characterized by a high ventricular rate (180 and 250 beats per minute) with a regular rhythm. The electrocardiogram shows large oscillating sine wave-like complexes occurring as a result of QRS complexes and T waves being merged. The P wave is not visible. (NCI)",
          "preferredTerm": "Ventricular Flutter",
          "submissionValue": "VENTRICULAR FLUTTER",
          "synonyms": [
            "Ventricular flutter"
          ]
        },
        {
          "conceptId": "C71084",
          "definition": "Electrocardiographic findings suggestive of enlarged cardiac ventricles. (NCI)",
          "preferredTerm": "Ventricular Hypertrophy",
          "submissionValue": "VENTRICULAR HYPERTROPHY",
          "synonyms": [
            "Ventricular Hypertrophy"
          ]
        },
        {
          "conceptId": "C50802",
          "definition": "A tachycardia arising distal to bundle of His, with a rate greater than 100 beats per minute. (NCI)",
          "preferredTerm": "Ventricular Tachycardia",
          "submissionValue": "VENTRICULAR TACHYCARDIA",
          "synonyms": [
            "Ventricular tachycardia"
          ]
        },
        {
          "conceptId": "C71056",
          "definition": "Multiple, temporally related, episodes of ventricular tachycardia or fibrillation, occurring three or more times in a 24 hour period. (NCI)",
          "preferredTerm": "Ventricular Tachycardia Storm",
          "submissionValue": "VENTRICULAR TACHYCARDIA STORM",
          "synonyms": [
            "Ventricular tachycardia storm"
          ]
        },
        {
          "conceptId": "C62234",
          "definition": "A ventricular tachycardia in which the ventricular activation sequence is constant. The morphology of the electrocardiographic waveform is unchanging and is referred to as monomorphic. (NCI)",
          "preferredTerm": "Monomorphic Ventricular Tachycardia",
          "submissionValue": "VENTRICULAR TACHYCARDIA, MONOMORPHIC",
          "synonyms": [
            "Ventricular tachycardia, monomorphic"
          ]
        },
        {
          "conceptId": "C62236",
          "definition": "A ventricular tachycardia in which the ventricular activation sequence is variable. The morphology of the electrocardiographic waveform is variable and is referred to as polymorphic. (NCI)",
          "preferredTerm": "Polymorphic Ventricular Tachycardia",
          "submissionValue": "VENTRICULAR TACHYCARDIA, POLYMORPHIC",
          "synonyms": [
            "Ventricular tachycardia, polymorphic"
          ]
        },
        {
          "conceptId": "C71058",
          "definition": "A well-recognized condition that is believed to result from triggered activity. Despite its uniform response to verapamil, however, this uncommon form of ventricular tachycardia may not be as homogeneous a condition as first believed. (NCI)",
          "preferredTerm": "Verapamil-Sensitive Ventricular Tachycardia",
          "submissionValue": "VERAPAMIL-SENSITIVE VENTRICULAR TACHYCARDIA",
          "synonyms": [
            "Verapamil-sensitive ventricular tachycardia"
          ]
        },
        {
          "conceptId": "C62240",
          "definition": "A condition characterized by the site of origin of impulses, controlling the heart rate, changing within the atria, including the sinus node. Variations within P waves and PR intervals occur and an irregular rate of impulse formation is observed. (NCI)",
          "preferredTerm": "Wandering Atrial Pacemaker",
          "submissionValue": "WANDERING ATRIAL PACEMAKER",
          "synonyms": [
            "Wandering atrial pacemaker"
          ]
        },
        {
          "conceptId": "C71090",
          "definition": "An electrocardiographic finding of a QRS complex. (NCI)",
          "preferredTerm": "Wide QRS Tachycardia",
          "submissionValue": "WIDE QRS TACHYCARDIA",
          "synonyms": [
            "Wide QRS tachycardia"
          ]
        },
        {
          "conceptId": "C35132",
          "definition": "A type of ventricular pre-excitation resulting from the activation of an accessory pathway known as the Bundle of Kent. This pathway presents an abnormal electrical communication from the atria to the ventricles. Wolff-Parkinson-White syndrome is characterized by a short PR interval and a long QRS interval with a delta wave. (NCI)",
          "preferredTerm": "Wolff-Parkinson-White Syndrome",
          "submissionValue": "WOLFF-PARKINSON-WHITE SYNDROME",
