{"_links": {"parentPackage": {"href": "/mdr/ct/packages/sendct-2018-06-29", "title": "SEND Controlled Terminology Package 34 Effective 2018-06-29", "type": "Terminology"}, "priorVersion": {"href": "/mdr/ct/packages/sendct-2018-03-30/codelists/C124319", "title": "CDISC SEND Implantation Findings Test Name Terminology", "type": "Code List"}, "rootItem": {"href": "/mdr/root/ct/sendct/codelists/C124319", "title": "Version-agnostic anchor resource for codelist C124319", "type": "Root Value Domain"}, "self": {"href": "/mdr/ct/packages/sendct-2018-06-29/codelists/C124319", "title": "CDISC SEND Implantation Findings Test Name Terminology", "type": "Code List"}}, "conceptId": "C124319", "definition": "Terminology for the test names relevant to implantation classifications.", "extensible": "true", "name": "Implantation Findings Test Name", "preferredTerm": "CDISC SEND Implantation Findings Test Name Terminology", "submissionValue": "ICTEST", "synonyms": ["Implantation Findings Test Name"], "terms": [{"conceptId": "C124279", "definition": "The condition of an implantation site, embryo, or fetus based on examination.", "preferredTerm": "Implantation Site Characterization", "submissionValue": "Implantation Site Characterization", "synonyms": ["Implantation Site Characterization"]}]}