{"_links": {"parentPackage": {"href": "/mdr/ct/packages/sendct-2018-06-29", "title": "SEND Controlled Terminology Package 34 Effective 2018-06-29", "type": "Terminology"}, "priorVersion": {"href": "/mdr/ct/packages/sendct-2018-03-30/codelists/C124316", "title": "CDISC SEND Implantation Findings Result Category Terminology", "type": "Code List"}, "rootItem": {"href": "/mdr/root/ct/sendct/codelists/C124316", "title": "Version-agnostic anchor resource for codelist C124316", "type": "Root Value Domain"}, "self": {"href": "/mdr/ct/packages/sendct-2018-06-29/codelists/C124316", "title": "CDISC SEND Implantation Findings Result Category Terminology", "type": "Code List"}}, "conceptId": "C124316", "definition": "Terminology relevant to the classifications of the results for implantation classification findings.", "extensible": "true", "name": "Implantation Findings Result Category", "preferredTerm": "CDISC SEND Implantation Findings Result Category Terminology", "submissionValue": "ICRESCAT", "synonyms": ["Implantation Findings Result Category"], "terms": [{"conceptId": "C28147", "definition": "Early stage in the prenatal development of an animal. This stage occurs from implantation until closure of the hard palate.", "preferredTerm": "Embryo", "submissionValue": "EMBRYO"}, {"conceptId": "C13235", "definition": "Late stage in the prenatal development of an animal. This stage occurs from the closure of the hard palate until birth.", "preferredTerm": "Fetus", "submissionValue": "FETUS"}, {"conceptId": "C93204", "definition": "A process in which tissue is absorbed by the body.", "preferredTerm": "Resorption", "submissionValue": "RESORPTION"}]}