{"_links": {"parentPackage": {"href": "/mdr/ct/packages/sendct-2018-06-29", "title": "SEND Controlled Terminology Package 34 Effective 2018-06-29", "type": "Terminology"}, "priorVersion": {"href": "/mdr/ct/packages/sendct-2018-03-30/codelists/C124312", "title": "CDISC SEND Fetal Measurement Test Name Terminology", "type": "Code List"}, "rootItem": {"href": "/mdr/root/ct/sendct/codelists/C124312", "title": "Version-agnostic anchor resource for codelist C124312", "type": "Root Value Domain"}, "self": {"href": "/mdr/ct/packages/sendct-2018-06-29/codelists/C124312", "title": "CDISC SEND Fetal Measurement Test Name Terminology", "type": "Code List"}}, "conceptId": "C124312", "definition": "Terminology for the test name relevant to fetal measurements.", "extensible": "true", "name": "Fetal Measurement Test Name", "preferredTerm": "CDISC SEND Fetal Measurement Test Name Terminology", "submissionValue": "FMTEST", "synonyms": ["Fetal Measurement Test Name"], "terms": [{"conceptId": "C124276", "definition": "A measurement of the length of the span between the anus and the base of the genitalia.", "preferredTerm": "Anogenital Distance", "submissionValue": "Anogenital Distance", "synonyms": ["Anogenital Distance"]}, {"conceptId": "C124478", "definition": "A measurement of the length of the span between the protuberances of the parietal bones of the skull.", "preferredTerm": "Biparietal Distance", "submissionValue": "Biparietal Distance", "synonyms": ["Biparietal Distance"]}, {"conceptId": "C64265", "definition": "The length of the closed curve of a circle; the size of something as given by the distance around it. (NCI)", "preferredTerm": "Circumference", "submissionValue": "Circumference", "synonyms": ["Circumference"]}, {"conceptId": "C81242", "definition": "A measurement from the proximal aspect of the head to the buttocks or proximal aspect of the tail.", "preferredTerm": "Crown to Rump Length Measurement", "submissionValue": "Crown Rump length", "synonyms": ["Crown Rump length"]}, {"conceptId": "C124479", "definition": "The weight of a fetus.", "preferredTerm": "Fetal Body Weight", "submissionValue": "Fetal Body Weight", "synonyms": ["Fetal Body Weight"]}, {"conceptId": "C124483", "definition": "The weight of a fetal organ.", "preferredTerm": "Fetal Organ Weight", "submissionValue": "Fetal Organ Weight", "synonyms": ["Fetal Organ Weight"]}, {"conceptId": "C124484", "definition": "Examination of the fetus to determine sex.", "preferredTerm": "Sex of Fetus", "submissionValue": "Fetal Sex", "synonyms": ["Fetal Sex"]}, {"conceptId": "C124480", "definition": "The amount of three dimensional space occupied by a fluid.", "preferredTerm": "Fluid Volume", "submissionValue": "Fluid Volume", "synonyms": ["Fluid Volume"]}, {"conceptId": "C25334", "definition": "The linear extent in space from one end of something to the other end, or the extent of something from beginning to end. (NCI)", "preferredTerm": "Length", "submissionValue": "Length", "synonyms": ["Length"]}, {"conceptId": "C124481", "definition": "A measurement of the skull, measured from the external occipital protuberance to the most prominent point of the frontal bone in the midline.", "preferredTerm": "Occipitofrontal Diameter", "submissionValue": "Occipitofrontal Diameter", "synonyms": ["Occipitofrontal Diameter"]}, {"conceptId": "C124482", "definition": "The number of skeletal elements with ossification centers present.", "preferredTerm": "Number of Ossified Skeletal Elements", "submissionValue": "Ossified Skeletal Element Count", "synonyms": ["Ossified Skeletal Element Count"]}]}