{"_links": {"parentPackage": {"href": "/mdr/ct/packages/sendct-2018-06-29", "title": "SEND Controlled Terminology Package 34 Effective 2018-06-29", "type": "Terminology"}, "priorVersion": {"href": "/mdr/ct/packages/sendct-2018-03-30/codelists/C124320", "title": "CDISC SEND Nonclinical DART Sex Terminology", "type": "Code List"}, "rootItem": {"href": "/mdr/root/ct/sendct/codelists/C124320", "title": "Version-agnostic anchor resource for codelist C124320", "type": "Root Value Domain"}, "self": {"href": "/mdr/ct/packages/sendct-2018-06-29/codelists/C124320", "title": "CDISC SEND Nonclinical DART Sex Terminology", "type": "Code List"}}, "conceptId": "C124320", "definition": "Terminology related to the determination of fetal sex in Developmental and Reproductive Toxicology (DART) studies.", "extensible": "false", "name": "Nonclinical DART Sex", "preferredTerm": "CDISC SEND Nonclinical DART Sex Terminology", "submissionValue": "NCDSEX", "synonyms": ["Nonclinical DART Sex"], "terms": [{"conceptId": "C46113", "definition": "Presence of female gonadal tissue or external phenotype.", "preferredTerm": "Female Phenotype", "submissionValue": "FEMALE"}, {"conceptId": "C45909", "definition": "Presence of both male and female gonadal tissue. (Makris S, Solomon HM, Clark R, Shiota K, Barbellion S, Buschmann J, Ema M, Fujiwara M, Grote K, Hazelden KP, Hew KW, Horimoto M, Ooshima Y, Parkinson M, Wise LD. Terminology of developmental abnormalities in common laboratory mammals (Version 2). Part B. Birth Defects Res B Dev Reprod Toxicol. 2009 Aug;86(4):227-327.)", "preferredTerm": "Hermaphrodite", "submissionValue": "HERMAPHRODITE"}, {"conceptId": "C48658", "definition": "Cannot distinguish between two or more possible values in the current context. (NCI)", "preferredTerm": "Indeterminate", "submissionValue": "INDETERMINATE", "synonyms": ["Inconclusive"]}, {"conceptId": "C46112", "definition": "Presence of male gonadal tissue or external phenotype.", "preferredTerm": "Male Phenotype", "submissionValue": "MALE"}]}