{"_links": {"parentPackage": {"href": "/mdr/ct/packages/sendct-2018-06-29", "title": "SEND Controlled Terminology Package 34 Effective 2018-06-29", "type": "Terminology"}, "priorVersion": {"href": "/mdr/ct/packages/sendct-2018-03-30/codelists/C89966", "title": "CDISC SEND Death Diagnosis Test Code Terminology", "type": "Code List"}, "rootItem": {"href": "/mdr/root/ct/sendct/codelists/C89966", "title": "Version-agnostic anchor resource for codelist C89966", "type": "Root Value Domain"}, "self": {"href": "/mdr/ct/packages/sendct-2018-06-29/codelists/C89966", "title": "CDISC SEND Death Diagnosis Test Code Terminology", "type": "Code List"}}, "conceptId": "C89966", "definition": "Terminology for the test codes concerned with the circumstance or condition that results in the death of a living being.", "extensible": "false", "name": "Death Diagnosis Test Code", "preferredTerm": "CDISC SEND Death Diagnosis Test Code Terminology", "submissionValue": "DDTESTCD", "synonyms": ["Death Diagnosis Test Code"], "terms": [{"conceptId": "C81239", "definition": "The circumstance or condition that results in the death of a living being. (NCI)", "preferredTerm": "Cause of Death", "submissionValue": "DEATHD", "synonyms": ["Death Diagnosis"]}]}