{"_links": {"parentPackage": {"href": "/mdr/ct/packages/ddfct-2022-12-16", "title": "DDF Controlled Terminology Package 52 Effective 2022-12-16", "type": "Terminology"}, "priorVersion": {"href": "/mdr/ct/packages/ddfct-2022-09-30/codelists/C188706", "title": "CDISC DDF Study Design Population Attribute Terminology", "type": "Code List"}, "rootItem": {"href": "/mdr/root/ct/ddfct/codelists/C188706", "title": "Version-agnostic anchor resource for codelist C188706", "type": "Root Value Domain"}, "self": {"href": "/mdr/ct/packages/ddfct-2022-12-16/codelists/C188706", "title": "CDISC DDF Study Design Population Attribute Terminology", "type": "Code List"}}, "conceptId": "C188706", "definition": "A terminology value set relevant to the attributes of the study design population.", "name": "DDF Study Design Population Attribute Terminology", "preferredTerm": "CDISC DDF Study Design Population Attribute Terminology", "submissionValue": "DDF Study Design Population Attribute Terminology", "synonyms": ["DDF Study Design Population Attribute Terminology"], "terms": [{"conceptId": "C70834", "definition": "The textual representation of the study population.", "preferredTerm": "Study Population Description", "submissionValue": "Target Study Population Description"}]}