{"_links": {"parentPackage": {"href": "/mdr/ct/packages/ddfct-2022-12-16", "title": "DDF Controlled Terminology Package 52 Effective 2022-12-16", "type": "Terminology"}, "priorVersion": {"href": "/mdr/ct/packages/ddfct-2022-09-30/codelists/C188699", "title": "CDISC DDF Clinical Study Attribute Terminology", "type": "Code List"}, "rootItem": {"href": "/mdr/root/ct/ddfct/codelists/C188699", "title": "Version-agnostic anchor resource for codelist C188699", "type": "Root Value Domain"}, "self": {"href": "/mdr/ct/packages/ddfct-2022-12-16/codelists/C188699", "title": "CDISC DDF Clinical Study Attribute Terminology", "type": "Code List"}}, "conceptId": "C188699", "definition": "A terminology value set relevant to the attributes of the clinical study.", "name": "DDF Clinical Study Attribute Terminology", "preferredTerm": "CDISC DDF Clinical Study Attribute Terminology", "submissionValue": "DDF Clinical Study Attribute Terminology", "synonyms": ["DDF Clinical Study Attribute Terminology"], "terms": [{"conceptId": "C49802", "definition": "The sponsor-defined name of the clinical study.", "preferredTerm": "Trial Title", "submissionValue": "Study Title", "synonyms": ["Official Study Title", "Study Title", "Trial Title"]}, {"conceptId": "C142175", "definition": "The nature of the investigation for which study information is being collected. (After clinicaltrials.gov)", "preferredTerm": "Study Type", "submissionValue": "Study Type Classification", "synonyms": ["Study Type", "Study Type Classification"]}, {"conceptId": "C188816", "definition": "A plan at a particular point in time for a study.", "preferredTerm": "Study Version", "submissionValue": "Study Version"}, {"conceptId": "C48281", "definition": "A step in the clinical research and development of a therapy from initial clinical trials to post-approval studies. NOTE: Clinical trials are generally categorized into four (sometimes five) phases. A therapeutic intervention may be evaluated in two or more phases simultaneously in different trials, and some trials may overlap two different phases. [21 CFR section 312.21; After ICH Topic E8 NOTE FOR GUIDANCE ON GENERAL CONSIDERATIONS FOR CLINICAL TRIALS, CPMP/ICH/291/95 March 1998]", "preferredTerm": "Trial Phase", "submissionValue": "Trial Phase", "synonyms": ["Trial Phase", "Trial Phase Classification"]}]}