{"_links": {"parentPackage": {"href": "/mdr/ct/packages/ddfct-2022-12-16", "title": "DDF Controlled Terminology Package 52 Effective 2022-12-16", "type": "Terminology"}, "priorVersion": {"href": "/mdr/ct/packages/ddfct-2022-09-30/codelists/C188704", "title": "CDISC DDF Investigational Interventions Attribute Terminology", "type": "Code List"}, "rootItem": {"href": "/mdr/root/ct/ddfct/codelists/C188704", "title": "Version-agnostic anchor resource for codelist C188704", "type": "Root Value Domain"}, "self": {"href": "/mdr/ct/packages/ddfct-2022-12-16/codelists/C188704", "title": "CDISC DDF Investigational Interventions Attribute Terminology", "type": "Code List"}}, "conceptId": "C188704", "definition": "A terminology value set relevant to the attributes of the investigational interventions.", "name": "DDF Investigational Interventions Attribute Terminology", "preferredTerm": "CDISC DDF Investigational Interventions Attribute Terminology", "submissionValue": "DDF Investigational Interventions Attribute Terminology", "synonyms": ["DDF Investigational Interventions Attribute Terminology"], "terms": [{"conceptId": "C177931", "definition": "The textual representation of the study intervention.", "preferredTerm": "Intervention Description", "submissionValue": "Intervention Description"}, {"conceptId": "C188821", "definition": "A short sequence of characters that represents the investigational intervention.", "preferredTerm": "Investigational Intervention Code", "submissionValue": "Investigational Intervention Code"}]}