{"_links": {"parentPackage": {"href": "/mdr/ct/packages/ddfct-2022-12-16", "title": "DDF Controlled Terminology Package 52 Effective 2022-12-16", "type": "Terminology"}, "priorVersion": {"href": "/mdr/ct/packages/ddfct-2022-09-30/codelists/C188728", "title": "CDISC DDF Encounter Type Value Set Terminology", "type": "Code List"}, "rootItem": {"href": "/mdr/root/ct/ddfct/codelists/C188728", "title": "Version-agnostic anchor resource for codelist C188728", "type": "Root Value Domain"}, "self": {"href": "/mdr/ct/packages/ddfct-2022-12-16/codelists/C188728", "title": "CDISC DDF Encounter Type Value Set Terminology", "type": "Code List"}}, "conceptId": "C188728", "definition": "The terminology relevant to the encounter type.", "name": "Encounter Type Value Set Terminology", "preferredTerm": "CDISC DDF Encounter Type Value Set Terminology", "submissionValue": "Encounter Type Value Set Terminology", "synonyms": ["Encounter Type Value Set Terminology"], "terms": [{"conceptId": "C25716", "definition": "The act of going to see some person or place or thing; it can cover a short or long period but refers to a non-permanent arrangement.", "preferredTerm": "Visit", "submissionValue": "Visit"}]}