{"_links": {"parentPackage": {"href": "/mdr/ct/packages/ddfct-2022-12-16", "title": "DDF Controlled Terminology Package 52 Effective 2022-12-16", "type": "Terminology"}, "priorVersion": {"href": "/mdr/ct/packages/ddfct-2022-09-30/codelists/C188725", "title": "CDISC DDF Objective Level Value Set Terminology", "type": "Code List"}, "rootItem": {"href": "/mdr/root/ct/ddfct/codelists/C188725", "title": "Version-agnostic anchor resource for codelist C188725", "type": "Root Value Domain"}, "self": {"href": "/mdr/ct/packages/ddfct-2022-12-16/codelists/C188725", "title": "CDISC DDF Objective Level Value Set Terminology", "type": "Code List"}}, "conceptId": "C188725", "definition": "The terminology relevant to the objective level.", "name": "Objective Level Value Set Terminology", "preferredTerm": "CDISC DDF Objective Level Value Set Terminology", "submissionValue": "Objective Level Value Set Terminology", "synonyms": ["Objective Level Value Set Terminology"], "terms": [{"conceptId": "C85826", "definition": "A principle objective of the study.", "preferredTerm": "Trial Primary Objective", "submissionValue": "Study Primary Objective", "synonyms": ["Study Primary Objective", "Trial Primary Objective"]}, {"conceptId": "C85827", "definition": "An auxiliary objective of the study.", "preferredTerm": "Trial Secondary Objective", "submissionValue": "Study Secondary Objective", "synonyms": ["Study Secondary Objective", "Trial Secondary Objective"]}]}