{"_links": {"parentPackage": {"href": "/mdr/ct/packages/ddfct-2022-12-16", "title": "DDF Controlled Terminology Package 52 Effective 2022-12-16", "type": "Terminology"}, "priorVersion": {"href": "/mdr/ct/packages/ddfct-2022-09-30/codelists/C188707", "title": "CDISC DDF Objective Attribute Terminology", "type": "Code List"}, "rootItem": {"href": "/mdr/root/ct/ddfct/codelists/C188707", "title": "Version-agnostic anchor resource for codelist C188707", "type": "Root Value Domain"}, "self": {"href": "/mdr/ct/packages/ddfct-2022-12-16/codelists/C188707", "title": "CDISC DDF Objective Attribute Terminology", "type": "Code List"}}, "conceptId": "C188707", "definition": "A terminology value set relevant to the attributes of the objective.", "name": "DDF Objective Attribute Terminology", "preferredTerm": "CDISC DDF Objective Attribute Terminology", "submissionValue": "DDF Objective Attribute Terminology", "synonyms": ["DDF Objective Attribute Terminology"], "terms": [{"conceptId": "C94090", "definition": "The textual representation of the study objective. (BRIDG)", "preferredTerm": "Study Objective Description", "submissionValue": "Study Objective Description"}, {"conceptId": "C188823", "definition": "A characterization or classification of the study endpoint that determines its category of importance relative to other study objectives.", "preferredTerm": "Study Objective Level", "submissionValue": "Study Objective Level"}]}