{"_links": {"parentPackage": {"href": "/mdr/ct/packages/ddfct-2022-12-16", "title": "DDF Controlled Terminology Package 52 Effective 2022-12-16", "type": "Terminology"}, "priorVersion": {"href": "/mdr/ct/packages/ddfct-2022-09-30/codelists/C188703", "title": "CDISC DDF Study Design Attribute Terminology", "type": "Code List"}, "rootItem": {"href": "/mdr/root/ct/ddfct/codelists/C188703", "title": "Version-agnostic anchor resource for codelist C188703", "type": "Root Value Domain"}, "self": {"href": "/mdr/ct/packages/ddfct-2022-12-16/codelists/C188703", "title": "CDISC DDF Study Design Attribute Terminology", "type": "Code List"}}, "conceptId": "C188703", "definition": "A terminology value set relevant to the attributes of the study design.", "name": "DDF Study Design Attribute Terminology", "preferredTerm": "CDISC DDF Study Design Attribute Terminology", "submissionValue": "DDF Study Design Attribute Terminology", "synonyms": ["DDF Study Design Attribute Terminology"], "terms": [{"conceptId": "C98746", "definition": "The general design of the strategy for assigning interventions to participants in a clinical study. (clinicaltrials.gov)", "preferredTerm": "Intervention Model", "submissionValue": "Intervention Model Type", "synonyms": ["Intervention Model"]}, {"conceptId": "C49652", "definition": "The planned purpose of the therapy, device, or agent under study in the clinical trial.", "preferredTerm": "Clinical Study by Intent", "submissionValue": "Trial Intent Type", "synonyms": ["Trial Intent Type"]}, {"conceptId": "C49660", "definition": "The nature of the interventional study for which information is being collected.", "preferredTerm": "Trial Type", "submissionValue": "Trial Type", "synonyms": ["Trial Scope", "Trial Type"]}]}