{"_links": {"parentPackage": {"href": "/mdr/ct/packages/ddfct-2022-12-16", "title": "DDF Controlled Terminology Package 52 Effective 2022-12-16", "type": "Terminology"}, "priorVersion": {"href": "/mdr/ct/packages/ddfct-2022-09-30/codelists/C188711", "title": "CDISC DDF Study Element Attribute Terminology", "type": "Code List"}, "rootItem": {"href": "/mdr/root/ct/ddfct/codelists/C188711", "title": "Version-agnostic anchor resource for codelist C188711", "type": "Root Value Domain"}, "self": {"href": "/mdr/ct/packages/ddfct-2022-12-16/codelists/C188711", "title": "CDISC DDF Study Element Attribute Terminology", "type": "Code List"}}, "conceptId": "C188711", "definition": "A terminology value set relevant to the attributes of the study element.", "name": "DDF Study Element Attribute Terminology", "preferredTerm": "CDISC DDF Study Element Attribute Terminology", "submissionValue": "DDF Study Element Attribute Terminology", "synonyms": ["DDF Study Element Attribute Terminology"], "terms": [{"conceptId": "C188834", "definition": "The textual representation of the study design element.", "preferredTerm": "Study Design Element Description", "submissionValue": "Study Design Element Description"}, {"conceptId": "C188833", "definition": "The literal identifier (i.e., distinctive designation) of the study design element.", "preferredTerm": "Study Design Element Name", "submissionValue": "Study Design Element Name"}]}