{"_links": {"parentPackage": {"href": "/mdr/ct/packages/ddfct-2022-12-16", "title": "DDF Controlled Terminology Package 52 Effective 2022-12-16", "type": "Terminology"}, "priorVersion": {"href": "/mdr/ct/packages/ddfct-2022-09-30/codelists/C188719", "title": "CDISC DDF Estimand Attribute Terminology", "type": "Code List"}, "rootItem": {"href": "/mdr/root/ct/ddfct/codelists/C188719", "title": "Version-agnostic anchor resource for codelist C188719", "type": "Root Value Domain"}, "self": {"href": "/mdr/ct/packages/ddfct-2022-12-16/codelists/C188719", "title": "CDISC DDF Estimand Attribute Terminology", "type": "Code List"}}, "conceptId": "C188719", "definition": "A terminology value set relevant to the attributes of the estimand.", "name": "DDF Estimand Attribute Terminology", "preferredTerm": "CDISC DDF Estimand Attribute Terminology", "submissionValue": "DDF Estimand Attribute Terminology", "synonyms": ["DDF Estimand Attribute Terminology"], "terms": [{"conceptId": "C188853", "definition": "A synopsis of the clinical endpoint of interest within the analysis target study population.", "preferredTerm": "Population-Level Summary", "submissionValue": "Population-Level Summary"}]}