{"_links": {"parentPackage": {"href": "/mdr/ct/packages/ddfct-2022-12-16", "title": "DDF Controlled Terminology Package 52 Effective 2022-12-16", "type": "Terminology"}, "priorVersion": {"href": "/mdr/ct/packages/ddfct-2022-09-30/codelists/C188724", "title": "CDISC DDF Organization Type Value Set Terminology", "type": "Code List"}, "rootItem": {"href": "/mdr/root/ct/ddfct/codelists/C188724", "title": "Version-agnostic anchor resource for codelist C188724", "type": "Root Value Domain"}, "self": {"href": "/mdr/ct/packages/ddfct-2022-12-16/codelists/C188724", "title": "CDISC DDF Organization Type Value Set Terminology", "type": "Code List"}}, "conceptId": "C188724", "definition": "The terminology relevant to the organization type.", "name": "Organization Type Value Set Terminology", "preferredTerm": "CDISC DDF Organization Type Value Set Terminology", "submissionValue": "Organization Type Value Set Terminology", "synonyms": ["Organization Type Value Set Terminology"], "terms": [{"conceptId": "C93453", "definition": "An organization (typically a government agency) that administers the registration of studies. (BRIDG)", "preferredTerm": "Study Registry", "submissionValue": "Clinical Study Registry"}, {"conceptId": "C70793", "definition": "An individual, company, institution, or organization that takes responsibility for the initiation, management, and/or financing of a clinical study. [After ICH E6, WHO, 21 CFR 50.3 (e), and after IDMP]", "preferredTerm": "Clinical Study Sponsor", "submissionValue": "Clinical Study Sponsor", "synonyms": ["Clinical Study Sponsor", "Sponsor", "Study Sponsor"]}, {"conceptId": "C188863", "definition": "An organization (typically a government agency) that is responsible for implementing and enforcing laws, licensing and regulating products and services, promoting the use of standards, and ensuring safety and consumer protections.", "preferredTerm": "Regulatory Agency", "submissionValue": "Regulatory Agency", "synonyms": ["Regulator", "Regulatory Body"]}]}