{
  "_links": {
    "priorVersion": {
      "href": "",
      "title": "",
      "type": "Terminology"
    },
    "self": {
      "href": "",
      "title": "",
      "type": "Terminology"
    }
  },
  "codelists": [
    {
      "conceptId": "C81225",
      "definition": "Parameter Type",
      "extensible": "No",
      "name": "Parameter Type",
      "preferredTerm": "PARAMTYP",
      "submissionValue": "PARAMTYP",
      "synonyms": [
        "Parameter Type: Indicates whether the parameter is derived as a function of one or more other parameters."
      ],
      "terms": [
        {
          "conceptId": "C81197",
          "definition": "",
          "preferredTerm": "DERIVED",
          "submissionValue": "DERIVED",
          "synonyms": [
            "Derived: Indicates that a parameter is derived as a function of one or more other parameters."
          ]
        }
      ]
    },
    {
      "conceptId": "C81223",
      "definition": "Date Imputation Flag",
      "extensible": "No",
      "name": "Date Imputation Flag",
      "preferredTerm": "DATEFL",
      "submissionValue": "DATEFL",
      "synonyms": [
        "Date Imputation Flag: Indicates the level of imputation reflected in a date value."
      ],
      "terms": [
        {
          "conceptId": "C81210",
          "definition": "",
          "preferredTerm": "Y",
          "submissionValue": "Y",
          "synonyms": [
            "Year Imputed: Entire date (year, month and day) is imputed."
          ]
        },
        {
          "conceptId": "C81211",
          "definition": "",
          "preferredTerm": "M",
          "submissionValue": "M",
          "synonyms": [
            "Month Imputed: Month and day are imputed."
          ]
        },
        {
          "conceptId": "C81212",
          "definition": "",
          "preferredTerm": "D",
          "submissionValue": "D",
          "synonyms": [
            "Day Imputed: Day is imputed."
          ]
        }
      ]
    },
    {
      "conceptId": "C81226",
      "definition": "Time Imputation Flag",
      "extensible": "No",
      "name": "Time Imputation Flag",
      "preferredTerm": "TIMEFL",
      "submissionValue": "TIMEFL",
      "synonyms": [
        "Time Imputation Flag: Indicates the level of imputation reflected in a time value."
      ],
      "terms": [
        {
          "conceptId": "C81214",
          "definition": "",
          "preferredTerm": "M",
          "submissionValue": "M",
          "synonyms": [
            "Minutes Imputed: Minutes and seconds are imputed."
          ]
        },
        {
          "conceptId": "C81215",
          "definition": "",
          "preferredTerm": "S",
          "submissionValue": "S",
          "synonyms": [
            "Seconds Imputed: Seconds are imputed."
          ]
        },
        {
          "conceptId": "C81213",
          "definition": "",
          "preferredTerm": "H",
          "submissionValue": "H",
          "synonyms": [
            "Hours Imputed: Entire time (hours, minutes and seconds) is imputed."
          ]
        }
      ]
    },
    {
      "conceptId": "C81224",
      "definition": "Derivation Type",
      "extensible": "Yes",
      "name": "Derivation Type",
      "preferredTerm": "DTYPE",
      "submissionValue": "DTYPE",
      "synonyms": [
        "Derivation Type: Analysis value derivation method."
      ],
      "terms": [
        {
          "conceptId": "C53331",
          "definition": "",
          "preferredTerm": "ML",
          "submissionValue": "ML",
          "synonyms": [
            "Maximum Likelihood: A data imputation technique which populates missing values with estimates that maximize the probability of observing what has in fact been observed."
          ]
        },
        {
          "conceptId": "C81198",
          "definition": "",
          "preferredTerm": "LOCF",
          "submissionValue": "LOCF",
          "synonyms": [
            "Last Observation Carried Forward: A data imputation technique which populates missing values with the subject's previous nonmissing value."
          ]
        },
        {
          "conceptId": "C81199",
          "definition": "",
          "preferredTerm": "WOCF",
          "submissionValue": "WOCF",
          "synonyms": [
            "Worst Observation Carried Forward: A data imputation technique which populates missing values with the subject's worst-case nonmissing value."
          ]
        },
        {
          "conceptId": "C81200",
          "definition": "",
          "preferredTerm": "SOCF",
          "submissionValue": "SOCF",
          "synonyms": [
            "Screening Observation Carried Forward: A data imputation technique which populates missing values with the subject's nonmissing screening observation."
          ]
        },
        {
          "conceptId": "C81201",
          "definition": "",
          "preferredTerm": "BLOCF",
          "submissionValue": "BLOCF",
          "synonyms": [
            "Baseline Observation Carried Forward: A data imputation technique which populates missing values with the subject's nonmissing baseline observation."
          ]
        },
        {
          "conceptId": "C81203",
          "definition": "",
          "preferredTerm": "WC",
          "submissionValue": "WC",
          "synonyms": [
            "Worst Case: A data imputation technique which populates missing values with the worst possible outcome."
          ]
        },
        {
          "conceptId": "C81204",
          "definition": "",
          "preferredTerm": "MOTH",
          "submissionValue": "MOTH",
          "synonyms": [
            "Mean of Other Group: A data imputation technique which populates missing values with the mean value from a comparator or reference group."
          ]
        },
        {
          "conceptId": "C81205",
          "definition": "",
          "preferredTerm": "POCF",
          "submissionValue": "POCF",
          "synonyms": [
            "Penultimate Observation Carried Forward: A data imputation technique which populates missing values with the subject's next-to-last nonmissing value."
          ]
        },
        {
          "conceptId": "C81206",
          "definition": "",
          "preferredTerm": "WOV",
          "submissionValue": "WOV",
          "synonyms": [
            "Worst Observed Value in a Group: A data imputation technique which populates missing values with the worst value observed in a group of subjects."
          ]
        },
        {
          "conceptId": "C81207",
          "definition": "",
          "preferredTerm": "MOV",
          "submissionValue": "MOV",
          "synonyms": [
            "Mean Observed Value in a Group: A data imputation technique which populates missing values with the mean value observed in a group of subjects."
          ]
        },
        {
          "conceptId": "C81208",
          "definition": "",
          "preferredTerm": "INTERP",
          "submissionValue": "INTERP",
          "synonyms": [
            "Interpolation: A method of imputation involving a missing value that is between known values and is estimated by a function of those known values."
          ]
        },
        {
          "conceptId": "C81209",
          "definition": "",
          "preferredTerm": "AVERAGE",
          "submissionValue": "AVERAGE",
          "synonyms": [
            "Average: A data derivation technique which calculates a subject's average value over a defined set of records."
          ]
        },
        {
          "conceptId": "C82866",
          "definition": "",
          "preferredTerm": "ENDPOINT",
          "submissionValue": "ENDPOINT",
          "synonyms": [
            "Endpoint: A data derivation technique which calculates a subject's analysis end point value."
          ]
        },
        {
          "conceptId": "C82867",
          "definition": "",
          "preferredTerm": "MINIMUM",
          "submissionValue": "MINIMUM",
          "synonyms": [
            "Minimum: A data derivation technique which calculates a subject's minimum value over a defined set of records."
          ]
        },
        {
          "conceptId": "C82868",
          "definition": "",
          "preferredTerm": "MAXIMUM",
          "submissionValue": "MAXIMUM",
          "synonyms": [
            "Maximum: A data derivation technique which calculates a subject's maximum value over a defined set of records."
          ]
        }
      ]
    }
  ]
}