{
  "_links": {
    "priorVersion": {
      "href": "",
      "title": "",
      "type": "Terminology"
    },
    "self": {
      "href": "",
      "title": "",
      "type": "Terminology"
    }
  },
  "codelists": [
    {
      "conceptId": "C81225",
      "definition": "Parameter Type",
      "extensible": "No",
      "name": "Parameter Type",
      "preferredTerm": "Parameter Type: Indicates whether the parameter is derived as a function of one or more other parameters.",
      "submissionValue": "PARAMTYP",
      "synonyms": [
        "PARAMTYP"
      ],
      "terms": [
        {
          "conceptId": "C81197",
          "definition": "",
          "preferredTerm": "Derived: Indicates that a parameter is derived as a function of one or more other parameters.",
          "submissionValue": "DERIVED",
          "synonyms": [
            "DERIVED"
          ]
        }
      ]
    },
    {
      "conceptId": "C81223",
      "definition": "Date Imputation Flag",
      "extensible": "No",
      "name": "Date Imputation Flag",
      "preferredTerm": "Date Imputation Flag: Indicates the level of imputation reflected in a date value.",
      "submissionValue": "DATEFL",
      "synonyms": [
        "DATEFL"
      ],
      "terms": [
        {
          "conceptId": "C81210",
          "definition": "",
          "preferredTerm": "Year Imputed: Entire date (year, month and day) is imputed.",
          "submissionValue": "Y",
          "synonyms": [
            "Y"
          ]
        },
        {
          "conceptId": "C81211",
          "definition": "",
          "preferredTerm": "Month Imputed: Month and day are imputed.",
          "submissionValue": "M",
          "synonyms": [
            "M"
          ]
        },
        {
          "conceptId": "C81212",
          "definition": "",
          "preferredTerm": "Day Imputed: Day is imputed.",
          "submissionValue": "D",
          "synonyms": [
            "D"
          ]
        }
      ]
    },
    {
      "conceptId": "C81226",
      "definition": "Time Imputation Flag",
      "extensible": "No",
      "name": "Time Imputation Flag",
      "preferredTerm": "Time Imputation Flag: Indicates the level of imputation reflected in a time value.",
      "submissionValue": "TIMEFL",
      "synonyms": [
        "TIMEFL"
      ],
      "terms": [
        {
          "conceptId": "C81214",
          "definition": "",
          "preferredTerm": "Minutes Imputed: Minutes and seconds are imputed.",
          "submissionValue": "M",
          "synonyms": [
            "M"
          ]
        },
        {
          "conceptId": "C81215",
          "definition": "",
          "preferredTerm": "Seconds Imputed: Seconds are imputed.",
          "submissionValue": "S",
          "synonyms": [
            "S"
          ]
        },
        {
          "conceptId": "C81213",
          "definition": "",
          "preferredTerm": "Hours Imputed: Entire time (hours, minutes and seconds) is imputed.",
          "submissionValue": "H",
          "synonyms": [
            "H"
          ]
        }
      ]
    },
    {
      "conceptId": "C81224",
      "definition": "Derivation Type",
      "extensible": "Yes",
      "name": "Derivation Type",
      "preferredTerm": "Derivation Type: Analysis value derivation method.",
      "submissionValue": "DTYPE",
      "synonyms": [
        "DTYPE"
      ],
      "terms": [
        {
          "conceptId": "C53331",
          "definition": "",
          "preferredTerm": "Maximum Likelihood: A data imputation technique which populates missing values with estimates that maximize the probability of observing what has in fact been observed.",
          "submissionValue": "ML",
          "synonyms": [
            "ML"
          ]
        },
        {
          "conceptId": "C81198",
          "definition": "",
          "preferredTerm": "Last Observation Carried Forward: A data imputation technique which populates missing values with the subject's previous nonmissing value.",
          "submissionValue": "LOCF",
          "synonyms": [
            "LOCF"
          ]
        },
        {
          "conceptId": "C81199",
          "definition": "",
          "preferredTerm": "Worst Observation Carried Forward: A data imputation technique which populates missing values with the subject's worst-case nonmissing value.",
          "submissionValue": "WOCF",
          "synonyms": [
            "WOCF"
          ]
        },
        {
          "conceptId": "C81200",
          "definition": "",
          "preferredTerm": "Screening Observation Carried Forward: A data imputation technique which populates missing values with the subject's nonmissing screening observation.",
          "submissionValue": "SOCF",
          "synonyms": [
            "SOCF"
          ]
        },
        {
          "conceptId": "C81201",
          "definition": "",
          "preferredTerm": "Baseline Observation Carried Forward: A data imputation technique which populates missing values with the subject's nonmissing baseline observation.",
          "submissionValue": "BLOCF",
          "synonyms": [
            "BLOCF"
          ]
        },
        {
          "conceptId": "C81203",
          "definition": "",
          "preferredTerm": "Worst Case: A data imputation technique which populates missing values with the worst possible outcome.",
          "submissionValue": "WC",
          "synonyms": [
            "WC"
          ]
        },
        {
          "conceptId": "C81204",
          "definition": "",
          "preferredTerm": "Mean of Other Group: A data imputation technique which populates missing values with the mean value from a comparator or reference group.",
          "submissionValue": "MOTH",
          "synonyms": [
            "MOTH"
          ]
        },
        {
          "conceptId": "C81205",
          "definition": "",
          "preferredTerm": "Penultimate Observation Carried Forward: A data imputation technique which populates missing values with the subject's next-to-last nonmissing value.",
          "submissionValue": "POCF",
          "synonyms": [
            "POCF"
          ]
        },
        {
          "conceptId": "C81206",
          "definition": "",
          "preferredTerm": "Worst Observed Value in a Group: A data imputation technique which populates missing values with the worst value observed in a group of subjects.",
          "submissionValue": "WOV",
          "synonyms": [
            "WOV"
          ]
        },
        {
          "conceptId": "C81207",
          "definition": "",
          "preferredTerm": "Mean Observed Value in a Group: A data imputation technique which populates missing values with the mean value observed in a group of subjects.",
          "submissionValue": "MOV",
          "synonyms": [
            "MOV"
          ]
        },
        {
          "conceptId": "C81208",
          "definition": "",
          "preferredTerm": "Interpolation: A method of imputation involving a missing value that is between known values and is estimated by a function of those known values.",
          "submissionValue": "INTERP",
          "synonyms": [
            "INTERP"
          ]
        },
        {
          "conceptId": "C81209",
          "definition": "",
          "preferredTerm": "Average: A data derivation technique which calculates a subject's average value over a defined set of records.",
          "submissionValue": "AVERAGE",
          "synonyms": [
            "AVERAGE"
          ]
        },
        {
          "conceptId": "C82866",
          "definition": "",
          "preferredTerm": "Endpoint: A data derivation technique which calculates a subject's analysis end point value.",
          "submissionValue": "ENDPOINT",
          "synonyms": [
            "ENDPOINT"
          ]
        },
        {
          "conceptId": "C82867",
          "definition": "",
          "preferredTerm": "Minimum: A data derivation technique which calculates a subject's minimum value over a defined set of records.",
          "submissionValue": "MINIMUM",
          "synonyms": [
            "MINIMUM"
          ]
        },
        {
          "conceptId": "C82868",
          "definition": "",
          "preferredTerm": "Maximum: A data derivation technique which calculates a subject's maximum value over a defined set of records.",
          "submissionValue": "MAXIMUM",
          "synonyms": [
            "MAXIMUM"
          ]
        },
        {
          "conceptId": "C92225",
          "definition": "",
          "preferredTerm": "Best Case: A data imputation technique which populates missing values with the best possible outcome.",
          "submissionValue": "BC",
          "synonyms": [
            "BC"
          ]
        },
        {
          "conceptId": "C92226",
          "definition": "",
          "preferredTerm": "Best Observation Carried Forward: A data imputation technique which populates missing values with the subject's best-case nonmissing value.",
          "submissionValue": "BOCF",
          "synonyms": [
            "BOCF"
          ]
        }
      ]
    }
  ]
}