{"_links": {"parentPackage": {"href": "/mdr/ct/packages/adamct-2016-12-16", "title": "ADaM Controlled Terminology Package 28 Effective 2016-12-16", "type": "Terminology"}, "priorVersion": {"href": "/mdr/ct/packages/adamct-2016-09-30/codelists/C81226", "title": "CDISC ADaM Time Imputation Flag Terminology", "type": "Code List"}, "rootItem": {"href": "/mdr/root/ct/adamct/codelists/C81226", "title": "Version-agnostic anchor resource for codelist C81226", "type": "Root Value Domain"}, "self": {"href": "/mdr/ct/packages/adamct-2016-12-16/codelists/C81226", "title": "CDISC ADaM Time Imputation Flag Terminology", "type": "Code List"}}, "conceptId": "C81226", "definition": "Time Imputation Flag: Indicates the level of imputation reflected in a time value.", "extensible": "false", "name": "Time Imputation Flag", "preferredTerm": "CDISC ADaM Time Imputation Flag Terminology", "submissionValue": "TIMEFL", "synonyms": ["Time Imputation Flag"], "terms": [{"conceptId": "C81213", "definition": "Hours Imputed: Entire time (hours, minutes and seconds) is imputed.", "preferredTerm": "Hours Minutes Seconds Imputed", "submissionValue": "H"}, {"conceptId": "C81214", "definition": "Minutes Imputed: Minutes and seconds are imputed.", "preferredTerm": "Minutes Seconds Imputed", "submissionValue": "M"}, {"conceptId": "C81215", "definition": "Seconds Imputed: Seconds are imputed.", "preferredTerm": "Seconds Imputed", "submissionValue": "S"}]}