{"_links": {"parentPackage": {"href": "/mdr/ct/packages/sdtmct-2015-03-27", "title": "SDTM Controlled Terminology Package 21 Effective 2015-03-27", "type": "Terminology"}, "priorVersion": {"href": "/mdr/ct/packages/sdtmct-2014-12-19/codelists/C102585", "title": "CDISC SDTM Treatment Failure Reason Terminology", "type": "Code List"}, "rootItem": {"href": "/mdr/root/ct/sdtmct/codelists/C102585", "title": "Version-agnostic anchor resource for codelist C102585", "type": "Root Value Domain"}, "self": {"href": "/mdr/ct/packages/sdtmct-2015-03-27/codelists/C102585", "title": "CDISC SDTM Treatment Failure Reason Terminology", "type": "Code List"}}, "conceptId": "C102585", "definition": "Terminology relevant to the reason the drug or therapy was unsuccessful in treating the condition.", "extensible": "true", "name": "Treatment Failure Reason", "preferredTerm": "CDISC SDTM Treatment Failure Reason Terminology", "submissionValue": "REASTRTF", "synonyms": ["Treatment Failure Reason"], "terms": [{"conceptId": "C17449", "definition": "The mechanisms, functions, activities, or processes exhibited by microorganisms, especially bacteria, to resist or to become tolerant to antibiotics.", "preferredTerm": "Antibiotic Resistance", "submissionValue": "ANTIBIOTIC RESISTANCE"}, {"conceptId": "C49501", "definition": "An indication that a medication schedule was modified by temporarily terminating a prescribed regimen of medication. (NCI)", "preferredTerm": "Drug Interrupted", "submissionValue": "DRUG INTERRUPTED"}, {"conceptId": "C91752", "definition": "Failure of a patient to follow medical advice, take medication as directed, or adhere to a prescribed course of treatment.", "preferredTerm": "Patient Noncompliance", "submissionValue": "PATIENT NONCOMPLIANCE"}, {"conceptId": "C102715", "definition": "A drug serum concentration below therapeutic levels.", "preferredTerm": "Sub-therapeutic Drug Level", "submissionValue": "SUB-THERAPEUTIC DRUG LEVEL"}]}