{"_links": {"parentPackage": {"href": "/mdr/ct/packages/sdtmct-2015-03-27", "title": "SDTM Controlled Terminology Package 21 Effective 2015-03-27", "type": "Terminology"}, "priorVersion": {"href": "/mdr/ct/packages/sdtmct-2014-12-19/codelists/C116107", "title": "CDISC SDTM Death Details Test Name Terminology", "type": "Code List"}, "rootItem": {"href": "/mdr/root/ct/sdtmct/codelists/C116107", "title": "Version-agnostic anchor resource for codelist C116107", "type": "Root Value Domain"}, "self": {"href": "/mdr/ct/packages/sdtmct-2015-03-27/codelists/C116107", "title": "CDISC SDTM Death Details Test Name Terminology", "type": "Code List"}}, "conceptId": "C116107", "definition": "Terminology relevant to the death detail assessment name.", "extensible": "true", "name": "Death Details Test Name", "preferredTerm": "CDISC SDTM Death Details Test Name Terminology", "submissionValue": "DDTEST", "synonyms": ["Death Details Test Name"], "terms": [{"conceptId": "C99531", "definition": "The primary significant event which ultimately led to death.", "preferredTerm": "Primary Cause of Death", "submissionValue": "Primary Cause of Death", "synonyms": ["Primary Cause of Death"]}, {"conceptId": "C116142", "definition": "The secondary significant event which ultimately led to death.", "preferredTerm": "Secondary Cause of Death", "submissionValue": "Secondary Cause of Death", "synonyms": ["Secondary Cause of Death"]}]}