{"_links": {"parentPackage": {"href": "/mdr/ct/packages/sdtmct-2015-03-27", "title": "SDTM Controlled Terminology Package 21 Effective 2015-03-27", "type": "Terminology"}, "priorVersion": {"href": "/mdr/ct/packages/sdtmct-2014-12-19/codelists/C116104", "title": "CDISC SDTM Nervous System Physiology Test Code Terminology", "type": "Code List"}, "rootItem": {"href": "/mdr/root/ct/sdtmct/codelists/C116104", "title": "Version-agnostic anchor resource for codelist C116104", "type": "Root Value Domain"}, "self": {"href": "/mdr/ct/packages/sdtmct-2015-03-27/codelists/C116104", "title": "CDISC SDTM Nervous System Physiology Test Code Terminology", "type": "Code List"}}, "conceptId": "C116104", "definition": "Terminology relevant to the test codes that describe nervous system physiology findings.", "extensible": "true", "name": "Nervous System Physiology Test Code", "preferredTerm": "CDISC SDTM Nervous System Physiology Test Code Terminology", "submissionValue": "NVTESTCD", "synonyms": ["Nervous System Physiology Test Code"], "terms": [{"conceptId": "C117886", "definition": "An assessment of the latency of the N145 or N2 wave of the visual evoked potential assessment waveform.", "preferredTerm": "N145 Latency", "submissionValue": "N145LAT", "synonyms": ["N145 Latency"]}, {"conceptId": "C117887", "definition": "The magnitude, or height, of the P100 wave of the visual evoked potential assessment waveform. This assessment calculates the height from the N75 negative peak to the P100 positive peak.", "preferredTerm": "N75 to P100 Peak to Peak Amplitude", "submissionValue": "P100AMP", "synonyms": ["P100 Amplitude"]}, {"conceptId": "C117888", "definition": "An assessment of the latency of the P100 or P1 wave of the visual evoked potential assessment waveform.", "preferredTerm": "P100 Latency", "submissionValue": "P100LAT", "synonyms": ["P100 Latency"]}, {"conceptId": "C116141", "definition": "The ratio between the uptake or binding of a radiopharmaceutical agent in an anatomical region of interest and a context-defined reference anatomical region.", "preferredTerm": "Standard Uptake Value Ratio", "submissionValue": "SUVR", "synonyms": ["Standard Uptake Value Ratio"]}]}