{"_links": {"parentPackage": {"href": "/mdr/ct/packages/sdtmct-2015-03-27", "title": "SDTM Controlled Terminology Package 21 Effective 2015-03-27", "type": "Terminology"}, "priorVersion": {"href": "/mdr/ct/packages/sdtmct-2014-12-19/codelists/C117746", "title": "CDISC SDTM West Haven Hepatic Encephalopathy Grade Terminology", "type": "Code List"}, "rootItem": {"href": "/mdr/root/ct/sdtmct/codelists/C117746", "title": "Version-agnostic anchor resource for codelist C117746", "type": "Root Value Domain"}, "self": {"href": "/mdr/ct/packages/sdtmct-2015-03-27/codelists/C117746", "title": "CDISC SDTM West Haven Hepatic Encephalopathy Grade Terminology", "type": "Code List"}}, "conceptId": "C117746", "definition": "A grading system to describe the severity of hepatic encephalopathy based on the level of mental status by the West Haven Hepatic Encephalopathy Grade.", "extensible": "false", "name": "West Haven Hepatic Encephalopathy Grade", "preferredTerm": "CDISC SDTM West Haven Hepatic Encephalopathy Grade Terminology", "submissionValue": "HEPENCGR", "synonyms": ["West Haven Hepatic Encephalopathy Grade"], "terms": [{"conceptId": "C117824", "definition": "Minimal - symptoms or pathological characteristics include minimal hepatic encephalopathy, lack of detectable changes in personality or behavior, minimal changes in memory, concentration and intellectual function, and absence of coordination asterixis. (Adapted from: Hepatic Encephalopathy. David C Wolf. http://emedicine.medscape.com/article/186101-overview)", "preferredTerm": "West Haven Hepatic Encephalopathy Grade 0", "submissionValue": "GRADE 0"}, {"conceptId": "C117825", "definition": "Mild - symptoms or pathological characteristics include trivial lack of awareness, shortened attention span, impaired ability to perform addition or subtraction, hypersomnia, insomnia, or inversion of sleep pattern, euphoria, depression or irritability, mild confusion, slowing of ability to perform mental tasks. (Adapted from: Hepatic Encephalopathy. David C Wolf. http://emedicine.medscape.com/article/186101-overview.)", "preferredTerm": "West Haven Hepatic Encephalopathy Grade 1", "submissionValue": "GRADE 1"}, {"conceptId": "C117826", "definition": "Moderate - symptoms or pathological characteristics include lethargy or apathy, disorientation, inappropriate behavior, slurred speech, obvious asterixis, drowsiness, lethargy, gross deficits in ability to perform mental tasks, obvious personality changes, inappropriate behavior, and intermittent disorientation, unsurely regarding time. (Adapted from: Hepatic Encephalopathy. David C Wolf. http://emedicine.medscape.com/article/186101-overview.)", "preferredTerm": "West Haven Hepatic Encephalopathy Grade 2", "submissionValue": "GRADE 2"}, {"conceptId": "C117827", "definition": "Severe - symptoms or pathological characteristics include somnolence with some arousability, inability to perform mental tasks, disorientation about time and place, marked confusion, amnesia, occasional fits of rage, present but incomprehensible speech. (Adapted from: Hepatic Encephalopathy. David C Wolf. http://emedicine.medscape.com/article/186101-overview.)", "preferredTerm": "West Haven Hepatic Encephalopathy Grade 3", "submissionValue": "GRADE 3"}, {"conceptId": "C117828", "definition": "Coma - symptoms or pathological characteristics include coma with or without response to painful stimuli. (Adapted from: Hepatic Encephalopathy. David C Wolf. http://emedicine.medscape.com/article/186101-overview.)", "preferredTerm": "West Haven Hepatic Encephalopathy Grade 4", "submissionValue": "GRADE 4"}]}