{"_links": {"parentPackage": {"href": "/mdr/ct/packages/sdtmct-2015-03-27", "title": "SDTM Controlled Terminology Package 21 Effective 2015-03-27", "type": "Terminology"}, "priorVersion": {"href": "/mdr/ct/packages/sdtmct-2014-12-19/codelists/C66785", "title": "CDISC SDTM Control Type Terminology", "type": "Code List"}, "rootItem": {"href": "/mdr/root/ct/sdtmct/codelists/C66785", "title": "Version-agnostic anchor resource for codelist C66785", "type": "Root Value Domain"}, "self": {"href": "/mdr/ct/packages/sdtmct-2015-03-27/codelists/C66785", "title": "CDISC SDTM Control Type Terminology", "type": "Code List"}}, "conceptId": "C66785", "definition": "Comparator against which the study treatment is evaluated (e.g., concurrent (placebo, no treatment, dose-response, active), external (historical, published literature).", "extensible": "true", "name": "Control Type", "preferredTerm": "CDISC SDTM Control Type Terminology", "submissionValue": "TCNTRL", "synonyms": ["Control Type"], "terms": [{"conceptId": "C49649", "definition": "A type of control, which has a demonstrated effect, administered as a comparator, to subjects in a clinical trial. [From ICH E10].", "preferredTerm": "Active Control", "submissionValue": "ACTIVE"}, {"conceptId": "C120841", "definition": "A type of control using different doses or regimens of the same treatment across the treatment arms.", "preferredTerm": "Dose Response Control", "submissionValue": "DOSE RESPONSE"}, {"conceptId": "C41132", "definition": "No person or thing, nobody, not any. (NCI)", "preferredTerm": "None", "submissionValue": "NONE"}, {"conceptId": "C49648", "definition": "Use of an inactive compound identical in appearance to drug or treatment being tested in experimental research, which may or may not be known to the physician and/or subject, administered to distinguish between drug action and suggestive effect of the drug or treatment under study. The effects of the active drug or treatment are compared to the effects of the placebo. (NCI)", "preferredTerm": "Placebo Control", "submissionValue": "PLACEBO"}]}