{"_links": {"parentPackage": {"href": "/mdr/ct/packages/sdtmct-2015-03-27", "title": "SDTM Controlled Terminology Package 21 Effective 2015-03-27", "type": "Terminology"}, "priorVersion": {"href": "/mdr/ct/packages/sdtmct-2014-12-19/codelists/C66734", "title": "CDISC SDTM Submission Domain Abbreviation Terminology", "type": "Code List"}, "rootItem": {"href": "/mdr/root/ct/sdtmct/codelists/C66734", "title": "Version-agnostic anchor resource for codelist C66734", "type": "Root Value Domain"}, "self": {"href": "/mdr/ct/packages/sdtmct-2015-03-27/codelists/C66734", "title": "CDISC SDTM Submission Domain Abbreviation Terminology", "type": "Code List"}}, "conceptId": "C66734", "definition": "A unique, 2-character domain code used in the regulatory submission process. The domain abbreviation is used consistently throughout the submission, i.e. in the dataset name, as the value of the domain variable within the dataset, and as a prefix for most variable names in the dataset. (CDISC Glossary)", "extensible": "true", "name": "SDTM Domain Abbreviation", "preferredTerm": "CDISC SDTM Submission Domain Abbreviation Terminology", "submissionValue": "DOMAIN", "synonyms": ["SDTM Domain Abbreviation"], "terms": [{"conceptId": "C49563", "definition": "Datasets used for statistical analysis and reporting by the sponsor. These are submitted in addition to the data tabulation datasets.", "preferredTerm": "Analysis Dataset Domain", "submissionValue": "AD", "synonyms": ["Analysis Dataset"]}, {"conceptId": "C49562", "definition": "Adverse events may be captured either as free text or a pre-specified list of terms.", "preferredTerm": "Adverse Event Domain", "submissionValue": "AE", "synonyms": ["Adverse Events"]}, {"conceptId": "C117755", "definition": "A domain for the agents administered to the subject as part of a procedure or assessment as opposed to drugs, medications and therapies administered with therapeutic intent.", "preferredTerm": "Procedure Agents Domain", "submissionValue": "AG", "synonyms": ["Procedure Agents"]}, {"conceptId": "C49565", "definition": "Additional data about deaths, specific to findings from autopsies.", "preferredTerm": "Autopsy Domain", "submissionValue": "AU", "synonyms": ["Autopsy"]}, {"conceptId": "C111282", "definition": "Prefix to indicate an analysis dataset that is not compliant with a defined ADaM structure.", "preferredTerm": "Non-Compliant ADaM Datasets Domain", "submissionValue": "AX", "synonyms": ["Non-Compliant ADaM Datasets"]}, {"conceptId": "C111138", "definition": "An events domain that documents biospecimen collection and storage information.", "preferredTerm": "Biospecimen Events Domain", "submissionValue": "BE", "synonyms": ["Biospecimen Events"]}, {"conceptId": "C49566", "definition": "Findings resulting from evaluations of bone mineral density.", "preferredTerm": "Bone Measurements Domain", "submissionValue": "BM", "synonyms": ["Bone Measurements"]}, {"conceptId": "C49567", "definition": "Findings resulting from biopsies.", "preferredTerm": "Biopsy Domain", "submissionValue": "BR", "synonyms": ["Biopsy"]}, {"conceptId": "C111137", "definition": "A findings domain that documents biospecimen handling information.", "preferredTerm": "Biospecimen Domain", "submissionValue": "BS", "synonyms": ["Biospecimen"]}, {"conceptId": "C85441", "definition": "A dataset used to capture clinical events of interest that would not be classified as adverse events.", "preferredTerm": "Clinical Events Domain", "submissionValue": "CE", "synonyms": ["Clinical Events"]}, {"conceptId": "C49568", "definition": "Case report form (CRF) data that captures the Concomitant and Prior Medications/Therapies used by the subject. Examples are the Concomitant Medications/Therapies given on an as needed basis and the usual Background Medications/Therapies given for a condition.", "preferredTerm": "Concomitant Medication Domain", "submissionValue": "CM", "synonyms": ["Concomitant Meds"]}, {"conceptId": "C49569", "definition": "The Comments dataset accommodates two sources of comments: 1) those collected alongside other data on topical case report form (CRF) pages such as Adverse Events and 2) those collected on a separate page specifically dedicated to comments.", "preferredTerm": "Comment Domain", "submissionValue": "CO", "synonyms": ["Comments"]}, {"conceptId": "C102605", "definition": "A domain for physiological findings related to the cardiovascular system, including the heart, blood vessels and lymphatic vessels.", "preferredTerm": "Cardiovascular System Findings Domain", "submissionValue": "CV", "synonyms": ["Cardiovascular System Findings"]}, {"conceptId": "C49578", "definition": "Data regarding the accountability of study drug, such as information on the receipt, dispensing, return, and packaging.", "preferredTerm": "Drug Accountability Domain", "submissionValue": "DA", "synonyms": ["Drug Accountability"]}, {"conceptId": "C95087", "definition": "This domain captures the diagnosis of the cause of death for a subject.", "preferredTerm": "Death Diagnosis Domain", "submissionValue": "DD", "synonyms": ["Death Diagnosis"]}, {"conceptId": "C102616", "definition": "A domain for device-related events.", "preferredTerm": "Device Events Domain", "submissionValue": "DE", "synonyms": ["Device Events"]}, {"conceptId": "C102618", "definition": "A domain for the submission of information that identifies a specific device unit.", "preferredTerm": "Device Identifiers Domain", "submissionValue": "DI", "synonyms": ["Device Identifiers"]}, {"conceptId": "C49572", "definition": "The Demographics domain includes a set of essential standard variables that describe each subject in a clinical study. It is the parent domain for all other observations for human clinical subjects.", "preferredTerm": "Demographics Domain", "submissionValue": "DM", "synonyms": ["Demographics"]}, {"conceptId": "C102619", "definition": "A domain for the characteristics of the device that do not vary over the course of the study.", "preferredTerm": "Device Properties Domain", "submissionValue": "DO", "synonyms": ["Device Properties"]}, {"conceptId": "C95088", "definition": "This domain captures the outcome of developmental milestone testing during a scheduled period of observation.", "preferredTerm": "Developmental Milestone Domain", "submissionValue": "DP", "synonyms": ["Developmental Milestone"]}, {"conceptId": "C102620", "definition": "A domain for the linkage of each subject to the device(s) to which they may have been exposed.", "preferredTerm": "Device to Subject Relationship Domain", "submissionValue": "DR", "synonyms": ["Device to Subject Relationship"]}, {"conceptId": "C49576", "definition": "A subject domain utilized for the submission of information encompassing and representing data, vocabulary or records related to disposition. (NCI)", "preferredTerm": "Disposition Domain", "submissionValue": "DS", "synonyms": ["Disposition"]}, {"conceptId": "C102621", "definition": "A domain for logistics and disposition information specific to a given device.", "preferredTerm": "Device Tracking and Disposition Domain", "submissionValue": "DT", "synonyms": ["Device Tracking and Disposition"]}, {"conceptId": "C102622", "definition": "A domain for the findings for the values of measurements and settings that are intentionally set on a device when it is in use. These are characteristics that exist for the device, and have a specific setting for a use instance.", "preferredTerm": "Device-In-Use Domain", "submissionValue": "DU", "synonyms": ["Device-In-Use"]}, {"conceptId": "C49585", "definition": "The intent of the domain is to capture protocol violations and deviations during the course of the study and will store only those criteria violation by or deviated from by the subject and not a response to each violation or deviation.", "preferredTerm": "Protocol Deviations Domain", "submissionValue": "DV", "synonyms": ["Protocol Deviations"]}, {"conceptId": "C102617", "definition": "A domain for a subject's exposure to a medical device under study.", "preferredTerm": "Device Exposure Domain", "submissionValue": "DX", "synonyms": ["Device Exposure"]}, {"conceptId": "C102630", "definition": "A domain for physiological findings related to the endocrine system, including the glands and cells that make hormones that are released directly into the blood and travel to tissues and organs all over the body.", "preferredTerm": "Endocrine System Findings Domain", "submissionValue": "ED", "synonyms": ["Endocrine System Findings"]}, {"conceptId": "C49626", "definition": "Findings related to the collection of ECG data, including position of the subject, method of evaluation, all cycle measurements and all findings from the ECG including an overall interpretation if collected or derived.", "preferredTerm": "Electrocardiogram Domain", "submissionValue": "EG", "synonyms": ["Electrocardiogram"]}, {"conceptId": "C49587", "definition": "The Exposure domain model records the details of a subject's exposure to protocol-specified study treatment. Study treatment may be any intervention that is prospectively defined as a test material within a study, and is typically but not always supplied to the subject.", "preferredTerm": "Exposure Domain", "submissionValue": "EX", "synonyms": ["Exposure"]}, {"conceptId": "C85442", "definition": "A dataset used to capture the findings about an event or intervention that cannot be represented within an event or intervention record or as a supplemental qualifier.", "preferredTerm": "Findings About Events or Interventions Domain", "submissionValue": "FA", "synonyms": ["Findings About Events or Interventions"]}, {"conceptId": "C49588", "definition": "A subject domain utilized for the submission of information encompassing and representing data, vocabulary or records related to family history. (NCI)", "preferredTerm": "Family History Domain", "submissionValue": "FH", "synonyms": ["Family History"]}, {"conceptId": "C117756", "definition": "A domain for named, stand-alone task-based evaluations designed to provide an assessment of mobility, dexterity, or cognitive ability.", "preferredTerm": "Functional Tests Domain", "submissionValue": "FT", "synonyms": ["Functional Tests"]}, {"conceptId": "C102640", "definition": "A domain for physiological findings related to the gastrointestinal system, including the esophagus, stomach, small and large intestine, anus, liver, biliary tract and pancreas.", "preferredTerm": "Digestive System Findings Domain", "submissionValue": "GI", "synonyms": ["Gastrointestinal System Findings"]}, {"conceptId": "C102641", "definition": "A domain for physiological findings related to the hematopoietic system, including the bone marrow and lymph nodes involved in the production of blood.", "preferredTerm": "Hematopoietic System Findings Domain", "submissionValue": "HM", "synonyms": ["Hematopoietic System Findings"]}, {"conceptId": "C117757", "definition": "A domain for inpatient and outpatient healthcare events.", "preferredTerm": "Healthcare Encounters Domain", "submissionValue": "HO", "synonyms": ["Healthcare Encounters"]}, {"conceptId": "C49589", "definition": "Healthcare resource utilization data such as subject visits to physicians, hospitalizations, and nursing home stays.", "preferredTerm": "Healthcare Resource Utilization Domain", "submissionValue": "HU", "synonyms": ["Healthcare Resource Utilization"]}, {"conceptId": "C61536", "definition": "The intent of the domain model is to only collect those criteria that cause the subject to be in violation of the inclusion/exclusion criteria not a response to each criterion.", "preferredTerm": "Inclusion Exclusion Domain", "submissionValue": "IE", "synonyms": ["Inclusion/Exclusion"]}, {"conceptId": "C102651", "definition": "A domain for physiological findings related to the integumentary system, including the epidermis, dermis, all of the derivatives of the epidermis, hairs, nails, sudoriferous and sebaceous glands, and mammary glands.", "preferredTerm": "Integumentary System Findings Domain", "submissionValue": "IG", "synonyms": ["Integumentary System Findings"]}, {"conceptId": "C102649", "definition": "A domain for physiological findings related to the immune system, including the thymus, spleen and tonsils.", "preferredTerm": "Immune System Findings Domain", "submissionValue": "IM", "synonyms": ["Immune System Findings"]}, {"conceptId": "C112320", "definition": "A findings domain for assessments that determine whether a therapy induced an immune response.", "preferredTerm": "Immunogenicity Specimen Assessments Domain", "submissionValue": "IS", "synonyms": ["Immunogenicity Specimen Assessments"]}, {"conceptId": "C49592", "definition": "Laboratory test findings including, but is not limited to hematology, clinical chemistry and urinalysis data. This domain does not include microbiology or pharmacokinetic data, which are stored in separate domains.", "preferredTerm": "Laboratory Data Domain", "submissionValue": "LB", "synonyms": ["Laboratory Data"]}, {"conceptId": "C49602", "definition": "Microbiology specimen findings, including gram stain results, and organisms found.", "preferredTerm": "Microbiology Specimen Domain", "submissionValue": "MB", "synonyms": ["Microbiology"]}, {"conceptId": "C49603", "definition": "The medical history dataset includes the subject's prior history at the start of the trial. Examples of subject medical history information could include general medical history, gynecological history, and primary diagnosis.", "preferredTerm": "Medical History Domain", "submissionValue": "MH", "synonyms": ["Medical History"]}, {"conceptId": "C95095", "definition": "The histopathology findings and microscopic evaluations recorded.", "preferredTerm": "Microscopic Findings Domain", "submissionValue": "MI", "synonyms": ["Microscopic Findings"]}, {"conceptId": "C102674", "definition": "A domain for physiological findings related to the system of muscles, tendons, ligaments, bones, joints and associated tissues.", "preferredTerm": "Musculoskeletal Findings, Connective and Soft Tissue Findings Domain", "submissionValue": "MK", "synonyms": ["Musculoskeletal Findings, Connective and Soft Tissue Findings"]}, {"conceptId": "C49604", "definition": "Information regarding the subject's meal consumption, such as fluid intake, amounts, form (solid or liquid state), frequency, etc., typically used for pharmacokinetic analysis.", "preferredTerm": "Meal Data Domain", "submissionValue": "ML", "synonyms": ["Meal Data"]}, {"conceptId": "C102671", "definition": "A domain relevant to the science of the form and structure of an organism or of its parts.", "preferredTerm": "Morphology Findings Domain", "submissionValue": "MO", "synonyms": ["Morphology Findings"]}, {"conceptId": "C61531", "definition": "This includes microbiology susceptibility test results, plus results of any other organism-related tests.", "preferredTerm": "Microbiology Susceptibility Domain", "submissionValue": "MS", "synonyms": ["Microbiology Susceptibility"]}, {"conceptId": "C102677", "definition": "A domain for physiological findings related to the nervous system, including the brain, spinal cord, the cranial and spinal nerves, autonomic ganglia and plexuses.", "preferredTerm": "Nervous System Findings Domain", "submissionValue": "NV", "synonyms": ["Nervous System Findings"]}, {"conceptId": "C106552", "definition": "A special-purpose domain that relates a set of genetic variations to an inference about the medical meaning of that set of genetic variations.", "preferredTerm": "Pharmacogenomics Biomarker Domain", "submissionValue": "PB", "synonyms": ["Pharmacogenomics Biomarker"]}, {"conceptId": "C49606", "definition": "Concentrations of drugs/metabolites in fluids or tissues as a function of time.", "preferredTerm": "Pharmacokinetic Concentration Domain", "submissionValue": "PC", "synonyms": ["Pharmacokinetic Concentration"]}, {"conceptId": "C49608", "definition": "Findings collected during a physical examination of the subject. It has findings that are discovered that are related to body systems. Does not include vital signs measurements, which are stored in the vital signs domain.", "preferredTerm": "Physical Exam Domain", "submissionValue": "PE", "synonyms": ["Physical Exam"]}, {"conceptId": "C111289", "definition": "A findings domain for gene expression and genetic variation assessments.", "preferredTerm": "Pharmacogenomics Findings Domain", "submissionValue": "PF", "synonyms": ["Pharmacogenomics Findings"]}, {"conceptId": "C61529", "definition": "Pharmacogenomics findings that initially focus on genotype and gene expression data.", "preferredTerm": "Pharmacogenomics Domain", "submissionValue": "PG", "synonyms": ["Pharmacogenomics/Genetics Methods and Supporting Information"]}, {"conceptId": "C49607", "definition": "Pharmacokinetic parameters derived from pharmacokinetic concentration-time (PC) data.", "preferredTerm": "Pharmacokinetic Parameters Domain", "submissionValue": "PP", "synonyms": ["Pharmacokinetic Parameters"]}, {"conceptId": "C102700", "definition": "A domain relevant to an interventional activity that is intended to have diagnostic, preventive, therapeutic, or palliative effects.", "preferredTerm": "Procedure Domain", "submissionValue": "PR", "synonyms": ["Procedure"]}, {"conceptId": "C111300", "definition": "A special purpose domain that contains the protocol summary information for pharmacogenomics assessments.", "preferredTerm": "Protocol Summary for Pharmacogenomic Assessments Domain", "submissionValue": "PS", "synonyms": ["Protocol Summary for PGx"]}, {"conceptId": "C111290", "definition": "A special purpose domain that contains design parameters used in performing pharmacogenomic assessments.", "preferredTerm": "Pharmacogenomics Trial Characteristics Domain", "submissionValue": "PT", "synonyms": ["Pharmacogenomics Trial Characteristics"]}, {"conceptId": "C49609", "definition": "Questionnaires are named, stand-alone instruments designed to provide an assessment of a concept. Questionnaires have a defined standard structure, format, and content; consist of conceptually related items that are typically scored; and have documented methods for administration and analysis. Most often, questionnaires have as their primary purpose the generation of a quantitative statistic to assess a qualitative concept.", "preferredTerm": "Questionnaire Domain", "submissionValue": "QS", "synonyms": ["Questionnaires"]}, {"conceptId": "C95098", "definition": "A domain for physiological findings related to the respiratory system, including the organs that are involved in breathing such as the nose, throat, larynx, trachea, bronchi and lungs.", "preferredTerm": "Respiratory Domain", "submissionValue": "RE", "synonyms": ["Respiratory System Findings"]}, {"conceptId": "C102707", "definition": "A domain for physiological findings related to the male and female reproductive systems.", "preferredTerm": "Reproductive System Findings Domain", "submissionValue": "RP", "synonyms": ["Reproductive System Findings"]}, {"conceptId": "C107097", "definition": "The disease response (RS) domain represents disease response evaluations determined from collected data in the tumor results (TR) domain and/or other SDTM domains.", "preferredTerm": "Disease Response Domain", "submissionValue": "RS", "synonyms": ["Disease Response"]}, {"conceptId": "C106571", "definition": "A special purpose domain that associates the subject with the medical conclusions contained in the pharmacogenomics biological state (PB) domain based on the observations reported in pharmacogenomics findings (PF) domain.", "preferredTerm": "Subject Biomarker Domain", "submissionValue": "SB", "synonyms": ["Subject Biomarker"]}, {"conceptId": "C49610", "definition": "The subject characteristics domain is for data not collected in other domains that is subject-related.", "preferredTerm": "Subject Characteristics Domain", "submissionValue": "SC", "synonyms": ["Subject Characteristics"]}, {"conceptId": "C49616", "definition": "The subject element table describes the actual order of elements followed by the subject, together with the start date/time and end date/time for each element.", "preferredTerm": "Subject Element Domain", "submissionValue": "SE", "synonyms": ["Subject Element"]}, {"conceptId": "C49611", "definition": "Surgical information.", "preferredTerm": "Surgery Domain", "submissionValue": "SG", "synonyms": ["Surgery"]}, {"conceptId": "C49612", "definition": "Findings from diagnostic skin tests.", "preferredTerm": "Skin Test Domain", "submissionValue": "SK", "synonyms": ["Skin Test"]}, {"conceptId": "C49613", "definition": "Findings from diagnostic sleep tests (polysomnography).", "preferredTerm": "Sleep Polysomnography Domain", "submissionValue": "SL", "synonyms": ["Sleep Polysomnography Data"]}, {"conceptId": "C112420", "definition": "A findings about domain for submitting dermal responses to antigens.", "preferredTerm": "Skin Response Domain", "submissionValue": "SR", "synonyms": ["Skin Response"]}, {"conceptId": "C49615", "definition": "The intent of the domain is to capture substance use information that may be used to assess the efficacy and/or safety of therapies that look to mitigate the effects of chronic substance use.", "preferredTerm": "Substance Use Domain", "submissionValue": "SU", "synonyms": ["Substance Use"]}, {"conceptId": "C49617", "definition": "The subject visits table describes the actual start and end data/time for each visit of each individual subject.", "preferredTerm": "Subject Visits Domain", "submissionValue": "SV", "synonyms": ["Subject Visits"]}, {"conceptId": "C49618", "definition": "The trial arms table describes each planned arm in the trial. An arm is described as an ordered sequence of elements.", "preferredTerm": "Trial Arms Domain", "submissionValue": "TA", "synonyms": ["Trial Arms"]}, {"conceptId": "C49619", "definition": "The trial elements table describes the element code that is unique for each element, the element description, and the rules for starting and ending an element.", "preferredTerm": "Trial Elements Domain", "submissionValue": "TE", "synonyms": ["Trial Elements"]}, {"conceptId": "C95100", "definition": "This domain captures the tumor findings of the nonclinical subject.", "preferredTerm": "Tumor Findings Domain", "submissionValue": "TF", "synonyms": ["Tumor Findings"]}, {"conceptId": "C49620", "definition": "The trial summary information domain is not subject oriented. It contains one record for each of the inclusion and exclusion criteria for the trial.", "preferredTerm": "Trial Inclusion and Exclusion Criteria Domain", "submissionValue": "TI", "synonyms": ["Trial Inclusion/Exclusion Criteria"]}, {"conceptId": "C95101", "definition": "The trial paths domain is not subject oriented. This domain provides the complete planned non-treatment related sequences of stages for each path in a study.", "preferredTerm": "Trial Paths Domain", "submissionValue": "TP", "synonyms": ["Trial Paths"]}, {"conceptId": "C106578", "definition": "This domain represents quantitative measurements and/or qualitative assessments of the tumors identified in the tumor identifier (TU) domain.", "preferredTerm": "Tumor Results Domain", "submissionValue": "TR", "synonyms": ["Tumor Results"]}, {"conceptId": "C53483", "definition": "The trial summary information domain is not subject oriented. It contains one record for each trial summary characteristic.", "preferredTerm": "Trial Summary Domain", "submissionValue": "TS", "synonyms": ["Trial Summary"]}, {"conceptId": "C106577", "definition": "This domain represents data that uniquely identifies tumors.", "preferredTerm": "Tumor Identifier Domain", "submissionValue": "TU", "synonyms": ["Tumor Identifier"]}, {"conceptId": "C49621", "definition": "The trial visits table describes the planned order and number of visits in the study within each arm.", "preferredTerm": "Trial Visits Domain", "submissionValue": "TV", "synonyms": ["Trial Visits"]}, {"conceptId": "C95103", "definition": "The trial stages domain is not subject oriented. It contains one record for each trial set characteristic including experimental factors, treatment factors, inherent characteristics, or distinct sponsor designations.", "preferredTerm": "Trial Sets Domain", "submissionValue": "TX", "synonyms": ["Trial Sets"]}, {"conceptId": "C102726", "definition": "A domain for physiological findings related to the urinary tract, including the organs involved in the creation and excretion of urine such as the kidneys, ureters, bladder and urethra.", "preferredTerm": "Urinary System Findings Domain", "submissionValue": "UR", "synonyms": ["Urinary System Findings"]}, {"conceptId": "C106581", "definition": "A findings domain that contains information about virus drug-resistance.", "preferredTerm": "Viral Resistance Domain", "submissionValue": "VR", "synonyms": ["Viral Resistance Findings"]}, {"conceptId": "C49622", "definition": "Measurements including but not limited to blood pressure, temperature, respiration, body surface area, BMI, height and weight.", "preferredTerm": "Vital Signs Domain", "submissionValue": "VS", "synonyms": ["Vital Signs"]}]}