{"_links": {"parentPackage": {"href": "/mdr/ct/packages/sdtmct-2015-03-27", "title": "SDTM Controlled Terminology Package 21 Effective 2015-03-27", "type": "Terminology"}, "priorVersion": {"href": "/mdr/ct/packages/sdtmct-2014-12-19/codelists/C85491", "title": "CDISC SDTM Microorganism Terminology", "type": "Code List"}, "rootItem": {"href": "/mdr/root/ct/sdtmct/codelists/C85491", "title": "Version-agnostic anchor resource for codelist C85491", "type": "Root Value Domain"}, "self": {"href": "/mdr/ct/packages/sdtmct-2015-03-27/codelists/C85491", "title": "CDISC SDTM Microorganism Terminology", "type": "Code List"}}, "conceptId": "C85491", "definition": "Microorganisms, bacteria, fungi and other organisms.", "extensible": "true", "name": "Microorganism", "preferredTerm": "CDISC SDTM Microorganism Terminology", "submissionValue": "MICROORG", "synonyms": ["Microorganism"], "terms": [{"conceptId": "C86077", "definition": "Any bacteria that is not assigned to the species level but can be assigned to the Abiotrophia genus level.", "preferredTerm": "Abiotrophia", "submissionValue": "ABIOTROPHIA"}, {"conceptId": "C86078", "definition": "Any bacterial organism that can be assigned to the species Abiotrophia defectiva.", "preferredTerm": "Abiotrophia defectiva", "submissionValue": "ABIOTROPHIA DEFECTIVA"}, {"conceptId": "C119580", "definition": "Any fungal organism that is not assigned to the species level but can be assigned to the Absidia genus level.", "preferredTerm": "Absidia", "submissionValue": "ABSIDIA"}, {"conceptId": "C118934", "definition": "Any amoebic organism that is not assigned to the species level but can be assigned to the Acanthamoeba genus level.", "preferredTerm": "Acanthamoeba", "submissionValue": "ACANTHAMOEBA"}, {"conceptId": "C119297", "definition": "Any amoebic organism that can be assigned to the species Acanthamoeba astronyxis.", "preferredTerm": "Acanthamoeba astronyxis", "submissionValue": "ACANTHAMOEBA ASTRONYXIS"}, {"conceptId": "C119298", "definition": "Any amoebic organism that can be assigned to the species Acanthamoeba castellanii.", "preferredTerm": "Acanthamoeba castellanii", "submissionValue": "ACANTHAMOEBA CASTELLANII"}, {"conceptId": "C119299", "definition": "Any amoebic organism that can be assigned to the species Acanthamoeba culbertsoni.", "preferredTerm": "Acanthamoeba culbertsoni", "submissionValue": "ACANTHAMOEBA CULBERTSONI"}, {"conceptId": "C119300", "definition": "Any amoebic organism that can be assigned to the species Acanthamoeba griffini.", "preferredTerm": "Acanthamoeba griffini", "submissionValue": "ACANTHAMOEBA GRIFFINI"}, {"conceptId": "C119301", "definition": "Any amoebic organism that can be assigned to the species Acanthamoeba hatchetti.", "preferredTerm": "Acanthamoeba hatchetti", "submissionValue": "ACANTHAMOEBA HATCHETTI"}, {"conceptId": "C119302", "definition": "Any amoebic organism that can be assigned to the species Acanthamoeba lugdunensis.", "preferredTerm": "Acanthamoeba lugdunensis", "submissionValue": "ACANTHAMOEBA LUGDUNENSIS"}, {"conceptId": "C119303", "definition": "Any amoebic organism that can be assigned to the species Acanthamoeba palestinensis.", "preferredTerm": "Acanthamoeba palestinensis", "submissionValue": "ACANTHAMOEBA PALESTINENSIS"}, {"conceptId": "C119304", "definition": "Any amoebic organism that can be assigned to the species Acanthamoeba polyphaga.", "preferredTerm": "Acanthamoeba polyphaga", "submissionValue": "ACANTHAMOEBA POLYPHAGA"}, {"conceptId": "C119305", "definition": "Any amoebic organism that can be assigned to the species Acanthamoeba quina.", "preferredTerm": "Acanthamoeba quina", "submissionValue": "ACANTHAMOEBA QUINA"}, {"conceptId": "C119306", "definition": "Any amoebic organism that can be assigned to the species Acanthamoeba rhysodes.", "preferredTerm": "Acanthamoeba rhysodes", "submissionValue": "ACANTHAMOEBA RHYSODES"}, {"conceptId": "C86079", "definition": "Any bacteria that is not assigned to the species level but can be assigned to the Achromobacter genus level.", "preferredTerm": "Achromobacter", "submissionValue": "ACHROMOBACTER"}, {"conceptId": "C86080", "definition": "Any bacterial organism that can be assigned to the species Achromobacter denitrificans.", "preferredTerm": "Achromobacter denitrificans", "submissionValue": "ACHROMOBACTER DENITRIFICANS", "synonyms": ["ALCALIGENES DENITRIFICANS"]}, {"conceptId": "C86081", "definition": "Any bacterial organism that can be assigned to the species Achromobacter piechaudii.", "preferredTerm": "Achromobacter piechaudii", "submissionValue": "ACHROMOBACTER PIECHAUDII"}, {"conceptId": "C119307", "definition": "Any bacterial organism that can be assigned to the species Achromobacter ruhlandii.", "preferredTerm": "Achromobacter ruhlandii", "submissionValue": "ACHROMOBACTER RUHLANDII", "synonyms": ["Alcaligenes ruhlandii", "Hydrogenomonas ruhlandii", "Pseudomonas ruhlandii"]}, {"conceptId": "C86082", "definition": "Any bacterial organism that can be assigned to the species Achromobacter xylosoxidans.", "preferredTerm": "Achromobacter xylosoxidans", "submissionValue": "ACHROMOBACTER XYLOSOXIDANS", "synonyms": ["ALCALIGENES XYLOSOXIDANS"]}, {"conceptId": "C86083", "definition": "Any bacteria that is not assigned to the species level but can be assigned to the Acidaminococcus genus level.", "preferredTerm": "Acidaminococcus", "submissionValue": "ACIDAMINOCOCCUS"}, {"conceptId": "C86084", "definition": "Any bacterial organism that can be assigned to the species Acidaminococcus fermentans.", "preferredTerm": "Acidaminococcus fermentans", "submissionValue": "ACIDAMINOCOCCUS FERMENTANS"}, {"conceptId": "C86085", "definition": "Any bacteria that is not assigned to the species level but can be assigned to the Acidovorax genus level.", "preferredTerm": "Acidovorax", "submissionValue": "ACIDOVORAX"}, {"conceptId": "C86086", "definition": "Any bacterial organism that can be assigned to the species Acidovorax delafieldii.", "preferredTerm": "Acidovorax delafieldii", "submissionValue": "ACIDOVORAX DELAFIELDII"}, {"conceptId": "C86087", "definition": "Any bacterial organism that can be assigned to the species Acidovorax facilis.", "preferredTerm": "Acidovorax facilis", "submissionValue": "ACIDOVORAX FACILIS"}, {"conceptId": "C86088", "definition": "Any bacterial organism that can be assigned to the species Acidovorax temperans.", "preferredTerm": "Acidovorax temperans", "submissionValue": "ACIDOVORAX TEMPERANS"}, {"conceptId": "C76200", "definition": "Any bacteria that is not assigned to the species level but can be assigned to the Acinetobacter genus level.", "preferredTerm": "Acinetobacter", "submissionValue": "ACINETOBACTER"}, {"conceptId": "C86089", "definition": "Any bacterial organism that can be assigned to the species Acinetobacter anitratus.", "preferredTerm": "Acinetobacter anitratus", "submissionValue": "ACINETOBACTER ANITRATUS", "synonyms": ["ACINETOBACTER BAUMANNII", "ACINETOBACTER CALCOACETICUS SUBSP. ANITRATUS"]}, {"conceptId": "C86090", "definition": "Any bacterial organism that can be assigned to the species Acinetobacter calcoaceticus.", "preferredTerm": "Acinetobacter calcoaceticus", "submissionValue": "ACINETOBACTER CALCOACETICUS"}, {"conceptId": "C86091", "definition": "A non-taxonomic grouping of bacteria assigned to the Acinetobacter genus that include the A. calcoaceticus and A. baumannii species.", "preferredTerm": "Acinetobacter calcoaceticus/baumannii Complex", "submissionValue": "ACINETOBACTER CALCOACETICUS-BAUMANNII COMPLEX"}, {"conceptId": "C86092", "definition": "Any bacterial organism that can be assigned to the species Acinetobacter haemolyticus.", "preferredTerm": "Acinetobacter haemolyticus", "submissionValue": "ACINETOBACTER HAEMOLYTICUS"}, {"conceptId": "C86093", "definition": "Any bacterial organism that can be assigned to the species Acinetobacter johnsonii.", "preferredTerm": "Acinetobacter johnsonii", "submissionValue": "ACINETOBACTER JOHNSONII"}, {"conceptId": "C86094", "definition": "Any bacterial organism that can be assigned to the species Acinetobacter junii.", "preferredTerm": "Acinetobacter junii", "submissionValue": "ACINETOBACTER JUNII"}, {"conceptId": "C86095", "definition": "Any bacterial organism that can be assigned to the species Acinetobacter lwoffii.", "preferredTerm": "Acinetobacter lwoffii", "submissionValue": "ACINETOBACTER LWOFFII", "synonyms": ["ACINETOBACTER CALCOACETICUS SUBSP. LWOFFII"]}, {"conceptId": "C119308", "definition": "Any bacterial organism that can be assigned to the species Acinetobacter parvus.", "preferredTerm": "Acinetobacter parvus", "submissionValue": "ACINETOBACTER PARVUS", "synonyms": ["Acinetobacter sp. phenon 4"]}, {"conceptId": "C86096", "definition": "Any bacterial organism that can be assigned to the species Acinetobacter radioresistens.", "preferredTerm": "Acinetobacter radioresistens", "submissionValue": "ACINETOBACTER RADIORESISTENS"}, {"conceptId": "C119309", "definition": "Any bacterial organism that can be assigned to the species Acinetobacter ursingii.", "preferredTerm": "Acinetobacter ursingii", "submissionValue": "ACINETOBACTER URSINGII", "synonyms": ["Acinetobacter sp. phenon 1"]}, {"conceptId": "C118935", "definition": "Any fungal organism that is not assigned to the species level but can be assigned to the Acremonium genus level.", "preferredTerm": "Acremonium", "submissionValue": "ACREMONIUM", "synonyms": ["Cephalosporium"]}, {"conceptId": "C119310", "definition": "Any fungal organism that can be assigned to the species Acremonium atrogriseum.", "preferredTerm": "Acremonium atrogriseum", "submissionValue": "ACREMONIUM ATROGRISEUM", "synonyms": ["Gliomastix atrogriseum", "Phaeoscopulariopsis atrogrisea"]}, {"conceptId": "C86097", "definition": "Any bacteria that is not assigned to the species level but can be assigned to the Actinobacillus genus level.", "preferredTerm": "Actinobacillus", "submissionValue": "ACTINOBACILLUS"}, {"conceptId": "C86098", "definition": "Any bacterial organism that can be assigned to the species Actinobacillus actinomycetemcomitans.", "preferredTerm": "Actinobacillus actinomycetemcomitans", "submissionValue": "ACTINOBACILLUS ACTINOMYCETEMCOMITANS", "synonyms": ["CDC GROUP HB-3"]}, {"conceptId": "C86099", "definition": "Any bacterial organism that can be assigned to the species Actinobacillus equuli.", "preferredTerm": "Actinobacillus equuli", "submissionValue": "ACTINOBACILLUS EQUULI"}, {"conceptId": "C86100", "definition": "Any bacterial organism that can be assigned to the species Actinobacillus ligniersii.", "preferredTerm": "Actinobacillus lignieresii", "submissionValue": "ACTINOBACILLUS LIGNIERESII"}, {"conceptId": "C86101", "definition": "Any bacterial organism that can be assigned to the species Actinobacillus pleuropneumoniae.", "preferredTerm": "Actinobacillus pleuropneumoniae", "submissionValue": "ACTINOBACILLUS PLEUROPNEUMONIAE", "synonyms": ["HAEMOPHILUS PLEUROPNEUMONIAE"]}, {"conceptId": "C86102", "definition": "Any bacterial organism that can be assigned to the species Actinobacillus suis.", "preferredTerm": "Actinobacillus suis", "submissionValue": "ACTINOBACILLUS SUIS"}, {"conceptId": "C86103", "definition": "Any bacterial organism that can be assigned to the species Actinobacillus ureae.", "preferredTerm": "Actinobacillus ureae", "submissionValue": "ACTINOBACILLUS UREAE", "synonyms": ["PASTEURELLA UREAE"]}, {"conceptId": "C119311", "definition": "Any bacterial organism that can be assigned to the species Actinobaculum schaalii.", "preferredTerm": "Actinobaculum schaalii", "submissionValue": "ACTINOBACULUM SCHAALII"}, {"conceptId": "C86104", "definition": "Any bacteria that is not assigned to the species level but can be assigned to the Actinomadura genus level.", "preferredTerm": "Actinomadura", "submissionValue": "ACTINOMADURA"}, {"conceptId": "C86105", "definition": "Any bacterial organism that can be assigned to the species Actinomadura madurae.", "preferredTerm": "Actinomadura madurae", "submissionValue": "ACTINOMADURA MADURAE"}, {"conceptId": "C86106", "definition": "Any bacterial organism that can be assigned to the species Actinomadura pelletieri.", "preferredTerm": "Actinomadura pelletieri", "submissionValue": "ACTINOMADURA PELLETIERI"}, {"conceptId": "C76201", "definition": "Any bacteria that is not assigned to the species level but can be assigned to the Actinomyces genus level.", "preferredTerm": "Actinomyces", "submissionValue": "ACTINOMYCES"}, {"conceptId": "C86107", "definition": "Any bacterial organism that can be assigned to the species Actinomyces bovis.", "preferredTerm": "Actinomyces bovis", "submissionValue": "ACTINOMYCES BOVIS", "synonyms": ["ACTINOCLADOTHRIX BOVIS", "CLADOTHRIX BOVIS", "DISCOMYCES BOVIS", "NOCARDIA BOVIS", "OOSPORA BOVIS", "PROACTINOMYCES BOVIS", "SARCOMYCES BOVIS", "SPHAEROTILUS BOVIS", "STREPTOTHRIX BOVIS"]}, {"conceptId": "C119312", "definition": "Any bacterial organism that can be assigned to the species Actinomyces europaeus.", "preferredTerm": "Actinomyces europaeus", "submissionValue": "ACTINOMYCES EUROPAEUS"}, {"conceptId": "C86108", "definition": "Any bacterial organism that can be assigned to the species Actinomyces israelii.", "preferredTerm": "Actinomyces israelii", "submissionValue": "ACTINOMYCES ISRAELII"}, {"conceptId": "C86109", "definition": "Any bacterial organism that can be assigned to the species Actinomyces meyerii.", "preferredTerm": "Actinomyces meyerii", "submissionValue": "ACTINOMYCES MEYERII"}, {"conceptId": "C86110", "definition": "Any bacterial organism that can be assigned to the species Actinomyces naseslundii.", "preferredTerm": "Actinomyces naeslundii", "submissionValue": "ACTINOMYCES NAESLUNDII"}, {"conceptId": "C86111", "definition": "Any bacterial organism that can be assigned to the species Actinomyces neuii.", "preferredTerm": "Actinomyces neuii", "submissionValue": "ACTINOMYCES NEUII"}, {"conceptId": "C119313", "definition": "Any bacterial organism that can be assigned to the species Actinomyces neuii subspecies neuii.", "preferredTerm": "Actinomyces neuii Subspecies neuii", "submissionValue": "ACTINOMYCES NEUII SUBSP. NEUII", "synonyms": ["CDC coryneform group 1"]}, {"conceptId": "C86112", "definition": "Any bacterial organism that can be assigned to the species Actinomyces odontolyticus.", "preferredTerm": "Actinomyces odontolyticus", "submissionValue": "ACTINOMYCES ODONTOLYTICUS"}, {"conceptId": "C86113", "definition": "Any bacterial organism that can be assigned to the species Actinomyces radingae.", "preferredTerm": "Actinomyces radingae", "submissionValue": "ACTINOMYCES RADINGAE"}, {"conceptId": "C86114", "definition": "Any bacterial organism that can be assigned to the species Actinomyces turicensis.", "preferredTerm": "Actinomyces turicensis", "submissionValue": "ACTINOMYCES TURICENSIS"}, {"conceptId": "C86115", "definition": "Any bacterial organism that can be assigned to the species Actinomyces viscosus.", "preferredTerm": "Actinomyces viscosus", "submissionValue": "ACTINOMYCES VISCOSUS"}, {"conceptId": "C14179", "definition": "Any viral organism that can be assigned to the family Adenoviridae.", "preferredTerm": "Adenovirus", "submissionValue": "ADENOVIRUS", "synonyms": ["Adenoviridae"]}, {"conceptId": "C86116", "definition": "Any rod-shaped bacteria with an oxygen-based metabolism and has a cell wall that contains low levels of peptidoglycan and stains pink with the Gram staining technique.", "preferredTerm": "Aerobic Gram Negative Bacillus", "submissionValue": "AEROBIC GRAM-NEGATIVE BACILLUS", "synonyms": ["AEROBIC GRAM-NEGATIVE ROD"]}, {"conceptId": "C86117", "definition": "Any spherical-shaped bacteria with an oxygen-based metabolism and a cell wall that contains low levels of peptidoglycan and stains pink with the Gram staining technique.", "preferredTerm": "Aerobic Gram Negative Coccus", "submissionValue": "AEROBIC GRAM-NEGATIVE COCCUS"}, {"conceptId": "C86118", "definition": "Any rod-shaped bacteria with an oxygen-based metabolism and has a peptidoglycan-rich cell wall that stains dark purple with the Gram staining technique.", "preferredTerm": "Aerobic Gram Positive Bacillus", "submissionValue": "AEROBIC GRAM-POSITIVE BACILLUS", "synonyms": ["AEROBIC GRAM-POSITIVE ROD"]}, {"conceptId": "C86119", "definition": "Any spherical-shaped bacteria with an oxygen-based metabolism and a peptidoglycan-rich cell wall that stains dark purple with the Gram staining technique.", "preferredTerm": "Aerobic Gram Positive Coccus", "submissionValue": "AEROBIC GRAM-POSITIVE COCCUS"}, {"conceptId": "C86120", "definition": "Any bacteria assigned to the genus Streptococcus that requires oxygen to grow or respirate.", "preferredTerm": "Aerobic Streptococcus", "submissionValue": "AEROBIC STREPTOCOCCUS"}, {"conceptId": "C86121", "definition": "Any bacteria that is not assigned to the species level but can be assigned to the Aerococcus genus level.", "preferredTerm": "Aerococcus", "submissionValue": "AEROCOCCUS", "synonyms": ["GAFFKYA SPECIES"]}, {"conceptId": "C119314", "definition": "Any bacterial organism that can be assigned to the species Aerococcus sanguinicola.", "preferredTerm": "Aerococcus sanguinicola", "submissionValue": "AEROCOCCUS SANGUINICOLA"}, {"conceptId": "C86122", "definition": "Any bacterial organism that can be assigned to the species Aerococcus urinae.", "preferredTerm": "Aerococcus urinae", "submissionValue": "AEROCOCCUS URINAE"}, {"conceptId": "C86123", "definition": "Any bacterial organism that can be assigned to the species Aerococcus viridans.", "preferredTerm": "Aerococcus viridans", "submissionValue": "AEROCOCCUS VIRIDANS"}, {"conceptId": "C86124", "definition": "Any bacteria that is not assigned to the species level but can be assigned to the Aeromonas genus level.", "preferredTerm": "Aeromonas", "submissionValue": "AEROMONAS"}, {"conceptId": "C86125", "definition": "Any bacterial organism that can be assigned to the species Aeromonas hydrophila.", "preferredTerm": "Aeromonas hydrophila", "submissionValue": "AEROMONAS HYDROPHILA", "synonyms": ["AEROMONAS HYDROPHILA GROUP"]}, {"conceptId": "C86126", "definition": "Any bacterial organism that can be assigned to the species Aeromonas jandaei.", "preferredTerm": "Aeromonas jandaei", "submissionValue": "AEROMONAS JANDAEI"}, {"conceptId": "C86127", "definition": "Any bacterial organism that can be assigned to the species Aeromonas punctata.", "preferredTerm": "Aeromonas punctata", "submissionValue": "AEROMONAS PUNCTATA", "synonyms": ["AEROMONAS CAVIAE"]}, {"conceptId": "C86128", "definition": "Any bacterial organism that can be assigned to the species Aeromonas salmonicida.", "preferredTerm": "Aeromonas salmonicida", "submissionValue": "AEROMONAS SALMONICIDA"}, {"conceptId": "C86129", "definition": "Any bacterial organism that can be assigned to the species Aeromonas schubertii.", "preferredTerm": "Aeromonas schubertii", "submissionValue": "AEROMONAS SCHUBERTII"}, {"conceptId": "C86130", "definition": "Any bacterial organism that can be assigned to the species Aeromonas sobria.", "preferredTerm": "Aeromonas sobria", "submissionValue": "AEROMONAS SOBRIA"}, {"conceptId": "C86131", "definition": "Any bacterial organism that can be assigned to the species Aeromonas veronii.", "preferredTerm": "Aeromonas veronii", "submissionValue": "AEROMONAS VERONII"}, {"conceptId": "C86132", "definition": "Any bacteria that is not assigned to the species level but can be assigned to the Aggregatibacter genus level.", "preferredTerm": "Aggregatibacter", "submissionValue": "AGGREGATIBACTER"}, {"conceptId": "C86133", "definition": "Any bacterial organism that can be assigned to the species Aggregatibacter actinomycetemcomitans.", "preferredTerm": "Aggregatibacter actinomycetemcomitans", "submissionValue": "AGGREGATIBACTER ACTINOMYCETEMCOMITANS", "synonyms": ["HAEMOPHILUS ACTINOMYCETEMCOMITANS"]}, {"conceptId": "C86134", "definition": "Any bacterial organism that can be assigned to the species Aggregatibacter aphrophilus.", "preferredTerm": "Aggregatibacter aphrophilus", "submissionValue": "AGGREGATIBACTER APHROPHILUS", "synonyms": ["BETA-LACTAMASE NEGATIVE HAEMOPHILUS PARAPHROPHILUS", "CDC GROUP HB-2", "HAEMOPHILUS APHROPHILUS", "HAEMOPHILUS PARAPHROPHILUS"]}, {"conceptId": "C119315", "definition": "Any bacterial organism that can be assigned to the species Aggregatibacter aphrophilus and is beta-lactamase negative.", "preferredTerm": "Aggregatibacter aphrophilus, Beta-lactamase Negative", "submissionValue": "AGGREGATIBACTER APHROPHILUS, BETA-LACTAMASE NEGATIVE", "synonyms": ["Haemophilus Aphrophilus, Beta-Lactamase Negative"]}, {"conceptId": "C119316", "definition": "Any bacterial organism that can be assigned to the species Aggregatibacter aphrophilus and is beta-lactamase positive.", "preferredTerm": "Aggregatibacter aphrophilus, Beta-lactamase Positive", "submissionValue": "AGGREGATIBACTER APHROPHILUS, BETA-LACTAMASE POSITIVE", "synonyms": ["Haemophilus Aphrophilus, Beta-Lactamase Positive"]}, {"conceptId": "C119317", "definition": "Any bacterial organism that can be assigned to the species Aggregatibacter aphrophilus and is penicillinase negative.", "preferredTerm": "Aggregatibacter aphrophilus, Penicillinase Negative", "submissionValue": "AGGREGATIBACTER APHROPHILUS, PENICILLINASE NEGATIVE", "synonyms": ["Haemophilus Aphrophilus, Penicillinase Negative"]}, {"conceptId": "C119318", "definition": "Any bacterial organism that can be assigned to the species Aggregatibacter aphrophilus and is penicillinase positive.", "preferredTerm": "Aggregatibacter aphrophilus, Penicillinase Positive", "submissionValue": "AGGREGATIBACTER APHROPHILUS, PENICILLINASE POSITIVE", "synonyms": ["Haemophilus Aphrophilus, Penicillinase Positive"]}, {"conceptId": "C86135", "definition": "Any bacterial organism that can be assigned to the species Aggregatibacter segnis.", "preferredTerm": "Aggregatibacter segnis", "submissionValue": "AGGREGATIBACTER SEGNIS", "synonyms": ["HAEMOPHILUS SEGNIS"]}, {"conceptId": "C86011", "definition": "Any bacteria that is not assigned to the species level but can be assigned to the Agrobacterium genus level.", "preferredTerm": "Agrobacterium", "submissionValue": "AGROBACTERIUM"}, {"conceptId": "C86137", "definition": "Any bacterial organism that can be assigned to the species Agrobacterium radiobacter.", "preferredTerm": "Agrobacterium radiobacter", "submissionValue": "AGROBACTERIUM RADIOBACTER"}, {"conceptId": "C86138", "definition": "Any bacterial organism that can be assigned to the species Agrobacterium tumefaciens.", "preferredTerm": "Agrobacterium tumefaciens", "submissionValue": "AGROBACTERIUM TUMEFACIENS", "synonyms": ["CDC GROUP VD-3", "RHIZOBIUM RADIOBACTER"]}, {"conceptId": "C77186", "definition": "Any fungal organism that can be assigned to the species Ajellomyces capsulatus.", "preferredTerm": "Ajellomyces capsulatus", "submissionValue": "AJELLOMYCES CAPSULATUS"}, {"conceptId": "C86012", "definition": "Any bacteria that is not assigned to the species level but can be assigned to the Alcaligenes genus level.", "preferredTerm": "Alcaligenes", "submissionValue": "ALCALIGENES"}, {"conceptId": "C86140", "definition": "Any bacterial organism that can be assigned to the species Alcaligenes faecalis.", "preferredTerm": "Alcaligenes faecalis", "submissionValue": "ALCALIGENES FAECALIS", "synonyms": ["ALCALIGENES ODORANS"]}, {"conceptId": "C86870", "definition": "Any bacterial organism that is not assigned to the species level but can be assigned to the Alistipes genus level.", "preferredTerm": "Alistipes", "submissionValue": "ALISTIPES"}, {"conceptId": "C86871", "definition": "Any bacterial organism that can be assigned to the species Alistipes putredinis.", "preferredTerm": "Alistipes putredinis", "submissionValue": "ALISTIPES PUTREDINIS", "synonyms": ["BACTEROIDES PUTREDINIS"]}, {"conceptId": "C114246", "definition": "Any bacterial organism that can be assigned to the species Alistipes shahii.", "preferredTerm": "Alistipes shahii", "submissionValue": "ALISTIPES SHAHII"}, {"conceptId": "C119319", "definition": "Any viral organism that is not assigned to the species level but can be assigned to the Alphacoronavirus genus level.", "preferredTerm": "Alphacoronavirus", "submissionValue": "ALPHACORONAVIRUS", "synonyms": ["Coronavirus Group 1"]}, {"conceptId": "C112030", "definition": "Any viral organism that can be assigned to the genus Alphavirus.", "preferredTerm": "Alphavirus", "submissionValue": "ALPHAVIRUS", "synonyms": ["Arboviruses Group A"]}, {"conceptId": "C119320", "definition": "Any fungal organism that is not assigned to the species level but can be assigned to the Alternaria genus level.", "preferredTerm": "Alternaria", "submissionValue": "ALTERNARIA"}, {"conceptId": "C119581", "definition": "Any protozoan organism that is not assigned to the species level but can be assigned to the Amoeba genus level.", "preferredTerm": "Amoeba", "submissionValue": "AMOEBA", "synonyms": ["Ameba"]}, {"conceptId": "C119321", "definition": "Any bacterial organism that does not require oxygen to grow or respirate and cannot be assigned to a specific genus or species.", "preferredTerm": "Anaerobic Bacteria", "submissionValue": "ANAEROBIC BACTERIA", "synonyms": ["Anaerobe"]}, {"conceptId": "C119322", "definition": "Any spherical shaped bacterial organism that does not require oxygen to grow or respirate and cannot be assigned to a specific genus or species.", "preferredTerm": "Anaerobic Coccus", "submissionValue": "ANAEROBIC COCCUS"}, {"conceptId": "C86142", "definition": "Any rod-shaped bacteria that does not require oxygen to grow or respirate and has a cell wall that contains low levels of peptidoglycan and stains pink with the Gram staining technique.", "preferredTerm": "Anaerobic Gram Negative Bacillus", "submissionValue": "ANAEROBIC GRAM-NEGATIVE BACILLUS", "synonyms": ["ANAEROBIC GRAM-NEGATIVE ROD"]}, {"conceptId": "C119323", "definition": "Any bacterial organism that does not require oxygen to grow or respirate, cannot be assigned to a specific genus or species, and has a cell wall that contains low levels of peptidoglycan and stains pink with the Gram staining technique.", "preferredTerm": "Anaerobic Gram-negative Bacteria", "submissionValue": "ANAEROBIC GRAM-NEGATIVE BACTERIA", "synonyms": ["Gram-negative Anaerobe"]}, {"conceptId": "C86143", "definition": "Any spherical-shaped bacteria that does not require oxygen to grow or respirate and has a cell wall that contains low levels of peptidoglycan and stains pink with the Gram staining technique.", "preferredTerm": "Anaerobic Gram Negative Coccus", "submissionValue": "ANAEROBIC GRAM-NEGATIVE COCCUS"}, {"conceptId": "C86144", "definition": "Any rod-shaped bacteria that does not require oxygen to grow or respirate and has a peptidoglycan-rich cell wall that stains dark purple with the Gram staining technique.", "preferredTerm": "Anaerobic Gram Positive Bacillus", "submissionValue": "ANAEROBIC GRAM-POSITIVE BACILLUS", "synonyms": ["ANAEROBIC GRAM-POSITIVE ROD"]}, {"conceptId": "C120704", "definition": "Any bacterial organism that does not require oxygen to grow or respirate, cannot be assigned to a specific genus or species, and has a cell wall that contains high levels of peptidoglycan and stains purple with the Gram staining technique.", "preferredTerm": "Anaerobic Gram Positive Bacteria", "submissionValue": "ANAEROBIC GRAM-POSITIVE BACTERIA", "synonyms": ["Gram-positive Anaerobe"]}, {"conceptId": "C86145", "definition": "Any spherical-shaped bacteria that does not require oxygen to grow or respirate and has a peptidoglycan-rich cell wall that stains dark purple with the Gram staining technique.", "preferredTerm": "Anaerobic Gram Positive Coccus", "submissionValue": "ANAEROBIC GRAM-POSITIVE COCCUS"}, {"conceptId": "C86146", "definition": "Any bacteria assigned to the genus Streptococcus that does not require oxygen to grow or respirate.", "preferredTerm": "Anaerobic Streptococcus", "submissionValue": "ANAEROBIC STREPTOCOCCUS"}, {"conceptId": "C86872", "definition": "Any bacteria that is not assigned to the species level but can be assigned to the Anaerococcus genus level.", "preferredTerm": "Anaerococcus", "submissionValue": "ANAEROCOCCUS"}, {"conceptId": "C86874", "definition": "Any bacterial organism that can be assigned to the species Anaerococcus hydrogenalis.", "preferredTerm": "Anaerococcus hydrogenalis", "submissionValue": "ANAEROCOCCUS HYDROGENALIS", "synonyms": ["PEPTOSTREPTOCOCCUS HYDROGENALIS"]}, {"conceptId": "C86875", "definition": "Any bacterial organism that can be assigned to the species Anaerococcus prevotii.", "preferredTerm": "Anaerococcus prevotii", "submissionValue": "ANAEROCOCCUS PREVOTII"}, {"conceptId": "C86876", "definition": "Any bacterial organism that can be assigned to the species Anaerococcus tetradius.", "preferredTerm": "Anaerococcus tetradius", "submissionValue": "ANAEROCOCCUS TETRADIUS", "synonyms": ["GAFFKYA ANAEROBIA", "PEPTOSTREPTOTOCCUS TETRADIUS"]}, {"conceptId": "C86877", "definition": "Any bacterial organism that can be assigned to the species Anaerococcus vaginalis.", "preferredTerm": "Anaerococcus vaginalis", "submissionValue": "ANAEROCOCCUS VAGINALIS"}, {"conceptId": "C120705", "definition": "Any nematode parasite that is not assigned to the species level but can be assigned to the Ancylostoma genus level.", "preferredTerm": "Ancylostoma", "submissionValue": "ANCYLOSTOMA"}, {"conceptId": "C112229", "definition": "Any viral organism that can be assigned to the genus Aphthovirus.", "preferredTerm": "Aphthovirus", "submissionValue": "APHTHOVIRUS"}, {"conceptId": "C112230", "definition": "A non-taxonomic grouping of viruses that are transmitted through an arthropod vector and replicate in a vertebrate host.", "preferredTerm": "Arbovirus", "submissionValue": "ARBOVIRUS", "synonyms": ["Arthropod-Borne Virus"]}, {"conceptId": "C86147", "definition": "Any bacteria that is not assigned to the species level but can be assigned to the Arcanobacterium genus level.", "preferredTerm": "Arcanobacterium", "submissionValue": "ARCANOBACTERIUM"}, {"conceptId": "C86148", "definition": "Any bacterial organism that can be assigned to the species Arcanobacterium bernardiae.", "preferredTerm": "Arcanobacterium bernardiae", "submissionValue": "ARCANOBACTERIUM BERNARDIAE"}, {"conceptId": "C86149", "definition": "Any bacterial organism that can be assigned to the species Arcanobacterium haemolyticum.", "preferredTerm": "Arcanobacterium haemolyticum", "submissionValue": "ARCANOBACTERIUM HAEMOLYTICUM", "synonyms": ["CORYNEBACTERIUM HAEMOLYTICUM", "CORYNEBACTERIUM HAEMOLYTICUS"]}, {"conceptId": "C86150", "definition": "Any bacterial organism that can be assigned to the species Arcanobacterium pyogenes.", "preferredTerm": "Arcanobacterium pyogenes", "submissionValue": "ARCANOBACTERIUM PYOGENES", "synonyms": ["ACTINOMYCES PYOGENES", "CORYNEBACTERIUM PYOGENES"]}, {"conceptId": "C86152", "definition": "Any bacteria that is not assigned to the species level but can be assigned to the Arcobacter genus level.", "preferredTerm": "Arcobacter", "submissionValue": "ARCOBACTER"}, {"conceptId": "C86153", "definition": "Any bacterial organism that can be assigned to the species Arcobacter butzleri.", "preferredTerm": "Arcobacter butzleri", "submissionValue": "ARCOBACTER BUTZLERI", "synonyms": ["CAMPYLOBACTER BUTZLERI"]}, {"conceptId": "C86154", "definition": "Any bacterial organism that can be assigned to the species Arcobacter cryaerophilus.", "preferredTerm": "Arcobacter cryaerophilus", "submissionValue": "ARCOBACTER CRYAEROPHILUS", "synonyms": ["CAMPYLOBACTER CRYAEROPHILUS"]}, {"conceptId": "C14306", "definition": "Any viral organism that can be assigned to the genus Arenavirus.", "preferredTerm": "Arenavirus", "submissionValue": "ARENAVIRUS"}, {"conceptId": "C86155", "definition": "Any bacteria that is not assigned to the species level but can be assigned to the Arthrobacter genus level.", "preferredTerm": "Arthrobacter", "submissionValue": "ARTHROBACTER"}, {"conceptId": "C114248", "definition": "Any bacterial organism that can be assigned to the species Arthrobacter cumminsii.", "preferredTerm": "Arthrobacter cumminsii", "submissionValue": "ARTHROBACTER CUMMINSII"}, {"conceptId": "C77181", "definition": "Any fungal organism that can be assigned to the species Aspergillus flavus.", "preferredTerm": "Aspergillus flavus", "submissionValue": "ASPERGILLUS FLAVUS"}, {"conceptId": "C77182", "definition": "Any fungal organism that can be assigned to the species Aspergillus fumigatus.", "preferredTerm": "Aspergillus fumigatus", "submissionValue": "ASPERGILLUS FUMIGATUS", "synonyms": ["Aspergillus fumigates"]}, {"conceptId": "C121138", "definition": "Any fungal organism that can be assigned to the species Aspergillus niger.", "preferredTerm": "Aspergillus niger", "submissionValue": "ASPERGILLUS NIGER"}, {"conceptId": "C87511", "definition": "Any fungal organism that can be assigned to the species Aspergillus terreus.", "preferredTerm": "Aspergillus terreus", "submissionValue": "ASPERGILLUS TERREUS", "synonyms": ["Aspergillus terrestrius"]}, {"conceptId": "C112231", "definition": "Any viral organism that can be assigned to the family Astroviridae.", "preferredTerm": "Astroviridae", "submissionValue": "ASTROVIRUS", "synonyms": ["Astroviridae"]}, {"conceptId": "C86156", "definition": "Any bacterial organism that can be assigned to the species Atopobium minutum.", "preferredTerm": "Atopobium minutum", "submissionValue": "ATOPOBIUM MINUTUM", "synonyms": ["LACTOBACILLUS MINUTIS", "LACTOBACILLUS MINUTUS"]}, {"conceptId": "C86157", "definition": "Any bacterial organism that can be assigned to the species Atopobium parvulum.", "preferredTerm": "Atopobium parvulum", "submissionValue": "ATOPOBIUM PARVULUM", "synonyms": ["STREPTOCOCCUS PARVULUS"]}, {"conceptId": "C114244", "definition": "Any bacterial organism that can be assigned to the species Atopobium rimae.", "preferredTerm": "Atopobium rimae", "submissionValue": "ATOPOBIUM RIMAE", "synonyms": ["Lactobacillus rimae"]}, {"conceptId": "C86158", "definition": "Any bacterial organism that can be assigned to the species Avibacterium paragallinarum.", "preferredTerm": "Avibacterium paragallinarum", "submissionValue": "AVIBACTERIUM PARAGALLINARUM", "synonyms": ["HAEMOPHILUS PARAGALLINARUM"]}, {"conceptId": "C76202", "definition": "Any bacteria that is not assigned to the species level but can be assigned to the Bacillus genus level.", "preferredTerm": "Bacillus", "submissionValue": "BACILLUS"}, {"conceptId": "C86159", "definition": "Any bacterial organism that can be assigned to the species Bacillus alvei.", "preferredTerm": "Bacillus alvei", "submissionValue": "BACILLUS ALVEI"}, {"conceptId": "C86160", "definition": "Any bacterial organism that can be assigned to the species Bacillus anthracis.", "preferredTerm": "Bacillus anthracis", "submissionValue": "BACILLUS ANTHRACIS"}, {"conceptId": "C86161", "definition": "Any bacterial organism that can be assigned to the species Bacillus cereus.", "preferredTerm": "Bacillus cereus", "submissionValue": "BACILLUS CEREUS"}, {"conceptId": "C86162", "definition": "Any bacterial organism that can be assigned to the species Bacillus lentus.", "preferredTerm": "Bacillus lentus", "submissionValue": "BACILLUS LENTUS"}, {"conceptId": "C86163", "definition": "Any bacterial organism that can be assigned to the species Bacillus licheniformis.", "preferredTerm": "Bacillus licheniformis", "submissionValue": "BACILLUS LICHENIFORMIS"}, {"conceptId": "C86164", "definition": "Any bacterial organism that can be assigned to the species Bacillus megaterium.", "preferredTerm": "Bacillus megaterium", "submissionValue": "BACILLUS MEGATERIUM"}, {"conceptId": "C86165", "definition": "Any bacterial organism that can be assigned to the species Bacillus mycoides.", "preferredTerm": "Bacillus mycoides", "submissionValue": "BACILLUS MYCOIDES"}, {"conceptId": "C86166", "definition": "Any bacterial organism that can be assigned to the species Bacillus polymyxa.", "preferredTerm": "Bacillus polymyxa", "submissionValue": "BACILLUS POLYMYXA"}, {"conceptId": "C86167", "definition": "Any bacterial organism that can be assigned to the species Bacillus subtilis.", "preferredTerm": "Bacillus subtilis", "submissionValue": "BACILLUS SUBTILIS"}, {"conceptId": "C14187", "definition": "Any organism assigned to the kingdom Bacteria.", "preferredTerm": "Bacteria", "submissionValue": "BACTERIA", "synonyms": ["BACTERIUM", "EUBACTERIA"]}, {"conceptId": "C76204", "definition": "Any bacteria that is not assigned to the species level but can be assigned to the Bacteroides genus level.", "preferredTerm": "Bacteroides", "submissionValue": "BACTEROIDES"}, {"conceptId": "C86168", "definition": "Any bacterial organism that can be assigned to the species Bacteroides caccae.", "preferredTerm": "Bacteroides caccae", "submissionValue": "BACTEROIDES CACCAE", "synonyms": ["BACTEROIDES FRAGILIS GROUP 3452A"]}, {"conceptId": "C86169", "definition": "Any bacterial organism that can be assigned to the species Bacteroides capillosus.", "preferredTerm": "Bacteroides capillosus", "submissionValue": "BACTEROIDES CAPILLOSUS"}, {"conceptId": "C86170", "definition": "Any bacterial organism that can be assigned to the species Bacteroides cellulosolvens.", "preferredTerm": "Bacteroides cellulosolvens", "submissionValue": "BACTEROIDES CELLULOSOLVENS"}, {"conceptId": "C111133", "definition": "Any bacterial organism that can be assigned to the species Bacteroides dorei.", "preferredTerm": "Bacteroides dorei", "submissionValue": "BACTEROIDES DOREI"}, {"conceptId": "C86171", "definition": "Any bacterial organism that can be assigned to the species Bacteroides eggerthii.", "preferredTerm": "Bacteroides eggerthii", "submissionValue": "BACTEROIDES EGGERTHII"}, {"conceptId": "C111134", "definition": "Any bacterial organism that can be assigned to the species Bacteroides faecis.", "preferredTerm": "Bacteroides faecis", "submissionValue": "BACTEROIDES FAECIS"}, {"conceptId": "C86172", "definition": "Any bacterial organism that can be assigned to the species Bacteroides fragilis.", "preferredTerm": "Bacteroides fragilis", "submissionValue": "BACTEROIDES FRAGILIS"}, {"conceptId": "C86173", "definition": "A bacteria that belongs to the Fragilis group of the genus Bacteroides.", "preferredTerm": "Bacteroides fragilis Group", "submissionValue": "BACTEROIDES FRAGILIS GROUP"}, {"conceptId": "C119324", "definition": "Any bacterial organism that can be assigned to the species Bacteroides intestinalis.", "preferredTerm": "Bacteroides intestinalis", "submissionValue": "BACTEROIDES INTESTINALIS"}, {"conceptId": "C86174", "definition": "Any bacterial organism that can be assigned to the species Bacteroides nordii.", "preferredTerm": "Bacteroides nordii", "submissionValue": "BACTEROIDES NORDII"}, {"conceptId": "C86175", "definition": "Any bacterial organism that can be assigned to the species Bacteroides ovatus.", "preferredTerm": "Bacteroides ovatus", "submissionValue": "BACTEROIDES OVATUS"}, {"conceptId": "C86177", "definition": "Any bacterial organism that can be assigned to the species Bacteroides stercoris.", "preferredTerm": "Bacteroides stercoris", "submissionValue": "BACTEROIDES STERCORIS", "synonyms": ["BACTEROIDES FRAGILIS SUBSP. A"]}, {"conceptId": "C86178", "definition": "Any bacterial organism that can be assigned to the species Bacteroides tectus.", "preferredTerm": "Bacteroides tectus", "submissionValue": "BACTEROIDES TECTUS", "synonyms": ["BACTEROIDES TECTUM"]}, {"conceptId": "C86179", "definition": "Any bacterial organism that can be assigned to the species Bacteroides thetaiotamicron.", "preferredTerm": "Bacteroides thetaiotaomicron", "submissionValue": "BACTEROIDES THETAIOTAOMICRON"}, {"conceptId": "C86180", "definition": "Any bacterial organism that can be assigned to the species Bacteroides uniformis.", "preferredTerm": "Bacteroides uniformis", "submissionValue": "BACTEROIDES UNIFORMIS"}, {"conceptId": "C86181", "definition": "Any bacterial organism that can be assigned to the species Bacteroides ureolyticus.", "preferredTerm": "Bacteroides ureolyticus", "submissionValue": "BACTEROIDES UREOLYTICUS", "synonyms": ["BACTEROIDES CORRODENS"]}, {"conceptId": "C86182", "definition": "Any bacterial organism that can be assigned to the species Bacteroides vulgatus.", "preferredTerm": "Bacteroides vulgatus", "submissionValue": "BACTEROIDES VULGATUS"}, {"conceptId": "C112232", "definition": "Any viral organism that can be assigned to the species Barmah Forest virus.", "preferredTerm": "Barmah Forest Virus", "submissionValue": "BARMAH FOREST VIRUS"}, {"conceptId": "C86184", "definition": "Any bacteria that is not assigned to the species level but can be assigned to the Bartonella genus level.", "preferredTerm": "Bartonella", "submissionValue": "BARTONELLA"}, {"conceptId": "C86185", "definition": "Any bacterial organism that can be assigned to the species Bartonella elizabethae.", "preferredTerm": "Bartonella elizabethae", "submissionValue": "BARTONELLA ELIZABETHAE", "synonyms": ["ROCHALIMAEA ELIZABETHAE"]}, {"conceptId": "C86186", "definition": "Any bacterial organism that can be assigned to the species Bartonella henselae.", "preferredTerm": "Bartonella henselae", "submissionValue": "BARTONELLA HENSELAE", "synonyms": ["ROCHALIMAEA HENSELAE"]}, {"conceptId": "C86187", "definition": "Any bacterial organism that can be assigned to the species Bartonella quintana.", "preferredTerm": "Bartonella quintana", "submissionValue": "BARTONELLA QUINTANA", "synonyms": ["ROCHALIMAEA QUINTANA"]}, {"conceptId": "C86188", "definition": "Any bacteria that is not assigned to the species level but can be assigned to the Bergeyella genus level.", "preferredTerm": "Bergeyella", "submissionValue": "BERGEYELLA"}, {"conceptId": "C86189", "definition": "Any bacterial organism that can be assigned to the species Bergeyella zoohelcum.", "preferredTerm": "Bergeyella zoohelcum", "submissionValue": "BERGEYELLA ZOOHELCUM", "synonyms": ["WEEKSELLA ZOOHELCUM"]}, {"conceptId": "C86191", "definition": "A non-taxonomic grouping of beta-hemolytic species within the Streptococcus genus that are assigned to the C group.", "preferredTerm": "Beta Streptococcus Group C", "submissionValue": "BETA STREPTOCOCCUS, GROUP C"}, {"conceptId": "C86192", "definition": "A non-taxonomic grouping of beta-hemolytic species within the Streptococcus genus that are assigned to the F group.", "preferredTerm": "Beta Streptococcus Group F", "submissionValue": "BETA STREPTOCOCCUS, GROUP F"}, {"conceptId": "C86193", "definition": "A non-taxonomic grouping of beta-hemolytic species within the Streptococcus genus that are assigned to the G group.", "preferredTerm": "Beta Streptococcus Group G", "submissionValue": "BETA STREPTOCOCCUS, GROUP G"}, {"conceptId": "C86194", "definition": "Any bacteria that is not assigned to the species level but can be assigned to the Bifidobacterium genus level.", "preferredTerm": "Bifidobacterium", "submissionValue": "BIFIDOBACTERIUM"}, {"conceptId": "C86195", "definition": "Any bacterial organism that can be assigned to the species Bifidobacterium adolescentis.", "preferredTerm": "Bifidobacterium adolescentis", "submissionValue": "BIFIDOBACTERIUM ADOLESCENTIS"}, {"conceptId": "C86196", "definition": "Any bacterial organism that can be assigned to the species Bifidobacterium angulatum.", "preferredTerm": "Bifidobacterium angulatum", "submissionValue": "BIFIDOBACTERIUM ANGULATUM"}, {"conceptId": "C86197", "definition": "Any bacterial organism that can be assigned to the species Bifidobacterium bifidum.", "preferredTerm": "Bifidobacterium bifidum", "submissionValue": "BIFIDOBACTERIUM BIFIDUM"}, {"conceptId": "C86198", "definition": "Any bacterial organism that can be assigned to the species Bifidobacterium dentium.", "preferredTerm": "Bifidobacterium dentium", "submissionValue": "BIFIDOBACTERIUM DENTIUM", "synonyms": ["BIFIDOBACTERIUM APPENDICITIS"]}, {"conceptId": "C86199", "definition": "Any bacterial organism that can be assigned to the species Bifidobacterium longum.", "preferredTerm": "Bifidobacterium longum", "submissionValue": "BIFIDOBACTERIUM LONGUM"}, {"conceptId": "C86200", "definition": "Any bacteria that is not assigned to the species level but can be assigned to the Bilophila genus level.", "preferredTerm": "Bilophila", "submissionValue": "BILOPHILA"}, {"conceptId": "C86201", "definition": "Any bacterial organism that can be assigned to the species Bilophila wadsworthia.", "preferredTerm": "Bilophila wadsworthia", "submissionValue": "BILOPHILA WADSWORTHIA"}, {"conceptId": "C89820", "definition": "Any viral organism that can be assigned to the species BK polyomavirus.", "preferredTerm": "BK Virus", "submissionValue": "BK POLYOMAVIRUS", "synonyms": ["BK Virus"]}, {"conceptId": "C86202", "definition": "Any bacteria that is not assigned to the species level but can be assigned to the Bordetella genus level.", "preferredTerm": "Bordetella", "submissionValue": "BORDETELLA"}, {"conceptId": "C86203", "definition": "Any bacterial organism that can be assigned to the species Bordetella avium.", "preferredTerm": "Bordetella avium", "submissionValue": "BORDETELLA AVIUM"}, {"conceptId": "C86204", "definition": "Any bacterial organism that can be assigned to the species Bordetella bronchiseptica.", "preferredTerm": "Bordetella bronchiseptica", "submissionValue": "BORDETELLA BRONCHISEPTICA", "synonyms": ["BORDETELLA BRONCHICANIS"]}, {"conceptId": "C86205", "definition": "Any bacterial organism that can be assigned to the species Bordetella parapertussis.", "preferredTerm": "Bordetella parapertussis", "submissionValue": "BORDETELLA PARAPERTUSSIS"}, {"conceptId": "C76205", "definition": "Any bacterial organism that can be assigned to the species Bordetella pertussis.", "preferredTerm": "Bordetella pertussis", "submissionValue": "BORDETELLA PERTUSSIS"}, {"conceptId": "C86206", "definition": "Any bacteria that is not assigned to the species level but can be assigned to the Borrelia genus level.", "preferredTerm": "Borrelia", "submissionValue": "BORRELIA"}, {"conceptId": "C76208", "definition": "Any bacterial organism that can be assigned to the species Borrelia burgdorferi.", "preferredTerm": "Borrelia burgdorferi", "submissionValue": "BORRELIA BURGDORFERI"}, {"conceptId": "C86207", "definition": "Any bacteria that is not assigned to the species level but can be assigned to the Brevibacillus genus level.", "preferredTerm": "Brevibacillus", "submissionValue": "BREVIBACILLUS"}, {"conceptId": "C86208", "definition": "Any bacterial organism that can be assigned to the species Brevibacillus laterosporus.", "preferredTerm": "Brevibacillus laterosporus", "submissionValue": "BREVIBACILLUS LATEROSPORUS"}, {"conceptId": "C86209", "definition": "Any bacteria that is not assigned to the species level but can be assigned to the Brevibacterium genus level.", "preferredTerm": "Brevibacterium", "submissionValue": "BREVIBACTERIUM"}, {"conceptId": "C86210", "definition": "Any bacterial organism that can be assigned to the species Brevibacterium casei.", "preferredTerm": "Brevibacterium casei", "submissionValue": "BREVIBACTERIUM CASEI"}, {"conceptId": "C86211", "definition": "Any bacterial organism that can be assigned to the species Brevibacterium epidermidis.", "preferredTerm": "Brevibacterium epidermidis", "submissionValue": "BREVIBACTERIUM EPIDERMIDIS"}, {"conceptId": "C86212", "definition": "Any bacteria that is not assigned to the species level but can be assigned to the Brevundimonas genus level.", "preferredTerm": "Brevundimonas", "submissionValue": "BREVUNDIMONAS"}, {"conceptId": "C86213", "definition": "Any bacterial organism that can be assigned to the species Brevundimonas diminuta.", "preferredTerm": "Brevundimonas diminuta", "submissionValue": "BREVUNDIMONAS DIMINUTA", "synonyms": ["PSEUDOMONAS DIMINUTA"]}, {"conceptId": "C86214", "definition": "Any bacterial organism that can be assigned to the species Brevundimonas vesicularis.", "preferredTerm": "Brevundimonas vesicularis", "submissionValue": "BREVUNDIMONAS VESICULARIS", "synonyms": ["PSEUDOMONAS VESICULARIS"]}, {"conceptId": "C86215", "definition": "Any bacteria that is not assigned to the species level but can be assigned to the Brucella genus level.", "preferredTerm": "Brucella", "submissionValue": "BRUCELLA"}, {"conceptId": "C86216", "definition": "Any bacterial organism that can be assigned to the species Brucella abortus.", "preferredTerm": "Brucella abortus", "submissionValue": "BRUCELLA ABORTUS"}, {"conceptId": "C86217", "definition": "Any bacterial organism that can be assigned to the species Brucella canis.", "preferredTerm": "Brucella canis", "submissionValue": "BRUCELLA CANIS"}, {"conceptId": "C86218", "definition": "Any bacterial organism that can be assigned to the species Brucella melitensis.", "preferredTerm": "Brucella melitensis", "submissionValue": "BRUCELLA MELITENSIS"}, {"conceptId": "C86219", "definition": "Any bacterial organism that can be assigned to the species Brucella suis.", "preferredTerm": "Brucella suis", "submissionValue": "BRUCELLA SUIS"}, {"conceptId": "C86220", "definition": "Any bacteria that is not assigned to the species level but can be assigned to the Budvicia genus level.", "preferredTerm": "Budvicia", "submissionValue": "BUDVICIA"}, {"conceptId": "C86221", "definition": "Any bacterial organism that can be assigned to the species Budvicia aquatica.", "preferredTerm": "Budvicia aquatica", "submissionValue": "BUDVICIA AQUATICA"}, {"conceptId": "C86222", "definition": "Any bacteria that is not assigned to the species level but can be assigned to the Burkholderia genus level.", "preferredTerm": "Burkholderia", "submissionValue": "BURKHOLDERIA"}, {"conceptId": "C86223", "definition": "Any bacterial organism that can be assigned to the species Burkholderia cenocepacia.", "preferredTerm": "Burkholderia cenocepacia", "submissionValue": "BURKHOLDERIA CENOCEPACIA"}, {"conceptId": "C76376", "definition": "Any bacterial organism that can be assigned to the species Burkholderia cepacia.", "preferredTerm": "Burkholderia cepacia", "submissionValue": "BURKHOLDERIA CEPACIA", "synonyms": ["CDC GROUP EO-1", "PSEUDOMONAS CEPACIA"]}, {"conceptId": "C86224", "definition": "A non-taxonomic grouping of bacteria assigned to and including at least nine related species from the Burkholderia genus.", "preferredTerm": "Burkholderia cepacia Complex", "submissionValue": "BURKHOLDERIA CEPACIA COMPLEX"}, {"conceptId": "C86225", "definition": "Any bacterial organism that can be assigned to the species Burkholderia gladioli.", "preferredTerm": "Burkholderia gladioli", "submissionValue": "BURKHOLDERIA GLADIOLI", "synonyms": ["PSEUDOMONAS GLADIOLI"]}, {"conceptId": "C86226", "definition": "Any bacterial organism that can be assigned to the species Burkholderia mallei.", "preferredTerm": "Burkholderia mallei", "submissionValue": "BURKHOLDERIA MALLEI", "synonyms": ["ACTINOBACILLUS MALLEI"]}, {"conceptId": "C86227", "definition": "Any bacterial organism that can be assigned to the species Burkholderia pseudomallei.", "preferredTerm": "Burkholderia pseudomallei", "submissionValue": "BURKHOLDERIA PSEUDOMALLEI", "synonyms": ["BURKHOLDERIA PSEUDOMALLE", "PSEUDOMONAS PSEUDOMALLEI"]}, {"conceptId": "C86228", "definition": "Any bacteria that is not assigned to the species level but can be assigned to the Buttiauxella genus level.", "preferredTerm": "Buttiauxella", "submissionValue": "BUTTIAUXELLA"}, {"conceptId": "C86229", "definition": "Any bacterial organism that can be assigned to the species Buttiauxella agrestis.", "preferredTerm": "Buttiauxella agrestis", "submissionValue": "BUTTIAUXELLA AGRESTIS"}, {"conceptId": "C14304", "definition": "Any viral organism that can be assigned to the family Caliciviridae.", "preferredTerm": "Calicivirus", "submissionValue": "CALICIVIRUS", "synonyms": ["Caliciviridae"]}, {"conceptId": "C76211", "definition": "Any bacteria that is not assigned to the species level but can be assigned to the Campylobacter genus level.", "preferredTerm": "Campylobacter", "submissionValue": "CAMPYLOBACTER"}, {"conceptId": "C86230", "definition": "Any bacterial organism that can be assigned to the species Campylobacter coli.", "preferredTerm": "Campylobacter coli", "submissionValue": "CAMPYLOBACTER COLI"}, {"conceptId": "C86231", "definition": "Any bacterial organism that can be assigned to the species Campylobacter concisus.", "preferredTerm": "Campylobacter concisus", "submissionValue": "CAMPYLOBACTER CONCISUS", "synonyms": ["CDC GROUP EF-22"]}, {"conceptId": "C86232", "definition": "Any bacterial organism that can be assigned to the species Campylobacter curvus.", "preferredTerm": "Campylobacter curvus", "submissionValue": "CAMPYLOBACTER CURVUS", "synonyms": ["WOLINELLA CURVA"]}, {"conceptId": "C86233", "definition": "Any bacterial organism that can be assigned to the species Campylobacter fetus.", "preferredTerm": "Campylobacter fetus", "submissionValue": "CAMPYLOBACTER FETUS", "synonyms": ["VIBRIO FETUS"]}, {"conceptId": "C86234", "definition": "Any bacterial organism that can be assigned to the species Campylobacter gracilis.", "preferredTerm": "Campylobacter gracilis", "submissionValue": "CAMPYLOBACTER GRACILIS", "synonyms": ["BACTEROIDES GRACILIS"]}, {"conceptId": "C86235", "definition": "Any bacterial organism that can be assigned to the species Campylobacter jejuni.", "preferredTerm": "Campylobacter jejuni", "submissionValue": "CAMPYLOBACTER JEJUNI"}, {"conceptId": "C86236", "definition": "Any bacterial organism that can be assigned to the species Campylobacter lari.", "preferredTerm": "Campylobacter lari", "submissionValue": "CAMPYLOBACTER LARI", "synonyms": ["CAMPYLOBACTER LARIDIS"]}, {"conceptId": "C86237", "definition": "Any bacterial organism that can be assigned to the species Campylobacter rectus.", "preferredTerm": "Campylobacter rectus", "submissionValue": "CAMPYLOBACTER RECTUS", "synonyms": ["WOLINELLA RECTA"]}, {"conceptId": "C86238", "definition": "Any bacterial organism that can be assigned to the species Campylobacter upsaliensis.", "preferredTerm": "Campylobacter upsaliensis", "submissionValue": "CAMPYLOBACTER UPSALIENSIS"}, {"conceptId": "C77163", "definition": "Any fungal organism that is not assigned to the species level but can be assigned to the Candida genus level.", "preferredTerm": "Candida", "submissionValue": "CANDIDA"}, {"conceptId": "C77170", "definition": "Any fungal organism that can be assigned to the species Candida albicans.", "preferredTerm": "Candida albicans", "submissionValue": "CANDIDA ALBICANS", "synonyms": ["C. albicans"]}, {"conceptId": "C114255", "definition": "Any fungal organism that can be assigned to the species Candida dubliniensis.", "preferredTerm": "Candida dubliniensis", "submissionValue": "CANDIDA DUBLINIENSIS", "synonyms": ["C. dubliniensis"]}, {"conceptId": "C77179", "definition": "Any fungal organism that can be assigned to the species Candida glabrata.", "preferredTerm": "Candida glabrata", "submissionValue": "CANDIDA GLABRATA", "synonyms": ["C. glabrata", "Torulopsis glabrata"]}, {"conceptId": "C120706", "definition": "Any fungal organism that can be assigned to the species Candida intermedia.", "preferredTerm": "Candida intermedia", "submissionValue": "CANDIDA INTERMEDIA", "synonyms": ["Blastodendrion intermedium", "Blastodendrion intermedius", "Cryptococcus intermedius", "Kluyveromyces cellobiovorus", "Mycotorula intermedia"]}, {"conceptId": "C114260", "definition": "Any fungal organism that can be assigned to the species Candida orthopsilosis.", "preferredTerm": "Candida orthopsilosis", "submissionValue": "CANDIDA ORTHOPSILOSIS", "synonyms": ["C. orthopsilosis", "Candida parapsilosis group II"]}, {"conceptId": "C77176", "definition": "Any fungal organism that can be assigned to the species Candida parapsilosis.", "preferredTerm": "Candida parapsilosis", "submissionValue": "CANDIDA PARAPSILOSIS", "synonyms": ["C. parapsilosis"]}, {"conceptId": "C114258", "definition": "Any fungal organism that can be assigned to the species Candida pararugosa.", "preferredTerm": "Candida pararugosa", "submissionValue": "CANDIDA PARARUGOSA", "synonyms": ["C. pararugosa"]}, {"conceptId": "C114254", "definition": "Any fungal organism that can be assigned to the species Candida rugosa.", "preferredTerm": "Candida rugosa", "submissionValue": "CANDIDA RUGOSA", "synonyms": ["C. rugosa"]}, {"conceptId": "C77177", "definition": "Any fungal organism that can be assigned to the species Candida tropicalis.", "preferredTerm": "Candida tropicalis", "submissionValue": "CANDIDA TROPICALIS", "synonyms": ["C. tropicalis"]}, {"conceptId": "C114261", "definition": "Any fungal organism that can be assigned to the species Candida zeylanoides.", "preferredTerm": "Candida zeylanoides", "submissionValue": "CANDIDA ZEYLANOIDES", "synonyms": ["C. krissii", "C. zeylanoides", "Candida krissii"]}, {"conceptId": "C76269", "definition": "Any bacteria that is not assigned to the species level but can be assigned to the Capnocytophaga genus level.", "preferredTerm": "Capnocytophaga", "submissionValue": "CAPNOCYTOPHAGA"}, {"conceptId": "C86239", "definition": "Any bacterial organism that can be assigned to the species Capnocytophaga canimorsus.", "preferredTerm": "Capnocytophaga canimorsus", "submissionValue": "CAPNOCYTOPHAGA CANIMORSUS", "synonyms": ["CDC GROUP DF-2"]}, {"conceptId": "C86240", "definition": "Any bacterial organism that can be assigned to the species Capnocytophaga gingivalis.", "preferredTerm": "Capnocytophaga gingivalis", "submissionValue": "CAPNOCYTOPHAGA GINGIVALIS"}, {"conceptId": "C86241", "definition": "Any bacterial organism that can be assigned to the species Capnocytophaga ochracea.", "preferredTerm": "Capnocytophaga ochracea", "submissionValue": "CAPNOCYTOPHAGA OCHRACEA"}, {"conceptId": "C86242", "definition": "Any bacterial organism that can be assigned to the species Capnocytophaga sputigena.", "preferredTerm": "Capnocytophaga sputigena", "submissionValue": "CAPNOCYTOPHAGA SPUTIGENA"}, {"conceptId": "C86243", "definition": "Any bacteria that is not assigned to the species level but can be assigned to the Cardiobacterium genus level.", "preferredTerm": "Cardiobacterium", "submissionValue": "CARDIOBACTERIUM"}, {"conceptId": "C86244", "definition": "Any bacterial organism that can be assigned to the species Cardiobacterium hominis.", "preferredTerm": "Cardiobacterium hominis", "submissionValue": "CARDIOBACTERIUM HOMINIS", "synonyms": ["CDC GROUP IID"]}, {"conceptId": "C86245", "definition": "Any bacteria that is not assigned to the species level but can be assigned to the Cedecea genus level.", "preferredTerm": "Cedecea", "submissionValue": "CEDECEA"}, {"conceptId": "C86246", "definition": "Any bacterial organism that can be assigned to the species Cedecea davisae.", "preferredTerm": "Cedecea davisae", "submissionValue": "CEDECEA DAVISAE", "synonyms": ["CDC ENTERIC GROUP 15"]}, {"conceptId": "C86247", "definition": "Any bacterial organism that can be assigned to the species Cedecea lapagei.", "preferredTerm": "Cedecea lapagei", "submissionValue": "CEDECEA LAPAGEI"}, {"conceptId": "C86248", "definition": "Any bacterial organism that can be assigned to the species Cedecea neteri.", "preferredTerm": "Cedecea neteri", "submissionValue": "CEDECEA NETERI", "synonyms": ["CEDECEA SPECIES 4"]}, {"conceptId": "C86249", "definition": "Any bacteria that is not assigned to the species level but can be assigned to the Cellulomonas genus level.", "preferredTerm": "Cellulomonas", "submissionValue": "CELLULOMONAS"}, {"conceptId": "C86250", "definition": "Any bacterial organism that can be assigned to the species Cellulomonas hominis.", "preferredTerm": "Cellulomonas hominis", "submissionValue": "CELLULOMONAS HOMINIS"}, {"conceptId": "C86251", "definition": "Any bacteria that is not assigned to the species level but can be assigned to the Cellulosimicrobium genus level.", "preferredTerm": "Cellulosimicrobium", "submissionValue": "CELLULOSIMICROBIUM"}, {"conceptId": "C86252", "definition": "Any bacterial organism that can be assigned to the species Cellulosimicrobium cellulans.", "preferredTerm": "Cellulosimicrobium cellulans", "submissionValue": "CELLULOSIMICROBIUM CELLULANS", "synonyms": ["ARTHROBACTER LUTEUS", "CELLULOMONAS CELLULANS", "NOCARDIA CELLULANS", "OERSKOVIA XANTHINEOLYTICA"]}, {"conceptId": "C76271", "definition": "Any bacteria that is not assigned to the species level but can be assigned to the Chlamydia genus level.", "preferredTerm": "Chlamydia", "submissionValue": "CHLAMYDIA"}, {"conceptId": "C86253", "definition": "Any bacterial organism that can be assigned to the species Chlamydia trachomatis.", "preferredTerm": "Chlamydia trachomatis", "submissionValue": "CHLAMYDIA TRACHOMATIS"}, {"conceptId": "C86254", "definition": "Any bacteria that is not assigned to the species level but can be assigned to the Chlamydophila genus level.", "preferredTerm": "Chlamydophila", "submissionValue": "CHLAMYDOPHILA"}, {"conceptId": "C76272", "definition": "Any bacterial organism that can be assigned to the species Chlamydophila pneumoniae.", "preferredTerm": "Chlamydophila pneumoniae", "submissionValue": "CHLAMYDOPHILA PNEUMONIAE", "synonyms": ["CHLAMYDIA PNEUMONIAE"]}, {"conceptId": "C86255", "definition": "Any bacterial organism that can be assigned to the species Chlamydophila psittaci.", "preferredTerm": "Chlamydophila psittaci", "submissionValue": "CHLAMYDOPHILA PSITTACI", "synonyms": ["CHLAMYDIA PSITTACI"]}, {"conceptId": "C86256", "definition": "Any bacteria that is not assigned to the species level but can be assigned to the Chromobacterium genus level.", "preferredTerm": "Chromobacterium", "submissionValue": "CHROMOBACTERIUM"}, {"conceptId": "C86257", "definition": "Any bacterial organism that can be assigned to the species Chromobacterium violaceum.", "preferredTerm": "Chromobacterium violaceum", "submissionValue": "CHROMOBACTERIUM VIOLACEUM"}, {"conceptId": "C86258", "definition": "Any bacteria that is not assigned to the species level but can be assigned to the Chryseobacterium genus level.", "preferredTerm": "Chryseobacterium", "submissionValue": "CHRYSEOBACTERIUM"}, {"conceptId": "C86259", "definition": "Any bacterial organism that can be assigned to the species Chryseobacterium gleum.", "preferredTerm": "Chryseobacterium gleum", "submissionValue": "CHRYSEOBACTERIUM GLEUM", "synonyms": ["FLAVOBACTERIUM GLEUM"]}, {"conceptId": "C86260", "definition": "Any bacterial organism that can be assigned to the species Chryseobacterium indologenes.", "preferredTerm": "Chryseobacterium indologenes", "submissionValue": "CHRYSEOBACTERIUM INDOLOGENES", "synonyms": ["FLAVOBACTERIUM INDOLOGENES"]}, {"conceptId": "C86261", "definition": "Any bacteria that is not assigned to the species level but can be assigned to the Chryseomonas genus level.", "preferredTerm": "Chryseomonas", "submissionValue": "CHRYSEOMONAS"}, {"conceptId": "C76273", "definition": "Any bacteria that is not assigned to the species level but can be assigned to the Citrobacter genus level.", "preferredTerm": "Citrobacter", "submissionValue": "CITROBACTER"}, {"conceptId": "C86262", "definition": "Any bacterial organism that can be assigned to the species Citrobacter amalonaticus.", "preferredTerm": "Citrobacter amalonaticus", "submissionValue": "CITROBACTER AMALONATICUS", "synonyms": ["LEVINEA AMALONATICA"]}, {"conceptId": "C86263", "definition": "Any bacterial organism that can be assigned to the species Citrobacter braakii.", "preferredTerm": "Citrobacter braakii", "submissionValue": "CITROBACTER BRAAKII"}, {"conceptId": "C86264", "definition": "Any bacterial organism that can be assigned to the species Citrobacter farmeri.", "preferredTerm": "Citrobacter farmeri", "submissionValue": "CITROBACTER FARMERI", "synonyms": ["CITROBACTER AMALONATICUS BIOGROUP 1"]}, {"conceptId": "C86265", "definition": "Any bacterial organism that can be assigned to the species Citrobacter freundii.", "preferredTerm": "Citrobacter freundii", "submissionValue": "CITROBACTER FREUNDII", "synonyms": ["COLOBACTRUM FREUNDII"]}, {"conceptId": "C86266", "definition": "A non-taxonomic grouping of bacteria assigned to and including eight related species from the Citrobacter genus.", "preferredTerm": "Citrobacter freundii Complex", "submissionValue": "CITROBACTER FREUNDII COMPLEX"}, {"conceptId": "C86267", "definition": "Any bacterial organism that can be assigned to the species Citrobacter koseri.", "preferredTerm": "Citrobacter koseri", "submissionValue": "CITROBACTER KOSERI", "synonyms": ["CITROBACTER DIVERSUS"]}, {"conceptId": "C86268", "definition": "Any bacterial organism that can be assigned to the species Citrobacter youngae.", "preferredTerm": "Citrobacter youngae", "submissionValue": "CITROBACTER YOUNGAE"}, {"conceptId": "C77174", "definition": "Any fungal organism that can be assigned to the species Clavispora lusitaniae.", "preferredTerm": "Clavispora lusitaniae", "submissionValue": "CLAVISPORA LUSITANIAE", "synonyms": ["C. lusitaniae", "Candida lusitaniae"]}, {"conceptId": "C76275", "definition": "Any bacteria that is not assigned to the species level but can be assigned to the Clostridium genus level.", "preferredTerm": "Clostridium", "submissionValue": "CLOSTRIDIUM"}, {"conceptId": "C86269", "definition": "Any bacterial organism that can be assigned to the species Clostridium acetobutylicum.", "preferredTerm": "Clostridium acetobutylicum", "submissionValue": "CLOSTRIDIUM ACETOBUTYLICUM"}, {"conceptId": "C86270", "definition": "Any bacterial organism that can be assigned to the species Clostridium baratii.", "preferredTerm": "Clostridium baratii", "submissionValue": "CLOSTRIDIUM BARATII", "synonyms": ["CLOSTRIDIUM BARATI"]}, {"conceptId": "C86271", "definition": "Any bacterial organism that can be assigned to the species Clostridium beijerinckii.", "preferredTerm": "Clostridium beijerinckii", "submissionValue": "CLOSTRIDIUM BEIJERINCKII"}, {"conceptId": "C86272", "definition": "Any bacterial organism that can be assigned to the species Clostridium bifermentans.", "preferredTerm": "Clostridium bifermentans", "submissionValue": "CLOSTRIDIUM BIFERMENTANS"}, {"conceptId": "C114250", "definition": "Any bacterial organism that can be assigned to the species Clostridium bolteae.", "preferredTerm": "Clostridium bolteae", "submissionValue": "CLOSTRIDIUM BOLTEAE"}, {"conceptId": "C86273", "definition": "Any bacterial organism that can be assigned to the species Clostridium butyricum.", "preferredTerm": "Clostridium butyricum", "submissionValue": "CLOSTRIDIUM BUTYRICUM", "synonyms": ["CLOSTRIDIUM PSEUDOTETANICUM"]}, {"conceptId": "C86274", "definition": "Any bacterial organism that can be assigned to the species Clostridium cadaveris.", "preferredTerm": "Clostridium cadaveris", "submissionValue": "CLOSTRIDIUM CADAVERIS"}, {"conceptId": "C86275", "definition": "Any bacterial organism that can be assigned to the species Clostridium celatum.", "preferredTerm": "Clostridium celatum", "submissionValue": "CLOSTRIDIUM CELATUM"}, {"conceptId": "C86276", "definition": "Any bacterial organism that can be assigned to the species Clostridium clostridioforme.", "preferredTerm": "Clostridium clostridioforme", "submissionValue": "CLOSTRIDIUM CLOSTRIDIOFORME", "synonyms": ["CLOSTRIDIUM CLOSTRIDIIFORME"]}, {"conceptId": "C86277", "definition": "Any bacterial organism that can be assigned to the species Clostridium cochlearium.", "preferredTerm": "Clostridium cochlearium", "submissionValue": "CLOSTRIDIUM COCHLEARIUM"}, {"conceptId": "C86278", "definition": "Any bacterial organism that can be assigned to the species Clostridium cocleatum.", "preferredTerm": "Clostridium cocleatum", "submissionValue": "CLOSTRIDIUM COCLEATUM"}, {"conceptId": "C76276", "definition": "Any bacterial organism that can be assigned to the species Clostridium difficile.", "preferredTerm": "Clostridium difficile", "submissionValue": "CLOSTRIDIUM DIFFICILE", "synonyms": ["CLOSTRIDIUM DIFFICILIS"]}, {"conceptId": "C86279", "definition": "Any bacterial organism that can be assigned to the species Clostridium fallax.", "preferredTerm": "Clostridium fallax", "submissionValue": "CLOSTRIDIUM FALLAX", "synonyms": ["CLOSTRIDIUM PSEUDOFALLAX"]}, {"conceptId": "C86280", "definition": "Any bacterial organism that can be assigned to the species Clostridium glycolicum.", "preferredTerm": "Clostridium glycolicum", "submissionValue": "CLOSTRIDIUM GLYCOLICUM"}, {"conceptId": "C86281", "definition": "Any bacterial organism that can be assigned to the species Clostridium haemolyticum.", "preferredTerm": "Clostridium haemolyticum", "submissionValue": "CLOSTRIDIUM HAEMOLYTICUM"}, {"conceptId": "C114251", "definition": "Any bacterial organism that can be assigned to the species Clostridium hathewayi.", "preferredTerm": "Clostridium hathewayi", "submissionValue": "CLOSTRIDIUM HATHEWAYI"}, {"conceptId": "C86282", "definition": "Any bacterial organism that can be assigned to the species Clostridium histolyticum.", "preferredTerm": "Clostridium histolyticum", "submissionValue": "CLOSTRIDIUM HISTOLYTICUM"}, {"conceptId": "C86283", "definition": "Any bacterial organism that can be assigned to the species Clostridium innocuum.", "preferredTerm": "Clostridium innocuum", "submissionValue": "CLOSTRIDIUM INNOCUUM"}, {"conceptId": "C86284", "definition": "Any bacterial organism that can be assigned to the species Clostridium limosum.", "preferredTerm": "Clostridium limosum", "submissionValue": "CLOSTRIDIUM LIMOSUM", "synonyms": ["CLOSTRIDIUM SPECIES CDC GROUP P-1"]}, {"conceptId": "C86285", "definition": "Any bacterial organism that can be assigned to the species Clostridium novyi.", "preferredTerm": "Clostridium novyi", "submissionValue": "CLOSTRIDIUM NOVYI"}, {"conceptId": "C86286", "definition": "Any bacterial organism that can be assigned to the species Clostridium oceanicum.", "preferredTerm": "Clostridium oceanicum", "submissionValue": "CLOSTRIDIUM OCEANICUM"}, {"conceptId": "C86287", "definition": "Any bacterial organism that can be assigned to the species Clostridium paraputrificum.", "preferredTerm": "Clostridium paraputrificum", "submissionValue": "CLOSTRIDIUM PARAPUTRIFICUM"}, {"conceptId": "C86288", "definition": "Any bacterial organism that can be assigned to the species Clostridium perfringens.", "preferredTerm": "Clostridium perfringens", "submissionValue": "CLOSTRIDIUM PERFRINGENS", "synonyms": ["CLOSTRIDIUM WELCHII"]}, {"conceptId": "C86289", "definition": "Any bacterial organism that can be assigned to the species Clostridium putrificum.", "preferredTerm": "Clostridium putrificum", "submissionValue": "CLOSTRIDIUM PUTRIFICUM", "synonyms": ["CLOSTRIDIUM LENTOPUTRESCENS"]}, {"conceptId": "C86290", "definition": "Any bacterial organism that can be assigned to the species Clostridium ramosum.", "preferredTerm": "Clostridium ramosum", "submissionValue": "CLOSTRIDIUM RAMOSUM", "synonyms": ["ACTINOMYCES RAMOSUS"]}, {"conceptId": "C86291", "definition": "Any bacterial organism that can be assigned to the species Clostridium rectum.", "preferredTerm": "Clostridium rectum", "submissionValue": "CLOSTRIDIUM RECTUM"}, {"conceptId": "C119325", "definition": "Any bacterial organism that can be assigned to the species Clostridium sartagoforme.", "preferredTerm": "Clostridium sartagoforme", "submissionValue": "CLOSTRIDIUM SARTAGOFORME"}, {"conceptId": "C86292", "definition": "Any bacterial organism that can be assigned to the species Clostridium septicum.", "preferredTerm": "Clostridium septicum", "submissionValue": "CLOSTRIDIUM SEPTICUM"}, {"conceptId": "C86293", "definition": "Any bacterial organism that can be assigned to the species Clostridium sordellii.", "preferredTerm": "Clostridium sordellii", "submissionValue": "CLOSTRIDIUM SORDELLII"}, {"conceptId": "C86294", "definition": "Any bacterial organism that can be assigned to the species Clostridium sporogenes.", "preferredTerm": "Clostridium sporogenes", "submissionValue": "CLOSTRIDIUM SPOROGENES"}, {"conceptId": "C86295", "definition": "Any bacterial organism that can be assigned to the species Clostridium subterminale.", "preferredTerm": "Clostridium subterminale", "submissionValue": "CLOSTRIDIUM SUBTERMINALE"}, {"conceptId": "C86296", "definition": "Any bacterial organism that can be assigned to the species Clostridium symbiosum.", "preferredTerm": "Clostridium symbiosum", "submissionValue": "CLOSTRIDIUM SYMBIOSUM", "synonyms": ["BACTEROIDES SYMBIOSUS"]}, {"conceptId": "C86297", "definition": "Any bacterial organism that can be assigned to the species Clostridium tertium.", "preferredTerm": "Clostridium tertium", "submissionValue": "CLOSTRIDIUM TERTIUM"}, {"conceptId": "C86298", "definition": "Any bacterial organism that can be assigned to the species Clostridium tetani.", "preferredTerm": "Clostridium tetani", "submissionValue": "CLOSTRIDIUM TETANI"}, {"conceptId": "C86299", "definition": "Any bacterial organism that can be assigned to the species Clostridium tyrobutyricum.", "preferredTerm": "Clostridium tyrobutyricum", "submissionValue": "CLOSTRIDIUM TYROBUTYRICUM"}, {"conceptId": "C62584", "definition": "Any bacteria assigned to the genus Staphylococcus that does not express the enzyme coagulase.", "preferredTerm": "Coagulase-Negative Staphylococcus", "submissionValue": "COAGULASE NEGATIVE STAPHYLOCOCCUS"}, {"conceptId": "C62585", "definition": "Any bacteria assigned to the genus Staphylococcus that expresses the enzyme coagulase.", "preferredTerm": "Coagulase-Positive Staphylococcus", "submissionValue": "COAGULASE POSITIVE STAPHYLOCOCCUS"}, {"conceptId": "C86300", "definition": "Any bacteria that is not assigned to the species level but can be assigned to the Collinsella genus level.", "preferredTerm": "Collinsella", "submissionValue": "COLLINSELLA"}, {"conceptId": "C86301", "definition": "Any bacterial organism that can be assigned to the species Collinsella aerofaciens.", "preferredTerm": "Collinsella aerofaciens", "submissionValue": "COLLINSELLA AEROFACIENS", "synonyms": ["EUBACTERIUM AEROFACIENS"]}, {"conceptId": "C86302", "definition": "Any bacterial organism that can be assigned to the species Collinsella intestinalis.", "preferredTerm": "Collinsella intestinalis", "submissionValue": "COLLINSELLA INTESTINALIS"}, {"conceptId": "C112240", "definition": "Any viral organism that can be assigned to the species Colorado tick fever virus.", "preferredTerm": "Colorado Tick Fever Virus", "submissionValue": "COLORADO TICK FEVER VIRUS", "synonyms": ["CTFV"]}, {"conceptId": "C86303", "definition": "Any bacteria that is not assigned to the species level but can be assigned to the Comamonas genus level.", "preferredTerm": "Comamonas", "submissionValue": "COMAMONAS"}, {"conceptId": "C86304", "definition": "Any bacterial organism that can be assigned to the species Comamonas terrigena.", "preferredTerm": "Comamonas terrigena", "submissionValue": "COMAMONAS TERRIGENA", "synonyms": ["CDC GROUP EF-19"]}, {"conceptId": "C86305", "definition": "Any bacterial organism that can be assigned to the species Comamonas testosteroni.", "preferredTerm": "Comamonas testosteroni", "submissionValue": "COMAMONAS TESTOSTERONI", "synonyms": ["PSEUDOMONAS TESTOSTERONI"]}, {"conceptId": "C113205", "definition": "Any viral organism that can be assigned to the family Coronaviridae.", "preferredTerm": "Coronaviridae", "submissionValue": "CORONAVIRUS", "synonyms": ["Coronaviridae"]}, {"conceptId": "C76308", "definition": "Any bacteria that is not assigned to the species level but can be assigned to the Corynebacterium genus level.", "preferredTerm": "Corynebacterium", "submissionValue": "CORYNEBACTERIUM"}, {"conceptId": "C86306", "definition": "Any bacterial organism that can be assigned to the species Corynebacterium accolens.", "preferredTerm": "Corynebacterium accolens", "submissionValue": "CORYNEBACTERIUM ACCOLENS", "synonyms": ["CORYNEBACTERIUM GROUP G-1"]}, {"conceptId": "C86307", "definition": "Any bacterial organism that can be assigned to the species Corynebacterium afermentans.", "preferredTerm": "Corynebacterium afermentans", "submissionValue": "CORYNEBACTERIUM AFERMENTANS", "synonyms": ["CORYNEBACTERIUM ANF-1"]}, {"conceptId": "C86308", "definition": "Any bacterial organism that can be assigned to the species Corynebacterium amycolatum.", "preferredTerm": "Corynebacterium amycolatum", "submissionValue": "CORYNEBACTERIUM AMYCOLATUM"}, {"conceptId": "C86309", "definition": "Any bacterial organism that can be assigned to the species Corynebacterium argentoratense.", "preferredTerm": "Corynebacterium argentoratense", "submissionValue": "CORYNEBACTERIUM ARGENTORATENSE"}, {"conceptId": "C86310", "definition": "Any bacterial organism that can be assigned to the species Corynebacterium auris.", "preferredTerm": "Corynebacterium auris", "submissionValue": "CORYNEBACTERIUM AURIS"}, {"conceptId": "C86311", "definition": "Any bacterial organism that can be assigned to the species Corynebacterium bovis.", "preferredTerm": "Corynebacterium bovis", "submissionValue": "CORYNEBACTERIUM BOVIS"}, {"conceptId": "C86312", "definition": "Any bacterial organism that can be assigned to the species Corynebacterium diphtheriae.", "preferredTerm": "Corynebacterium diphtheriae", "submissionValue": "CORYNEBACTERIUM DIPHTHERIAE"}, {"conceptId": "C86313", "definition": "Any bacterial organism that can be assigned to the species Corynebacterium genitalium.", "preferredTerm": "Corynebacterium genitalium", "submissionValue": "CORYNEBACTERIUM GENITALIUM"}, {"conceptId": "C86955", "definition": "Any bacterial organism that can be assigned to the species Corynebacterium glucuronolyticum.", "preferredTerm": "Corynebacterium glucuronolyticum", "submissionValue": "CORYNEBACTERIUM GLUCURONOLYTICUM"}, {"conceptId": "C76307", "definition": "Any bacterial organism that can be assigned to the species Corynebacterium jeikeium.", "preferredTerm": "Corynebacterium jeikeium", "submissionValue": "CORYNEBACTERIUM JEIKEIUM", "synonyms": ["CDC GROUP JK", "CORYNEBACTERIUM GROUP JK"]}, {"conceptId": "C86314", "definition": "Any bacterial organism that can be assigned to the species Corynebacterium kutscheri.", "preferredTerm": "Corynebacterium kutscheri", "submissionValue": "CORYNEBACTERIUM KUTSCHERI"}, {"conceptId": "C86315", "definition": "Any bacterial organism that can be assigned to the species Corynebacterium macginleyi.", "preferredTerm": "Corynebacterium macginleyi", "submissionValue": "CORYNEBACTERIUM MACGINLEYI"}, {"conceptId": "C86316", "definition": "Any bacterial organism that can be assigned to the species Corynebacterium matruchotii.", "preferredTerm": "Corynebacterium matruchotii", "submissionValue": "CORYNEBACTERIUM MATRUCHOTII", "synonyms": ["BACTERIONEMA MATRUCHOTII"]}, {"conceptId": "C86317", "definition": "Any bacterial organism that can be assigned to the species Corynebacterium minutissimum.", "preferredTerm": "Corynebacterium minutissimum", "submissionValue": "CORYNEBACTERIUM MINUTISSIMUM"}, {"conceptId": "C86318", "definition": "Any bacterial organism that can be assigned to the species Corynebacterium pilosum.", "preferredTerm": "Corynebacterium pilosum", "submissionValue": "CORYNEBACTERIUM PILOSUM"}, {"conceptId": "C86319", "definition": "Any bacterial organism that can be assigned to the species Corynebacterium propinquum.", "preferredTerm": "Corynebacterium propinquum", "submissionValue": "CORYNEBACTERIUM PROPINQUUM"}, {"conceptId": "C86320", "definition": "Any bacterial organism that can be assigned to the species Corynebacterium pseudodiphtheriticum.", "preferredTerm": "Corynebacterium pseudodiphtheriticum", "submissionValue": "CORYNEBACTERIUM PSEUDODIPHTHERITICUM", "synonyms": ["CORYNEBACTERIUM HOFMANNII"]}, {"conceptId": "C86321", "definition": "Any bacterial organism that can be assigned to the species Corynebacterium pseudotuberculosis.", "preferredTerm": "Corynebacterium pseudotuberculosis", "submissionValue": "CORYNEBACTERIUM PSEUDOTUBERCULOSIS"}, {"conceptId": "C86322", "definition": "Any bacterial organism that can be assigned to the species Corynebacterium renale.", "preferredTerm": "Corynebacterium renale", "submissionValue": "CORYNEBACTERIUM RENALE"}, {"conceptId": "C86323", "definition": "Any bacterial organism that can be assigned to the species Corynebacterium striatum.", "preferredTerm": "Corynebacterium striatum", "submissionValue": "CORYNEBACTERIUM STRIATUM"}, {"conceptId": "C114249", "definition": "Any bacterial organism that can be assigned to the species Corynebacterium tuberculostearicum.", "preferredTerm": "Corynebacterium tuberculostearicum", "submissionValue": "CORYNEBACTERIUM TUBERCULOSTEARICUM"}, {"conceptId": "C86324", "definition": "Any bacterial organism that can be assigned to the species Corynebacterium ulcerans.", "preferredTerm": "Corynebacterium ulcerans", "submissionValue": "CORYNEBACTERIUM ULCERANS"}, {"conceptId": "C86325", "definition": "Any bacterial organism that can be assigned to the species Corynebacterium urealyticum.", "preferredTerm": "Corynebacterium urealyticum", "submissionValue": "CORYNEBACTERIUM UREALYTICUM", "synonyms": ["CDC GROUP D2", "CORYNEBACTERIUM GROUP D-2"]}, {"conceptId": "C86326", "definition": "Any bacterial organism that can be assigned to the species Corynebacterium xerosis.", "preferredTerm": "Corynebacterium xerosis", "submissionValue": "CORYNEBACTERIUM XEROSIS"}, {"conceptId": "C86327", "definition": "Any bacteria whose shape is similar to those bacteria assigned to the Corynebacterium genus and have a cell wall that contains low levels of peptidoglycan and stains pink with the Gram staining technique.", "preferredTerm": "Coryneform Gram Positive Bacillus", "submissionValue": "CORYNEFORM GRAM-POSITIVE BACILLUS", "synonyms": ["CORYNEFORM GRAM-POSITIVE ROD"]}, {"conceptId": "C76309", "definition": "Any bacteria that is not assigned to the species level but can be assigned to the Coxiella genus level.", "preferredTerm": "Coxiella", "submissionValue": "COXIELLA"}, {"conceptId": "C86328", "definition": "Any bacterial organism that can be assigned to the species Coxiella burnetii.", "preferredTerm": "Coxiella burnetii", "submissionValue": "COXIELLA BURNETII"}, {"conceptId": "C112242", "definition": "Any viral organism that can be assigned to the Enterovirus A species subtype Coxsackie A virus.", "preferredTerm": "Coxsackie A Virus", "submissionValue": "COXSACKIE A VIRUS", "synonyms": ["Coxsackie Virus A"]}, {"conceptId": "C112243", "definition": "Any viral organism that can be assigned to the Enterovirus B species subtype Coxsackie B virus.", "preferredTerm": "Coxsackie B Virus", "submissionValue": "COXSACKIE B VIRUS", "synonyms": ["Coxsackie Virus B"]}, {"conceptId": "C86329", "definition": "Any bacterial organism that can be assigned to the species Cronobacter sakazakii.", "preferredTerm": "Cronobacter sakazakii", "submissionValue": "CRONOBACTER SAKAZAKII", "synonyms": ["ENTEROBACTER SAKAZAKII"]}, {"conceptId": "C114267", "definition": "Any fungal organism that can be assigned to the species Cryptococcus albidus.", "preferredTerm": "Cryptococcus albidus", "submissionValue": "CRYPTOCOCCUS ALBIDUS", "synonyms": ["C. albidus", "R. albida", "Rhodotorula albida", "T. albida", "T. nadaensis", "T. neoformans var. albida", "Torula albida", "Torulopsis albida", "Torulopsis nadaensis", "Torulopsis neoformans var. albida"]}, {"conceptId": "C114268", "definition": "Any fungal organism that can be assigned to the species Cryptococcus gattii.", "preferredTerm": "Cryptococcus gattii", "submissionValue": "CRYPTOCOCCUS GATTII", "synonyms": ["C. bacillisporus", "C. gattii", "Cryptococcus bacillisporus"]}, {"conceptId": "C114269", "definition": "Any fungal organism that can be assigned to the species Cryptococcus laurentii.", "preferredTerm": "Cryptococcus laurentii", "submissionValue": "CRYPTOCOCCUS LAURENTII", "synonyms": ["C. laurentii"]}, {"conceptId": "C14195", "definition": "Any fungal organism that can be assigned to the species Cryptococcus neoformans.", "preferredTerm": "Cryptococcus neoformans", "submissionValue": "CRYPTOCOCCUS NEOFORMANS", "synonyms": ["B. neoformans", "Blastomyces neoformans", "C. neoformans", "D. neoformans", "Debaryomyces neoformans", "L. neoformans", "Lipomyces neoformans", "S. neoformans", "Saccharomyces neoformans", "T. neoformans", "Torula neoformans", "Torulopsis neoformans"]}, {"conceptId": "C114266", "definition": "Any fungal organism that can be assigned to the species Cryptococcus randhawii.", "preferredTerm": "Cryptococcus randhawii", "submissionValue": "CRYPTOCOCCUS RANDHAWII", "synonyms": ["C. randhawii"]}, {"conceptId": "C86330", "definition": "Any bacteria that is not assigned to the species level but can be assigned to the Cupriavidus genus level.", "preferredTerm": "Cupriavidus", "submissionValue": "CUPRIAVIDUS"}, {"conceptId": "C86331", "definition": "Any bacterial organism that can be assigned to the species Cupriavidus pauculus.", "preferredTerm": "Cupriavidus pauculus", "submissionValue": "CUPRIAVIDUS PAUCULUS", "synonyms": ["CDC GROUP IVC-2", "RALSTONIA PAUCULA", "WAUTERSIA PAUCULA"]}, {"conceptId": "C14196", "definition": "Any viral organism that can be assigned to the genus Cytomegalovirus.", "preferredTerm": "Cytomegalovirus", "submissionValue": "CYTOMEGALOVIRUS"}, {"conceptId": "C86332", "definition": "Any bacteria that is not assigned to the species level but can be assigned to the Delftia genus level.", "preferredTerm": "Delftia", "submissionValue": "DELFTIA"}, {"conceptId": "C86333", "definition": "Any bacterial organism that can be assigned to the species Delftia acidovorans.", "preferredTerm": "Delftia acidovorans", "submissionValue": "DELFTIA ACIDOVORANS", "synonyms": ["COMAMONAS ACIDOVORANS", "PSEUDOMONAS ACIDOVORANS"]}, {"conceptId": "C14347", "definition": "Any viral organism that can be assigned to the genus Deltaretrovirus.", "preferredTerm": "Deltaretrovirus", "submissionValue": "DELTARETROVIRUS"}, {"conceptId": "C112036", "definition": "Any viral organism that can be assigned to the species Dengue virus.", "preferredTerm": "Dengue Virus", "submissionValue": "DENGUE VIRUS"}, {"conceptId": "C112266", "definition": "Any viral organism that can be assigned to the Dengue virus serotype 1.", "preferredTerm": "Dengue Virus 1", "submissionValue": "DENGUE VIRUS 1", "synonyms": ["DEN-1", "DENV-1", "Dengue Virus Type 1"]}, {"conceptId": "C112267", "definition": "Any viral organism that can be assigned to the Dengue virus serotype 2.", "preferredTerm": "Dengue Virus 2", "submissionValue": "DENGUE VIRUS 2", "synonyms": ["DEN-2", "DENV-2", "Dengue Virus Type 2"]}, {"conceptId": "C112268", "definition": "Any viral organism that can be assigned to the Dengue virus serotype 3.", "preferredTerm": "Dengue Virus 3", "submissionValue": "DENGUE VIRUS 3", "synonyms": ["DEN-3", "DENV-3", "Dengue Virus Type 3"]}, {"conceptId": "C112269", "definition": "Any viral organism that can be assigned to the Dengue virus serotype 4.", "preferredTerm": "Dengue Virus 4", "submissionValue": "DENGUE VIRUS 4", "synonyms": ["DEN-4", "DENV-4", "Dengue Virus Type 4"]}, {"conceptId": "C86334", "definition": "Any bacteria that is not assigned to the species level but can be assigned to the Dermabacter genus level.", "preferredTerm": "Dermabacter", "submissionValue": "DERMABACTER"}, {"conceptId": "C86335", "definition": "Any bacterial organism that can be assigned to the species Dermabacter hominis.", "preferredTerm": "Dermabacter hominis", "submissionValue": "DERMABACTER HOMINIS"}, {"conceptId": "C86336", "definition": "Any bacterial organism that can be assigned to the species Dermacoccus nishinomiyaensis.", "preferredTerm": "Dermacoccus nishinomiyaensis", "submissionValue": "DERMACOCCUS NISHINOMIYAENSIS", "synonyms": ["MICROCOCCUS NISHINOMIYAENSIS"]}, {"conceptId": "C86337", "definition": "Any bacteria that is not assigned to the species level but can be assigned to the Dermatophilus genus level.", "preferredTerm": "Dermatophilus", "submissionValue": "DERMATOPHILUS"}, {"conceptId": "C86338", "definition": "Any bacterial organism that can be assigned to the species Dermatophilus congolensis.", "preferredTerm": "Dermatophilus congolensis", "submissionValue": "DERMATOPHILUS CONGOLENSIS"}, {"conceptId": "C86339", "definition": "Any bacteria that is not assigned to the species level but can be assigned to the Desulfovibrio genus level.", "preferredTerm": "Desulfovibrio", "submissionValue": "DESULFOVIBRIO", "synonyms": ["DESULFOMONAS SPECIES"]}, {"conceptId": "C86340", "definition": "Any bacterial organism that can be assigned to the species Desulfovibrio desulfuricans.", "preferredTerm": "Desulfovibrio desulfuricans", "submissionValue": "DESULFOVIBRIO DESULFURICANS"}, {"conceptId": "C86341", "definition": "Any bacterial organism that can be assigned to the species Desulfovibrio fairfieldensis.", "preferredTerm": "Desulfovibrio fairfieldensis", "submissionValue": "DESULFOVIBRIO FAIRFIELDENSIS"}, {"conceptId": "C86342", "definition": "Any bacterial organism that can be assigned to the species Desulfovibrio piger.", "preferredTerm": "Desulfovibrio piger", "submissionValue": "DESULFOVIBRIO PIGER", "synonyms": ["DESULFOMONAS PIGRA"]}, {"conceptId": "C86343", "definition": "Any of a number of rod-shaped bacteria that resemble Corynebacterium diphtheriae, either in morphology or etiology.", "preferredTerm": "Diptheroid Bacillus", "submissionValue": "DIPHTHEROID BACILLUS"}, {"conceptId": "C112271", "definition": "Any viral organism that can be assigned to the genus Ebola virus.", "preferredTerm": "Ebola Virus", "submissionValue": "EBOLA VIRUS", "synonyms": ["EBOV"]}, {"conceptId": "C112272", "definition": "Any viral organism that can be assigned to the species Echovirus.", "preferredTerm": "Echovirus", "submissionValue": "ECHOVIRUS"}, {"conceptId": "C86344", "definition": "Any bacteria that is not assigned to the species level but can be assigned to the Edwardsiella genus level.", "preferredTerm": "Edwardsiella", "submissionValue": "EDWARDSIELLA"}, {"conceptId": "C86345", "definition": "Any bacterial organism that can be assigned to the species Edwardsiella hoshinae.", "preferredTerm": "Edwardsiella hoshinae", "submissionValue": "EDWARDSIELLA HOSHINAE"}, {"conceptId": "C86346", "definition": "Any bacterial organism that can be assigned to the species Edwardsiella ictaluri.", "preferredTerm": "Edwardsiella ictaluri", "submissionValue": "EDWARDSIELLA ICTALURI"}, {"conceptId": "C86347", "definition": "Any bacterial organism that can be assigned to the species Edwardsiella tarda.", "preferredTerm": "Edwardsiella tarda", "submissionValue": "EDWARDSIELLA TARDA"}, {"conceptId": "C86348", "definition": "Any bacteria that is not assigned to the species level but can be assigned to the Eggerthella genus level.", "preferredTerm": "Eggerthella", "submissionValue": "EGGERTHELLA"}, {"conceptId": "C86349", "definition": "Any bacterial organism that can be assigned to the species Eggerthella lenta.", "preferredTerm": "Eggerthella lenta", "submissionValue": "EGGERTHELLA LENTA", "synonyms": ["EUBACTERIUM LENTUM"]}, {"conceptId": "C86350", "definition": "Any bacteria that is not assigned to the species level but can be assigned to the Eikenella genus level.", "preferredTerm": "Eikenella", "submissionValue": "EIKENELLA"}, {"conceptId": "C86351", "definition": "Any bacterial organism that can be assigned to the species Eikenella corrodens.", "preferredTerm": "Eikenella corrodens", "submissionValue": "EIKENELLA CORRODENS", "synonyms": ["CDC GROUP HB-1"]}, {"conceptId": "C86352", "definition": "Any bacteria that is not assigned to the species level but can be assigned to the Elizabethkingia genus level.", "preferredTerm": "Elizabethkingia", "submissionValue": "ELIZABETHKINGIA"}, {"conceptId": "C86353", "definition": "Any bacterial organism that can be assigned to the species Elizabethkingia meningoceptica.", "preferredTerm": "Elizabethkingia meningoceptica", "submissionValue": "ELIZABETHKINGIA MENINGOCEPTICA", "synonyms": ["CHRYSEOBACTERIUM MENINGOSEPTICUM", "FLAVOBACTERIUM MENINGOSEPTICUM"]}, {"conceptId": "C86354", "definition": "Any bacteria that is not assigned to the species level but can be assigned to the Empedobacter genus level.", "preferredTerm": "Empedobacter", "submissionValue": "EMPEDOBACTER"}, {"conceptId": "C86355", "definition": "Any bacterial organism that can be assigned to the species Empedobacter brevis.", "preferredTerm": "Empedobacter brevis", "submissionValue": "EMPEDOBACTER BREVIS", "synonyms": ["FLAVOBACTERIUM BREVE"]}, {"conceptId": "C76310", "definition": "Any bacteria that is not assigned to the species level but can be assigned to the Enterobacter genus level.", "preferredTerm": "Enterobacter", "submissionValue": "ENTEROBACTER"}, {"conceptId": "C86356", "definition": "Any bacterial organism that can be assigned to the species Enterobacter aerogenes.", "preferredTerm": "Enterobacter aerogenes", "submissionValue": "ENTEROBACTER AEROGENES", "synonyms": ["AEROBACTER AEROGENES"]}, {"conceptId": "C86357", "definition": "Any bacterial organism that can be assigned to the species Enterobacter amnigenus.", "preferredTerm": "Enterobacter amnigenus", "submissionValue": "ENTEROBACTER AMNIGENUS", "synonyms": ["ENTEROBACTER AMNIGENUS I"]}, {"conceptId": "C86358", "definition": "Any bacterial organism that can be assigned to the species Enterobacter asburiae.", "preferredTerm": "Enterobacter asburiae", "submissionValue": "ENTEROBACTER ASBURIAE", "synonyms": ["CDC ENTERIC GROUP 17"]}, {"conceptId": "C86359", "definition": "Any bacterial organism that can be assigned to the species Enterobacter cancerogenus.", "preferredTerm": "Enterobacter cancerogenus", "submissionValue": "ENTEROBACTER CANCEROGENUS", "synonyms": ["CDC ENTERIC GROUP 19", "ENTEROBACTER TAYLORAE"]}, {"conceptId": "C86360", "definition": "Any bacterial organism that can be assigned to the species Enterobacter cloacae.", "preferredTerm": "Enterobacter cloacae", "submissionValue": "ENTEROBACTER CLOACAE", "synonyms": ["ENTEROBACTER CLOACAE STRAIN 1"]}, {"conceptId": "C86361", "definition": "Any bacterial organism that can be assigned to the species Enterobacter gergoviae.", "preferredTerm": "Enterobacter gergoviae", "submissionValue": "ENTEROBACTER GERGOVIAE"}, {"conceptId": "C86362", "definition": "Any bacterial organism that can be assigned to the species Enterobacter hormaechei.", "preferredTerm": "Enterobacter hormaechei", "submissionValue": "ENTEROBACTER HORMAECHEI", "synonyms": ["CDC ENTERIC GROUP 75"]}, {"conceptId": "C76311", "definition": "Any bacteria that is not assigned to the species level but can be assigned to the Enterococcus genus level.", "preferredTerm": "Enterococcus", "submissionValue": "ENTEROCOCCUS", "synonyms": ["PRESUMPTIVE ENTEROCOCCUS"]}, {"conceptId": "C86364", "definition": "Any bacterial organism that can be assigned to the species Enterococcus avium.", "preferredTerm": "Enterococcus avium", "submissionValue": "ENTEROCOCCUS AVIUM", "synonyms": ["STREPTOCOCCUS AVIUM"]}, {"conceptId": "C86365", "definition": "Any bacterial organism that can be assigned to the species Enterococcus casseliflavus.", "preferredTerm": "Enterococcus casseliflavus", "submissionValue": "ENTEROCOCCUS CASSELIFLAVUS"}, {"conceptId": "C86366", "definition": "Any bacterial organism that can be assigned to the species Enterococcus dispar.", "preferredTerm": "Enterococcus dispar", "submissionValue": "ENTEROCOCCUS DISPAR"}, {"conceptId": "C86367", "definition": "Any bacterial organism that can be assigned to the species Enterococcus durans.", "preferredTerm": "Enterococcus durans", "submissionValue": "ENTEROCOCCUS DURANS", "synonyms": ["STREPTOCOCCUS DURANS"]}, {"conceptId": "C86368", "definition": "Any bacterial organism that can be assigned to the species Enterococcus faecalis.", "preferredTerm": "Enterococcus faecalis", "submissionValue": "ENTEROCOCCUS FAECALIS", "synonyms": ["STREPTOCOCCUS FAECALIS"]}, {"conceptId": "C86369", "definition": "Any bacterial organism that can be assigned to the species Enterococcus faecium.", "preferredTerm": "Enterococcus faecium", "submissionValue": "ENTEROCOCCUS FAECIUM", "synonyms": ["STREPTOCOCCUS FAECIUM"]}, {"conceptId": "C86370", "definition": "Any bacterial organism that can be assigned to the species Enterococcus gallinarum.", "preferredTerm": "Enterococcus gallinarum", "submissionValue": "ENTEROCOCCUS GALLINARUM"}, {"conceptId": "C86371", "definition": "Any bacterial organism that can be assigned to the species Enterococcus hirae.", "preferredTerm": "Enterococcus hirae", "submissionValue": "ENTEROCOCCUS HIRAE"}, {"conceptId": "C86372", "definition": "Any bacterial organism that can be assigned to the species Enterococcus malodoratus.", "preferredTerm": "Enterococcus malodoratus", "submissionValue": "ENTEROCOCCUS MALODORATUS"}, {"conceptId": "C86373", "definition": "Any bacterial organism that can be assigned to the species Enterococcus mundtii.", "preferredTerm": "Enterococcus mundtii", "submissionValue": "ENTEROCOCCUS MUNDTII"}, {"conceptId": "C86374", "definition": "Any bacterial organism that can be assigned to the species Enterococcus pseudoavium.", "preferredTerm": "Enterococcus pseudoavium", "submissionValue": "ENTEROCOCCUS PSEUDOAVIUM"}, {"conceptId": "C86375", "definition": "Any bacterial organism that can be assigned to the species Enterococcus raffinosus.", "preferredTerm": "Enterococcus raffinosus", "submissionValue": "ENTEROCOCCUS RAFFINOSUS"}, {"conceptId": "C114243", "definition": "Any bacterial organism that can be assigned to the species Enterococcus thailandicus.", "preferredTerm": "Enterococcus thailandicus", "submissionValue": "ENTEROCOCCUS THAILANDICUS", "synonyms": ["Enterococcus sanguinicola"]}, {"conceptId": "C14203", "definition": "Any viral organism that can be assigned to the genus Enterovirus.", "preferredTerm": "Enterovirus", "submissionValue": "ENTEROVIRUS"}, {"conceptId": "C86376", "definition": "Any bacteria that is not assigned to the species level but can be assigned to the Erysipelothrix genus level.", "preferredTerm": "Erysipelothrix", "submissionValue": "ERYSIPELOTHRIX", "synonyms": ["ERYSIPELOTHRIX INSIDIOSA"]}, {"conceptId": "C86377", "definition": "Any bacterial organism that can be assigned to the species Erysipelothrix rhusiopathiae.", "preferredTerm": "Erysipelothrix rhusiopathiae", "submissionValue": "ERYSIPELOTHRIX RHUSIOPATHIAE"}, {"conceptId": "C77208", "definition": "Any bacteria that is not assigned to the species level but can be assigned to the Escherichia genus level.", "preferredTerm": "Escherichia", "submissionValue": "ESCHERICHIA"}, {"conceptId": "C86378", "definition": "Any bacterial organism that can be assigned to the species Escherichia albertii.", "preferredTerm": "Escherichia albertii", "submissionValue": "ESCHERICHIA ALBERTII"}, {"conceptId": "C86379", "definition": "Any bacterial organism that can be assigned to the species Escherichia blattae.", "preferredTerm": "Escherichia blattae", "submissionValue": "ESCHERICHIA BLATTAE"}, {"conceptId": "C14206", "definition": "Any bacterial organism that can be assigned to the species Escherichia coli.", "preferredTerm": "Escherichia coli", "submissionValue": "ESCHERICHIA COLI", "synonyms": ["E. COLI"]}, {"conceptId": "C86881", "definition": "Any bacterial organism that can be assigned to the species Escherichia coli and strain O111.", "preferredTerm": "Escherichia coli strain O111", "submissionValue": "ESCHERICHIA COLI O111"}, {"conceptId": "C86882", "definition": "Any bacterial organism that can be assigned to the species Escherichia coli and strain O157.", "preferredTerm": "Escherichia coli strain O157", "submissionValue": "ESCHERICHIA COLI O157 (NOT H7)"}, {"conceptId": "C86883", "definition": "Any bacterial organism that can be assigned to the species Escherichia coli and strain O157:H7.", "preferredTerm": "Escherichia coli strain O157:H7", "submissionValue": "ESCHERICHIA COLI O157:H7"}, {"conceptId": "C86884", "definition": "Any bacterial organism that can be assigned to the species Escherichia coli and strain O26.", "preferredTerm": "Escherichia coli strain O26", "submissionValue": "ESCHERICHIA COLI O26"}, {"conceptId": "C86380", "definition": "Any bacterial organism that can be assigned to the species Escherichia fergusonii.", "preferredTerm": "Escherichia fergusonii", "submissionValue": "ESCHERICHIA FERGUSONII", "synonyms": ["CDC ENTERIC GROUP 10"]}, {"conceptId": "C86381", "definition": "Any bacterial organism that can be assigned to the species Escherichia hermannii.", "preferredTerm": "Escherichia hermannii", "submissionValue": "ESCHERICHIA HERMANNII", "synonyms": ["CDC ENTERIC GROUP 11"]}, {"conceptId": "C86382", "definition": "Any bacterial organism that can be assigned to the species Escherichia vulneris.", "preferredTerm": "Escherichia vulneris", "submissionValue": "ESCHERICHIA VULNERIS", "synonyms": ["CDC ENTERIC GROUP 1"]}, {"conceptId": "C86383", "definition": "Any bacteria that is not assigned to the species level but can be assigned to the Eubacterium genus level.", "preferredTerm": "Eubacterium", "submissionValue": "EUBACTERIUM"}, {"conceptId": "C86384", "definition": "Any bacterial organism that can be assigned to the species Eubacterium adactolyticum.", "preferredTerm": "Eubacterium alactolyticum", "submissionValue": "EUBACTERIUM ALACTOLYTICUM"}, {"conceptId": "C86385", "definition": "Any bacterial organism that can be assigned to the species Eubacterium contortum.", "preferredTerm": "Eubacterium contortum", "submissionValue": "EUBACTERIUM CONTORTUM"}, {"conceptId": "C86386", "definition": "Any bacterial organism that can be assigned to the species Eubacterium limosum.", "preferredTerm": "Eubacterium limosum", "submissionValue": "EUBACTERIUM LIMOSUM"}, {"conceptId": "C86387", "definition": "Any bacterial organism that can be assigned to the species Eubacterium nodatum.", "preferredTerm": "Eubacterium nodatum", "submissionValue": "EUBACTERIUM NODATUM"}, {"conceptId": "C86388", "definition": "Any bacterial organism that can be assigned to the species Eubacterium rectale.", "preferredTerm": "Eubacterium rectale", "submissionValue": "EUBACTERIUM RECTALE"}, {"conceptId": "C86389", "definition": "Any bacterial organism that can be assigned to the species Eubacterium ventriosum.", "preferredTerm": "Eubacterium ventriosum", "submissionValue": "EUBACTERIUM VENTRIOSUM"}, {"conceptId": "C86390", "definition": "Any bacteria that is not assigned to the species level but can be assigned to the Ewingella genus level.", "preferredTerm": "Ewingella", "submissionValue": "EWINGELLA"}, {"conceptId": "C86391", "definition": "Any bacterial organism that can be assigned to the species Ewingella americana.", "preferredTerm": "Ewingella americana", "submissionValue": "EWINGELLA AMERICANA", "synonyms": ["CDC ENTERIC GROUP 40"]}, {"conceptId": "C86885", "definition": "Any bacteria that is not assigned to the species level but can be assigned to the Exiguobacterium genus level.", "preferredTerm": "Exiguobacterium", "submissionValue": "EXIGUOBACTERIUM"}, {"conceptId": "C86886", "definition": "Any bacterial organism that can be assigned to the species Exiguobacterium acetylicum.", "preferredTerm": "Exiguobacterium acetylicum", "submissionValue": "EXIGUOBACTERIUM ACETYLICUM", "synonyms": ["BREVIBACTERIUM ACETYLICUM"]}, {"conceptId": "C86392", "definition": "Any bacteria that is not assigned to the species level but can be assigned to the Facklamia genus level.", "preferredTerm": "Facklamia", "submissionValue": "FACKLAMIA"}, {"conceptId": "C86393", "definition": "Any bacteria that is not assigned to the species level but can be assigned to the Faecalibacterium genus level.", "preferredTerm": "Faecalibacterium", "submissionValue": "FAECALIBACTERIUM"}, {"conceptId": "C86394", "definition": "Any bacterial organism that can be assigned to the species Faecalibacterium prausnitzii.", "preferredTerm": "Faecalibacterium prausnitzii", "submissionValue": "FAECALIBACTERIUM PRAUSNITZII", "synonyms": ["FUSOBACTERIUM PRAUSNITZII"]}, {"conceptId": "C86395", "definition": "Any rod-shaped, anaerobic bacteria that can convert carbohydrates into acids and alcohols and has a cell wall contains low levels of peptidoglycan and stains pink with the Gram staining technique.", "preferredTerm": "Fermentative Gram Negative Bacillus", "submissionValue": "FERMENTATIVE GRAM-NEGATIVE BACILLUS", "synonyms": ["FERMENTATIVE GRAM-NEGATIVE ROD"]}, {"conceptId": "C114265", "definition": "Any fungal organism that can be assigned to the species Filobasidium uniguttulatum.", "preferredTerm": "Filobasidium uniguttulatum", "submissionValue": "FILOBASIDIUM UNIGUTTULATUM", "synonyms": ["C. neoformans var. uniguttulatus", "C. uniguttulatus", "Cryptococcus neoformans var. uniguttulatus", "Cryptococcus uniguttulatus", "E. uniguttulata", "Eutorulopsis uniguttulata", "F. uniguttulatum"]}, {"conceptId": "C112031", "definition": "Any viral organism that can be assigned to the family Filoviridae.", "preferredTerm": "Filoviridae", "submissionValue": "FILOVIRUS", "synonyms": ["Filoviridae"]}, {"conceptId": "C86887", "definition": "Any bacteria that is not assigned to the species level but can be assigned to the Finegoldia genus level.", "preferredTerm": "Finegoldia", "submissionValue": "FINEGOLDIA"}, {"conceptId": "C86888", "definition": "Any bacterial organism that can be assigned to the species Finegoldia magna.", "preferredTerm": "Finegoldia magna", "submissionValue": "FINEGOLDIA MAGNA", "synonyms": ["PEPTOSTREPTOCOCCUS MAGNUS"]}, {"conceptId": "C14208", "definition": "Any viral organism that can be assigned to the genus Flavivirus.", "preferredTerm": "Flavivirus", "submissionValue": "FLAVIVIRUS"}, {"conceptId": "C76320", "definition": "Any bacteria that is not assigned to the species level but can be assigned to the Flavobacterium genus level.", "preferredTerm": "Flavobacterium", "submissionValue": "FLAVOBACTERIUM"}, {"conceptId": "C86396", "definition": "Any bacteria that is not assigned to the species level but can be assigned to the Francisella genus level.", "preferredTerm": "Francisella", "submissionValue": "FRANCISELLA"}, {"conceptId": "C86397", "definition": "Any bacterial organism that can be assigned to the species Francisella tularensis.", "preferredTerm": "Francisella tularensis", "submissionValue": "FRANCISELLA TULARENSIS", "synonyms": ["PASTEURELLA TULARENSIS"]}, {"conceptId": "C76323", "definition": "Any bacteria that is not assigned to the species level but can be assigned to the Fusobacterium genus level.", "preferredTerm": "Fusobacterium", "submissionValue": "FUSOBACTERIUM"}, {"conceptId": "C86398", "definition": "Any bacterial organism that can be assigned to the species Fusobacterium gonidiaformans.", "preferredTerm": "Fusobacterium gonidiaformans", "submissionValue": "FUSOBACTERIUM GONIDIAFORMANS"}, {"conceptId": "C86399", "definition": "Any bacterial organism that can be assigned to the species Fusobacterium mortiferum.", "preferredTerm": "Fusobacterium mortiferum", "submissionValue": "FUSOBACTERIUM MORTIFERUM"}, {"conceptId": "C114252", "definition": "Any bacterial organism that can be assigned to the species Fusobacterium naviforme.", "preferredTerm": "Fusobacterium naviforme", "submissionValue": "FUSOBACTERIUM NAVIFORME", "synonyms": ["Bacillus naviformis", "Fusibacterium naviforme", "Pseudobacterium naviformis", "Ristella naviformis"]}, {"conceptId": "C86400", "definition": "Any bacterial organism that can be assigned to the species Fusobacterium necrogenes.", "preferredTerm": "Fusobacterium necrogenes", "submissionValue": "FUSOBACTERIUM NECROGENES"}, {"conceptId": "C86401", "definition": "Any bacterial organism that can be assigned to the species Fusobacterium necrophorum.", "preferredTerm": "Fusobacterium necrophorum", "submissionValue": "FUSOBACTERIUM NECROPHORUM"}, {"conceptId": "C86404", "definition": "Any bacterial organism that can be assigned to the species Fusobacterium nucleatum.", "preferredTerm": "Fusobacterium nucleatum", "submissionValue": "FUSOBACTERIUM NUCLEATUM"}, {"conceptId": "C86405", "definition": "Any bacterial organism that can be assigned to the species Fusobacterium russii.", "preferredTerm": "Fusobacterium russii", "submissionValue": "FUSOBACTERIUM RUSSII"}, {"conceptId": "C86406", "definition": "Any bacterial organism that can be assigned to the species Fusobacterium ulcerans.", "preferredTerm": "Fusobacterium ulcerans", "submissionValue": "FUSOBACTERIUM ULCERANS"}, {"conceptId": "C86407", "definition": "Any bacterial organism that can be assigned to the species Fusobacterium varium.", "preferredTerm": "Fusobacterium varium", "submissionValue": "FUSOBACTERIUM VARIUM", "synonyms": ["FUSOBACTERIUM NECROPHORUM BIOVAR C", "FUSOBACTERIUM PSEUDONECROPHORUM"]}, {"conceptId": "C86409", "definition": "Any bacteria that is not assigned to the species level but can be assigned to the Gardnerella genus level.", "preferredTerm": "Gardnerella", "submissionValue": "GARDNERELLA"}, {"conceptId": "C86410", "definition": "Any bacterial organism that can be assigned to the species Gardnerella vaginalis.", "preferredTerm": "Gardnerella vaginalis", "submissionValue": "GARDNERELLA VAGINALIS", "synonyms": ["CORYNEBACTERIUM VAGINALIS"]}, {"conceptId": "C86889", "definition": "Any bacteria that is not assigned to the species level but can be assigned to the Gemella genus level.", "preferredTerm": "Gemella", "submissionValue": "GEMELLA"}, {"conceptId": "C86890", "definition": "Any bacterial organism that can be assigned to the species Gemella bergeri.", "preferredTerm": "Gemella bergeri", "submissionValue": "GEMELLA BERGERI"}, {"conceptId": "C86891", "definition": "Any bacterial organism that can be assigned to the species Gemella haemolysans.", "preferredTerm": "Gemella haemolysans", "submissionValue": "GEMELLA HAEMOLYSANS", "synonyms": ["NEISSERIA HAEMOLYSANS"]}, {"conceptId": "C86892", "definition": "Any bacterial organism that can be assigned to the species Gemella morbillorum.", "preferredTerm": "Gemella morbillorum", "submissionValue": "GEMELLA MORBILLORUM", "synonyms": ["STREPTOCOCCUS MORBILLORUM"]}, {"conceptId": "C86893", "definition": "Any bacterial organism that can be assigned to the species Gemella sanguinis.", "preferredTerm": "Gemella sanguinis", "submissionValue": "GEMELLA SANGUINIS"}, {"conceptId": "C86411", "definition": "Any bacteria that is not assigned to the species level but can be assigned to the Globicatella genus level.", "preferredTerm": "Globicatella", "submissionValue": "GLOBICATELLA"}, {"conceptId": "C86412", "definition": "Any bacterial organism that can be assigned to the species Globicatella sanguinis.", "preferredTerm": "Globicatella sanguinis", "submissionValue": "GLOBICATELLA SANGUINIS", "synonyms": ["GLOBICATELLA SANGUIS"]}, {"conceptId": "C86413", "definition": "Any bacterial organism that can be assigned to the species Globicatella sulfidifaciens.", "preferredTerm": "Globicatella sulfidifaciens", "submissionValue": "GLOBICATELLA SULFIDIFACIENS"}, {"conceptId": "C86414", "definition": "Any bacteria that is not assigned to the species level but can be assigned to the Gordonia genus level.", "preferredTerm": "Gordonia", "submissionValue": "GORDONIA"}, {"conceptId": "C86415", "definition": "Any bacterial organism that can be assigned to the species Gordonia aichiensis.", "preferredTerm": "Gordonia aichiensis", "submissionValue": "GORDONIA AICHIENSIS", "synonyms": ["GORDONA AICHIENSIS", "TSUKAMURELLA AICHIENSIS"]}, {"conceptId": "C86416", "definition": "Any bacterial organism that can be assigned to the species Gordonia bronchialis.", "preferredTerm": "Gordonia bronchialis", "submissionValue": "GORDONIA BRONCHIALIS", "synonyms": ["GORDONA BRONCHIALIS", "RHODOCOCCUS BRONCHIALIS"]}, {"conceptId": "C86417", "definition": "Any bacterial organism that can be assigned to the species Gordonia rubripertincta.", "preferredTerm": "Gordonia rubripertincta", "submissionValue": "GORDONIA RUBRIPERTINCTA", "synonyms": ["GORDONA RUBROPERTINCTA", "RHODOCOCCUS RUBRIPERTINCTA"]}, {"conceptId": "C86418", "definition": "Any bacterial organism that can be assigned to the species Gordonia sputi.", "preferredTerm": "Gordonia sputi", "submissionValue": "GORDONIA SPUTI", "synonyms": ["GORDONA SPUTI"]}, {"conceptId": "C86419", "definition": "Any bacterial organism that can be assigned to the species Gordonia terrae.", "preferredTerm": "Gordonia terrae", "submissionValue": "GORDONIA TERRAE", "synonyms": ["GORDONA TERRAE", "RHODOCOCCUS TERRAE"]}, {"conceptId": "C86420", "definition": "Any bacteria that is not assigned to the species level but can be assigned to the Gracilibacillus genus level.", "preferredTerm": "Gracilibacillus", "submissionValue": "GRACILIBACILLUS"}, {"conceptId": "C86421", "definition": "Any rod-shaped bacteria that contains low levels of peptidoglycan in its cell wall and stains pink with the Gram staining technique.", "preferredTerm": "Gram Negative Bacillus", "submissionValue": "GRAM-NEGATIVE BACILLUS"}, {"conceptId": "C86422", "definition": "Any spherical-shaped bacteria that contains low levels of peptidoglycan in its cell wall and stains pink with the Gram staining technique.", "preferredTerm": "Gram Negative Coccus", "submissionValue": "GRAM-NEGATIVE COCCUS"}, {"conceptId": "C62589", "definition": "Any rod-shaped bacteria that has a peptidoglycan-rich cell wall that stains dark purple with the Gram staining technique.", "preferredTerm": "Gram-Positive Rod", "submissionValue": "GRAM-POSITIVE BACILLUS"}, {"conceptId": "C86424", "definition": "Any spherical-shaped bacteria that has a peptidoglycan-rich cell wall that stains dark purple with the Gram staining technique.", "preferredTerm": "Gram Positive Coccus", "submissionValue": "GRAM-POSITIVE COCCUS"}, {"conceptId": "C86425", "definition": "Any bacteria that is not assigned to the species level but can be assigned to the Granulicatella genus level.", "preferredTerm": "Granulicatella", "submissionValue": "GRANULICATELLA"}, {"conceptId": "C86426", "definition": "Any bacterial organism that can be assigned to the species Granulicatella adiacens.", "preferredTerm": "Granulicatella adiacens", "submissionValue": "GRANULICATELLA ADIACENS", "synonyms": ["ABIOTROPHIA ADJACENS", "STREPTOCOCCUS ADJACENS"]}, {"conceptId": "C111204", "definition": "Any bacterial organism that can be assigned to the species Granulicatella elegans.", "preferredTerm": "Granulicatella elegans", "submissionValue": "GRANULICATELLA ELEGANS", "synonyms": ["ABIOTROPHIA ELEGANS"]}, {"conceptId": "C86427", "definition": "Any bacterial organism that can be assigned to the species Grimontia hollisae.", "preferredTerm": "Grimontia hollisae", "submissionValue": "GRIMONTIA HOLLISAE", "synonyms": ["VIBRIO HOLLISAE"]}, {"conceptId": "C76324", "definition": "Any bacteria that is not assigned to the species level but can be assigned to the Haemophilus genus level.", "preferredTerm": "Haemophilus", "submissionValue": "HAEMOPHILUS"}, {"conceptId": "C86428", "definition": "Any bacterial organism that can be assigned to the species Haemophilus aegyptius.", "preferredTerm": "Haemophilus aegyptius", "submissionValue": "HAEMOPHILUS AEGYPTIUS"}, {"conceptId": "C86429", "definition": "Any bacterial organism that can be assigned to the species Haemophilus haemoglobinophilus.", "preferredTerm": "Haemophilus haemoglobinophilus", "submissionValue": "HAEMOPHILUS HAEMOGLOBINOPHILUS"}, {"conceptId": "C86430", "definition": "Any bacterial organism that can be assigned to the species Haemophilus haemolyticus.", "preferredTerm": "Haemophilus haemolyticus", "submissionValue": "HAEMOPHILUS HAEMOLYTICUS"}, {"conceptId": "C86431", "definition": "Any bacterial organism that can be assigned to the species Haemophilus influenzae.", "preferredTerm": "Haemophilus influenzae", "submissionValue": "HAEMOPHILUS INFLUENZAE", "synonyms": ["H-FLU"]}, {"conceptId": "C86432", "definition": "Any bacterial organism that can be assigned to the species Haemophilus parahaemolyticus.", "preferredTerm": "Haemophilus parahaemolyticus", "submissionValue": "HAEMOPHILUS PARAHAEMOLYTICUS"}, {"conceptId": "C86433", "definition": "Any bacterial organism that can be assigned to the species Haemophilus parainfluenzae.", "preferredTerm": "Haemophilus parainfluenzae", "submissionValue": "HAEMOPHILUS PARAINFLUENZAE", "synonyms": ["HEMOPHILUS PARAINFLUENZAE"]}, {"conceptId": "C86434", "definition": "Any bacteria that is not assigned to the species level but can be assigned to the Hafnia genus level.", "preferredTerm": "Hafnia", "submissionValue": "HAFNIA"}, {"conceptId": "C86435", "definition": "Any bacterial organism that can be assigned to the species Hafnia alvei.", "preferredTerm": "Hafnia alvei", "submissionValue": "HAFNIA ALVEI", "synonyms": ["ENTEROBACTER ALVEI"]}, {"conceptId": "C86436", "definition": "Any bacteria that is not assigned to the species level but can be assigned to the Halobacillus genus level.", "preferredTerm": "Halobacillus", "submissionValue": "HALOBACILLUS"}, {"conceptId": "C14213", "definition": "Any viral organism that can be assigned to the genus Hantavirus.", "preferredTerm": "Hantavirus", "submissionValue": "HANTAVIRUS"}, {"conceptId": "C86873", "definition": "Any bacteria that is not assigned to the species level but can be assigned to the Helcococcus genus level.", "preferredTerm": "Helcococcus", "submissionValue": "HELCOCOCCUS"}, {"conceptId": "C86878", "definition": "Any bacterial organism that can be assigned to the species Helcococcus kunzii.", "preferredTerm": "Helcococcus kunzii", "submissionValue": "HELCOCOCCUS KUNZII"}, {"conceptId": "C86879", "definition": "Any bacterial organism that can be assigned to the species Helcococcus pyogenes.", "preferredTerm": "Helcococcus pyogenes", "submissionValue": "HELCOCOCCUS PYOGENES"}, {"conceptId": "C86880", "definition": "Any bacterial organism that can be assigned to the species Helcococcus sueciensis.", "preferredTerm": "Helcococcus sueciensis", "submissionValue": "HELCOCOCCUS SUECIENSIS"}, {"conceptId": "C14296", "definition": "Any bacteria that is not assigned to the species level but can be assigned to the Helicobacter genus level.", "preferredTerm": "Helicobacter", "submissionValue": "HELICOBACTER"}, {"conceptId": "C86437", "definition": "Any bacterial organism that can be assigned to the species Helicobacter cinaedi.", "preferredTerm": "Helicobacter cinaedi", "submissionValue": "HELICOBACTER CINAEDI", "synonyms": ["CAMPYLOBACTER CINAEDI"]}, {"conceptId": "C14330", "definition": "Any bacterial organism that can be assigned to the species Helicobacter felis.", "preferredTerm": "Helicobacter felis", "submissionValue": "HELICOBACTER FELIS", "synonyms": ["H. FELIS"]}, {"conceptId": "C86438", "definition": "Any bacterial organism that can be assigned to the species Helicobacter fennelliae.", "preferredTerm": "Helicobacter fennelliae", "submissionValue": "HELICOBACTER FENNELLIAE", "synonyms": ["CAMPYLOBACTER FENNELLIAE"]}, {"conceptId": "C86439", "definition": "Any bacterial organism that can be assigned to the species Helicobacter mustelae.", "preferredTerm": "Helicobacter mustelae", "submissionValue": "HELICOBACTER MUSTELAE", "synonyms": ["CAMPYLOBACTER MUSTELAE"]}, {"conceptId": "C14289", "definition": "Any bacterial organism that can be assigned to the species Helicobacter pylori.", "preferredTerm": "Helicobacter pylori", "submissionValue": "HELICOBACTER PYLORI", "synonyms": ["CAMPYLOBACTER PYLORI", "H. PYLORI"]}, {"conceptId": "C86440", "definition": "Any bacterial organism that can be assigned to the species Helicobacter rappini.", "preferredTerm": "Helicobacter rappini", "submissionValue": "HELICOBACTER RAPPINI", "synonyms": ["FLEXISPIRA RAPPINI"]}, {"conceptId": "C112289", "definition": "Any viral organism that can be assigned to the species Hendra virus.", "preferredTerm": "Hendra Virus", "submissionValue": "HENDRA VIRUS"}, {"conceptId": "C112290", "definition": "Any viral organism that can be assigned to the genus Henipavirus.", "preferredTerm": "Henipavirus", "submissionValue": "HENIPAVIRUS"}, {"conceptId": "C14325", "definition": "Any viral organism that can be assigned to the species Hepatitis A virus.", "preferredTerm": "Hepatitis A Virus", "submissionValue": "HEPATITIS A VIRUS", "synonyms": ["HAV"]}, {"conceptId": "C14215", "definition": "Any viral organism that can be assigned to the species Hepatitis B virus.", "preferredTerm": "Hepatitis B Virus", "submissionValue": "HEPATITIS B VIRUS", "synonyms": ["HBV"]}, {"conceptId": "C14312", "definition": "Any viral organism that can be assigned to the species Hepatitis C virus.", "preferredTerm": "Hepatitis C Virus", "submissionValue": "HEPATITIS C VIRUS", "synonyms": ["HCV"]}, {"conceptId": "C93324", "definition": "Any viral organism that can be assigned to the species Hepatitis D virus.", "preferredTerm": "Hepatitis D Virus", "submissionValue": "HEPATITIS D VIRUS", "synonyms": ["HDV"]}, {"conceptId": "C14295", "definition": "Any viral organism that can be assigned to the species Hepatitis E virus.", "preferredTerm": "Hepatitis E Virus", "submissionValue": "HEPATITIS E VIRUS", "synonyms": ["HEV"]}, {"conceptId": "C14328", "definition": "Any viral organism that can be assigned to the species Hepatitis G virus.", "preferredTerm": "GB virus C", "submissionValue": "HEPATITIS G VIRUS", "synonyms": ["GBV-C", "HGV"]}, {"conceptId": "C86441", "definition": "Any bacterial organism that can be assigned to the species Histophilus somni.", "preferredTerm": "Histophilus somni", "submissionValue": "HISTOPHILUS SOMNI", "synonyms": ["HAEMOPHILUS SOMNUS"]}, {"conceptId": "C86442", "definition": "Any bacteria that is not assigned to the species level but can be assigned to the Holdemania genus level.", "preferredTerm": "Holdemania", "submissionValue": "HOLDEMANIA"}, {"conceptId": "C86443", "definition": "Any bacterial organism that can be assigned to the species Holdemania filiformis.", "preferredTerm": "Holdemania filiformis", "submissionValue": "HOLDEMANIA FILIFORMIS"}, {"conceptId": "C14311", "definition": "Any viral organism that can be assigned to the species Human Herpesvirus 1 within the genus Simplexvirus.", "preferredTerm": "Human Herpesvirus 1", "submissionValue": "HUMAN HERPESVIRUS 1", "synonyms": ["HHV-1", "HSV-1", "Herpes Simplex Virus type 1"]}, {"conceptId": "C112313", "definition": "Any viral organism that can be assigned to the species Human Herpesvirus 2 within the genus Simplexvirus.", "preferredTerm": "Human Herpesvirus 2", "submissionValue": "HUMAN HERPESVIRUS 2", "synonyms": ["HHV-2", "HSV-2", "Herpes Simplex Virus type 2"]}, {"conceptId": "C71091", "definition": "Any viral organism that can be assigned to the species Human Herpesvirus 3.", "preferredTerm": "Varicella Zoster Virus", "submissionValue": "HUMAN HERPESVIRUS 3", "synonyms": ["HHV-3", "VZV", "Varicella Zoster Virus"]}, {"conceptId": "C14204", "definition": "Any viral organism that can be assigned to the species Human Herpesvirus 4.", "preferredTerm": "Epstein-Barr Virus", "submissionValue": "HUMAN HERPESVIRUS 4", "synonyms": ["EBV", "Epstein-Barr Virus", "HHV-4"]}, {"conceptId": "C112314", "definition": "Any viral organism that can be assigned to the species Human Herpesvirus 5.", "preferredTerm": "Human Herpesvirus 5", "submissionValue": "HUMAN HERPESVIRUS 5", "synonyms": ["HCMV", "HHV-5", "Human Cytomegalovirus"]}, {"conceptId": "C14218", "definition": "Any viral organism that can be assigned to the species Human Herpesvirus 6.", "preferredTerm": "Human Herpesvirus 6", "submissionValue": "HUMAN HERPESVIRUS 6", "synonyms": ["HHV-6"]}, {"conceptId": "C112315", "definition": "Any viral organism that can be assigned to the species Human Herpesvirus 7.", "preferredTerm": "Human Herpesvirus 7", "submissionValue": "HUMAN HERPESVIRUS 7", "synonyms": ["HHV-7"]}, {"conceptId": "C14327", "definition": "Any viral organism that can be assigned to the species Human herpesvirus 8.", "preferredTerm": "Human Herpesvirus 8", "submissionValue": "HUMAN HERPESVIRUS 8", "synonyms": ["HHV-8", "KSHV", "Kaposi's sarcoma-associated herpesvirus"]}, {"conceptId": "C14220", "definition": "Any viral organism that can be assigned to the species Human Immunodeficiency virus 1.", "preferredTerm": "Human Immunodeficiency Virus 1", "submissionValue": "HUMAN IMMUNODEFICIENCY VIRUS 1", "synonyms": ["HIV-1", "LAV-1"]}, {"conceptId": "C14221", "definition": "Any viral organism that can be assigned to the species Human Immunodeficiency virus 2.", "preferredTerm": "Human Immunodeficiency Virus 2", "submissionValue": "HUMAN IMMUNODEFICIENCY VIRUS 2", "synonyms": ["HIV-2", "LAV-2"]}, {"conceptId": "C14226", "definition": "Any viral organism in humans that can be assigned to the family Papillomaviridae.", "preferredTerm": "Human Papillomavirus", "submissionValue": "HUMAN PAPILLOMAVIRUS", "synonyms": ["HPV", "Human Papilloma Virus"]}, {"conceptId": "C14254", "definition": "Any viral organism that can be assigned to the Human Parainfluenza virus 1 serotype.", "preferredTerm": "Human Parainfluenza Virus 1", "submissionValue": "HUMAN PARAINFLUENZA VIRUS 1", "synonyms": ["HPIV-1", "Human Parainfluenza Virus Type 1", "hPIV-1"]}, {"conceptId": "C112316", "definition": "Any viral organism that can be assigned to the Human Parainfluenza virus 2 serotype.", "preferredTerm": "Human Parainfluenza Virus 2", "submissionValue": "HUMAN PARAINFLUENZA VIRUS 2", "synonyms": ["HPIV-2", "Human Parainfluenza Virus Type 2", "hPIV-2"]}, {"conceptId": "C112317", "definition": "Any viral organism that can be assigned to the Human Parainfluenza virus 3 serotype.", "preferredTerm": "Human Parainfluenza Virus 3", "submissionValue": "HUMAN PARAINFLUENZA VIRUS 3", "synonyms": ["HPIV-3", "Human Parainfluenza Virus Type 3", "hPIV-3"]}, {"conceptId": "C112318", "definition": "Any viral organism that can be assigned to the Human Parainfluenza virus 4 serotype.", "preferredTerm": "Human Parainfluenza Virus 4", "submissionValue": "HUMAN PARAINFLUENZA VIRUS 4", "synonyms": ["HPIV-4", "Human Parainfluenza Virus Type 4", "hPIV-4"]}, {"conceptId": "C89772", "definition": "Any viral organism that can be assigned to the species Human Parvovirus B19.", "preferredTerm": "Parvovirus B19", "submissionValue": "HUMAN PARVOVIRUS B19", "synonyms": ["B19 Virus", "Human Erythrovirus B19", "Parvovirus B19"]}, {"conceptId": "C14267", "definition": "Any viral organism that can be assigned to the species Human Respiratory Syncitial virus.", "preferredTerm": "Human Respiratory Syncytial Virus", "submissionValue": "HUMAN RESPIRATORY SYNCYTIAL VIRUS", "synonyms": ["Human RSV", "RSV", "hRSV"]}, {"conceptId": "C14223", "definition": "Any viral organism that can be assigned to the Human T-lymphotrophic virus serotype 1.", "preferredTerm": "HTLV-1", "submissionValue": "HUMAN T-LYMPHOTROPIC VIRUS 1", "synonyms": ["Adult T-cell leukemia lymphoma ATLL", "Adult T-cell lymphoma virus type 1", "HTLV-1"]}, {"conceptId": "C14224", "definition": "Any viral organism that can be assigned to the Human T-lymphotrophic virus serotype 2.", "preferredTerm": "HTLV-2", "submissionValue": "HUMAN T-LYMPHOTROPIC VIRUS 2", "synonyms": ["HTLV-2", "HTLV-II"]}, {"conceptId": "C53454", "definition": "Any viral organism that can be assigned to the species Influenza A virus.", "preferredTerm": "Influenza A Virus", "submissionValue": "INFLUENZA A VIRUS", "synonyms": ["FLUAV", "Influenza Virus Type A"]}, {"conceptId": "C53468", "definition": "Any viral organism that can be assigned to the species Influenza B virus.", "preferredTerm": "Influenza B Virus", "submissionValue": "INFLUENZA B VIRUS", "synonyms": ["FLUBV", "Influenza Virus Type B"]}, {"conceptId": "C97157", "definition": "Any viral organism that can be assigned to the species Influenza C virus.", "preferredTerm": "Influenza C Virus", "submissionValue": "INFLUENZA C VIRUS", "synonyms": ["FLUCV", "Influenza Virus Type C"]}, {"conceptId": "C86444", "definition": "Any bacteria that is not assigned to the species level but can be assigned to the Inquilinus genus level.", "preferredTerm": "Inquilinus", "submissionValue": "INQUILINUS"}, {"conceptId": "C86445", "definition": "Any bacterial organism that can be assigned to the species Inquilinus limosus.", "preferredTerm": "Inquilinus limosus", "submissionValue": "INQUILINUS LIMOSUS"}, {"conceptId": "C14229", "definition": "Any viral organism that can be assigned to the species JC polyomavirus.", "preferredTerm": "JC Virus", "submissionValue": "JC VIRUS", "synonyms": ["Human polyomavirus (type JC)", "Polyomavirus hominis 2", "polyomavirus JC"]}, {"conceptId": "C86446", "definition": "Any bacteria that is not assigned to the species level but can be assigned to the Jeotgalibacillus genus level.", "preferredTerm": "Jeotgalibacillus", "submissionValue": "JEOTGALIBACILLUS"}, {"conceptId": "C86447", "definition": "Any bacteria that is not assigned to the species level but can be assigned to the Johnsonella genus level.", "preferredTerm": "Johnsonella", "submissionValue": "JOHNSONELLA"}, {"conceptId": "C86448", "definition": "Any bacterial organism that can be assigned to the species Johnsonella ignava.", "preferredTerm": "Johnsonella ignava", "submissionValue": "JOHNSONELLA IGNAVA"}, {"conceptId": "C86449", "definition": "Any bacteria that is not assigned to the species level but can be assigned to the Kingella genus level.", "preferredTerm": "Kingella", "submissionValue": "KINGELLA"}, {"conceptId": "C86450", "definition": "Any bacterial organism that can be assigned to the species Kingella denitrificans.", "preferredTerm": "Kingella denitrificans", "submissionValue": "KINGELLA DENITRIFICANS", "synonyms": ["CDC GROUP TM-1"]}, {"conceptId": "C86451", "definition": "Any bacterial organism that can be assigned to the species Kingella kingae.", "preferredTerm": "Kingella kingae", "submissionValue": "KINGELLA KINGAE", "synonyms": ["MORAXELLA KINGAE"]}, {"conceptId": "C86452", "definition": "Any bacterial organism that can be assigned to the species Kingella oralis.", "preferredTerm": "Kingella oralis", "submissionValue": "KINGELLA ORALIS"}, {"conceptId": "C86453", "definition": "Any bacterial organism that can be assigned to the species Kingella potus.", "preferredTerm": "Kingella potus", "submissionValue": "KINGELLA POTUS"}, {"conceptId": "C28165", "definition": "Any bacteria that is not assigned to the species level but can be assigned to the Klebsiella genus level.", "preferredTerm": "Klebsiella", "submissionValue": "KLEBSIELLA"}, {"conceptId": "C86454", "definition": "Any bacterial organism that can be assigned to the species Klebsiella granulomatis.", "preferredTerm": "Klebsiella granulomatis", "submissionValue": "KLEBSIELLA GRANULOMATIS"}, {"conceptId": "C86455", "definition": "Any bacterial organism that can be assigned to the species Klebsiella oxytoca.", "preferredTerm": "Klebsiella oxytoca", "submissionValue": "KLEBSIELLA OXYTOCA", "synonyms": ["K. OXYTOCA"]}, {"conceptId": "C86456", "definition": "Any bacterial organism that can be assigned to the species Klebsiella ozaenae.", "preferredTerm": "Klebsiella ozaenae", "submissionValue": "KLEBSIELLA OZAENAE", "synonyms": ["KLEBSIELLA PNEUMONIAE SUBSP. OZAENAE"]}, {"conceptId": "C86457", "definition": "Any bacterial organism that can be assigned to the species Klebsiella pneumoniae.", "preferredTerm": "Klebsiella pneumoniae", "submissionValue": "KLEBSIELLA PNEUMONIAE", "synonyms": ["K. PNEUMONIAE"]}, {"conceptId": "C86458", "definition": "Any bacterial organism that can be assigned to the species Klebsiella rhinoscleromatis.", "preferredTerm": "Klebsiella rhinoscleromatis", "submissionValue": "KLEBSIELLA RHINOSCLEROMATIS", "synonyms": ["KLEBSIELLA PNEUMONIAE SUBSP. RHINOSCLEROMATIS"]}, {"conceptId": "C86459", "definition": "Any bacterial organism that can be assigned to the species Klebsiella singaporensis.", "preferredTerm": "Klebsiella singaporensis", "submissionValue": "KLEBSIELLA SINGAPORENSIS"}, {"conceptId": "C86460", "definition": "Any bacterial organism that can be assigned to the species Klebsiella variicola.", "preferredTerm": "Klebsiella variicola", "submissionValue": "KLEBSIELLA VARIICOLA"}, {"conceptId": "C86461", "definition": "Any bacteria that is not assigned to the species level but can be assigned to the Kluyvera genus level.", "preferredTerm": "Kluyvera", "submissionValue": "KLUYVERA"}, {"conceptId": "C86462", "definition": "Any bacterial organism that can be assigned to the species Kluyvera ascorbata.", "preferredTerm": "Kluyvera ascorbata", "submissionValue": "KLUYVERA ASCORBATA", "synonyms": ["CDC ENTERIC GROUP 8"]}, {"conceptId": "C86463", "definition": "Any bacterial organism that can be assigned to the species Kluyvera cryocrescens.", "preferredTerm": "Kluyvera cryocrescens", "submissionValue": "KLUYVERA CRYOCRESCENS"}, {"conceptId": "C86464", "definition": "Any bacterial organism that can be assigned to the species Kluyvera georgiana.", "preferredTerm": "Kluyvera georgiana", "submissionValue": "KLUYVERA GEORGIANA"}, {"conceptId": "C86465", "definition": "Any bacterial organism that can be assigned to the species Kluyvera intermedia.", "preferredTerm": "Kluyvera intermedia", "submissionValue": "KLUYVERA INTERMEDIA", "synonyms": ["ENTEROBACTER INTERMEDIUM", "ENTEROBACTER INTERMEDIUS", "KLUYVERA COCHLEAE"]}, {"conceptId": "C114256", "definition": "Any fungal organism that can be assigned to the species Kluyveromyces marxianus.", "preferredTerm": "Kluyveromyces marxianus", "submissionValue": "KLUYVEROMYCES MARXIANUS", "synonyms": ["C. pseudotropicalis", "Candida pseudotropicalis", "K. cicerisporus", "K. fragilis", "Kluyveromyces cicerisporus", "Kluyveromyces fragilis"]}, {"conceptId": "C86466", "definition": "Any bacteria that is not assigned to the species level but can be assigned to the Knoellia genus level.", "preferredTerm": "Knoellia", "submissionValue": "KNOELLIA"}, {"conceptId": "C86467", "definition": "Any bacteria that is not assigned to the species level but can be assigned to the Kocuria genus level.", "preferredTerm": "Kocuria", "submissionValue": "KOCURIA"}, {"conceptId": "C86468", "definition": "Any bacterial organism that can be assigned to the species Kocuria kristinae.", "preferredTerm": "Kocuria kristinae", "submissionValue": "KOCURIA KRISTINAE", "synonyms": ["MICROCOCCUS KRISTINAE"]}, {"conceptId": "C86513", "definition": "Any bacterial organism that can be assigned to the species Kocuria rhizophila.", "preferredTerm": "Micrococcus luteus", "submissionValue": "KOCURIA RHIZOPHILA", "synonyms": ["MICROCOCCUS LUTEUS", "SARCINA LUTEA"]}, {"conceptId": "C86469", "definition": "Any bacterial organism that can be assigned to the species Kocuria rosea.", "preferredTerm": "Kocuria rosea", "submissionValue": "KOCURIA ROSEA"}, {"conceptId": "C86470", "definition": "Any bacterial organism that can be assigned to the species Kocuria varians.", "preferredTerm": "Kocuria varians", "submissionValue": "KOCURIA VARIANS"}, {"conceptId": "C86471", "definition": "Any bacteria that is not assigned to the species level but can be assigned to the Kurthia genus level.", "preferredTerm": "Kurthia", "submissionValue": "KURTHIA"}, {"conceptId": "C86472", "definition": "Any bacteria that is not assigned to the species level but can be assigned to the Kytococcus genus level.", "preferredTerm": "Kytococcus", "submissionValue": "KYTOCOCCUS"}, {"conceptId": "C86473", "definition": "Any bacterial organism that can be assigned to the species Kytococcus sedentarius.", "preferredTerm": "Kytococcus sedentarius", "submissionValue": "KYTOCOCCUS SEDENTARIUS"}, {"conceptId": "C76352", "definition": "Any bacteria that is not assigned to the species level but can be assigned to the Lactobacillus genus level.", "preferredTerm": "Lactobacillus", "submissionValue": "LACTOBACILLUS"}, {"conceptId": "C86474", "definition": "Any bacterial organism that can be assigned to the species Lactobacillus acidophilus.", "preferredTerm": "Lactobacillus acidophilus", "submissionValue": "LACTOBACILLUS ACIDOPHILUS"}, {"conceptId": "C86475", "definition": "Any bacterial organism that can be assigned to the species Lactobacillus brevis.", "preferredTerm": "Lactobacillus brevis", "submissionValue": "LACTOBACILLUS BREVIS"}, {"conceptId": "C86476", "definition": "Any bacterial organism that can be assigned to the species Lactobacillus casei.", "preferredTerm": "Lactobacillus casei", "submissionValue": "LACTOBACILLUS CASEI"}, {"conceptId": "C86477", "definition": "Any bacterial organism that can be assigned to the species Lactobacillus catenaformis.", "preferredTerm": "Lactobacillus catenaformis", "submissionValue": "LACTOBACILLUS CATENAFORMIS", "synonyms": ["LACTOBACILLUS CATENAFORME"]}, {"conceptId": "C86478", "definition": "Any bacterial organism that can be assigned to the species Lactobacillus fermentum.", "preferredTerm": "Lactobacillus fermentum", "submissionValue": "LACTOBACILLUS FERMENTUM"}, {"conceptId": "C86479", "definition": "Any bacterial organism that can be assigned to the species Lactobacillus gallinarum.", "preferredTerm": "Lactobacillus gallinarum", "submissionValue": "LACTOBACILLUS GALLINARUM"}, {"conceptId": "C86480", "definition": "Any bacterial organism that can be assigned to the species Lactobacillus jensenii.", "preferredTerm": "Lactobacillus jensenii", "submissionValue": "LACTOBACILLUS JENSENII"}, {"conceptId": "C86481", "definition": "Any bacterial organism that can be assigned to the species Lactobacillus johnsonii.", "preferredTerm": "Lactobacillus johnsonii", "submissionValue": "LACTOBACILLUS JOHNSONII"}, {"conceptId": "C86482", "definition": "Any bacterial organism that can be assigned to the species Lactobacillus salivarius.", "preferredTerm": "Lactobacillus salivarius", "submissionValue": "LACTOBACILLUS SALIVARIUS"}, {"conceptId": "C86483", "definition": "Any bacteria that is not assigned to the species level but can be assigned to the Lactococcus genus level.", "preferredTerm": "Lactococcus", "submissionValue": "LACTOCOCCUS", "synonyms": ["DOEDERLEIN BACILLUS"]}, {"conceptId": "C86484", "definition": "Any bacterial organism that can be assigned to the species Lactococcus garvieae.", "preferredTerm": "Lactococcus garvieae", "submissionValue": "LACTOCOCCUS GARVIEAE"}, {"conceptId": "C86485", "definition": "Any bacterial organism that can be assigned to the species Lactococcus lactis.", "preferredTerm": "Lactococcus lactis", "submissionValue": "LACTOCOCCUS LACTIS"}, {"conceptId": "C86486", "definition": "Any bacteria that is not assigned to the species level but can be assigned to the Leclercia genus level.", "preferredTerm": "Leclercia", "submissionValue": "LECLERCIA"}, {"conceptId": "C86487", "definition": "Any bacterial organism that can be assigned to the species Leclercia adecarboxylata.", "preferredTerm": "Leclercia adecarboxylata", "submissionValue": "LECLERCIA ADECARBOXYLATA", "synonyms": ["CDC ENTERIC GROUP 41"]}, {"conceptId": "C76353", "definition": "Any bacteria that is not assigned to the species level but can be assigned to the Legionella genus level.", "preferredTerm": "Legionella", "submissionValue": "LEGIONELLA"}, {"conceptId": "C86488", "definition": "Any bacterial organism that can be assigned to the species Legionella longbeachae.", "preferredTerm": "Legionella longbeachae", "submissionValue": "LEGIONELLA LONGBEACHAE"}, {"conceptId": "C86489", "definition": "Any bacterial organism that can be assigned to the species Legionella pneumophila.", "preferredTerm": "Legionella pneumophila", "submissionValue": "LEGIONELLA PNEUMOPHILA"}, {"conceptId": "C86490", "definition": "Any bacteria that is not assigned to the species level but can be assigned to the Leifsonia genus level.", "preferredTerm": "Leifsonia", "submissionValue": "LEIFSONIA"}, {"conceptId": "C86491", "definition": "Any bacterial organism that can be assigned to the species Leifsonia aquatica.", "preferredTerm": "Leifsonia aquatica", "submissionValue": "LEIFSONIA AQUATICA", "synonyms": ["CORYNEBACTERIUM AQUATICUM"]}, {"conceptId": "C86492", "definition": "Any bacteria that is not assigned to the species level but can be assigned to the Leminorella genus level.", "preferredTerm": "Leminorella", "submissionValue": "LEMINORELLA"}, {"conceptId": "C86493", "definition": "Any bacterial organism that can be assigned to the species Leminorella grimontii.", "preferredTerm": "Leminorella grimontii", "submissionValue": "LEMINORELLA GRIMONTII", "synonyms": ["CDC ENTERIC GROUP 57"]}, {"conceptId": "C86494", "definition": "Any bacterial organism that can be assigned to the species Leminorella richardii.", "preferredTerm": "Leminorella richardii", "submissionValue": "LEMINORELLA RICHARDII"}, {"conceptId": "C14290", "definition": "Any viral organism that can be assigned to the genus Lentivirus.", "preferredTerm": "Lentivirus", "submissionValue": "LENTIVIRUS", "synonyms": ["Lentivirinae"]}, {"conceptId": "C76355", "definition": "Any bacteria that is not assigned to the species level but can be assigned to the Leptospira genus level.", "preferredTerm": "Leptospira", "submissionValue": "LEPTOSPIRA"}, {"conceptId": "C76357", "definition": "Any bacteria that is not assigned to the species level but can be assigned to the Leuconostoc genus level.", "preferredTerm": "Leuconostoc", "submissionValue": "LEUCONOSTOC"}, {"conceptId": "C86495", "definition": "Any bacterial organism that can be assigned to the species Leuconostoc citreum.", "preferredTerm": "Leuconostoc citreum", "submissionValue": "LEUCONOSTOC CITREUM"}, {"conceptId": "C86496", "definition": "Any bacterial organism that can be assigned to the species Leuconostoc lactis.", "preferredTerm": "Leuconostoc lactis", "submissionValue": "LEUCONOSTOC LACTIS"}, {"conceptId": "C86497", "definition": "Any bacterial organism that can be assigned to the species Leuconostoc mesenteroides.", "preferredTerm": "Leuconostoc mesenteroides", "submissionValue": "LEUCONOSTOC MESENTEROIDES"}, {"conceptId": "C86498", "definition": "Any bacterial organism that can be assigned to the species Leuconostoc pseudomesenteroides.", "preferredTerm": "Leuconostoc pseudomesenteroides", "submissionValue": "LEUCONOSTOC PSEUDOMESENTEROIDES"}, {"conceptId": "C76359", "definition": "Any bacteria that is not assigned to the species level but can be assigned to the Listeria genus level.", "preferredTerm": "Listeria", "submissionValue": "LISTERIA"}, {"conceptId": "C86499", "definition": "Any bacterial organism that can be assigned to the species Listeria grayi.", "preferredTerm": "Listeria grayi", "submissionValue": "LISTERIA GRAYI"}, {"conceptId": "C86500", "definition": "Any bacterial organism that can be assigned to the species Listeria innocua.", "preferredTerm": "Listeria innocua", "submissionValue": "LISTERIA INNOCUA"}, {"conceptId": "C86501", "definition": "Any bacterial organism that can be assigned to the species Listeria ivanovii.", "preferredTerm": "Listeria ivanovii", "submissionValue": "LISTERIA IVANOVII", "synonyms": ["LISTERIA MONOCYTOGENES SEROVAR 5"]}, {"conceptId": "C86502", "definition": "Any bacterial organism that can be assigned to the species Listeria monocytogenes.", "preferredTerm": "Listeria monocytogenes", "submissionValue": "LISTERIA MONOCYTOGENES"}, {"conceptId": "C86503", "definition": "Any bacterial organism that can be assigned to the species Listeria seeligeri.", "preferredTerm": "Listeria seeligeri", "submissionValue": "LISTERIA SEELIGERI"}, {"conceptId": "C86504", "definition": "Any bacterial organism that can be assigned to the species Listeria welshimeri.", "preferredTerm": "Listeria welshimeri", "submissionValue": "LISTERIA WELSHIMERI"}, {"conceptId": "C112330", "definition": "Any viral organism that can be assigned to the genus Lyssavirus.", "preferredTerm": "Lyssavirus", "submissionValue": "LYSSAVIRUS"}, {"conceptId": "C86505", "definition": "Any bacteria that is not assigned to the species level but can be assigned to the Macrococcus genus level.", "preferredTerm": "Macrococcus", "submissionValue": "MACROCOCCUS"}, {"conceptId": "C86506", "definition": "Any bacterial organism that can be assigned to the species Macrococcus caseolyticus.", "preferredTerm": "Macrococcus caseolyticus", "submissionValue": "MACROCOCCUS CASEOLYTICUS", "synonyms": ["STAPHYLOCOCCUS CASEOLYTICUS"]}, {"conceptId": "C114263", "definition": "Any fungal organism that can be assigned to the species Magnusiomyces capitatus.", "preferredTerm": "Magnusiomyces capitatus", "submissionValue": "MAGNUSIOMYCES CAPITATUS", "synonyms": ["M. capitatus"]}, {"conceptId": "C86507", "definition": "Any bacteria that is not assigned to the species level but can be assigned to the Mannheimia genus level.", "preferredTerm": "Mannheimia", "submissionValue": "MANNHEIMIA"}, {"conceptId": "C86508", "definition": "Any bacterial organism that can be assigned to the species Mannheimia haemolytica.", "preferredTerm": "Mannheimia haemolytica", "submissionValue": "MANNHEIMIA HAEMOLYTICA", "synonyms": ["PASTEURELLA HAEMOLYTICA"]}, {"conceptId": "C119326", "definition": "Any parasitic organism that can be assigned to the species Mansonella perstans.", "preferredTerm": "Mansonella perstans", "submissionValue": "MANSONELLA PERSTANS", "synonyms": ["Dipetalonema perstans"]}, {"conceptId": "C112331", "definition": "Any viral organism that can be assigned to the genus Marburgvirus.", "preferredTerm": "Marburgvirus", "submissionValue": "MARBURGVIRUS", "synonyms": ["Marburg Virus"]}, {"conceptId": "C14237", "definition": "Any viral organism that can be assigned to the species Measles virus.", "preferredTerm": "Measles Virus", "submissionValue": "MEASLES VIRUS", "synonyms": ["Rubeola Virus", "SSPEV", "rougeole virus", "subacute sclerosing panencephalitis virus"]}, {"conceptId": "C114247", "definition": "Any bacterial organism that can be assigned to the species Megamonas funiformis.", "preferredTerm": "Megamonas funiformis", "submissionValue": "MEGAMONAS FUNIFORMIS"}, {"conceptId": "C86895", "definition": "Any bacteria that is not assigned to the species level but can be assigned to the Megasphaera genus level.", "preferredTerm": "Megasphaera", "submissionValue": "MEGASPHAERA"}, {"conceptId": "C86896", "definition": "Any bacterial organism that can be assigned to the species Megasphaera elsdenii.", "preferredTerm": "Megasphaera elsdenii", "submissionValue": "MEGASPHAERA ELSDENII", "synonyms": ["PEPTOSTREPTOCOCCUS ELSDENII"]}, {"conceptId": "C76361", "definition": "Any bacteria that is not assigned to the species level but can be assigned to the Methylobacterium genus level.", "preferredTerm": "Methylobacterium", "submissionValue": "METHYLOBACTERIUM"}, {"conceptId": "C86510", "definition": "Any bacterial organism that can be assigned to the species Methylobacterium mesophilicum.", "preferredTerm": "Methylobacterium mesophilicum", "submissionValue": "METHYLOBACTERIUM MESOPHILICUM", "synonyms": ["PSEUDOMONAS MESOPHILICA"]}, {"conceptId": "C77172", "definition": "Any fungal organism that can be assigned to the species Meyerozyma guilliermondii.", "preferredTerm": "Pichia guilliermondii", "submissionValue": "MEYEROZYMA GUILLIERMONDII", "synonyms": ["C. guilliermondii", "Candida guilliermondii", "M. guillliermondii"]}, {"conceptId": "C85511", "definition": "Any bacteria that is not assigned to the species level but can be assigned to the Microbacterium genus level.", "preferredTerm": "Microbacterium", "submissionValue": "MICROBACTERIUM", "synonyms": ["CDC CORYNEFORM GROUP A-4, A-5"]}, {"conceptId": "C86512", "definition": "Any bacterial organism that can be assigned to the species Microbacterium paraoxydans.", "preferredTerm": "Microbacterium paraoxydans", "submissionValue": "MICROBACTERIUM PARAOXYDANS"}, {"conceptId": "C77086", "definition": "Any bacteria that is not assigned to the species level but can be assigned to the Micrococcus genus level.", "preferredTerm": "Micrococcus", "submissionValue": "MICROCOCCUS"}, {"conceptId": "C86514", "definition": "Any bacterial organism that can be assigned to the species Micrococcus lylae.", "preferredTerm": "Micrococcus lylae", "submissionValue": "MICROCOCCUS LYLAE"}, {"conceptId": "C86515", "definition": "Any bacteria that is not assigned to the species level but can be assigned to the Mitsuokella genus level.", "preferredTerm": "Mitsuokella", "submissionValue": "MITSUOKELLA"}, {"conceptId": "C86516", "definition": "Any bacterial organism that can be assigned to the species Mitsuokella multacida.", "preferredTerm": "Mitsuokella multacida", "submissionValue": "MITSUOKELLA MULTACIDA"}, {"conceptId": "C120707", "definition": "The presence of more than one fungal and/or bacterial organism in a culture. (NCI)", "preferredTerm": "Mixed Flora", "submissionValue": "MIXED FLORA"}, {"conceptId": "C86517", "definition": "Any bacteria that is not assigned to the species level but can be assigned to the Mobiluncus genus level.", "preferredTerm": "Mobiluncus", "submissionValue": "MOBILUNCUS"}, {"conceptId": "C86518", "definition": "Any bacterial organism that can be assigned to the species Mobiluncus curtisii.", "preferredTerm": "Mobiluncus curtisii", "submissionValue": "MOBILUNCUS CURTISII"}, {"conceptId": "C86519", "definition": "Any bacterial organism that can be assigned to the species Mobiluncus mulieris.", "preferredTerm": "Mobiluncus mulieris", "submissionValue": "MOBILUNCUS MULIERIS"}, {"conceptId": "C86520", "definition": "Any bacteria that is not assigned to the species level but can be assigned to the Moellerella genus level.", "preferredTerm": "Moellerella", "submissionValue": "MOELLERELLA"}, {"conceptId": "C86521", "definition": "Any bacterial organism that can be assigned to the species Moellerella wisconsensis.", "preferredTerm": "Moellerella wisconsensis", "submissionValue": "MOELLERELLA WISCONSENSIS", "synonyms": ["CDC ENTERIC GROUP 46"]}, {"conceptId": "C86898", "definition": "Any bacteria that is not assigned to the species level but can be assigned to the Mogibacterium genus level.", "preferredTerm": "Mogibacterium", "submissionValue": "MOGIBACTERIUM"}, {"conceptId": "C86899", "definition": "Any bacterial organism that can be assigned to the species Mogibacterium timidum.", "preferredTerm": "Mogibacterium timidum", "submissionValue": "MOGIBACTERIUM TIMIDUM", "synonyms": ["EUBACTERIUM TIMIDUM"]}, {"conceptId": "C112356", "definition": "Any viral organism that can be assigned to the genus Molluscipoxvirus.", "preferredTerm": "Molluscipoxvirus", "submissionValue": "MOLLUSCIPOXVIRUS", "synonyms": ["Molluscipox Virus"]}, {"conceptId": "C112357", "definition": "Any viral organism that can be assigned to the species Molluscum contagiosum virus.", "preferredTerm": "Molluscum Contagiosum Virus", "submissionValue": "MOLLUSCUM CONTAGIOSUM VIRUS", "synonyms": ["MCV", "MOCV"]}, {"conceptId": "C86009", "definition": "Any bacteria that is not assigned to the species level but can be assigned to the Moraxella genus level.", "preferredTerm": "Moraxella", "submissionValue": "MORAXELLA", "synonyms": ["BRANHAMELLA SPECIES"]}, {"conceptId": "C86523", "definition": "Any bacterial organism that can be assigned to the species Moraxella atlantae.", "preferredTerm": "Moraxella atlantae", "submissionValue": "MORAXELLA ATLANTAE", "synonyms": ["CDC GROUP M-3"]}, {"conceptId": "C86524", "definition": "Any bacterial organism that can be assigned to the species Moraxella bovis.", "preferredTerm": "Moraxella bovis", "submissionValue": "MORAXELLA BOVIS"}, {"conceptId": "C86525", "definition": "Any bacterial organism that can be assigned to the species Moraxella canis.", "preferredTerm": "Moraxella canis", "submissionValue": "MORAXELLA CANIS"}, {"conceptId": "C76210", "definition": "Any bacterial organism that can be assigned to the species Moraxella catarrhalis.", "preferredTerm": "Moraxella catarrhalis", "submissionValue": "MORAXELLA CATARRHALIS", "synonyms": ["BRANHAMELLA CATARRHALIS"]}, {"conceptId": "C86526", "definition": "Any bacterial organism that can be assigned to the species Moraxella lacunata.", "preferredTerm": "Moraxella lacunata", "submissionValue": "MORAXELLA LACUNATA", "synonyms": ["MORAXELLA LIQUEFACIENS"]}, {"conceptId": "C86527", "definition": "Any bacterial organism that can be assigned to the species Moraxella lincolnii.", "preferredTerm": "Moraxella lincolnii", "submissionValue": "MORAXELLA LINCOLNII"}, {"conceptId": "C86528", "definition": "Any bacterial organism that can be assigned to the species Moraxella nonliquefaciens.", "preferredTerm": "Moraxella nonliquefaciens", "submissionValue": "MORAXELLA NONLIQUEFACIENS"}, {"conceptId": "C86529", "definition": "Any bacterial organism that can be assigned to the species Moraxella oblonga.", "preferredTerm": "Moraxella oblonga", "submissionValue": "MORAXELLA OBLONGA"}, {"conceptId": "C86530", "definition": "Any bacterial organism that can be assigned to the species Moraxella osloensis.", "preferredTerm": "Moraxella osloensis", "submissionValue": "MORAXELLA OSLOENSIS"}, {"conceptId": "C14309", "definition": "Any viral organism that can be assigned to the genus Morbillivirus.", "preferredTerm": "Morbillivirus", "submissionValue": "MORBILLIVIRUS"}, {"conceptId": "C86531", "definition": "Any bacteria that is not assigned to the species level but can be assigned to the Morganella genus level.", "preferredTerm": "Morganella", "submissionValue": "MORGANELLA"}, {"conceptId": "C86015", "definition": "Any bacterial organism that can be assigned to the species Morganella morganii.", "preferredTerm": "Morganella morganii", "submissionValue": "MORGANELLA MORGANII", "synonyms": ["PROTEUS MORGANII"]}, {"conceptId": "C120708", "definition": "Any fungal organism that is not assigned to the species level but can be assigned to the Mucor genus level.", "preferredTerm": "Mucor", "submissionValue": "MUCOR"}, {"conceptId": "C76369", "definition": "Any bacteria that is not assigned to the species level but can be assigned to the Mycobacterium genus level.", "preferredTerm": "Mycobacterium", "submissionValue": "MYCOBACTERIUM"}, {"conceptId": "C86533", "definition": "Any bacterial organism that can be assigned to the species Mycobacterium abscessus.", "preferredTerm": "Mycobacterium abscessus", "submissionValue": "MYCOBACTERIUM ABSCESSUS", "synonyms": ["MYCOBACTERIUM CHELONAE SUBSP. ABSCESSUS"]}, {"conceptId": "C85544", "definition": "Any bacterial organism that can be assigned to the species Mycobacterium africanum.", "preferredTerm": "Mycobacterium africanum", "submissionValue": "MYCOBACTERIUM AFRICANUM"}, {"conceptId": "C86535", "definition": "Any bacterial organism that can be assigned to the species Mycobacterium avium.", "preferredTerm": "Mycobacterium avium", "submissionValue": "MYCOBACTERIUM AVIUM"}, {"conceptId": "C76368", "definition": "A non-taxonomic grouping of bacteria assigned to and including at least three related subspecies from the Mycobacterium avium species.", "preferredTerm": "Mycobacterium avium complex", "submissionValue": "MYCOBACTERIUM AVIUM COMPLEX"}, {"conceptId": "C85545", "definition": "Any bacterial organism that can be assigned to the species Mycobacterium bovis.", "preferredTerm": "Mycobacterium bovis", "submissionValue": "MYCOBACTERIUM BOVIS"}, {"conceptId": "C85546", "definition": "An attenuated form of Mycobacterium bovis that is used to generate the Bacillus Calmette-Guerin vaccine.", "preferredTerm": "Mycobacterium bovis BCG", "submissionValue": "MYCOBACTERIUM BOVIS BCG"}, {"conceptId": "C85547", "definition": "Any bacterial organism that can be assigned to the species Mycobacterium canettii.", "preferredTerm": "Mycobacterium canetti", "submissionValue": "MYCOBACTERIUM CANETTII"}, {"conceptId": "C86536", "definition": "Any bacterial organism that can be assigned to the species Mycobacterium chelonae.", "preferredTerm": "Mycobacterium chelonae", "submissionValue": "MYCOBACTERIUM CHELONAE", "synonyms": ["MYCOBACTERIUM CHELONAE SUBSP. CHELONAE"]}, {"conceptId": "C86537", "definition": "Any bacterial organism that can be assigned to the species Mycobacterium flavescens.", "preferredTerm": "Mycobacterium flavescens", "submissionValue": "MYCOBACTERIUM FLAVESCENS"}, {"conceptId": "C86538", "definition": "Any bacterial organism that can be assigned to the species Mycobacterium fortuitum.", "preferredTerm": "Mycobacterium fortuitum", "submissionValue": "MYCOBACTERIUM FORTUITUM"}, {"conceptId": "C86539", "definition": "A non-taxonomic grouping of bacteria assigned to the Mycobacterium genus, which includes the related species and subspecies M. chelonei subsp. chelonei, M. chelonei subsp. abscessus, M. fortuitum, and M. peregrinum.", "preferredTerm": "Mycobacterium fortuitum Complex", "submissionValue": "MYCOBACTERIUM FORTUITUM COMPLEX"}, {"conceptId": "C86540", "definition": "Any bacterial organism that can be assigned to the species Mycobacterium gastri.", "preferredTerm": "Mycobacterium gastri", "submissionValue": "MYCOBACTERIUM GASTRI"}, {"conceptId": "C86541", "definition": "Any bacterial organism that can be assigned to the species Mycobacterium gordonae.", "preferredTerm": "Mycobacterium gordonae", "submissionValue": "MYCOBACTERIUM GORDONAE", "synonyms": ["MYCOBACTERIUM AQUAE"]}, {"conceptId": "C86542", "definition": "Any bacterial organism that can be assigned to the species Mycobacterium haemophilum.", "preferredTerm": "Mycobacterium haemophilum", "submissionValue": "MYCOBACTERIUM HAEMOPHILUM"}, {"conceptId": "C91843", "definition": "Any bacterial organism that can be assigned to the species Mycobacterium intracellulare.", "preferredTerm": "Mycobacterium intracellulare", "submissionValue": "MYCOBACTERIUM INTRACELLULARE"}, {"conceptId": "C85543", "definition": "Any bacterial organism that can be assigned to the species Mycobacterium kansasii.", "preferredTerm": "Mycobacterium kansasii", "submissionValue": "MYCOBACTERIUM KANSASII"}, {"conceptId": "C86544", "definition": "Any bacterial organism that can be assigned to the species Mycobacterium leprae.", "preferredTerm": "Mycobacterium leprae", "submissionValue": "MYCOBACTERIUM LEPRAE"}, {"conceptId": "C86545", "definition": "Any bacterial organism that can be assigned to the species Mycobacterium marinum.", "preferredTerm": "Mycobacterium marinum", "submissionValue": "MYCOBACTERIUM MARINUM", "synonyms": ["MYCOBACTERIUM BALNEI"]}, {"conceptId": "C85548", "definition": "Any bacterial organism that can be assigned to the species Mycobacterium microti.", "preferredTerm": "Mycobacterium microti", "submissionValue": "MYCOBACTERIUM MICROTI"}, {"conceptId": "C86546", "definition": "Any bacterial organism that can be assigned to the species Mycobacterium peregrinum.", "preferredTerm": "Mycobacterium peregrinum", "submissionValue": "MYCOBACTERIUM PEREGRINUM"}, {"conceptId": "C86547", "definition": "Any bacterial organism that can be assigned to the species Mycobacterium scrofulaceum.", "preferredTerm": "Mycobacterium scrofulaceum", "submissionValue": "MYCOBACTERIUM SCROFULACEUM"}, {"conceptId": "C86548", "definition": "Any bacterial organism that can be assigned to the species Mycobacterium simiae.", "preferredTerm": "Mycobacterium simiae", "submissionValue": "MYCOBACTERIUM SIMIAE", "synonyms": ["MYCOBACTERIUM HABANA"]}, {"conceptId": "C86590", "definition": "Any bacterial organism that can be assigned to the species Mycobacterium smegmatis.", "preferredTerm": "Mycobacterium smegmatis", "submissionValue": "MYCOBACTERIUM SMEGMATIS"}, {"conceptId": "C86591", "definition": "Any bacterial organism that can be assigned to the species Mycobacterium szulgai.", "preferredTerm": "Mycobacterium szulgai", "submissionValue": "MYCOBACTERIUM SZULGAI"}, {"conceptId": "C86592", "definition": "Any bacterial organism that can be assigned to the species Mycobacterium terrae.", "preferredTerm": "Mycobacterium terrae", "submissionValue": "MYCOBACTERIUM TERRAE"}, {"conceptId": "C86593", "definition": "Any bacterial organism that can be assigned to the species Mycobacterium thermoresistibile.", "preferredTerm": "Mycobacterium thermoresistibile", "submissionValue": "MYCOBACTERIUM THERMORESISTIBILE"}, {"conceptId": "C76370", "definition": "Any bacterial organism that can be assigned to the species Mycobacterium tuberculosis.", "preferredTerm": "Mycobacterium tuberculosis", "submissionValue": "MYCOBACTERIUM TUBERCULOSIS"}, {"conceptId": "C86594", "definition": "A non-taxonomic grouping of bacteria assigned to the Mycobacterium genus, which includes the related species M. tuberculosis, M. africanum, M. bovis, and M. microti.", "preferredTerm": "Mycobacterium tuberculosis Complex", "submissionValue": "MYCOBACTERIUM TUBERCULOSIS COMPLEX"}, {"conceptId": "C86595", "definition": "Any bacterial organism that can be assigned to the species Mycobacterium ulcerans.", "preferredTerm": "Mycobacterium ulcerans", "submissionValue": "MYCOBACTERIUM ULCERANS", "synonyms": ["MYCOBACTERIUM BURULI"]}, {"conceptId": "C73540", "definition": "Any bacteria that is not assigned to the species level but can be assigned to the Mycoplasma genus level.", "preferredTerm": "Mycoplasma", "submissionValue": "MYCOPLASMA"}, {"conceptId": "C86597", "definition": "Any bacterial organism that can be assigned to the species Mycoplasma hominis.", "preferredTerm": "Mycoplasma hominis", "submissionValue": "MYCOPLASMA HOMINIS"}, {"conceptId": "C86598", "definition": "Any bacterial organism that can be assigned to the species Mycoplasma orale.", "preferredTerm": "Mycoplasma orale", "submissionValue": "MYCOPLASMA ORALE"}, {"conceptId": "C86599", "definition": "Any bacterial organism that can be assigned to the species Mycoplasma pneumoniae.", "preferredTerm": "Mycoplasma pneumoniae", "submissionValue": "MYCOPLASMA PNEUMONIAE"}, {"conceptId": "C86953", "definition": "Any bacteria that is not assigned to the species level but can be assigned to the Myroides genus level.", "preferredTerm": "Myroides", "submissionValue": "MYROIDES"}, {"conceptId": "C86954", "definition": "Any bacterial organism that can be assigned to the species Myroides odoratus.", "preferredTerm": "Myroides odoratus", "submissionValue": "MYROIDES ODORATUS", "synonyms": ["FLAVOBACTERIUM ODORATUM"]}, {"conceptId": "C112358", "definition": "Any viral organism that can be assigned to the genus Nairovirus.", "preferredTerm": "Nairovirus", "submissionValue": "NAIROVIRUS"}, {"conceptId": "C76371", "definition": "Any bacteria that is not assigned to the species level but can be assigned to the Neisseria genus level.", "preferredTerm": "Neisseria", "submissionValue": "NEISSERIA"}, {"conceptId": "C86600", "definition": "Any bacterial organism that can be assigned to the species Neisseria canis.", "preferredTerm": "Neisseria canis", "submissionValue": "NEISSERIA CANIS"}, {"conceptId": "C86601", "definition": "Any bacterial organism that can be assigned to the species Neisseria cinerea.", "preferredTerm": "Neisseria cinerea", "submissionValue": "NEISSERIA CINEREA", "synonyms": ["MICROCOCCUS CINEREUS"]}, {"conceptId": "C86602", "definition": "Any bacterial organism that can be assigned to the species Neisseria flavescens.", "preferredTerm": "Neisseria flavescens", "submissionValue": "NEISSERIA FLAVESCENS"}, {"conceptId": "C86603", "definition": "Any bacterial organism that can be assigned to the species Neisseria gonorrhoeae.", "preferredTerm": "Neisseria gonorrhoeae", "submissionValue": "NEISSERIA GONORRHOEAE"}, {"conceptId": "C86604", "definition": "Any bacterial organism that can be assigned to the species Neisseria lactamica.", "preferredTerm": "Neisseria lactamica", "submissionValue": "NEISSERIA LACTAMICA"}, {"conceptId": "C86605", "definition": "Any bacterial organism that can be assigned to the species Neisseria meningitidis.", "preferredTerm": "Neisseria meningitidis", "submissionValue": "NEISSERIA MENINGITIDIS", "synonyms": ["BETA-LACTAMASE NEGATIVE NEISSERIA MENINGITIDIS"]}, {"conceptId": "C86606", "definition": "Any bacterial organism that can be assigned to the species Neisseria mucosa.", "preferredTerm": "Neisseria mucosa", "submissionValue": "NEISSERIA MUCOSA"}, {"conceptId": "C86607", "definition": "Any bacterial organism that can be assigned to the species Neisseria polysaccharea.", "preferredTerm": "Neisseria polysaccharea", "submissionValue": "NEISSERIA POLYSACCHAREA"}, {"conceptId": "C86608", "definition": "Any bacterial organism that can be assigned to the species Neisseria sicca.", "preferredTerm": "Neisseria sicca", "submissionValue": "NEISSERIA SICCA"}, {"conceptId": "C86609", "definition": "Any bacterial organism that can be assigned to the species Neisseria subflava.", "preferredTerm": "Neisseria subflava", "submissionValue": "NEISSERIA SUBFLAVA"}, {"conceptId": "C86610", "definition": "Any bacterial organism that can be assigned to the species Neisseria weaverii.", "preferredTerm": "Neisseria weaverii", "submissionValue": "NEISSERIA WEAVERII", "synonyms": ["CDC GROUP M-5"]}, {"conceptId": "C93023", "definition": "Any viral organism that can be assigned to the species Newcastle disease virus.", "preferredTerm": "Newcastle Disease Virus", "submissionValue": "NEWCASTLE DISEASE VIRUS", "synonyms": ["Avian Paramyxovirus Type 1", "NDV"]}, {"conceptId": "C112359", "definition": "Any viral organism that can be assigned to the species Nipah virus.", "preferredTerm": "Nipah Virus", "submissionValue": "NIPAH VIRUS", "synonyms": ["NiV"]}, {"conceptId": "C76372", "definition": "Any bacteria that is not assigned to the species level but can be assigned to the Nocardia genus level.", "preferredTerm": "Nocardia", "submissionValue": "NOCARDIA"}, {"conceptId": "C86611", "definition": "Any bacterial organism that can be assigned to the species Nocardia asteroides.", "preferredTerm": "Nocardia asteroides", "submissionValue": "NOCARDIA ASTEROIDES"}, {"conceptId": "C86612", "definition": "A non-taxonomic grouping of bacteria assigned to and including at least four related species from the Nocardia genus.", "preferredTerm": "Nocardia asteroides Complex", "submissionValue": "NOCARDIA ASTEROIDES COMPLEX"}, {"conceptId": "C86613", "definition": "Any bacterial organism that can be assigned to the species Nocardia brasiliensis.", "preferredTerm": "Nocardia brasiliensis", "submissionValue": "NOCARDIA BRASILIENSIS"}, {"conceptId": "C86614", "definition": "Any bacterial organism that can be assigned to the species Nocardia dassonvillei.", "preferredTerm": "Nocardia dassonvillei", "submissionValue": "NOCARDIA DASSONVILLEI"}, {"conceptId": "C86615", "definition": "Any bacterial organism that can be assigned to the species Nocardia farcinica.", "preferredTerm": "Nocardia farcinica", "submissionValue": "NOCARDIA FARCINICA"}, {"conceptId": "C86616", "definition": "Any bacterial organism that can be assigned to the species Nocardia nova.", "preferredTerm": "Nocardia nova", "submissionValue": "NOCARDIA NOVA"}, {"conceptId": "C86617", "definition": "Any bacterial organism that can be assigned to the species Nocardia otitidiscaviarum.", "preferredTerm": "Nocardia otitidiscaviarum", "submissionValue": "NOCARDIA OTITIDISCAVIARUM", "synonyms": ["NOCARDIA CAVIAE"]}, {"conceptId": "C86618", "definition": "Any rod-shaped, anaerobic bacteria that cannot convert carbohydrates into acids and alcohols and has a cell wall that contains low levels of peptidoglycan and stains pink with the Gram staining technique.", "preferredTerm": "Non-Fermentative Gram Negative Bacillus", "submissionValue": "NON-FERMENTATIVE GRAM-NEGATIVE BACILLUS", "synonyms": ["NON-FERMENTATIVE GRAM-NEGATIVE ROD"]}, {"conceptId": "C112362", "definition": "Any viral organism that can be assigned to the genus Norovirus.", "preferredTerm": "Norovirus", "submissionValue": "NOROVIRUS", "synonyms": ["NoV", "Norwalk-like virus"]}, {"conceptId": "C112363", "definition": "Any viral organism that can be assigned to the species Norwalk virus.", "preferredTerm": "Norwalk Virus", "submissionValue": "NORWALK VIRUS", "synonyms": ["NV", "Norwalk calicivirus"]}, {"conceptId": "C86619", "definition": "Any bacteria that is not assigned to the species level but can be assigned to the Ochrobactrum genus level.", "preferredTerm": "Ochrobactrum", "submissionValue": "OCHROBACTRUM"}, {"conceptId": "C86620", "definition": "Any bacterial organism that can be assigned to the species Ochrobactrum anthropi.", "preferredTerm": "Ochrobactrum anthropi", "submissionValue": "OCHROBACTRUM ANTHROPI", "synonyms": ["ACHROMOBACTER SUBSP. BIOTYPE 1"]}, {"conceptId": "C86621", "definition": "Any bacterial organism that can be assigned to the species Ochrobactrum intermedium.", "preferredTerm": "Ochrobactrum intermedium", "submissionValue": "OCHROBACTRUM INTERMEDIUM"}, {"conceptId": "C86176", "definition": "Any bacterial organism that can be assigned to the species Odoribacter splanchnicus.", "preferredTerm": "Bacteroides splanchnicus", "submissionValue": "ODORIBACTER SPLANCHNICUS", "synonyms": ["BACTEROIDES SPLANCHNICUS"]}, {"conceptId": "C86622", "definition": "Any bacteria that is not assigned to the species level but can be assigned to the Oerskovia genus level.", "preferredTerm": "Oerskovia", "submissionValue": "OERSKOVIA"}, {"conceptId": "C86623", "definition": "Any bacterial organism that can be assigned to the species Oerskovia turbata.", "preferredTerm": "Oerskovia turbata", "submissionValue": "OERSKOVIA TURBATA"}, {"conceptId": "C86624", "definition": "Any bacteria that is not assigned to the species level but can be assigned to the Oligella genus level.", "preferredTerm": "Oligella", "submissionValue": "OLIGELLA"}, {"conceptId": "C86625", "definition": "Any bacterial organism that can be assigned to the species Oligella ureolytica.", "preferredTerm": "Oligella ureolytica", "submissionValue": "OLIGELLA UREOLYTICA", "synonyms": ["CDC GROUP IVE"]}, {"conceptId": "C86626", "definition": "Any bacterial organism that can be assigned to the species Oligella urethralis.", "preferredTerm": "Oligella urethralis", "submissionValue": "OLIGELLA URETHRALIS", "synonyms": ["CDC GROUP M-4"]}, {"conceptId": "C86627", "definition": "Any bacteria that is not assigned to the species level but can be assigned to the Olsenella genus level.", "preferredTerm": "Olsenella", "submissionValue": "OLSENELLA"}, {"conceptId": "C86628", "definition": "Any bacterial organism that can be assigned to the species Olsenella uli.", "preferredTerm": "Olsenella uli", "submissionValue": "OLSENELLA ULI", "synonyms": ["LACTOBACILLUS ULI"]}, {"conceptId": "C112365", "definition": "Any viral organism that can be assigned to the genus Orbivirus.", "preferredTerm": "Orbivirus", "submissionValue": "ORBIVIRUS"}, {"conceptId": "C112366", "definition": "Any viral organism that can be assigned to the genus Orthobunyavirus.", "preferredTerm": "Orthobunyavirus", "submissionValue": "ORTHOBUNYAVIRUS", "synonyms": ["Bunyavirus"]}, {"conceptId": "C96524", "definition": "Any viral organism that can be assigned to the genus Orthopoxvirus.", "preferredTerm": "Orthopoxvirus", "submissionValue": "ORTHOPOXVIRUS"}, {"conceptId": "C86629", "definition": "Any bacteria that is not assigned to the species level but can be assigned to the Pandoraea genus level.", "preferredTerm": "Pandoraea", "submissionValue": "PANDORAEA"}, {"conceptId": "C86630", "definition": "Any bacterial organism that can be assigned to the species Pandoraea pnomenusa.", "preferredTerm": "Pandoraea pnomenusa", "submissionValue": "PANDORAEA PNOMENUSA"}, {"conceptId": "C119327", "definition": "Any bacterial organism that can be assigned to the species Pandoraea sputorum.", "preferredTerm": "Pandoraea sputorum", "submissionValue": "PANDORAEA SPUTORUM"}, {"conceptId": "C119328", "definition": "Any bacterial organism that can be assigned to the species Pannonibacter phragmitetus.", "preferredTerm": "Pannonibacter phragmitetus", "submissionValue": "PANNONIBACTER PHRAGMITETUS", "synonyms": ["Achromobacter group B", "Achromobacter group E"]}, {"conceptId": "C86631", "definition": "Any bacteria that is not assigned to the species level but can be assigned to the Pantoea genus level.", "preferredTerm": "Pantoea", "submissionValue": "PANTOEA"}, {"conceptId": "C86632", "definition": "Any bacterial organism that can be assigned to the species Pantoea agglomerans.", "preferredTerm": "Pantoea agglomerans", "submissionValue": "PANTOEA AGGLOMERANS", "synonyms": ["ENTEROBACTER AGGLOMERANS"]}, {"conceptId": "C86633", "definition": "Any bacteria that is not assigned to the species level but can be assigned to the Parabacteroides genus level.", "preferredTerm": "Parabacteroides", "submissionValue": "PARABACTEROIDES"}, {"conceptId": "C86634", "definition": "Any bacterial organism that can be assigned to the species Parabacteroides distasonis.", "preferredTerm": "Parabacteroides distasonis", "submissionValue": "PARABACTEROIDES DISTASONIS", "synonyms": ["BACTEROIDES DISTASONIS"]}, {"conceptId": "C86635", "definition": "Any bacterial organism that can be assigned to the species Parabacteroides merdae.", "preferredTerm": "Parabacteroides merdae", "submissionValue": "PARABACTEROIDES MERDAE", "synonyms": ["BACTEROIDES FRAGILIS T4-1", "BACTEROIDES MERDAE"]}, {"conceptId": "C112367", "definition": "Any viral organism that can be assigned to the genus Parapoxvirus.", "preferredTerm": "Parapoxvirus", "submissionValue": "PARAPOXVIRUS"}, {"conceptId": "C86900", "definition": "Any bacteria that is not assigned to the species level but can be assigned to the Parvimonas genus level.", "preferredTerm": "Parvimonas", "submissionValue": "PARVIMONAS"}, {"conceptId": "C86901", "definition": "Any bacterial organism that can be assigned to the species Parvimonas micra.", "preferredTerm": "Parvimonas micra", "submissionValue": "PARVIMONAS MICRA", "synonyms": ["MICROMONAS MICROS", "PEPTOSTREPTOCOCCUS MICROS"]}, {"conceptId": "C86636", "definition": "Any bacteria that is not assigned to the species level but can be assigned to the Pasteurella genus level.", "preferredTerm": "Pasteurella", "submissionValue": "PASTEURELLA"}, {"conceptId": "C86637", "definition": "Any bacterial organism that can be assigned to the species Pasteurella aerogenes.", "preferredTerm": "Pasteurella aerogenes", "submissionValue": "PASTEURELLA AEROGENES"}, {"conceptId": "C86638", "definition": "Any bacterial organism that can be assigned to the species Pasteurella bettyae.", "preferredTerm": "Pasteurella bettyae", "submissionValue": "PASTEURELLA BETTYAE", "synonyms": ["CDC GROUP HB-5"]}, {"conceptId": "C86639", "definition": "Any bacterial organism that can be assigned to the species Pasteurella canis.", "preferredTerm": "Pasteurella canis", "submissionValue": "PASTEURELLA CANIS", "synonyms": ["PASTEURELLA MULTOCIDA BIOTYPE 6"]}, {"conceptId": "C76373", "definition": "Any bacterial organism that can be assigned to the species Pasteurella multocida.", "preferredTerm": "Pasteurella multocida", "submissionValue": "PASTEURELLA MULTOCIDA", "synonyms": ["PASTEURELLA SEPTICA"]}, {"conceptId": "C86640", "definition": "Any bacterial organism that can be assigned to the species Pasteurella pneumotropica.", "preferredTerm": "Pasteurella pneumotropica", "submissionValue": "PASTEURELLA PNEUMOTROPICA"}, {"conceptId": "C86641", "definition": "Any bacteria that is not assigned to the species level but can be assigned to the Pediococcus genus level.", "preferredTerm": "Pediococcus", "submissionValue": "PEDIOCOCCUS"}, {"conceptId": "C86642", "definition": "Any bacteria that is not assigned to the species level but can be assigned to the Peptococcus genus level.", "preferredTerm": "Peptococcus", "submissionValue": "PEPTOCOCCUS"}, {"conceptId": "C86643", "definition": "Any bacterial organism that can be assigned to the species Peptococcus niger.", "preferredTerm": "Peptococcus niger", "submissionValue": "PEPTOCOCCUS NIGER", "synonyms": ["MICROCOCCUS NIGER"]}, {"conceptId": "C86902", "definition": "Any bacteria that is not assigned to the species level but can be assigned to the Peptoniphilus genus level.", "preferredTerm": "Peptoniphilus", "submissionValue": "PEPTONIPHILUS"}, {"conceptId": "C86903", "definition": "Any bacterial organism that can be assigned to the species Peptoniphilus asaccharolyticus.", "preferredTerm": "Peptoniphilus asaccharolyticus", "submissionValue": "PEPTONIPHILUS ASACCHAROLYTICUS", "synonyms": ["PEPTOCOCCUS ASACCHAROLYTICUS", "PEPTOSTREPTOCOCCUS ASACCHAROLYTICUS"]}, {"conceptId": "C114245", "definition": "Any bacterial organism that can be assigned to the species Peptoniphilus harei.", "preferredTerm": "Peptoniphilus harei", "submissionValue": "PEPTONIPHILUS HAREI", "synonyms": ["Peptostreptococcus harei", "Schleiferella harei"]}, {"conceptId": "C86904", "definition": "Any bacterial organism that can be assigned to the species Peptoniphilus indolicus.", "preferredTerm": "Peptoniphilus indolicus", "submissionValue": "PEPTONIPHILUS INDOLICUS", "synonyms": ["PEPTOSTREPTOCOCCUS INDOLICUS"]}, {"conceptId": "C86644", "definition": "Any bacteria that is not assigned to the species level but can be assigned to the Peptostreptococcus genus level.", "preferredTerm": "Peptostreptococcus", "submissionValue": "PEPTOSTREPTOCOCCUS"}, {"conceptId": "C86645", "definition": "Any bacterial organism that can be assigned to the species Peptostreptococcus anaerobius.", "preferredTerm": "Peptostreptococcus anaerobius", "submissionValue": "PEPTOSTREPTOCOCCUS ANAEROBIUS"}, {"conceptId": "C119329", "definition": "Any bacterial organism that can be assigned to the species Peptostreptococcus stomatis.", "preferredTerm": "Peptostreptococcus stomatis", "submissionValue": "PEPTOSTREPTOCOCCUS STOMATIS"}, {"conceptId": "C112397", "definition": "Any viral organism that can be assigned to the genus Phlebovirus.", "preferredTerm": "Phlebovirus", "submissionValue": "PHLEBOVIRUS"}, {"conceptId": "C86646", "definition": "Any bacteria that is not assigned to the species level but can be assigned to the Photobacterium genus level.", "preferredTerm": "Photobacterium", "submissionValue": "PHOTOBACTERIUM"}, {"conceptId": "C86647", "definition": "Any bacterial organism that can be assigned to the species Photobacterium damselae.", "preferredTerm": "Photobacterium damselae", "submissionValue": "PHOTOBACTERIUM DAMSELAE", "synonyms": ["CDC GROUP EF-5", "PHOTOBACTERIUM DAMSELAE SUBSP. DAMSELAE", "VIBRIO DAMSELA"]}, {"conceptId": "C86648", "definition": "Any bacteria that is not assigned to the species level but can be assigned to the Photorhabdus genus level.", "preferredTerm": "Photorhabdus", "submissionValue": "PHOTORHABDUS"}, {"conceptId": "C86649", "definition": "Any bacterial organism that can be assigned to the species Photorhabdus luminescens.", "preferredTerm": "Photorhabdus luminescens", "submissionValue": "PHOTORHABDUS LUMINESCENS"}, {"conceptId": "C114270", "definition": "Any fungal organism that can be assigned to the species Pichia kluyveri.", "preferredTerm": "Pichia kluyveri", "submissionValue": "PICHIA KLUYVERI", "synonyms": ["P. kluyveri"]}, {"conceptId": "C77173", "definition": "Any fungal organism that can be assigned to the species Pichia kudriavzevii.", "preferredTerm": "Candida krusei", "submissionValue": "PICHIA KUDRIAVZEVII", "synonyms": ["C. krusei", "Candida krusei", "I. orientalis", "Issatchenkia orientalis", "P. kudriavzevii"]}, {"conceptId": "C114259", "definition": "Any fungal organism that can be assigned to the species Pichia norvegensis.", "preferredTerm": "Pichia norvegensis", "submissionValue": "PICHIA NORVEGENSIS", "synonyms": ["C. mycoderma var. annulata", "Candida mycoderma var. annulata", "P. norvegensis"]}, {"conceptId": "C86650", "definition": "Any bacteria that is not assigned to the species level but can be assigned to the Planococcus genus level.", "preferredTerm": "Planococcus", "submissionValue": "PLANOCOCCUS"}, {"conceptId": "C86651", "definition": "Any bacteria that is not assigned to the species level but can be assigned to the Plesiomonas genus level.", "preferredTerm": "Plesiomonas", "submissionValue": "PLESIOMONAS"}, {"conceptId": "C86652", "definition": "Any bacterial organism that can be assigned to the species Plesiomonas shigelloides.", "preferredTerm": "Plesiomonas shigelloides", "submissionValue": "PLESIOMONAS SHIGELLOIDES", "synonyms": ["AEROMONAS SHIGELLOIDES"]}, {"conceptId": "C112398", "definition": "Any viral organism that can be assigned to the genus Pneumovirus.", "preferredTerm": "Pneumovirus", "submissionValue": "PNEUMOVIRUS"}, {"conceptId": "C14259", "definition": "Any viral organism that can be assigned to the species Poliovirus.", "preferredTerm": "Poliovirus", "submissionValue": "POLIOVIRUS", "synonyms": ["Enterovirus C", "Human enterovirus C"]}, {"conceptId": "C14260", "definition": "Any viral organism that can be assigned to the genus Polyomavirus.", "preferredTerm": "Polyomavirus", "submissionValue": "POLYOMAVIRUS"}, {"conceptId": "C86653", "definition": "Any bacteria that is not assigned to the species level but can be assigned to the Porphyromonas genus level.", "preferredTerm": "Porphyromonas", "submissionValue": "PORPHYROMONAS"}, {"conceptId": "C86654", "definition": "Any bacterial organism that can be assigned to the species Porphyromonas asaccharolytica.", "preferredTerm": "Porphyromonas asaccharolytica", "submissionValue": "PORPHYROMONAS ASACCHAROLYTICA", "synonyms": ["BACTEROIDES ASACCHAROLYTICUS"]}, {"conceptId": "C86655", "definition": "Any bacterial organism that can be assigned to the species Porphyromonas catoniae.", "preferredTerm": "Porphyromonas catoniae", "submissionValue": "PORPHYROMONAS CATONIAE"}, {"conceptId": "C86656", "definition": "Any bacterial organism that can be assigned to the species Porphyromonas endodontalis.", "preferredTerm": "Porphyromonas endodontalis", "submissionValue": "PORPHYROMONAS ENDODONTALIS", "synonyms": ["BACTEROIDES ENDODONTALIS"]}, {"conceptId": "C86657", "definition": "Any bacterial organism that can be assigned to the species Porphyromonas gingivalis.", "preferredTerm": "Porphyromonas gingivalis", "submissionValue": "PORPHYROMONAS GINGIVALIS", "synonyms": ["BACTEROIDES GINGIVALIS"]}, {"conceptId": "C86658", "definition": "Any bacterial organism that can be assigned to the species Porphyromonas levii.", "preferredTerm": "Porphyromonas levii", "submissionValue": "PORPHYROMONAS LEVII", "synonyms": ["BACTEROIDES LEVII", "BACTEROIDES MELANINOGENICUS SUBSP. LEVII"]}, {"conceptId": "C86659", "definition": "Any bacterial organism that can be assigned to the species Porphyromonas somerae.", "preferredTerm": "Porphyromonas somerae", "submissionValue": "PORPHYROMONAS SOMERAE"}, {"conceptId": "C86660", "definition": "Any bacteria that is not assigned to the species level but can be assigned to the Prevotella genus level.", "preferredTerm": "Prevotella", "submissionValue": "PREVOTELLA"}, {"conceptId": "C119330", "definition": "Any bacterial organism that can be assigned to the species Prevotella bergensis.", "preferredTerm": "Prevotella bergensis", "submissionValue": "PREVOTELLA BERGENSIS"}, {"conceptId": "C86661", "definition": "Any bacterial organism that can be assigned to the species Prevotella bivia.", "preferredTerm": "Prevotella bivia", "submissionValue": "PREVOTELLA BIVIA", "synonyms": ["BACTEROIDES BIVIA"]}, {"conceptId": "C86662", "definition": "Any bacterial organism that can be assigned to the species Prevotella brevis.", "preferredTerm": "Prevotella brevis", "submissionValue": "PREVOTELLA BREVIS", "synonyms": ["BACTEROIDES RUMINICOLA SUBSP. BREVIS", "BACTEROIDES RUMINICOLA SUBSP. BREVUS"]}, {"conceptId": "C86663", "definition": "Any bacterial organism that can be assigned to the species Prevotella buccae.", "preferredTerm": "Prevotella buccae", "submissionValue": "PREVOTELLA BUCCAE", "synonyms": ["BACTEROIDES BUCCAE"]}, {"conceptId": "C86664", "definition": "Any bacterial organism that can be assigned to the species Prevotella buccalis.", "preferredTerm": "Prevotella buccalis", "submissionValue": "PREVOTELLA BUCCALIS"}, {"conceptId": "C86665", "definition": "Any bacterial organism that can be assigned to the species Prevotella corporis.", "preferredTerm": "Prevotella corporis", "submissionValue": "PREVOTELLA CORPORIS"}, {"conceptId": "C86666", "definition": "Any bacterial organism that can be assigned to the species Prevotella dentalis.", "preferredTerm": "Prevotella dentalis", "submissionValue": "PREVOTELLA DENTALIS"}, {"conceptId": "C86667", "definition": "Any bacterial organism that can be assigned to the species Prevotella denticola.", "preferredTerm": "Prevotella denticola", "submissionValue": "PREVOTELLA DENTICOLA", "synonyms": ["BACTEROIDES DENTICOLA"]}, {"conceptId": "C86668", "definition": "Any bacterial organism that can be assigned to the species Prevotella disiens.", "preferredTerm": "Prevotella disiens", "submissionValue": "PREVOTELLA DISIENS", "synonyms": ["BACTEROIDES DISIENS"]}, {"conceptId": "C86669", "definition": "Any bacterial organism that can be assigned to the species Prevotella heparinolytica.", "preferredTerm": "Prevotella heparinolytica", "submissionValue": "PREVOTELLA HEPARINOLYTICA", "synonyms": ["BACTEROIDES HEPARINOLYTICUS"]}, {"conceptId": "C86670", "definition": "Any bacterial organism that can be assigned to the species Prevotella intermedia.", "preferredTerm": "Prevotella intermedia", "submissionValue": "PREVOTELLA INTERMEDIA", "synonyms": ["BACTEROIDES INTERMEDIA"]}, {"conceptId": "C86671", "definition": "A non-taxonomic grouping of bacteria assigned to the Prevotella genus that include the P. intermedia and P. nigrescens species.", "preferredTerm": "Prevotella intermedia/nigrescens Group", "submissionValue": "PREVOTELLA INTERMEDIA/NIGRESCENS GROUP"}, {"conceptId": "C86672", "definition": "Any bacterial organism that can be assigned to the species Prevotella loescheii.", "preferredTerm": "Prevotella loescheii", "submissionValue": "PREVOTELLA LOESCHEII"}, {"conceptId": "C86673", "definition": "Any bacterial organism that can be assigned to the species Prevotella melaninogenica.", "preferredTerm": "Prevotella melaninogenica", "submissionValue": "PREVOTELLA MELANINOGENICA", "synonyms": ["BACTEROIDES MELANINOGENICUS"]}, {"conceptId": "C86674", "definition": "Any bacterial organism that can be assigned to the species Prevotella nigrescens.", "preferredTerm": "Prevotella nigrescens", "submissionValue": "PREVOTELLA NIGRESCENS"}, {"conceptId": "C86675", "definition": "Any bacterial organism that can be assigned to the species Prevotella oralis.", "preferredTerm": "Prevotella oralis", "submissionValue": "PREVOTELLA ORALIS", "synonyms": ["BACTEROIDES ORALIS"]}, {"conceptId": "C86676", "definition": "Any bacterial organism that can be assigned to the species Prevotella oris.", "preferredTerm": "Prevotella oris", "submissionValue": "PREVOTELLA ORIS", "synonyms": ["BACTEROIDES ORIS"]}, {"conceptId": "C86677", "definition": "Any bacterial organism that can be assigned to the species Prevotella ruminicola.", "preferredTerm": "Prevotella ruminicola", "submissionValue": "PREVOTELLA RUMINICOLA", "synonyms": ["BACTEROIDES RUMINICOLA"]}, {"conceptId": "C86678", "definition": "Any bacterial organism that can be assigned to the species Prevotella tannerae.", "preferredTerm": "Prevotella tannerae", "submissionValue": "PREVOTELLA TANNERAE"}, {"conceptId": "C86679", "definition": "Any bacterial organism that can be assigned to the species Prevotella veroralis.", "preferredTerm": "Prevotella veroralis", "submissionValue": "PREVOTELLA VERORALIS"}, {"conceptId": "C86013", "definition": "Any bacteria that is not assigned to the species level but can be assigned to the Propionibacterium genus level.", "preferredTerm": "Propionibacterium", "submissionValue": "PROPIONIBACTERIUM"}, {"conceptId": "C14378", "definition": "Any bacterial organism that can be assigned to the species Propionibacterium acnes.", "preferredTerm": "Propionibacterium acnes", "submissionValue": "PROPIONIBACTERIUM ACNES", "synonyms": ["BACILLUS ACNES", "C. PARVUM", "CORYNEBACTERIUM ACNES", "CORYNEBACTERIUM PARVUM", "CPARV"]}, {"conceptId": "C86681", "definition": "Any bacterial organism that can be assigned to the species Propionibacterium avidum.", "preferredTerm": "Propionibacterium avidum", "submissionValue": "PROPIONIBACTERIUM AVIDUM"}, {"conceptId": "C86682", "definition": "Any bacterial organism that can be assigned to the species Propionibacterium granulosum.", "preferredTerm": "Propionibacterium granulosum", "submissionValue": "PROPIONIBACTERIUM GRANULOSUM", "synonyms": ["CORYNEBACTERIUM GRANULOSUM"]}, {"conceptId": "C86683", "definition": "Any bacterial organism that can be assigned to the species Propionibacterium propionicum.", "preferredTerm": "Propionibacterium propionicum", "submissionValue": "PROPIONIBACTERIUM PROPIONICUM", "synonyms": ["ACTINOMYCES PROPIONICUS"]}, {"conceptId": "C76374", "definition": "Any bacteria that is not assigned to the species level but can be assigned to the Proteus genus level.", "preferredTerm": "Proteus", "submissionValue": "PROTEUS"}, {"conceptId": "C86684", "definition": "Any bacterial organism that can be assigned to the species Proteus hauseri.", "preferredTerm": "Proteus hauseri", "submissionValue": "PROTEUS HAUSERI"}, {"conceptId": "C84582", "definition": "Any bacterial organism that can be assigned to the species Proteus inconstans.", "preferredTerm": "Proteus inconstans", "submissionValue": "PROTEUS INCONSTANS", "synonyms": ["PROVIDENCIA INCONSTANS"]}, {"conceptId": "C86019", "definition": "Any bacterial organism that can be assigned to the species Proteus mirabilis.", "preferredTerm": "Proteus mirabilis", "submissionValue": "PROTEUS MIRABILIS"}, {"conceptId": "C86687", "definition": "Any bacterial organism that can be assigned to the species Proteus myxofaciens.", "preferredTerm": "Proteus myxofaciens", "submissionValue": "PROTEUS MYXOFACIENS"}, {"conceptId": "C86688", "definition": "Any bacterial organism that can be assigned to the species Proteus penneri.", "preferredTerm": "Proteus penneri", "submissionValue": "PROTEUS PENNERI", "synonyms": ["INDOLE NEGATIVE PROTEUS VULGARIS"]}, {"conceptId": "C85250", "definition": "Any bacterial organism that can be assigned to the species Proteus vulgaris.", "preferredTerm": "Proteus vulgaris", "submissionValue": "PROTEUS VULGARIS"}, {"conceptId": "C114271", "definition": "Any algal organism that can be assigned to the species Prototheca wickerhamii.", "preferredTerm": "Prototheca wickerhamii", "submissionValue": "PROTOTHECA WICKERHAMII", "synonyms": ["P. wickerhamii"]}, {"conceptId": "C86690", "definition": "Any bacteria that is not assigned to the species level but can be assigned to the Providencia genus level.", "preferredTerm": "Providencia", "submissionValue": "PROVIDENCIA"}, {"conceptId": "C86691", "definition": "Any bacterial organism that can be assigned to the species Providencia alcalifaciens.", "preferredTerm": "Providencia alcalifaciens", "submissionValue": "PROVIDENCIA ALCALIFACIENS"}, {"conceptId": "C86692", "definition": "Any bacterial organism that can be assigned to the species Providencia heimbachae.", "preferredTerm": "Providencia heimbachae", "submissionValue": "PROVIDENCIA HEIMBACHAE"}, {"conceptId": "C86693", "definition": "Any bacterial organism that can be assigned to the species Providencia rettgeri.", "preferredTerm": "Proteus rettgeri", "submissionValue": "PROVIDENCIA RETTGERI"}, {"conceptId": "C86694", "definition": "Any bacterial organism that can be assigned to the species Providencia rustigianii.", "preferredTerm": "Providencia rustigianii", "submissionValue": "PROVIDENCIA RUSTIGIANII", "synonyms": ["PROVIDENCIA ALCALIFACIENS BIOGROUP 3"]}, {"conceptId": "C86695", "definition": "Any bacterial organism that can be assigned to the species Providencia stuartii.", "preferredTerm": "Providencia stuartii", "submissionValue": "PROVIDENCIA STUARTII"}, {"conceptId": "C112401", "definition": "Any viral organism that can be assigned to the species Pseudocowpox virus.", "preferredTerm": "Pseudocowpox Virus", "submissionValue": "PSEUDOCOWPOX VIRUS", "synonyms": ["Paravaccinia virus", "Pseudocowpoxvirus"]}, {"conceptId": "C76375", "definition": "Any bacteria that is not assigned to the species level but can be assigned to the Pseudomonas genus level.", "preferredTerm": "Pseudomonas", "submissionValue": "PSEUDOMONAS"}, {"conceptId": "C86696", "definition": "Any bacterial organism that can be assigned to the species Pseudomonas aeruginosa.", "preferredTerm": "Pseudomonas aeruginosa", "submissionValue": "PSEUDOMONAS AERUGINOSA"}, {"conceptId": "C86697", "definition": "Any bacterial organism that can be assigned to the species Pseudomonas alcaligenes.", "preferredTerm": "Pseudomonas alcaligenes", "submissionValue": "PSEUDOMONAS ALCALIGENES"}, {"conceptId": "C86699", "definition": "Any bacterial organism that can be assigned to the species Pseudomonas chlororaphis.", "preferredTerm": "Pseudomonas chlororaphis", "submissionValue": "PSEUDOMONAS CHLORORAPHIS"}, {"conceptId": "C86962", "definition": "A non-taxonomic grouping of bacteria assigned to the Pseudomonas genus that include the P. fluorescens and P. putida species.", "preferredTerm": "Pseudomonas fluorescens/putida Group", "submissionValue": "PSEUDOMONAS FLUORESCENS/PUTIDA GROUP"}, {"conceptId": "C86701", "definition": "Any bacterial organism that can be assigned to the species Pseudomonas luteola.", "preferredTerm": "Pseudomonas luteola", "submissionValue": "PSEUDOMONAS LUTEOLA", "synonyms": ["CHRYSEOMONAS LUTEOLA"]}, {"conceptId": "C86702", "definition": "Any bacterial organism that can be assigned to the species Pseudomonas mendocina.", "preferredTerm": "Pseudomonas mendocina", "submissionValue": "PSEUDOMONAS MENDOCINA", "synonyms": ["CDC GROUP VB-2"]}, {"conceptId": "C86703", "definition": "Any bacterial organism that can be assigned to the species Pseudomonas mosselii.", "preferredTerm": "Pseudomonas mosselii", "submissionValue": "PSEUDOMONAS MOSSELII"}, {"conceptId": "C76319", "definition": "Any bacterial organism that can be assigned to the species Pseudomonas oryzihabitans.", "preferredTerm": "Pseudomonas oryzihabitans", "submissionValue": "PSEUDOMONAS ORYZIHABITANS", "synonyms": ["FLAVIMONAS ORYZIHABITANS"]}, {"conceptId": "C86704", "definition": "Any bacterial organism that can be assigned to the species Pseudomonas pseudoalcaligenes.", "preferredTerm": "Pseudomonas pseudoalcaligenes", "submissionValue": "PSEUDOMONAS PSEUDOALCALIGENES", "synonyms": ["PSEUDOMONAS ALCALIGENES BIOTYPE B"]}, {"conceptId": "C86705", "definition": "Any bacterial organism that can be assigned to the species Pseudomonas putida.", "preferredTerm": "Pseudomonas putida", "submissionValue": "PSEUDOMONAS PUTIDA"}, {"conceptId": "C86706", "definition": "Any bacterial organism that can be assigned to the species Pseudomonas stutzeri.", "preferredTerm": "Pseudomonas stutzeri", "submissionValue": "PSEUDOMONAS STUTZERI", "synonyms": ["PSEUDOMONAS GROUP VB-1"]}, {"conceptId": "C86707", "definition": "Any bacteria that is not assigned to the species level but can be assigned to the Psychrobacter genus level.", "preferredTerm": "Psychrobacter", "submissionValue": "PSYCHROBACTER"}, {"conceptId": "C86708", "definition": "Any bacterial organism that can be assigned to the species Psychrobacter immobilis.", "preferredTerm": "Psychrobacter immobilis", "submissionValue": "PSYCHROBACTER IMMOBILIS"}, {"conceptId": "C86709", "definition": "Any bacterial organism that can be assigned to the species Psychrobacter phenylpyruvicus.", "preferredTerm": "Psychrobacter phenylpyruvicus", "submissionValue": "PSYCHROBACTER PHENYLPYRUVICUS", "synonyms": ["CDC GROUP M-2", "MORAXELLA PHENYLPYRUVICA"]}, {"conceptId": "C112405", "definition": "Any viral organism that can be assigned to the species Rabies virus.", "preferredTerm": "Rabies Virus", "submissionValue": "RABIES VIRUS"}, {"conceptId": "C86710", "definition": "Any bacteria that is not assigned to the species level but can be assigned to the Rahnella genus level.", "preferredTerm": "Rahnella", "submissionValue": "RAHNELLA"}, {"conceptId": "C86711", "definition": "Any bacterial organism that can be assigned to the species Rahnella aquatilis.", "preferredTerm": "Rahnella aquatilis", "submissionValue": "RAHNELLA AQUATILIS"}, {"conceptId": "C86712", "definition": "Any bacteria that is not assigned to the species level but can be assigned to the Ralstonia genus level.", "preferredTerm": "Ralstonia", "submissionValue": "RALSTONIA"}, {"conceptId": "C111302", "definition": "Any bacterial organism that can be assigned to the species Ralstonia mannitolilytica.", "preferredTerm": "Ralstonia mannitolilytica", "submissionValue": "RALSTONIA MANNITOLILYTICA"}, {"conceptId": "C86713", "definition": "Any bacterial organism that can be assigned to the species Ralstonia pickettii.", "preferredTerm": "Ralstonia pickettii", "submissionValue": "RALSTONIA PICKETTII", "synonyms": ["BURKHOLDERIA PICKETTII", "PSEUDOMONAS PICKETTII"]}, {"conceptId": "C86714", "definition": "Any bacteria that is not assigned to the species level but can be assigned to the Raoultella genus level.", "preferredTerm": "Raoultella", "submissionValue": "RAOULTELLA"}, {"conceptId": "C86715", "definition": "Any bacterial organism that can be assigned to the species Raoultella ornithinolytica.", "preferredTerm": "Raoultella ornithinolytica", "submissionValue": "RAOULTELLA ORNITHINOLYTICA", "synonyms": ["KLEBSIELLA ORNITHINOLYTICA"]}, {"conceptId": "C86716", "definition": "Any bacterial organism that can be assigned to the species Raoultella planticola.", "preferredTerm": "Raoultella planticola", "submissionValue": "RAOULTELLA PLANTICOLA"}, {"conceptId": "C86717", "definition": "Any bacterial organism that can be assigned to the species Raoultella terrigena.", "preferredTerm": "Raoultella terrigena", "submissionValue": "RAOULTELLA TERRIGENA", "synonyms": ["KLEBSIELLA TERRIGENA"]}, {"conceptId": "C14310", "definition": "Any viral organism that can be assigned to the genus Paramyxovirus.", "preferredTerm": "Paramyxovirus", "submissionValue": "RESPIROVIRUS", "synonyms": ["Paramyxovirus"]}, {"conceptId": "C112407", "definition": "Any viral organism that can be assigned to the species Rhinovirus A.", "preferredTerm": "Rhinovirus A", "submissionValue": "RHINOVIRUS A", "synonyms": ["Human Rhinovirus A"]}, {"conceptId": "C112408", "definition": "Any viral organism that can be assigned to the species Rhinovirus B.", "preferredTerm": "Rhinovirus B", "submissionValue": "RHINOVIRUS B", "synonyms": ["Human Rhinovirus B"]}, {"conceptId": "C112409", "definition": "Any viral organism that can be assigned to the species Rhinovirus C.", "preferredTerm": "Rhinovirus C", "submissionValue": "RHINOVIRUS C", "synonyms": ["Human Rhinovirus C"]}, {"conceptId": "C86718", "definition": "Any bacteria that is not assigned to the species level but can be assigned to the Rhizobium genus level.", "preferredTerm": "Rhizobium", "submissionValue": "RHIZOBIUM"}, {"conceptId": "C120541", "definition": "Any fungal organism that is not assigned to the species level but can be assigned to the Rhizomucor genus level.", "preferredTerm": "Rhizomucor", "submissionValue": "RHIZOMUCOR"}, {"conceptId": "C120709", "definition": "Any fungal organism that can be assigned to the species Rhizomucor pusillus.", "preferredTerm": "Rhizomucor pusillus", "submissionValue": "RHIZOMUCOR PUSILLUS", "synonyms": ["Mucor pusillus"]}, {"conceptId": "C76378", "definition": "Any bacteria that is not assigned to the species level but can be assigned to the Rhodococcus genus level.", "preferredTerm": "Rhodococcus", "submissionValue": "RHODOCOCCUS"}, {"conceptId": "C86719", "definition": "Any bacterial organism that can be assigned to the species Rhodococcus equi.", "preferredTerm": "Rhodococcus equi", "submissionValue": "RHODOCOCCUS EQUI", "synonyms": ["CORYNEBACTERIUM EQUI"]}, {"conceptId": "C114264", "definition": "Any fungal organism that can be assigned to the species Rhodotorula glutinis.", "preferredTerm": "Rhodotorula glutinis", "submissi