{"_links": {"parentPackage": {"href": "/mdr/ct/packages/sdtmct-2015-03-27", "title": "SDTM Controlled Terminology Package 21 Effective 2015-03-27", "type": "Terminology"}, "priorVersion": {"href": "/mdr/ct/packages/sdtmct-2014-12-19/codelists/C96782", "title": "CDISC SDTM Tumor Response Assessment Test Code Terminology", "type": "Code List"}, "rootItem": {"href": "/mdr/root/ct/sdtmct/codelists/C96782", "title": "Version-agnostic anchor resource for codelist C96782", "type": "Root Value Domain"}, "self": {"href": "/mdr/ct/packages/sdtmct-2015-03-27/codelists/C96782", "title": "CDISC SDTM Tumor Response Assessment Test Code Terminology", "type": "Code List"}}, "conceptId": "C96782", "definition": "Terminology relevant to the test codes that describe an assessment of tumor response to treatment or therapy.", "extensible": "true", "name": "Tumor Response Assessment Test Code", "preferredTerm": "CDISC SDTM Tumor Response Assessment Test Code Terminology", "submissionValue": "RSTESTCD", "synonyms": ["Tumor Response Assessment Test Code"], "terms": [{"conceptId": "C94536", "definition": "An assessment of the most clinically favorable overall response of the disease to the therapy.", "preferredTerm": "Best Overall Response", "submissionValue": "BESTRESP", "synonyms": ["Best Overall Response", "Best Response"]}, {"conceptId": "C103420", "definition": "An assessment of the equivocality of disease progression based on a newly identified lesion.", "preferredTerm": "New Lesion Progression", "submissionValue": "NEWLPROG", "synonyms": ["New Lesion Progression"]}, {"conceptId": "C96608", "definition": "A non-radiological determination of disease progression based on symptoms or other findings.", "preferredTerm": "Non-Radiological Progression", "submissionValue": "NRADPROG", "synonyms": ["Non-Radiological Progression"]}, {"conceptId": "C94535", "definition": "An assessment of the response of a non-target tumor(s) to the therapy.", "preferredTerm": "Response in Non-Target Lesion", "submissionValue": "NTRGRESP", "synonyms": ["Non-target Response"]}, {"conceptId": "C96613", "definition": "An assessment of the overall response of the disease to the therapy. (NCI)", "preferredTerm": "Overall Response", "submissionValue": "OVRLRESP", "synonyms": ["Overall Response"]}, {"conceptId": "C94534", "definition": "An assessment of the response of a target tumor(s) to the therapy.", "preferredTerm": "Response in Target Lesion", "submissionValue": "TRGRESP", "synonyms": ["Target Response"]}]}