{"_links": {"parentPackage": {"href": "/mdr/ct/packages/sdtmct-2015-03-27", "title": "SDTM Controlled Terminology Package 21 Effective 2015-03-27", "type": "Terminology"}, "priorVersion": {"href": "/mdr/ct/packages/sdtmct-2014-12-19/codelists/C96777", "title": "CDISC SDTM Medical Evaluator Terminology", "type": "Code List"}, "rootItem": {"href": "/mdr/root/ct/sdtmct/codelists/C96777", "title": "Version-agnostic anchor resource for codelist C96777", "type": "Root Value Domain"}, "self": {"href": "/mdr/ct/packages/sdtmct-2015-03-27/codelists/C96777", "title": "CDISC SDTM Medical Evaluator Terminology", "type": "Code List"}}, "conceptId": "C96777", "definition": "The individual responsible for the medical assessment.", "extensible": "true", "name": "Medical Evaluator", "preferredTerm": "CDISC SDTM Medical Evaluator Terminology", "submissionValue": "MEDEVAL", "synonyms": ["Medical Evaluator"], "terms": [{"conceptId": "C96561", "definition": "An individual that presides over and arbitrates between individuals or organizations.", "preferredTerm": "Adjudicator", "submissionValue": "ADJUDICATOR"}, {"conceptId": "C17721", "definition": "A physician who specializes in diagnosing and treating diseases and disorders of the nervous system.", "preferredTerm": "Neurologist", "submissionValue": "NEUROLOGIST"}, {"conceptId": "C96692", "definition": "A neurologist performing the assessment that is given the designation of one.", "preferredTerm": "Neurologist 1", "submissionValue": "NEUROLOGIST 1"}, {"conceptId": "C96606", "definition": "A neurologist performing the assessment that is given the designation of two.", "preferredTerm": "Neurologist 2", "submissionValue": "NEUROLOGIST 2"}, {"conceptId": "C17821", "definition": "A physician who specializes in diagnosing and treating cancer. (NCI)", "preferredTerm": "Oncologist", "submissionValue": "ONCOLOGIST"}, {"conceptId": "C96611", "definition": "An oncologist performing the assessment that is given the designation of one.", "preferredTerm": "Oncologist 1", "submissionValue": "ONCOLOGIST 1"}, {"conceptId": "C96612", "definition": "An oncologist performing the assessment that is given the designation of two.", "preferredTerm": "Oncologist 2", "submissionValue": "ONCOLOGIST 2"}, {"conceptId": "C17824", "definition": "A physician who specializes in the diagnostic and/or therapeutic uses of radiation. (NCI)", "preferredTerm": "Radiologist", "submissionValue": "RADIOLOGIST"}, {"conceptId": "C94530", "definition": "A radiologist performing the assessment that is given the designation of one.", "preferredTerm": "Radiologist 1", "submissionValue": "RADIOLOGIST 1"}, {"conceptId": "C94531", "definition": "A radiologist performing the assessment that is given the designation of two.", "preferredTerm": "Radiologist 2", "submissionValue": "RADIOLOGIST 2"}, {"conceptId": "C28747", "definition": "An individual who takes non-quantifiable data and provides quantifiable assessments for that data.", "preferredTerm": "Reader", "submissionValue": "READER"}, {"conceptId": "C94532", "definition": "A reader performing the assessment that is given the designation of one.", "preferredTerm": "Reader 1", "submissionValue": "READER 1"}, {"conceptId": "C94533", "definition": "A reader performing the assessment that is given the designation of two.", "preferredTerm": "Reader 2", "submissionValue": "READER 2"}]}