{"_links": {"parentPackage": {"href": "/mdr/ct/packages/protocolct-2017-09-29", "title": "PROTOCOL Controlled Terminology Package 31 Effective 2017-09-29", "type": "Terminology"}, "priorVersion": {"href": "/mdr/ct/packages/protocolct-2017-06-30/codelists/C132308", "title": "CDISC Protocol Entities Physical Address Attribute Terminology", "type": "Code List"}, "rootItem": {"href": "/mdr/root/ct/protocolct/codelists/C132308", "title": "Version-agnostic anchor resource for codelist C132308", "type": "Root Value Domain"}, "self": {"href": "/mdr/ct/packages/protocolct-2017-09-29/codelists/C132308", "title": "CDISC Protocol Entities Physical Address Attribute Terminology", "type": "Code List"}}, "conceptId": "C132308", "definition": "A terminology value set relevant to the attributes of the physical address entity.", "name": "Physical Address Attribute Terminology", "preferredTerm": "CDISC Protocol Entities Physical Address Attribute Terminology", "submissionValue": "Physical Address Attribute Terminology", "synonyms": ["Physical Address Attribute Terminology"], "terms": [{"conceptId": "C25160", "definition": "A relatively large and/or densely populated area of human habitation with administrative or legal status that may be specified as a component of a postal address.", "preferredTerm": "City", "submissionValue": "City"}, {"conceptId": "C25464", "definition": "A sovereign nation occupying a distinct territory and ruled by an autonomous government.", "preferredTerm": "Country", "submissionValue": "Country"}, {"conceptId": "C87189", "definition": "A distinct geographic area in the immediate vicinity of a particular place, such as a city, neighborhood or district.", "preferredTerm": "Locality", "submissionValue": "Geographic Locality"}, {"conceptId": "C16632", "definition": "Any demarcated area of the Earth; may be determined by both natural and human boundaries, such as a state or province.", "preferredTerm": "Geographic Area", "submissionValue": "Geographic Region"}, {"conceptId": "C25621", "definition": "An alphanumeric code assigned to a mail delivery area.", "preferredTerm": "Postal Code", "submissionValue": "Postal Code"}, {"conceptId": "C25632", "definition": "A sub-division of a country created by the central government for administrative purposes. Provinces are usually, but not always, less autonomous than states, and must obey the laws of the central government.", "preferredTerm": "Province", "submissionValue": "Province"}, {"conceptId": "C87194", "definition": "A sub-division of a country that forms part of a federal union. States are usually, but not always, more autonomous than provinces and may have different laws from the central government.", "preferredTerm": "State", "submissionValue": "State"}, {"conceptId": "C25690", "definition": "The street name and building number where an entity is located.", "preferredTerm": "Street Address", "submissionValue": "Street Address"}]}