{"_links": {"parentPackage": {"href": "/mdr/ct/packages/sdtmct-2017-06-30", "title": "SDTM Controlled Terminology Package 30 Effective 2017-06-30", "type": "Terminology"}, "priorVersion": {"href": "/mdr/ct/packages/sdtmct-2017-03-31/codelists/C101847", "title": "CDISC SDTM Cardiovascular Test Code Terminology", "type": "Code List"}, "rootItem": {"href": "/mdr/root/ct/sdtmct/codelists/C101847", "title": "Version-agnostic anchor resource for codelist C101847", "type": "Root Value Domain"}, "self": {"href": "/mdr/ct/packages/sdtmct-2017-06-30/codelists/C101847", "title": "CDISC SDTM Cardiovascular Test Code Terminology", "type": "Code List"}}, "conceptId": "C101847", "definition": "A terminology codelist to describe the test code for a physiological examination of the cardiovascular system.", "extensible": "true", "name": "Cardiovascular Test Code", "preferredTerm": "CDISC SDTM Cardiovascular Test Code Terminology", "submissionValue": "CVTESTCD", "synonyms": ["Cardiovascular Test Code"], "terms": [{"conceptId": "C122038", "definition": "The augmentation pressure divided by the aortic pulse pressure (aortic systolic minus aortic diastolic pressure) multiplied by 100, expressed as a percentage.", "preferredTerm": "Aortic Augmentation Index", "submissionValue": "AAUGIX", "synonyms": ["Aortic Augmentation Index"]}, {"conceptId": "C122083", "definition": "The aortic augmentation index normalized to a heart rate of 75 beats per minute.", "preferredTerm": "Aortic Augmentation Index at 75bpm", "submissionValue": "AAUGIX75", "synonyms": ["Aortic Augmentation Index at 75bpm"]}, {"conceptId": "C122084", "definition": "The difference between the second pressure peak in the aortic wave, secondary to the pressure wave reflection from the sites of peripheral arterial impedance mismatch (P2) and the first pressure peak in the aortic wave form, secondary to ventricular ejection (P1).", "preferredTerm": "Aortic Augmentation Pressure", "submissionValue": "AAUGPR", "synonyms": ["Aortic Augmentation Pressure"]}, {"conceptId": "C122085", "definition": "The first pressure peak in the aortic wave form secondary to ventricular ejection.", "preferredTerm": "Augmentation Pressure Point P1", "submissionValue": "AAUGPRP1", "synonyms": ["Aortic Augmentation Pressure Peak P1"]}, {"conceptId": "C122086", "definition": "The second pressure peak in the aortic waveform secondary to pressure wave reflection from the periphery.", "preferredTerm": "Augmentation Pressure Point P2", "submissionValue": "AAUGPRP2", "synonyms": ["Aortic Augmentation Pressure Peak P2"]}, {"conceptId": "C127535", "definition": "The peak velocity of the annular motion during late ventricular diastole (the active filling of the ventricle).", "preferredTerm": "Annular a' Velocity", "submissionValue": "ANNAVEL", "synonyms": ["Annular a' Velocity"]}, {"conceptId": "C127536", "definition": "The peak velocity of the annular motion during early ventricular diastole (the passive filling of the ventricle).", "preferredTerm": "Annular e' Velocity", "submissionValue": "ANNEVEL", "synonyms": ["Annular e' Velocity"]}, {"conceptId": "C127537", "definition": "The 2-dimensional surface enclosed within a boundary of a cardiovascular structure and measured at end ventricular diastole.", "preferredTerm": "Area at End Ventricular Diastole", "submissionValue": "AREAEVD", "synonyms": ["Area, End Ventricular Diastole"]}, {"conceptId": "C127538", "definition": "The 2-dimensional surface enclosed within a boundary of a cardiovascular structure and measured at end ventricular systole.", "preferredTerm": "Area at End Ventricular Systole", "submissionValue": "AREAEVS", "synonyms": ["Area, End Ventricular Systole"]}, {"conceptId": "C127539", "definition": "A relative measurement (ratio) of the aortic regurgitant jet width to left ventricular outflow tract (LVOT) diameter.", "preferredTerm": "Aortic Regurgitant Jet Width to Left Ventricular Outflow Tract Diameter Ratio", "submissionValue": "ARGJWLVD", "synonyms": ["Aortic Regur Jet Width LVOT Diam Rt", "Aortic Regurgitant Jet Width to Left Ventricular Outflow Tract Diameter Ratio"]}, {"conceptId": "C127540", "definition": "A measurement of the volume of retrograde blood flow across the orifice of the aortic valve expressed as a percentage of the anterograde flow volume.", "preferredTerm": "Aortic Valve Regurgitant Fraction", "submissionValue": "AVRGF", "synonyms": ["Aortic Valve Regurgitant Fraction"]}, {"conceptId": "C127541", "definition": "The measured width of the regurgitant jet of blood into the left ventricular outflow tract.", "preferredTerm": "Aortic Valve Regurgitant Jet Width", "submissionValue": "AVRGJW", "synonyms": ["Aortic Valve Regurgitant Jet Width"]}, {"conceptId": "C127542", "definition": "A measurement of the volume of retrograde blood flow across the orifice of the aortic valve.", "preferredTerm": "Aortic Valve Regurgitant Volume", "submissionValue": "AVRGVOL", "synonyms": ["Aortic Valve Regurgitant Volume"]}, {"conceptId": "C127543", "definition": "The area of the vena contracta of the aortic valve.", "preferredTerm": "Aortic Valve Vena Contracta Area", "submissionValue": "AVVCA", "synonyms": ["Aortic Valve Vena Contracta Area"]}, {"conceptId": "C127544", "definition": "The width of the vena contracta of the aortic valve.", "preferredTerm": "Aortic Valve Vena Contracta Width", "submissionValue": "AVVCW", "synonyms": ["Aortic Valve Vena Contracta Width"]}, {"conceptId": "C94866", "definition": "The volume of blood per unit time passing through a specified location, such as a point in a blood vessel or an entire organ.", "preferredTerm": "Blood Flow Rate", "submissionValue": "BLDFLRT", "synonyms": ["Blood Flow Rate"]}, {"conceptId": "C119331", "definition": "An indication as to whether there is a new acute reduction in coronary flow (TIMI grade 0-1) in the absence of dissection, thrombus, spasm, or high-grade residual stenosis at the original PCI lesion site.", "preferredTerm": "Coronary No Reflow at PCI Site Indicator", "submissionValue": "CANRFIND", "synonyms": ["Coronary Artery No Reflow Indicator"]}, {"conceptId": "C119245", "definition": "The measure of an individual's cardiac output divided by the individual's body surface area (CI= CO/BSA).", "preferredTerm": "Cardiac Index", "submissionValue": "CARDIDX", "synonyms": ["Cardiac Index"]}, {"conceptId": "C119246", "definition": "The total volume of blood pumped by the heart over a set period of time, conventionally one minute; it is calculated as heart rate times stroke volume (CO= HR x SV).", "preferredTerm": "Cardiac Output", "submissionValue": "CARDOUT", "synonyms": ["Cardiac Output"]}, {"conceptId": "C100086", "definition": "The pattern of the epicardial vessels supplying the posterolateral and posterior descending coronary arteries.", "preferredTerm": "Coronary Artery Dominance", "submissionValue": "COARTDOM", "synonyms": ["Coronary Artery Dominance"]}, {"conceptId": "C127545", "definition": "The cross sectional diameter of a cardiovascular structure measured at end ventricular diastole.", "preferredTerm": "Cross-sectional Diameter at End Ventricular Diastole", "submissionValue": "CSDIAEVD", "synonyms": ["Cross-sec Diameter, EVD", "Cross-sectional Diameter, End Ventricular Diastole"]}, {"conceptId": "C127546", "definition": "The cross sectional diameter of a cardiovascular structure measured at end ventricular systole.", "preferredTerm": "Cross-sectional Diameter at End Ventricular Systole", "submissionValue": "CSDIAEVS", "synonyms": ["Cross-sec Diameter, EVS", "Cross-sectional Diameter, End Ventricular Systole"]}, {"conceptId": "C127547", "definition": "The cross sectional diameter of a cardiovascular structure measured at mid ventricular systole.", "preferredTerm": "Cross-sectional Diameter at Mid Ventricular Systole", "submissionValue": "CSDIAMVS", "synonyms": ["Cross-sec Diameter, MVS", "Cross-sectional Diameter, Mid Ventricular Systole"]}, {"conceptId": "C127548", "definition": "An indication as to whether there is doming of a cardiac valve cusp.", "preferredTerm": "Cusp Doming Indicator", "submissionValue": "CSPDIND", "synonyms": ["Cusp Doming Indicator"]}, {"conceptId": "C127549", "definition": "The assessment of the severity of doming of a cardiac valve cusp.", "preferredTerm": "Cusp Doming Severity", "submissionValue": "CSPDSEV", "synonyms": ["Cusp Doming Severity"]}, {"conceptId": "C127550", "definition": "An indication as to whether there is a flailing cardiac valve cusp.", "preferredTerm": "Cusp Flail Indicator", "submissionValue": "CSPFIND", "synonyms": ["Cusp Flail Indicator"]}, {"conceptId": "C127551", "definition": "The assessment of the severity of a flailing cardiac valve cusp.", "preferredTerm": "Cusp Flail Severity", "submissionValue": "CSPFSEV", "synonyms": ["Cusp Flail Severity"]}, {"conceptId": "C127552", "definition": "The time point during the cardiac cycle when the flail of one or more cardiac valve cusps occurs.", "preferredTerm": "Cusp Flail Timing", "submissionValue": "CSPFT", "synonyms": ["Cusp Flail Timing"]}, {"conceptId": "C127553", "definition": "An indication as to whether there is a prolapsing cardiac valve cusp.", "preferredTerm": "Cusp Prolapse Indicator", "submissionValue": "CSPPIND", "synonyms": ["Cusp Prolapse Indicator"]}, {"conceptId": "C127554", "definition": "The assessment of the severity of a prolapsing cardiac valve cusp.", "preferredTerm": "Cusp Prolapse Severity", "submissionValue": "CSPPSEV", "synonyms": ["Cusp Prolapse Severity"]}, {"conceptId": "C127555", "definition": "The time point during the cardiac cycle when the prolapse of one or more cardiac valve cusps occurs.", "preferredTerm": "Cusp Prolapse Timing", "submissionValue": "CSPPT", "synonyms": ["Cusp Prolapse Timing"]}, {"conceptId": "C127556", "definition": "An indication as to whether there is restricted motion of a cardiac valve cusp.", "preferredTerm": "Cusp Restricted Motion Indicator", "submissionValue": "CSPRMIND", "synonyms": ["Cusp Restricted Motion Indicator"]}, {"conceptId": "C127557", "definition": "The assessment of the severity of restricted motion of a cardiac valve cusp.", "preferredTerm": "Cusp Restricted Motion Severity", "submissionValue": "CSPRMSEV", "synonyms": ["Cusp Restricted Motion Severity"]}, {"conceptId": "C127558", "definition": "An indication as to whether there is tethering of a cardiac valve cusp.", "preferredTerm": "Cusp Tethering Indicator", "submissionValue": "CSPTEIND", "synonyms": ["Cusp Tethering Indicator"]}, {"conceptId": "C127559", "definition": "The assessment of the severity of tethering of a cardiac valve cusp.", "preferredTerm": "Cusp Tethering Severity", "submissionValue": "CSPTESEV", "synonyms": ["Cusp Tethering Severity"]}, {"conceptId": "C127560", "definition": "An indication as to whether there is a thickened cardiac valve cusp.", "preferredTerm": "Cusp Thickening Indicator", "submissionValue": "CSPTIND", "synonyms": ["Cusp Thickening Indicator"]}, {"conceptId": "C127561", "definition": "The assessment of the severity of a thickening cardiac cusp.", "preferredTerm": "Cusp Thickening Severity", "submissionValue": "CSPTSEV", "synonyms": ["Cusp Thickening Severity"]}, {"conceptId": "C127562", "definition": "An indication as to whether there is prolapsing of a cardiac valve chordae tendinae.", "preferredTerm": "Chordae Tendineae Prolapse Indicator", "submissionValue": "CTPIND", "synonyms": ["Chordae Tendineae Prolapse Indicator"]}, {"conceptId": "C102244", "definition": "The qualitative measurement of the severity of cardiac valvular regurgitation.", "preferredTerm": "Cardiac Valvular Regurgitation Severity", "submissionValue": "CVLREGTS", "synonyms": ["Cardiac Valvular Regurgitation Severity"]}, {"conceptId": "C102245", "definition": "The qualitative measurement of the severity of cardiac valvular stenosis.", "preferredTerm": "Cardiac Valvular Stenosis Severity", "submissionValue": "CVLSTNS", "synonyms": ["Cardiac Valvular Stenosis Severity"]}, {"conceptId": "C127563", "definition": "The trajectory of the retrograde blood flow from a cardiac valve.", "preferredTerm": "Cardiac Valve Regurgitant Jet Direction", "submissionValue": "CVRGJDR", "synonyms": ["Cardiac Valve Regur Jet Direction", "Cardiac Valve Regurgitation Jet Direction"]}, {"conceptId": "C127564", "definition": "The assessment of the movement of the cardiac muscle, either as a whole or at one or more specific anatomical locations.", "preferredTerm": "Cardiac Wall Motion Type", "submissionValue": "CWMTYP", "synonyms": ["Cardiac Wall Motion Type"]}, {"conceptId": "C25333", "definition": "The extent downward or inward; the perpendicular measurement from the surface downward to determine deepness. (NCI)", "preferredTerm": "Depth", "submissionValue": "DEPTH", "synonyms": ["Depth"]}, {"conceptId": "C127565", "definition": "A measurement of the effective regurgitant orifice area of the valve.", "preferredTerm": "Effective Regurgitant Orifice Area", "submissionValue": "EFFRGOA", "synonyms": ["Effective Regurgitant Orifice Area"]}, {"conceptId": "C122088", "definition": "The magnitude of the ejection wave that occurs when blood is ejected into the aorta by the left ventricle.", "preferredTerm": "Ejection Wave Amplitude", "submissionValue": "EJWAMP", "synonyms": ["Ejection Wave Amplitude"]}, {"conceptId": "C135372", "definition": "The volume of blood remaining in a heart chamber at end ventricular diastole.", "preferredTerm": "Heart Chamber Volume at End Ventricular Diastole", "submissionValue": "HCVOLEVD", "synonyms": ["Heart Chamber Volume, EVD", "Heart Chamber Volume, End Ventricular Diastole"]}, {"conceptId": "C135373", "definition": "The volume of blood remaining in a heart chamber at end ventricular systole.", "preferredTerm": "Heart Chamber Volume at End Ventricular Systole", "submissionValue": "HCVOLEVS", "synonyms": ["Heart Chamber Volume, EVS", "Heart Chamber Volume, End Ventricular Systole"]}, {"conceptId": "C116148", "definition": "An indication as to whether there is re-narrowing of a stent implanted at a lesion site to treat a prior stenosis, to a diameter stenosis of greater than 50% within the stent.", "preferredTerm": "In-Stent Restenosis Indicator", "submissionValue": "INRSTIND", "synonyms": ["In-Stent Restenosis Indicator"]}, {"conceptId": "C41255", "definition": "An act or process of elucidation; explication, or explanation of the meaning of the event or thing via the assignment of objects from the domain to the constants of a formal language, truth-values to the proposition symbols, truth-functions to the connectives, other functions to the function symbols, and extensions to the predicates, if any. The assignments are result of human logic application and are not native to the symbols of the formal language.", "preferredTerm": "Interpretation", "submissionValue": "INTP", "synonyms": ["Interpretation"]}, {"conceptId": "C80494", "definition": "The percentage of myocardial tissue which exhibits characteristics of inadequate blood flow (ischemia).", "preferredTerm": "Ischemic Myocardium Percentage", "submissionValue": "ISHMYOP", "synonyms": ["Ischemic Myocardium Percentage"]}, {"conceptId": "C130055", "definition": "An indication as to whether inferior vena cava collapse occurred with sniff.", "preferredTerm": "Inferior Vena Cava Collapse Due to Sniff Test Indicator", "submissionValue": "IVCCSIND", "synonyms": ["Inferior Vena Cava Collapse Indicator", "Inferior Vena Cava Collapse Sniff Ind"]}, {"conceptId": "C127566", "definition": "The largest cross sectional diameter of a vascular structure measured at end ventricular diastole.", "preferredTerm": "Largest Cross-sectional Diameter at End Ventricular Diastole", "submissionValue": "LCDIAEVD", "synonyms": ["Largest Cross-sec Diameter, EVD", "Largest Cross-sectional Diameter, End Ventricular Diastole"]}, {"conceptId": "C25334", "definition": "The linear extent in space from one end of something to the other end, or the extent of something from beginning to end. (NCI)", "preferredTerm": "Length", "submissionValue": "LENGTH", "synonyms": ["Length"]}, {"conceptId": "C127567", "definition": "The assessment of the largest cross-sectional thickness of a tissue.", "preferredTerm": "Largest Cross-sectional Thickness", "submissionValue": "LGTHCK", "synonyms": ["Largest Cross-sec Thickness", "Largest Cross-sectional Thickness"]}, {"conceptId": "C116146", "definition": "The difference between the mean minimum lumen diameter (MLD) assessed immediately after an index procedure and the MLD assessed at follow-up angiography.", "preferredTerm": "Late Lumen Loss Measurement", "submissionValue": "LLMLOSS", "synonyms": ["Late Lumen Loss"]}, {"conceptId": "C116147", "definition": "An indication as to whether there is re-narrowing of a lesion site following treatment of a prior stenosis, to a diameter stenosis of greater than 50% at the previously treated lesion site.", "preferredTerm": "Lesion Restenosis Indicator", "submissionValue": "LRSTIND", "synonyms": ["Lesion Restenosis Indicator"]}, {"conceptId": "C99524", "definition": "The percent or fraction of the left ventricular end diastolic volume ejected during systole that can be measured by visual estimation or calculation.", "preferredTerm": "Left Ventricular Ejection Fraction", "submissionValue": "LVEF", "synonyms": ["Left Ventricular Ejection Fraction"]}, {"conceptId": "C135374", "definition": "A calculated estimation of the percent or fraction of the volume of blood ejected from the left ventricle during left ventricular systole, calculated as the left ventricular stroke volume divided by the left ventricular end diastolic volume.", "preferredTerm": "Calculated Left Ventricular Ejection Fraction", "submissionValue": "LVEF_C", "synonyms": ["Left Ventricular Ejection Fraction, Cal", "Left Ventricular Ejection Fraction, Calculated"]}, {"conceptId": "C135375", "definition": "A visual estimation of the percent or fraction of the volume of blood ejected from the left ventricle during left ventricular systole.", "preferredTerm": "Estimated Left Ventricular Ejection Fraction", "submissionValue": "LVEF_E", "synonyms": ["Left Ventricular Ejection Fraction, Est", "Left Ventricular Ejection Fraction, Estimated"]}, {"conceptId": "C38020", "definition": "The reduction in the length of the end-diastolic diameter dimension that occurs between end-systole and end-diastole, expressed as a fraction of the end-diastolic dimension. Calculation of the left ventricular fractional shortening is per the following formula: [(end-diastolic dimension minus end-systolic dimension) divided by end-diastolic dimension] multiplied by 100.", "preferredTerm": "Left Ventricular Fractional Shortening", "submissionValue": "LVFS", "synonyms": ["Left Ventricular Fractional Shortening"]}, {"conceptId": "C127568", "definition": "A measurement of the maximum velocity of blood flow measured in the left ventricular outflow tract during left ventricular systole.", "preferredTerm": "Left Ventricular Outflow Tract Peak Velocity", "submissionValue": "LVOTPVEL", "synonyms": ["LVOT Peak Velocity", "Left Ventricular Outflow Tract Peak Velocity"]}, {"conceptId": "C127569", "definition": "The integral of all of the instantaneous flow velocities within the left ventricular outflow tract during left ventricular systole.", "preferredTerm": "Left Ventricular Outflow Tract Velocity Time Integral", "submissionValue": "LVOTVTI", "synonyms": ["LVOT Velocity Time Integral", "Left Ventricular Outflow Tract Velocity Time Integral"]}, {"conceptId": "C130056", "definition": "The estimated average of atrial pressure.", "preferredTerm": "Estimated Mean Atrial Pressure", "submissionValue": "MARTPE", "synonyms": ["Mean Atrial Pressure, Estimated"]}, {"conceptId": "C43246", "definition": "The amount of matter in an object.", "preferredTerm": "Mass", "submissionValue": "MASS", "synonyms": ["Mass"]}, {"conceptId": "C127570", "definition": "A measurement of the mean velocity of blood across an area or tissue.", "preferredTerm": "Mean Blood Flow Velocity", "submissionValue": "MBFVEL", "synonyms": ["Mean Blood Flow Velocity"]}, {"conceptId": "C135376", "definition": "The estimated average blood pressure. (NCI)", "preferredTerm": "Estimated Mean Blood Pressure", "submissionValue": "MEANBP_E", "synonyms": ["Mean Blood Pressure, Estimated"]}, {"conceptId": "C116143", "definition": "The mean of the inside diameters of the normal blood vessel segments.", "preferredTerm": "Mean Vessel Diameter", "submissionValue": "MEANVDIA", "synonyms": ["Mean Vessel Diameter"]}, {"conceptId": "C116144", "definition": "The minimum diameter of the inside of a blood vessel (lumen) derived quantitatively in a single view.", "preferredTerm": "Minimum Vessel Lumen Diameter", "submissionValue": "MINLDIAM", "synonyms": ["Minimum Vessel Lumen Diameter"]}, {"conceptId": "C127571", "definition": "The ratio of the peak early ventricular diastolic (E) transmitral velocity to the peak late ventricular diastolic (A) transmitral velocity.", "preferredTerm": "Mitral E/A Ratio", "submissionValue": "MITRALEA", "synonyms": ["Mitral E/A Ratio"]}, {"conceptId": "C127572", "definition": "The ratio of the peak early ventricular diastolic (E) transmitral velocity to the peak early mitral annular motion velocity (e').", "preferredTerm": "Mitral E/e' Ratio", "submissionValue": "MITRALEE", "synonyms": ["Mitral E/e' Ratio"]}, {"conceptId": "C135377", "definition": "The cross sectional diameter of a tissue, organ, or structure measured along its major axis. (NCI)", "preferredTerm": "Major Axis Cross-sectional Diameter", "submissionValue": "MJDIA", "synonyms": ["Major Axis Cross-sec. Diameter", "Major Axis Cross-sectional Diameter"]}, {"conceptId": "C127573", "definition": "The cross sectional diameter of a cardiovascular structure measured along the major axis at end ventricular diastole.", "preferredTerm": "Major Axis Cross-sectional Diameter at End Ventricular Diastole", "submissionValue": "MJDIAEVD", "synonyms": ["Major Axis Cross-sec Diameter, EVD", "Major Axis Cross-sectional Diameter, End Ventricular Diastole"]}, {"conceptId": "C127574", "definition": "The cross sectional diameter of a cardiovascular structure measured along the major axis at end ventricular systole.", "preferredTerm": "Major Axis Cross-sectional Diameter at End Ventricular Systole", "submissionValue": "MJDIAEVS", "synonyms": ["Major Axis Cross-sec Diameter, EVS", "Major Axis Cross-sectional Diameter, End Ventricular Systole"]}, {"conceptId": "C135378", "definition": "The cross sectional diameter of a tissue, organ, or structure measured along its minor axis. (NCI)", "preferredTerm": "Minor Axis Cross-sectional Diameter", "submissionValue": "MNDIA", "synonyms": ["Minor Axis Cross-sec. Diameter", "Minor Axis Cross-sectional Diameter"]}, {"conceptId": "C127575", "definition": "The cross sectional diameter of a cardiovascular structure measured along the minor axis at a pre-specified anatomical point at end ventricular diastole.", "preferredTerm": "Minor Axis Cross-sectional Diameter at End Ventricular Diastole", "submissionValue": "MNDIAEVD", "synonyms": ["Minor Axis Cross-sec Diameter, EVD", "Minor Axis Cross-sectional Diameter, End Ventricular Diastole"]}, {"conceptId": "C127576", "definition": "The cross sectional diameter of a cardiovascular structure measured along the minor axis at a pre-specified anatomical point at end ventricular systole.", "preferredTerm": "Minor Axis Cross-sectional Diameter at End Ventricular Systole", "submissionValue": "MNDIAEVS", "synonyms": ["Minor Axis Cross-sec Diameter, EVS", "Minor Axis Cross-sectional Diameter, End Ventricular Systole"]}, {"conceptId": "C127577", "definition": "A relative measurement (ratio) of the mitral regurgitant jet area to left atrial area.", "preferredTerm": "Mitral Regurgitant Jet Area to Left Atrial Area Ratio", "submissionValue": "MRGJALA", "synonyms": ["Mitral Regur Jet Area L Atrial Area Rt", "Mitral Regurgitant Jet Area to Left Atrial Area Ratio"]}, {"conceptId": "C127578", "definition": "A measurement of the volume of retrograde blood flow across the orifice of the mitral valve expressed as a percentage of the anterograde flow volume.", "preferredTerm": "Mitral Valve Regurgitant Fraction", "submissionValue": "MVRGF", "synonyms": ["Mitral Valve Regurgitant Fraction"]}, {"conceptId": "C127579", "definition": "The measured area of the regurgitant jet of blood into the left atrium.", "preferredTerm": "Mitral Valve Regurgitant Jet Area", "submissionValue": "MVRGJA", "synonyms": ["Mitral Valve Regurgitant Jet Area"]}, {"conceptId": "C127580", "definition": "A measurement of the volume of retrograde blood flow across the orifice of the mitral valve.", "preferredTerm": "Mitral Valve Regurgitant Volume", "submissionValue": "MVRGVOL", "synonyms": ["Mitral Valve Regurgitant Volume"]}, {"conceptId": "C127581", "definition": "The area of the vena contracta of the mitral valve.", "preferredTerm": "Mitral Valve Vena Contracta Area", "submissionValue": "MVVCA", "synonyms": ["Mitral Valve Vena Contracta Area"]}, {"conceptId": "C127582", "definition": "The width of the vena contracta of the mitral valve.", "preferredTerm": "Mitral Valve Vena Contracta Width", "submissionValue": "MVVCW", "synonyms": ["Mitral Valve Vena Contracta Width"]}, {"conceptId": "C99996", "definition": "Number of major epicardial vessels with greater than or equal to 70% reduction in diameter or greater than or equal to 50% reduction in cross-sectional area.", "preferredTerm": "Number of Diseased Coronary Artery Vessels", "submissionValue": "NUMDCAV", "synonyms": ["Number of Diseased Coronary Vessels"]}, {"conceptId": "C135379", "definition": "An indication as to whether pulmonary arterial hypertension is present.", "preferredTerm": "Pulmonary Arterial Hypertension Indicator", "submissionValue": "PAHTNIND", "synonyms": ["Pulmonary Arterial Hypertension Ind", "Pulmonary Arterial Hypertension Indicator"]}, {"conceptId": "C127583", "definition": "A measurement of the maximum velocity of blood across an area or tissue.", "preferredTerm": "Peak Blood Flow Velocity", "submissionValue": "PBFVEL", "synonyms": ["Peak Blood Flow Velocity"]}, {"conceptId": "C116145", "definition": "The value calculated as 100 x (1 - MLD/RVD), using the mean quantitative values for minimum lumen diameter (MLD) and reference vessel diameter (RVD).", "preferredTerm": "Percent Diameter Stenosis Measurement", "submissionValue": "PCTDIAST", "synonyms": ["Percent Diameter Stenosis"]}, {"conceptId": "C127584", "definition": "The peak velocity of blood flow across a cardiac valve during late ventricular diastole (the active filling of the ventricle).", "preferredTerm": "Peak A Velocity", "submissionValue": "PKAVEL", "synonyms": ["Peak A Velocity"]}, {"conceptId": "C127585", "definition": "The peak velocity of blood flow across a cardiac valve during early ventricular diastole (the passive filling of the ventricle).", "preferredTerm": "Peak E Velocity", "submissionValue": "PKEVEL", "synonyms": ["Peak E Velocity"]}, {"conceptId": "C127586", "definition": "A relative measurement (ratio) of the pulmonic regurgitant jet width to right ventricular outflow tract (RVOT) diameter.", "preferredTerm": "Pulmonic Regurgitant Jet Width to Right Ventricular Outflow Tract Diameter Ratio", "submissionValue": "PRGJWRVD", "synonyms": ["Pulmonic Regur Jet Width RVOT Diam Rt", "Pulmonic Regurgitant Jet Width to Right Ventricular Outflow Tract Diameter Ratio"]}, {"conceptId": "C127587", "definition": "The determination of whether blood flow in the pulmonary veins is greater during ventricular systole or diastole.", "preferredTerm": "Pulmonary Vein Dominance", "submissionValue": "PVEINDOM", "synonyms": ["Pulmonary Vein Dominance"]}, {"conceptId": "C119247", "definition": "The resistance to blood flow through the pulmonary vasculature.", "preferredTerm": "Pulmonary Vascular Resistance", "submissionValue": "PVR", "synonyms": ["Pulmonary Vascular Resistance"]}, {"conceptId": "C127588", "definition": "A measurement of the volume of retrograde blood flow across the orifice of the pulmonic valve expressed as a percentage of the anterograde flow volume.", "preferredTerm": "Pulmonary Valve Regurgitant Fraction", "submissionValue": "PVRGF", "synonyms": ["Pulmonary Valve Regurgitant Fraction"]}, {"conceptId": "C127589", "definition": "The measured width of the regurgitant jet of blood into the right ventricular outflow tract.", "preferredTerm": "Pulmonic Valve Regurgitant Jet Width", "submissionValue": "PVRGJW", "synonyms": ["Pulmonic Valve Regurgitant Jet Width"]}, {"conceptId": "C127590", "definition": "A measurement of the volume of retrograde blood flow across the orifice of the pulmonic valve.", "preferredTerm": "Pulmonary Valve Regurgitant Volume", "submissionValue": "PVRGVOL", "synonyms": ["Pulmonary Valve Regurgitant Volume"]}, {"conceptId": "C127591", "definition": "The area of the vena contracta of the pulmonic valve.", "preferredTerm": "Pulmonary Valve Vena Contracta Area", "submissionValue": "PVVCA", "synonyms": ["Pulmonary Valve Vena Contracta Area"]}, {"conceptId": "C127592", "definition": "The width of the vena contracta of the pulmonic valve.", "preferredTerm": "Pulmonary Valve Vena Contracta Width", "submissionValue": "PVVCW", "synonyms": ["Pulmonary Valve Vena Contracta Width"]}, {"conceptId": "C122087", "definition": "The distance traveled by the peak of the ventricular ejection pressure wave per unit of time.", "preferredTerm": "Pulse Wave Velocity", "submissionValue": "PWV", "synonyms": ["Pulse Wave Velocity"]}, {"conceptId": "C122089", "definition": "The reflected-to-forward pressure wave amplitude ratio. (Hashimoto J et al, J Hypertens. 2008 May;26(5):1017-24)", "preferredTerm": "Reflection Magnitude", "submissionValue": "RFLMAG", "synonyms": ["Reflection Magnitude"]}, {"conceptId": "C122090", "definition": "The summation of the numerous waves being reflected by sites of impedance mismatch where central elastic arteries join more muscular arteries.", "preferredTerm": "Reflection Wave Amplitude", "submissionValue": "RFLWAMP", "synonyms": ["Reflection Wave Amplitude"]}, {"conceptId": "C135380", "definition": "A calculated estimation of the percent or fraction of the volume of blood ejected from the right ventricle during right ventricular systole, calculated as the right ventricular stroke volume divided by the right ventricular end diastolic volume.", "preferredTerm": "Calculated Right Ventricular Ejection Fraction", "submissionValue": "RVEF_C", "synonyms": ["Right Ventricular Ejection Fraction, Cal", "Right Ventricular Ejection Fraction, Calculated"]}, {"conceptId": "C135381", "definition": "null", "preferredTerm": "Estimated Right Ventricular Ejection Fraction", "submissionValue": "RVEF_E", "synonyms": ["Right Ventricular Ejection Fraction, Est", "Right Ventricular Ejection Fraction, Estimated"]}, {"conceptId": "C127593", "definition": "An indication as to whether there is systolic anterior motion of a cardiac valve and its associated structures.", "preferredTerm": "Systolic Anterior Motion Indicator", "submissionValue": "SAMIND", "synonyms": ["SAM Indicator", "Systolic Anterior Motion Indicator"]}, {"conceptId": "C127594", "definition": "The assessment of the severity of the systolic anterior motion of a cardiac valve and its associated structures.", "preferredTerm": "Systolic Anterior Motion Severity", "submissionValue": "SAMSEV", "synonyms": ["SAM Severity", "Systolic Anterior Motion Severity"]}, {"conceptId": "C94989", "definition": "The difference in the volumes of blood between the points of maximum dilation and maximum contraction. This is the end diastolic volume minus the end systolic volume.", "preferredTerm": "Stroke Volume", "submissionValue": "STROKVOL", "synonyms": ["Stroke Volume"]}, {"conceptId": "C119248", "definition": "The resistance to blood flow through the systemic vasculature.", "preferredTerm": "Systemic Vascular Resistance", "submissionValue": "SVR", "synonyms": ["Systemic Vascular Resistance", "Total Peripheral Resistance"]}, {"conceptId": "C127595", "definition": "The cross-sectional thickness of a cardiovascular structure measured at end ventricular diastole.", "preferredTerm": "Cross-sectional Thickness at End Ventricular Diastole", "submissionValue": "THCKEVD", "synonyms": ["Cross-sec Thickness, EVD", "Cross-sectional Thickness, End Ventricular Diastole"]}, {"conceptId": "C127596", "definition": "The cross-sectional thickness of a cardiovascular structure measured at end ventricular systole.", "preferredTerm": "Cross-sectional Thickness at End Ventricular Systole", "submissionValue": "THCKEVS", "synonyms": ["Cross-sec Thickness, EVS", "Cross-sectional Thickness, End Ventricular Systole"]}, {"conceptId": "C127597", "definition": "A relative measurement (ratio) of the tricuspid regurgitant jet area to the right atrial area.", "preferredTerm": "Tricuspid Regurgitant Jet Area to Right Atrial Area Ratio", "submissionValue": "TRGJARA", "synonyms": ["Tricus Regur Jet Area R Atrial Area Rt", "Tricuspid Regurgitant Jet Area to Right Atrial Area Ratio"]}, {"conceptId": "C127598", "definition": "A measurement of the volume of retrograde blood flow across the orifice of the tricuspid valve expressed as a percentage of the anterograde flow volume.", "preferredTerm": "Tricuspid Valve Regurgitant Fraction", "submissionValue": "TVRGF", "synonyms": ["Tricuspid Valve Regurgitant Fraction"]}, {"conceptId": "C127599", "definition": "The measured area of the regurgitant jet of blood into the right atrium.", "preferredTerm": "Tricuspid Valve Regurgitant Jet Area", "submissionValue": "TVRGJA", "synonyms": ["Tricuspid Valve Regurgitant Jet Area"]}, {"conceptId": "C127600", "definition": "A measurement of the volume of retrograde blood flow across the orifice of the tricuspid valve.", "preferredTerm": "Tricuspid Valve Regurgitant Volume", "submissionValue": "TVRGVOL", "synonyms": ["Tricuspid Valve Regurgitant Volume"]}, {"conceptId": "C127601", "definition": "The area of the vena contracta of the tricuspid valve.", "preferredTerm": "Tricuspid Valve Vena Contracta Area", "submissionValue": "TVVCA", "synonyms": ["Tricuspid Valve Vena Contracta Area"]}, {"conceptId": "C127602", "definition": "The width of the vena contracta of the tricuspid valve.", "preferredTerm": "Tricuspid Valve Vena Contracta Width", "submissionValue": "TVVCW", "synonyms": ["Tricuspid Valve Vena Contracta Width"]}, {"conceptId": "C127603", "definition": "The integral of all of the forward flow velocities during the time of blood flow across or within a specified area.", "preferredTerm": "Blood Flow Velocity Time Integral", "submissionValue": "VELTI", "synonyms": ["Velocity Time Integral, Blood Flow"]}, {"conceptId": "C25208", "definition": "The vertical force exerted by a mass as a result of gravity. (NCI)", "preferredTerm": "Weight", "submissionValue": "WEIGHT", "synonyms": ["Weight"]}, {"conceptId": "C25345", "definition": "The extent or measurement of something from side to side. (NCI)", "preferredTerm": "Width", "submissionValue": "WIDTH", "synonyms": ["Width"]}]}