{"_links": {"parentPackage": {"href": "/mdr/ct/packages/sdtmct-2017-06-30", "title": "SDTM Controlled Terminology Package 30 Effective 2017-06-30", "type": "Terminology"}, "priorVersion": {"href": "/mdr/ct/packages/sdtmct-2017-03-31/codelists/C101858", "title": "CDISC SDTM Procedure Terminology", "type": "Code List"}, "rootItem": {"href": "/mdr/root/ct/sdtmct/codelists/C101858", "title": "Version-agnostic anchor resource for codelist C101858", "type": "Root Value Domain"}, "self": {"href": "/mdr/ct/packages/sdtmct-2017-06-30/codelists/C101858", "title": "CDISC SDTM Procedure Terminology", "type": "Code List"}}, "conceptId": "C101858", "definition": "A terminology codelist to describe any activity considered to be a therapeutic or diagnostic procedure.", "extensible": "true", "name": "Procedure", "preferredTerm": "CDISC SDTM Procedure Terminology", "submissionValue": "PROCEDUR", "synonyms": ["Procedure"], "terms": [{"conceptId": "C16035", "definition": "A process by which a dose of radiation is automatically shaped to closely conform to the entire volume of the tumor, so that surrounding normal tissue is spared and treatment toxicity is decreased. (NCI)", "preferredTerm": "3-Dimensional Conformal Radiation Therapy", "submissionValue": "3D CONFORMAL RADIATION THERAPY", "synonyms": ["3D CRT"]}, {"conceptId": "C20985", "definition": "Removal, separation, detachment, extirpation or eradication of a body part, pathway or function by surgery, chemical destruction, morbid process, or noxious substance. (NCI)", "preferredTerm": "Ablation Therapy", "submissionValue": "ABLATION"}, {"conceptId": "C99907", "definition": "An invasive therapeutic procedure to destroy tissue in an accessory pathways in the atrioventricular conduction system that contributes to arrhythmia.", "preferredTerm": "Ablation of Cardiac Accessory Pathway", "submissionValue": "ABLATION, ACCESSORY PATHWAYS"}, {"conceptId": "C80432", "definition": "An invasive therapeutic procedure to destroy tissue in the cardiac atria that is the source of an arrhythmia.", "preferredTerm": "Atrial Ablation", "submissionValue": "ABLATION, ATRIAL"}, {"conceptId": "C99908", "definition": "An invasive therapeutic procedure to destroy tissue in the AV-node that contributes to arrhythmia.", "preferredTerm": "Ablation of Cardiac Atrioventricular Node", "submissionValue": "ABLATION, AV NODE"}, {"conceptId": "C111157", "definition": "Removal, separation, detachment, extirpation or eradication of a body part, pathway or function by chemical means. (NCI)", "preferredTerm": "Chemical Ablation", "submissionValue": "ABLATION, CHEMICAL"}, {"conceptId": "C111241", "definition": "Removal, separation, detachment, extirpation or eradication of a body part, pathway or function by light amplification by stimulated emission of radiation. (NCI)", "preferredTerm": "Laser Ablation", "submissionValue": "ABLATION, LASER"}, {"conceptId": "C80433", "definition": "An invasive therapeutic procedure to destroy tissue in the cardiac ventricles that is the source of an arrhythmia.", "preferredTerm": "Ventricular Ablation", "submissionValue": "ABLATION, VENTRICULAR"}, {"conceptId": "C99916", "definition": "Dilation of the valve between the left ventricle of the heart and the aorta by inflating a balloon.", "preferredTerm": "Aortic Balloon Valvotomy", "submissionValue": "AORTIC BALLOON VALVOTOMY"}, {"conceptId": "C50815", "definition": "Surgery performed with the purpose of replacing a degenerated, calcified, malformed, dysfunctional, etc. aortic valve with a bioprosthetic, homograft, or autograft valve.", "preferredTerm": "Aortic Valve Replacement", "submissionValue": "AORTIC VALVE REPLACEMENT"}, {"conceptId": "C99939", "definition": "Repair of atrial septum.", "preferredTerm": "Closure of Cardiac Atrial Septum", "submissionValue": "ATRIAL SEPTAL CLOSURE"}, {"conceptId": "C15195", "definition": "A type of radiation therapy in which radioactive material is placed inside the body, into a tumor or body cavity.", "preferredTerm": "Internal Radiation Therapy", "submissionValue": "BRACHYTHERAPY"}, {"conceptId": "C66891", "definition": "A type of brachytherapy in which radioactive material sealed in needles, seeds, wires, or catheters is placed directly into a tumor or body tissue.", "preferredTerm": "Interstitial Radiation Therapy", "submissionValue": "BRACHYTHERAPY, INTERSTITIAL"}, {"conceptId": "C28049", "definition": "A type of brachytherapy in which radioactive material sealed in needles, seeds, wires, or catheters is placed directly into a body cavity such as the chest cavity or the vagina.", "preferredTerm": "Intracavitary Radiation Therapy", "submissionValue": "BRACHYTHERAPY, INTRACAVITARY"}, {"conceptId": "C38044", "definition": "A procedure in which a thin plastic tube (catheter) is inserted into an artery or vein in the arm or leg and then advanced into the chambers of the heart or into the coronary arteries.", "preferredTerm": "Cardiac Catheterization", "submissionValue": "CARDIAC CATHETERIZATION"}, {"conceptId": "C80436", "definition": "An invasive procedure that includes an electronic device that stimulates both right and left cardiac ventricles to improve coordination of ventricular contraction.", "preferredTerm": "Cardiac Resynchronization Therapy", "submissionValue": "CARDIAC RESYNCHRONIZATION THERAPY"}, {"conceptId": "C100080", "definition": "A procedure performed during a percutaneous coronary intervention in which a device is deployed into the lumen of a coronary artery to expand and support the vessel wall such that the vessel remains patent and blood flow is uninhibited.", "preferredTerm": "Cardiac Stent Placement", "submissionValue": "CARDIAC STENT PLACEMENT"}, {"conceptId": "C15246", "definition": "A surgical procedure in which a damaged heart is removed and replaced by another heart from a suitable donor.", "preferredTerm": "Heart Transplantation", "submissionValue": "CARDIAC TRANSPLANT", "synonyms": ["Heart Transplant"]}, {"conceptId": "C99937", "definition": "The administration of pharmacologic agents to correct abnormal heart rhythm.", "preferredTerm": "Chemical Cardioversion", "submissionValue": "CARDIOVERSION, CHEMICAL", "synonyms": ["CHEMICAL CARDIOVERSION"]}, {"conceptId": "C99948", "definition": "The administration of electric current to correct abnormal heart rhythm.", "preferredTerm": "Electric Cardioversion", "submissionValue": "CARDIOVERSION, ELECTRICAL", "synonyms": ["ELECTRICAL CARDIOVERSION"]}, {"conceptId": "C51998", "definition": "A procedure performed to bypass partially or completely occluded coronary arteries with veins and/or arteries harvested from elsewhere in the body, thereby improving the blood supply to the coronary circulation supplying the myocardium (heart muscle).", "preferredTerm": "Coronary Artery Bypass Surgery", "submissionValue": "CORONARY ARTERY BYPASS GRAFT", "synonyms": ["Aortocoronary Bypass", "CAB", "CABG", "Coronary Artery Bypass", "Coronary Artery Bypass Graft", "Coronary Artery Bypass Graft Surgery", "Coronary Artery Bypass Grafting", "Heart Bypass"]}, {"conceptId": "C15215", "definition": "Removal, separation, detachment, extirpation or eradication of a body part, pathway or function by freezing. (NCI)", "preferredTerm": "Cryosurgery", "submissionValue": "CRYOABLATION"}, {"conceptId": "C40030", "definition": "The therapeutic use of cold or refrigeration.", "preferredTerm": "Cryotherapy", "submissionValue": "CRYOTHERAPY"}, {"conceptId": "C111192", "definition": "A procedure for destroying tissue using an electrical current.", "preferredTerm": "Electrocauterization", "submissionValue": "ELECTROCAUTERIZATION"}, {"conceptId": "C52002", "definition": "Excision of an atheromatous plaque. (NCI)", "preferredTerm": "Endarterectomy", "submissionValue": "ENDARTERECTOMY"}, {"conceptId": "C15232", "definition": "The act of cutting out; the surgical removal of part or all of a structure or organ. (NCI)", "preferredTerm": "Excision", "submissionValue": "EXCISION"}, {"conceptId": "C15751", "definition": "A type of radiation therapy in which high-energy beams are delivered to the tumor from outside of the body.", "preferredTerm": "External Beam Radiation Therapy", "submissionValue": "EXTERNAL BEAM RADIATION THERAPY"}, {"conceptId": "C15651", "definition": "A type of brachytherapy that targets a cancerous tissue with high doses of radiation through the use of inserted temporary implants.", "preferredTerm": "High-Dose Rate Brachytherapy", "submissionValue": "HIGH-DOSE RATE BRACHYTHERAPY"}, {"conceptId": "C15262", "definition": "A therapy designed to induce changes in a patient's immune status.", "preferredTerm": "Immunotherapy", "submissionValue": "IMMUNOTHERAPY"}, {"conceptId": "C80435", "definition": "A procedure involving an electronic device implanted in the body that delivers electrical stimulation to the heart to treat tachycardia. It may also have the capability to treat bradycardia.", "preferredTerm": "Implantable Cardioverter-Defibrillator Placement", "submissionValue": "IMPLANTABLE CARDIOVERTER DEFIBRILLATOR", "synonyms": ["Implantable Cardioverter Defibrillator Procedure"]}, {"conceptId": "C62730", "definition": "The use of an intense beam of light, such as a laser, to seal off blood vessels or destroy tissue. (NCI)", "preferredTerm": "Infrared Photocoagulation Therapy", "submissionValue": "INFRARED PHOTO COAGULATION", "synonyms": ["Infrared Coagulation"]}, {"conceptId": "C16135", "definition": "An advanced form of 3-Dimensional Conformal Radiation Therapy (3D CRT) that involves the use of varying intensities of small radiation beams to produce dosage distributions that are more precise than those possible with 3D CRT. (NCI)", "preferredTerm": "Intensity-Modulated Radiation Therapy", "submissionValue": "INTENSITY-MODULATED RADIATION THERAPY"}, {"conceptId": "C99934", "definition": "A procedure involving one or more wires used for pacemaker or implantable defibrillator devices.", "preferredTerm": "Cardiac Lead Procedure", "submissionValue": "LEAD", "synonyms": ["Lead Procedure"]}, {"conceptId": "C99965", "definition": "The therapeutic blockage of the muscular pouch in the left atrium.", "preferredTerm": "Intentional Left Cardiac Atrial Appendage Occlusion Procedure", "submissionValue": "LEFT ATRIAL APPENDAGE OCCLUSION"}, {"conceptId": "C80473", "definition": "A procedure involving a mechanical cardiac pump which receives blood from the left ventricle and delivers it to the aorta.", "preferredTerm": "Left Ventricular Assist Device", "submissionValue": "LEFT VENTRICULAR ASSIST DEVICE", "synonyms": ["LVAD"]}, {"conceptId": "C99975", "definition": "An examination and assessment of the inability of the left ventricle to effectively pump blood to the body.", "preferredTerm": "Left Cardiac Ventricular Systolic Dysfunction Evaluation", "submissionValue": "LEFT VENTRICULAR SYSTOLIC DYSFUNCTION EVALUATION"}, {"conceptId": "C85254", "definition": "A type of brachytherapy that targets a cancerous tissue with low doses of radiation through the use of inserted temporary or permanent implants.", "preferredTerm": "Low-Dose Rate Brachytherapy", "submissionValue": "LOW-DOSE RATE BRACHYTHERAPY"}, {"conceptId": "C99987", "definition": "Dilation of the valve between the left atrium and the left ventricle of the heart by inflating a balloon.", "preferredTerm": "Mitral Balloon Valvotomy", "submissionValue": "MITRAL BALLOON VALVOTOMY"}, {"conceptId": "C99988", "definition": "Dilation of the valve between the left atrium and the left ventricle of the heart by use of a surgeon's finger or rigid instrument.", "preferredTerm": "Mitral Commissurotomy", "submissionValue": "MITRAL COMMISSUROTOMY"}, {"conceptId": "C80449", "definition": "Surgery performed for the purpose of reducing regurgitation of the mitral valve.", "preferredTerm": "Mitral Valve Repair", "submissionValue": "MITRAL VALVE REPAIR"}, {"conceptId": "C50825", "definition": "Surgery performed with the purpose of replacing a degenerated, calcified, malformed, dysfunctional, etc. mitral valve with bioprosthetic, homograft or autograft valve.", "preferredTerm": "Mitral Valve Replacement", "submissionValue": "MITRAL VALVE REPLACEMENT"}, {"conceptId": "C99995", "definition": "An operative procedure that does not involve the heart or the blood vessels.", "preferredTerm": "Non-Cardiovascular Surgery", "submissionValue": "NON-CARDIOVASCULAR SURGERY"}, {"conceptId": "C99998", "definition": "A procedure involving an electronic device that delivers electrical stimulation to the heart to treat bradycardia.", "preferredTerm": "Pacemaker Procedure", "submissionValue": "PACEMAKER", "synonyms": ["Pacemaker Procedure"]}, {"conceptId": "C99521", "definition": "A percutaneous coronary intervention (PCI) is the placement of an angioplasty guide wire, balloon, or other device (e.g. stent, atherectomy, brachytherapy, or thrombectomy catheter) into a native coronary artery or coronary artery bypass graft for the purpose of mechanical coronary revascularization. Examples of things not considered to be PCI procedures include intravascular ultrasound, measurements of coronary flow reserve, or measurements of fractional flow reserve.", "preferredTerm": "Percutaneous Coronary Intervention", "submissionValue": "PERCUTANEOUS CORONARY INTERVENTION", "synonyms": ["PCI"]}, {"conceptId": "C100003", "definition": "Invasive procedure through a puncture in the skin, performed for the purpose of reducing regurgitation of the mitral valve.", "preferredTerm": "Percutaneous Mitral Valve Repair", "submissionValue": "PERCUTANEOUS MITRAL REPAIR"}, {"conceptId": "C100004", "definition": "Removal or resection of the pericardium.", "preferredTerm": "Pericardial Stripping", "submissionValue": "PERICARDIAL STRIPPING"}, {"conceptId": "C51618", "definition": "A procedure in which an opening is made in the pericardium.", "preferredTerm": "Pericardial Window Procedure", "submissionValue": "PERICARDIAL WINDOW"}, {"conceptId": "C52010", "definition": "The aspiration of excess fluid between the pericardium and the heart.", "preferredTerm": "Pericardiocentesis", "submissionValue": "PERICARDIOCENTESIS"}, {"conceptId": "C116150", "definition": "A peripheral vascular intervention is a catheter-based or open surgical procedure designed to improve arterial or venous blood flow or otherwise modify or revise vascular conduits. In general, the intention to perform percutaneous vascular intervention is denoted by the insertion of a guide wire into an artery or vein. For the sake of simplicity, this definition applies to the extracranial carotid artery and other non-cardiac arteries and veins, while it excludes the lymphatics and intracranial vessels.", "preferredTerm": "Peripheral Vascular Intervention", "submissionValue": "PERIPHERAL VASCULAR INTERVENTION", "synonyms": ["PVI"]}, {"conceptId": "C50817", "definition": "Surgery performed with the purpose of replacing a degenerated, calcified, malformed, dysfunctional, etc. pulmonary valve with bioprosthetic, homograft or autograft valve.", "preferredTerm": "Pulmonary Valve Replacement", "submissionValue": "PULMONARY VALVE REPLACEMENT"}, {"conceptId": "C100044", "definition": "Dilation of the valve between the right ventricle and the pulmonary artery of the heart by inflating a balloon.", "preferredTerm": "Pulmonic Valvuloplasty", "submissionValue": "PULMONIC VALVULOPLASTY"}, {"conceptId": "C100010", "definition": "A procedure involving a mechanical pump which receives blood from the right ventricle and delivers it to the pulmonary artery.", "preferredTerm": "Right Cardiac Ventricle Assist Device Procedure", "submissionValue": "RIGHT VENTRICULAR ASSIST DEVICE", "synonyms": ["RVAD"]}, {"conceptId": "C80439", "definition": "A cardiac catheterization procedure to relieve symptoms in patients with severe obstructive hypertrophic cardiomyopathy. A catheter is used to inject alcohol into a septal artery supplying the heart muscle responsible for the obstruction, destroying the muscle tissue and relieving the obstruction.", "preferredTerm": "Septal Ablation", "submissionValue": "SEPTAL ABLATION"}, {"conceptId": "C100017", "definition": "A cardiac procedure intended to inhibit atrial fibrillation, in which a series of incisions are made in the atria to block abnormal electrical circuits that contribute to atrial fibrillation.", "preferredTerm": "Surgical Maze Procedure", "submissionValue": "SURGICAL MAZE", "synonyms": ["Cox Maze"]}, {"conceptId": "C100022", "definition": "Use of a thin tube to deliver an artificial valve apparatus between the left ventricle of the heart and the aorta.", "preferredTerm": "Transcatheter Aortic Valve Implantation", "submissionValue": "TRANSCATHETER AORTIC VALVE IMPLANT"}, {"conceptId": "C99935", "definition": "Surgery performed for the purpose of reducing regurgitation of the cardiac valve between the right atrium and right ventricle.", "preferredTerm": "Cardiac Tricuspid Valve Repair", "submissionValue": "TRICUSPID VALVE REPAIR"}, {"conceptId": "C50816", "definition": "Surgery performed with the purpose of replacing a degenerated, calcified, malformed, dysfunctional, etc. tricuspid valve with bioprosthetic, homograft or autograft valve.", "preferredTerm": "Tricuspid Valve Replacement", "submissionValue": "TRICUSPID VALVE REPLACEMENT"}, {"conceptId": "C80451", "definition": "Cardiac surgical procedure performed for the removal of an aneurysm from the ventricular wall.", "preferredTerm": "Ventricular Aneurysm Resection", "submissionValue": "VENTRICULAR ANEURYSM RESECTION"}, {"conceptId": "C99940", "definition": "Repair of ventricular septum.", "preferredTerm": "Closure of Cardiac Ventricle Septum", "submissionValue": "VENTRICULAR SEPTAL CLOSURE"}]}