{"_links": {"parentPackage": {"href": "/mdr/ct/packages/sdtmct-2017-06-30", "title": "SDTM Controlled Terminology Package 30 Effective 2017-06-30", "type": "Terminology"}, "priorVersion": {"href": "/mdr/ct/packages/sdtmct-2017-03-31/codelists/C103467", "title": "CDISC Questionnaire GAD-7 Test Code Terminology", "type": "Code List"}, "rootItem": {"href": "/mdr/root/ct/sdtmct/codelists/C103467", "title": "Version-agnostic anchor resource for codelist C103467", "type": "Root Value Domain"}, "self": {"href": "/mdr/ct/packages/sdtmct-2017-06-30/codelists/C103467", "title": "CDISC Questionnaire GAD-7 Test Code Terminology", "type": "Code List"}}, "conceptId": "C103467", "definition": "Generalized Anxiety Disorder - 7 test code.", "extensible": "false", "name": "Generalized Anxiety Disorder - 7 Questionnaire Test Code", "preferredTerm": "CDISC Questionnaire GAD-7 Test Code Terminology", "submissionValue": "GAD01TC", "synonyms": ["Generalized Anxiety Disorder - 7 Questionnaire Test Code"], "terms": [{"conceptId": "C103565", "definition": "Generalized Anxiety Disorder - 7 - Feeling nervous, anxious or on edge.", "preferredTerm": "GAD-7 - Feeling Nervous Anxious or On Edge", "submissionValue": "GAD0101", "synonyms": ["GAD01-Feeling Nervous Anxious or On Edge"]}, {"conceptId": "C103566", "definition": "Generalized Anxiety Disorder - 7 - Not being able to stop or control worrying.", "preferredTerm": "GAD-7 - Not Being Able to Stop or Control Worrying", "submissionValue": "GAD0102", "synonyms": ["GAD01-Not Able to Stop/Control Worrying"]}, {"conceptId": "C103567", "definition": "Generalized Anxiety Disorder - 7 - Worrying too much about different things.", "preferredTerm": "GAD-7 - Worrying Too Much About Different Things", "submissionValue": "GAD0103", "synonyms": ["GAD01-Worrying Too Much About Things"]}, {"conceptId": "C103568", "definition": "Generalized Anxiety Disorder - 7 - Trouble relaxing.", "preferredTerm": "GAD-7 - Trouble Relaxing", "submissionValue": "GAD0104", "synonyms": ["GAD01-Trouble Relaxing"]}, {"conceptId": "C103569", "definition": "Generalized Anxiety Disorder - 7 - Being so restless that it is hard to sit still.", "preferredTerm": "GAD-7 - Being so Restless That it is Hard to Sit Still", "submissionValue": "GAD0105", "synonyms": ["GAD01-Being Restless Hard to Sit Still"]}, {"conceptId": "C103570", "definition": "Generalized Anxiety Disorder - 7 - Becoming easily annoyed or irritable.", "preferredTerm": "GAD-7 - Becoming Easily Annoyed or Irritable", "submissionValue": "GAD0106", "synonyms": ["GAD01-Becoming Easily Annoyed/Irritable"]}, {"conceptId": "C103571", "definition": "Generalized Anxiety Disorder - 7 - Feeling afraid as if something awful might happen.", "preferredTerm": "GAD-7 - Feel Afraid as if Something Awful Might Happen", "submissionValue": "GAD0107", "synonyms": ["GAD01-Feel Afraid/Something Awful Happen"]}, {"conceptId": "C103572", "definition": "Generalized Anxiety Disorder - 7 - If you checked off any problems, how difficult have these problems made it for you to do your work, take care of things at home, or get along with other people?", "preferredTerm": "GAD-7 - Problems Made it Difficult to Work, Take Care of Things, or Get Along with Other People", "submissionValue": "GAD0108", "synonyms": ["GAD01-Difficult to Work/Take Care Things"]}, {"conceptId": "C113886", "definition": "Generalized Anxiety Disorder - 7 - Total score.", "preferredTerm": "GAD-7 - Total Score", "submissionValue": "GAD0109", "synonyms": ["GAD01-Total Score"]}]}