{"_links": {"parentPackage": {"href": "/mdr/ct/packages/sdtmct-2017-06-30", "title": "SDTM Controlled Terminology Package 30 Effective 2017-06-30", "type": "Terminology"}, "priorVersion": {"href": "/mdr/ct/packages/sdtmct-2017-03-31/codelists/C103472", "title": "CDISC Questionnaire NPS Test Name Terminology", "type": "Code List"}, "rootItem": {"href": "/mdr/root/ct/sdtmct/codelists/C103472", "title": "Version-agnostic anchor resource for codelist C103472", "type": "Root Value Domain"}, "self": {"href": "/mdr/ct/packages/sdtmct-2017-06-30/codelists/C103472", "title": "CDISC Questionnaire NPS Test Name Terminology", "type": "Code List"}}, "conceptId": "C103472", "definition": "Neuropathic Pain Scale test name.", "extensible": "false", "name": "Neuropathic Pain Scale Questionnaire Test Name", "preferredTerm": "CDISC Questionnaire NPS Test Name Terminology", "submissionValue": "NPS01TN", "synonyms": ["Neuropathic Pain Scale Questionnaire Test Name"], "terms": [{"conceptId": "C103648", "definition": "Neuropathic Pain Scale - I feel a single type of pain all the time. Describe this pain.", "preferredTerm": "NPS - Describe the Single Type of Pain All Time", "submissionValue": "NPS01-Describe Single Type Pain All Time", "synonyms": ["NPS01-Describe Single Type Pain All Time"]}, {"conceptId": "C103645", "definition": "Neuropathic Pain Scale - Which of the following best describes the time quality of your pain? Please check only one answer.", "preferredTerm": "NPS - Describe the Time Quality Of Your Pain", "submissionValue": "NPS01-Describe Time Quality Of Your Pain", "synonyms": ["NPS01-Describe Time Quality Of Your Pain"]}, {"conceptId": "C103646", "definition": "Neuropathic Pain Scale - I feel a background pain all of the time and occasional flare-ups (break-through pain) some of the time. Describe the background pain.", "preferredTerm": "NPS - Describe the Background Pain", "submissionValue": "NPS01-Describe the Background Pain", "synonyms": ["NPS01-Describe the Background Pain"]}, {"conceptId": "C103647", "definition": "Neuropathic Pain Scale - I feel a background pain all of the time and occasional flare-ups (break-through pain) some of the time. Describe the flare-up (break-through) pain.", "preferredTerm": "NPS - Describe the Flare-up Pain", "submissionValue": "NPS01-Describe the Flare-up Pain", "synonyms": ["NPS01-Describe the Flare-up Pain"]}, {"conceptId": "C103649", "definition": "Neuropathic Pain Scale - I fee a single type of pain only sometimes. Other times, I am pain free. Describe the occasional pain.", "preferredTerm": "NPS - Describe the Occasional Pain", "submissionValue": "NPS01-Describe the Occasional Pain", "synonyms": ["NPS01-Describe the Occasional Pain"]}, {"conceptId": "C103651", "definition": "Neuropathic Pain Scale - Lastly, we want you to give us an estimate of the severity of your deep versus surface pain. We want your to rate each location of pain separately. We realize that it can be difficult to make these estimates, and most likely it will be a 'best guess,' but please give us your best estimate. How intense is your deep pain?", "preferredTerm": "NPS - How Intense is Your Deep Pain", "submissionValue": "NPS01-How Intense is Your Deep Pain", "synonyms": ["NPS01-How Intense is Your Deep Pain"]}, {"conceptId": "C103652", "definition": "Neuropathic Pain Scale - Lastly, we want you to give us an estimate of the severity of your deep versus surface pain. We want your to rate each location of pain separately. We realize that it can be difficult to make these estimates, and most likely it will be a 'best guess,' but please give us your best estimate. How intense is your surface pain?", "preferredTerm": "NPS - How Intense is Your Surface Pain", "submissionValue": "NPS01-How Intense is Your Surface Pain", "synonyms": ["NPS01-How Intense is Your Surface Pain"]}, {"conceptId": "C103643", "definition": "Neuropathic Pain Scale - Please use the scale below to tell us how sensitive your skin is to light touch or clothing. Words used to describe sensitive skin include 'like sunburned skin,' and 'raw skin.'", "preferredTerm": "NPS - Tell Us How Sensitive Your Skin is to Light Touch or Clothing", "submissionValue": "NPS01-Sensitiv Skin to Light Touch/Cloth", "synonyms": ["NPS01-Sensitiv Skin to Light Touch/Cloth"]}, {"conceptId": "C103650", "definition": "Neuropathic Pain Scale - Now that you have told us the different physical aspects of your pain, the different types of sensations, we want you to tell us overall how unpleasant your pain is to you. Words used to describe very unpleasant pain include 'miserable' and intolerable.' Remember, pain can have a low intensity, buy still feel extremely unpleasant, and some kinds of pain can have a high intensity but be very tolerable. With this scale, please tell us how unpleasant your pain feels.", "preferredTerm": "NPS - Tell Us Overall How Unpleasant Your Pain is to You", "submissionValue": "NPS01-Tell How Unpleasant Your Pain Feel", "synonyms": ["NPS01-Tell How Unpleasant Your Pain Feel"]}, {"conceptId": "C103642", "definition": "Neuropathic Pain Scale - Please use the scale below to tell us how cold your pain feels. Words used to describe very cold pain included 'like ice' and 'freezing.'", "preferredTerm": "NPS - Tell Us How Cold Your Pain Feels", "submissionValue": "NPS01-Tell Us How Cold Your Pain Feels", "synonyms": ["NPS01-Tell Us How Cold Your Pain Feels"]}, {"conceptId": "C103641", "definition": "Neuropathic Pain Scale - Please use the scale below to tell us how dull your pain feels. Words used to describe very dull pain include 'like a dull toothache,' 'dull pain,' and 'like a bruise.'", "preferredTerm": "NPS - Tell Us How Dull Your Pain Feels", "submissionValue": "NPS01-Tell Us How Dull Your Pain Feels", "synonyms": ["NPS01-Tell Us How Dull Your Pain Feels"]}, {"conceptId": "C103640", "definition": "Neuropathic Pain Scale - Please use the scale below to tell us how hot your pain feels. Words used to describe very hot pain include 'burning' and 'on fire.'", "preferredTerm": "NPS - Tell Us How Hot Your Pain Feels", "submissionValue": "NPS01-Tell Us How Hot Your Pain Feels", "synonyms": ["NPS01-Tell Us How Hot Your Pain Feels"]}, {"conceptId": "C103638", "definition": "Neuropathic Pain Scale - Please use the scale below to tell us how intense your pain is.", "preferredTerm": "NPS - Tell Us How Intense Your Pain Is", "submissionValue": "NPS01-Tell Us How Intense Your Pain Is", "synonyms": ["NPS01-Tell Us How Intense Your Pain Is"]}, {"conceptId": "C103644", "definition": "Neuropathic Pain Scale - Please use the scale below to tell us how itchy your pain feels. Words used to describe itchy pain include 'like poison oak' and 'like a mosquito bite.'", "preferredTerm": "NPS - Tell Us How Itchy Your Pain Feels", "submissionValue": "NPS01-Tell Us How Itchy Your Pain Feels", "synonyms": ["NPS01-Tell Us How Itchy Your Pain Feels"]}, {"conceptId": "C103639", "definition": "Neuropathic Pain Scale - Please use the scale below to tell us how sharp your pain feels. Words used to describe 'sharp' feelings include 'like a knife,' 'like a spike,' 'jabbing,' or 'like jolts.'", "preferredTerm": "NPS - Tell Us How Sharp Your Pain Feels", "submissionValue": "NPS01-Tell Us How Sharp Your Pain Feels", "synonyms": ["NPS01-Tell Us How Sharp Your Pain Feels"]}]}