{"_links": {"parentPackage": {"href": "/mdr/ct/packages/sdtmct-2017-06-30", "title": "SDTM Controlled Terminology Package 30 Effective 2017-06-30", "type": "Terminology"}, "priorVersion": {"href": "/mdr/ct/packages/sdtmct-2017-03-31/codelists/C106668", "title": "CDISC Questionnaire MMRC Test Name Terminology", "type": "Code List"}, "rootItem": {"href": "/mdr/root/ct/sdtmct/codelists/C106668", "title": "Version-agnostic anchor resource for codelist C106668", "type": "Root Value Domain"}, "self": {"href": "/mdr/ct/packages/sdtmct-2017-06-30/codelists/C106668", "title": "CDISC Questionnaire MMRC Test Name Terminology", "type": "Code List"}}, "conceptId": "C106668", "definition": "Modified Medical Research Council Dyspnea Scale test name.", "extensible": "false", "name": "Modified Medical Research Council Dyspnea Scale Questionnaire Test Name", "preferredTerm": "CDISC Questionnaire MMRC Test Name Terminology", "submissionValue": "MMRC01TN", "synonyms": ["Modified Medical Research Council Dyspnea Scale Questionnaire Test Name"], "terms": [{"conceptId": "C106852", "definition": "Modified Medical Research Council Dyspnea Scale - Description of breathlessness.", "preferredTerm": "MMRC - Description of Level of Breathlessness", "submissionValue": "MMRC01-Description of Breathlessness", "synonyms": ["MMRC01-Description of Breathlessness"]}]}