{"_links": {"parentPackage": {"href": "/mdr/ct/packages/sdtmct-2017-06-30", "title": "SDTM Controlled Terminology Package 30 Effective 2017-06-30", "type": "Terminology"}, "priorVersion": {"href": "/mdr/ct/packages/sdtmct-2017-03-31/codelists/C106664", "title": "CDISC Questionnaire GDS-SF Test Name Terminology", "type": "Code List"}, "rootItem": {"href": "/mdr/root/ct/sdtmct/codelists/C106664", "title": "Version-agnostic anchor resource for codelist C106664", "type": "Root Value Domain"}, "self": {"href": "/mdr/ct/packages/sdtmct-2017-06-30/codelists/C106664", "title": "CDISC Questionnaire GDS-SF Test Name Terminology", "type": "Code List"}}, "conceptId": "C106664", "definition": "Geriatric Depression Scale Short Form test name.", "extensible": "false", "name": "Geriatric Depression Scale Short Form Questionnaire Test Name", "preferredTerm": "CDISC Questionnaire GDS-SF Test Name Terminology", "submissionValue": "GDS02TN", "synonyms": ["Geriatric Depression Scale Short Form Questionnaire Test Name"], "terms": [{"conceptId": "C106799", "definition": "Geriatric Depression Scale Short Form - Are you afraid that something bad is going to happen to you?", "preferredTerm": "GDS-SF - Afraid of Something Bad Happening", "submissionValue": "GDS02-Afraid of Something Bad Happening", "synonyms": ["GDS02-Afraid of Something Bad Happening"]}, {"conceptId": "C106797", "definition": "Geriatric Depression Scale Short Form - Do you often get bored?", "preferredTerm": "GDS-SF - Often Get Bored", "submissionValue": "GDS02-Bored Often", "synonyms": ["GDS02-Bored Often"]}, {"conceptId": "C106795", "definition": "Geriatric Depression Scale Short Form - Have you dropped many of your activities and interests?", "preferredTerm": "GDS-SF - Dropped Activities and Interests", "submissionValue": "GDS02-Dropped Activities and Interests", "synonyms": ["GDS02-Dropped Activities and Interests"]}, {"conceptId": "C106806", "definition": "Geriatric Depression Scale Short Form - Do you feel full of energy?", "preferredTerm": "GDS-SF - Feel Full of Energy", "submissionValue": "GDS02-Feel Full of Energy", "synonyms": ["GDS02-Feel Full of Energy"]}, {"conceptId": "C106800", "definition": "Geriatric Depression Scale Short Form - Do you feel happy most of the time?", "preferredTerm": "GDS-SF - Feel Happy Most of Time", "submissionValue": "GDS02-Feel Happy Most of Time", "synonyms": ["GDS02-Feel Happy Most of Time"]}, {"conceptId": "C106807", "definition": "Geriatric Depression Scale Short Form - Do you feel that your situation is hopeless?", "preferredTerm": "GDS-SF - Feel Situation is Hopeless", "submissionValue": "GDS02-Feel Hopeless", "synonyms": ["GDS02-Feel Hopeless"]}, {"conceptId": "C106805", "definition": "Geriatric Depression Scale Short Form - Do you feel pretty worthless the way you are now?", "preferredTerm": "GDS-SF - Feel Worthless", "submissionValue": "GDS02-Feel Worthless", "synonyms": ["GDS02-Feel Worthless"]}, {"conceptId": "C106798", "definition": "Geriatric Depression Scale Short Form - Are you in good spirits most of the time?", "preferredTerm": "GDS-SF - Good Spirits Most of Time", "submissionValue": "GDS02-Good Spirits Most of Time", "synonyms": ["GDS02-Good Spirits Most of Time"]}, {"conceptId": "C106796", "definition": "Geriatric Depression Scale Short Form - Do you feel that your life is empty?", "preferredTerm": "GDS-SF - Feel Life Is Empty", "submissionValue": "GDS02-Life Is Empty", "synonyms": ["GDS02-Life Is Empty"]}, {"conceptId": "C106803", "definition": "Geriatric Depression Scale Short Form - Do you feel you have more problems with memory than most?", "preferredTerm": "GDS-SF - More Memory Problems Than Most", "submissionValue": "GDS02-Memory Problems", "synonyms": ["GDS02-Memory Problems"]}, {"conceptId": "C106808", "definition": "Geriatric Depression Scale Short Form - Do you think that most people are better off than you are?", "preferredTerm": "GDS-SF - Think Most People Better Off Than You", "submissionValue": "GDS02-Most People Better Off Than You", "synonyms": ["GDS02-Most People Better Off Than You"]}, {"conceptId": "C106801", "definition": "Geriatric Depression Scale Short Form - Do you often feel helpless?", "preferredTerm": "GDS-SF - Often Feel Helpless", "submissionValue": "GDS02-Often Feel Helpless", "synonyms": ["GDS02-Often Feel Helpless"]}, {"conceptId": "C106802", "definition": "Geriatric Depression Scale Short Form - Do you prefer to stay at home rather than going out and doing new things?", "preferredTerm": "GDS-SF - Prefer to Stay Home", "submissionValue": "GDS02-Prefer to Stay Home", "synonyms": ["GDS02-Prefer to Stay Home"]}, {"conceptId": "C106794", "definition": "Geriatric Depression Scale Short Form - Are you basically satisfied with your life?", "preferredTerm": "GDS-SF - Basically Satisfied With Life", "submissionValue": "GDS02-Satisfied With Life", "synonyms": ["GDS02-Satisfied With Life"]}, {"conceptId": "C106804", "definition": "Geriatric Depression Scale Short Form - Do you think it is wonderful to be alive now?", "preferredTerm": "GDS-SF - Think Wonderful to Be Alive", "submissionValue": "GDS02-Wonderful to Be Alive", "synonyms": ["GDS02-Wonderful to Be Alive"]}]}