{"_links": {"parentPackage": {"href": "/mdr/ct/packages/sdtmct-2017-06-30", "title": "SDTM Controlled Terminology Package 30 Effective 2017-06-30", "type": "Terminology"}, "priorVersion": {"href": "/mdr/ct/packages/sdtmct-2017-03-31/codelists/C112023", "title": "CDISC SDTM Skin Response Test Name Terminology", "type": "Code List"}, "rootItem": {"href": "/mdr/root/ct/sdtmct/codelists/C112023", "title": "Version-agnostic anchor resource for codelist C112023", "type": "Root Value Domain"}, "self": {"href": "/mdr/ct/packages/sdtmct-2017-06-30/codelists/C112023", "title": "CDISC SDTM Skin Response Test Name Terminology", "type": "Code List"}}, "conceptId": "C112023", "definition": "A terminology codelist based on the test names for dermal responses to antigens.", "extensible": "true", "name": "Skin Response Test Name", "preferredTerm": "CDISC SDTM Skin Response Test Name Terminology", "submissionValue": "SRTEST", "synonyms": ["Skin Response Test Name"], "terms": [{"conceptId": "C112221", "definition": "A relative measurement (ratio or percentage) of the allergen wheal size to the positive control wheal size in an allergen skin test.", "preferredTerm": "Allergen Skin Response Index", "submissionValue": "Allergen Skin Response Index", "synonyms": ["Allergen Skin Response Index"]}, {"conceptId": "C112222", "definition": "A semi-quantitative assessment of the intensity of the wheal and flare reaction.", "preferredTerm": "Allergen Skin Response Intensity", "submissionValue": "Allergen Skin Response Intensity", "synonyms": ["Allergen Skin Response Intensity"]}, {"conceptId": "C122195", "definition": "An indication as to whether blistering occurred.", "preferredTerm": "Blistering Indicator", "submissionValue": "Blistering Indicator", "synonyms": ["Blistering Indicator"]}, {"conceptId": "C112281", "definition": "The longest diameter of the area of redness that forms around the site of an antigenic challenge to the skin.", "preferredTerm": "Flare Longest Diameter", "submissionValue": "Flare Longest Diameter", "synonyms": ["Flare Longest Diameter"]}, {"conceptId": "C112282", "definition": "The mean diameter of the area of redness that forms around the site of an antigenic challenge to the skin.", "preferredTerm": "Flare Mean Diameter", "submissionValue": "Flare Mean Diameter", "synonyms": ["Flare Mean Diameter"]}, {"conceptId": "C112283", "definition": "The size of the area of redness that forms around the site of an antigenic challenge to the skin.", "preferredTerm": "Flare Size", "submissionValue": "Flare Size", "synonyms": ["Flare Size"]}, {"conceptId": "C122196", "definition": "The longest diameter of an area of hardness in the skin. (NCI)", "preferredTerm": "Induration Longest Diameter", "submissionValue": "Induration Longest Diameter", "synonyms": ["Induration Longest Diameter"]}, {"conceptId": "C41255", "definition": "An act or process of elucidation; explication, or explanation of the meaning of the event or thing via the assignment of objects from the domain to the constants of a formal language, truth-values to the proposition symbols, truth-functions to the connectives, other functions to the function symbols, and extensions to the predicates, if any. The assignments are result of human logic application and are not native to the symbols of the formal language.", "preferredTerm": "Interpretation", "submissionValue": "Interpretation", "synonyms": ["Interpretation"]}, {"conceptId": "C130186", "definition": "The process of evaluating the wheal diameter in response to an allergen, based on a threshold size.", "preferredTerm": "Wheal Diameter Interpretation", "submissionValue": "Wheal Diameter Interpretation", "synonyms": ["Wheal Diameter Interpretation"]}, {"conceptId": "C112427", "definition": "The longest diameter of the flat, circular, slightly raised area that forms around the site of an antigenic challenge to the skin.", "preferredTerm": "Wheal Longest Diameter", "submissionValue": "Wheal Longest Diameter", "synonyms": ["Wheal Longest Diameter"]}, {"conceptId": "C112428", "definition": "The mean diameter of the flat, circular, slightly raised area that forms around the site of an antigenic challenge to the skin.", "preferredTerm": "Wheal Mean Diameter", "submissionValue": "Wheal Mean Diameter", "synonyms": ["Wheal Mean Diameter"]}, {"conceptId": "C112429", "definition": "A semi-quantitative size assessment of the flat, circular, slightly raised area that forms around the site of an antigenic challenge to the skin.", "preferredTerm": "Wheal Size", "submissionValue": "Wheal Size", "synonyms": ["Wheal Size"]}]}