{"_links": {"parentPackage": {"href": "/mdr/ct/packages/sdtmct-2017-06-30", "title": "SDTM Controlled Terminology Package 30 Effective 2017-06-30", "type": "Terminology"}, "priorVersion": {"href": "/mdr/ct/packages/sdtmct-2017-03-31/codelists/C115389", "title": "CDISC Functional Test HAI Test Name Terminology", "type": "Code List"}, "rootItem": {"href": "/mdr/root/ct/sdtmct/codelists/C115389", "title": "Version-agnostic anchor resource for codelist C115389", "type": "Root Value Domain"}, "self": {"href": "/mdr/ct/packages/sdtmct-2017-06-30/codelists/C115389", "title": "CDISC Functional Test HAI Test Name Terminology", "type": "Code List"}}, "conceptId": "C115389", "definition": "Hauser Ambulation Index test name.", "extensible": "false", "name": "Hauser Ambulation Index Functional Test Test Name", "preferredTerm": "CDISC Functional Test HAI Test Name Terminology", "submissionValue": "HAI01TN", "synonyms": ["Hauser Ambulation Index Functional Test Test Name"], "terms": [{"conceptId": "C115806", "definition": "Hauser Ambulation Index - Ambulation index.", "preferredTerm": "HAI - Ambulation Index", "submissionValue": "HAI01-Ambulation Index", "synonyms": ["HAI01-Ambulation Index"]}]}