{"_links": {"parentPackage": {"href": "/mdr/ct/packages/sdtmct-2017-06-30", "title": "SDTM Controlled Terminology Package 30 Effective 2017-06-30", "type": "Terminology"}, "priorVersion": {"href": "/mdr/ct/packages/sdtmct-2017-03-31/codelists/C115407", "title": "CDISC Questionnaire SWLS Test Name Terminology", "type": "Code List"}, "rootItem": {"href": "/mdr/root/ct/sdtmct/codelists/C115407", "title": "Version-agnostic anchor resource for codelist C115407", "type": "Root Value Domain"}, "self": {"href": "/mdr/ct/packages/sdtmct-2017-06-30/codelists/C115407", "title": "CDISC Questionnaire SWLS Test Name Terminology", "type": "Code List"}}, "conceptId": "C115407", "definition": "Satisfaction With Life Scale test name.", "extensible": "false", "name": "Satisfaction With Life Scale Questionnaire Test Name", "preferredTerm": "CDISC Questionnaire SWLS Test Name Terminology", "submissionValue": "SWLS01TN", "synonyms": ["Satisfaction With Life Scale Questionnaire Test Name"], "terms": [{"conceptId": "C115898", "definition": "Satisfaction With Life Scale - So far I have gotten the important things I want in life.", "preferredTerm": "SWLS - Have Gotten Important Things", "submissionValue": "SWLS01-Have Gotten Important Things", "synonyms": ["SWLS01-Have Gotten Important Things"]}, {"conceptId": "C115897", "definition": "Satisfaction With Life Scale - I am satisfied with my life.", "preferredTerm": "SWLS - Satisfied with My Life", "submissionValue": "SWLS01-I Am Satisfied with My Life", "synonyms": ["SWLS01-I Am Satisfied with My Life"]}, {"conceptId": "C115899", "definition": "Satisfaction With Life Scale - If I could live my life over, I would change almost nothing.", "preferredTerm": "SWLS - Live Life Over Change Nothing", "submissionValue": "SWLS01-Live Life Over Change Nothing", "synonyms": ["SWLS01-Live Life Over Change Nothing"]}, {"conceptId": "C115896", "definition": "Satisfaction With Life Scale - The conditions of my life are excellent.", "preferredTerm": "SWLS - Life Conditions are Excellent", "submissionValue": "SWLS01-My Life Conditions are Excellent", "synonyms": ["SWLS01-My Life Conditions are Excellent"]}, {"conceptId": "C115895", "definition": "Satisfaction With Life Scale - In most ways my life is close to ideal.", "preferredTerm": "SWLS - My Life is Close to Ideal", "submissionValue": "SWLS01-My Life is Close to Ideal", "synonyms": ["SWLS01-My Life is Close to Ideal"]}]}