{"_links": {"parentPackage": {"href": "/mdr/ct/packages/sdtmct-2017-06-30", "title": "SDTM Controlled Terminology Package 30 Effective 2017-06-30", "type": "Terminology"}, "priorVersion": {"href": "/mdr/ct/packages/sdtmct-2017-03-31/codelists/C115387", "title": "CDISC Functional Test 6MWT Test Name Terminology", "type": "Code List"}, "rootItem": {"href": "/mdr/root/ct/sdtmct/codelists/C115387", "title": "Version-agnostic anchor resource for codelist C115387", "type": "Root Value Domain"}, "self": {"href": "/mdr/ct/packages/sdtmct-2017-06-30/codelists/C115387", "title": "CDISC Functional Test 6MWT Test Name Terminology", "type": "Code List"}}, "conceptId": "C115387", "definition": "6 Minute Walk Test test name.", "extensible": "false", "name": "6 Minute Walk Functional Test Test Name", "preferredTerm": "CDISC Functional Test 6MWT Test Name Terminology", "submissionValue": "SIXMW1TN", "synonyms": ["6 Minute Walk Functional Test Test Name"], "terms": [{"conceptId": "C115800", "definition": "6 Minute Walk Test - Distance at 1 minute.", "preferredTerm": "6MWT - Distance at 1 Minute", "submissionValue": "SIXMW1-Distance at 1 Minute", "synonyms": ["SIXMW1-Distance at 1 Minute"]}, {"conceptId": "C115801", "definition": "6 Minute Walk Test - Distance at 2 minutes.", "preferredTerm": "6MWT - Distance at 2 Minutes", "submissionValue": "SIXMW1-Distance at 2 Minutes", "synonyms": ["SIXMW1-Distance at 2 Minutes"]}, {"conceptId": "C115802", "definition": "6 Minute Walk Test - Distance at 3 minutes.", "preferredTerm": "6MWT - Distance at 3 Minutes", "submissionValue": "SIXMW1-Distance at 3 Minutes", "synonyms": ["SIXMW1-Distance at 3 Minutes"]}, {"conceptId": "C115803", "definition": "6 Minute Walk Test - Distance at 4 minutes.", "preferredTerm": "6MWT - Distance at 4 Minutes", "submissionValue": "SIXMW1-Distance at 4 Minutes", "synonyms": ["SIXMW1-Distance at 4 Minutes"]}, {"conceptId": "C115804", "definition": "6 Minute Walk Test - Distance at 5 minutes.", "preferredTerm": "6MWT - Distance at 5 Minutes", "submissionValue": "SIXMW1-Distance at 5 Minutes", "synonyms": ["SIXMW1-Distance at 5 Minutes"]}, {"conceptId": "C115805", "definition": "6 Minute Walk Test - Distance at 6 minutes.", "preferredTerm": "6MWT - Distance at 6 Minutes", "submissionValue": "SIXMW1-Distance at 6 Minutes", "synonyms": ["SIXMW1-Distance at 6 Minutes"]}]}