{"_links": {"parentPackage": {"href": "/mdr/ct/packages/sdtmct-2017-06-30", "title": "SDTM Controlled Terminology Package 30 Effective 2017-06-30", "type": "Terminology"}, "priorVersion": {"href": "/mdr/ct/packages/sdtmct-2017-03-31/codelists/C117742", "title": "CDISC SDTM Ophthalmic Exam Test Name Terminology", "type": "Code List"}, "rootItem": {"href": "/mdr/root/ct/sdtmct/codelists/C117742", "title": "Version-agnostic anchor resource for codelist C117742", "type": "Root Value Domain"}, "self": {"href": "/mdr/ct/packages/sdtmct-2017-06-30/codelists/C117742", "title": "CDISC SDTM Ophthalmic Exam Test Name Terminology", "type": "Code List"}}, "conceptId": "C117742", "definition": "Terminology relevant to the test names that describe findings from ophthalmic examinations.", "extensible": "true", "name": "Ophthalmic Exam Test Name", "preferredTerm": "CDISC SDTM Ophthalmic Exam Test Name Terminology", "submissionValue": "OETEST", "synonyms": ["Ophthalmic Exam Test Name"], "terms": [{"conceptId": "C117889", "definition": "A measurement of the location, in degrees, of the flatter principal meridian on a 180-degree scale, where 90 degrees designates the vertical meridian and 180 degrees designates the horizontal meridian.", "preferredTerm": "Astigmatism Axis", "submissionValue": "Astigmatism Axis", "synonyms": ["Astigmatism Axis"]}, {"conceptId": "C120538", "definition": "A measurement of the number of cells contained in a unit of volume.", "preferredTerm": "Cell Density", "submissionValue": "Cell Density", "synonyms": ["Cell Density"]}, {"conceptId": "C120710", "definition": "The maximum number in a group of values that represent the cell density.", "preferredTerm": "Maximum Cell Density", "submissionValue": "Cell Density, Maximum", "synonyms": ["Cell Density, Maximum"]}, {"conceptId": "C120712", "definition": "The mean number in a group of values that represent the cell density.", "preferredTerm": "Mean Cell Density", "submissionValue": "Cell Density, Mean", "synonyms": ["Cell Density, Mean"]}, {"conceptId": "C120711", "definition": "The minimum number in a group of values that represent the cell density.", "preferredTerm": "Minimum Cell Density", "submissionValue": "Cell Density, Minimum", "synonyms": ["Cell Density, Minimum"]}, {"conceptId": "C120713", "definition": "The standard deviation in a group of values that represent the cell density.", "preferredTerm": "Standard Deviation of Cell Density", "submissionValue": "Cell Density, Standard Deviation", "synonyms": ["Cell Density, Standard Deviation"]}, {"conceptId": "C37927", "definition": "The appearance of objects (or light sources) described in terms of a person's perception of their hue and lightness (or brightness) and saturation. (NCI)", "preferredTerm": "Color", "submissionValue": "Color", "synonyms": ["Color"]}, {"conceptId": "C120714", "definition": "The ratio of the diameter of the optic cup compared to the diameter of the optic disc. (NCI)", "preferredTerm": "Optic Cup to Disc Ratio", "submissionValue": "Cup to Disc Ratio", "synonyms": ["Cup to Disc Ratio"]}, {"conceptId": "C117892", "definition": "A measurement of the extent of defect in vision caused by a mismatch of optical power between the cylindrical and horizontal meridians, resulting in sub-optimal reflection of light onto the retina. (NCI)", "preferredTerm": "Cylindrical Refractive Error", "submissionValue": "Cylindrical Refraction Error", "synonyms": ["Cylindrical Refraction Error"]}, {"conceptId": "C25285", "definition": "The length of a straight line passing through the center of a circle or sphere and connecting two points on the circumference. (NCI)", "preferredTerm": "Diameter", "submissionValue": "Diameter", "synonyms": ["Diameter"]}, {"conceptId": "C120716", "definition": "The mean number in a group of values that represent the diameter of an object.", "preferredTerm": "Mean Diameter", "submissionValue": "Diameter, Mean", "synonyms": ["Diameter, Mean"]}, {"conceptId": "C120715", "definition": "The minimum number in a group of values that represent the diameter of an object.", "preferredTerm": "Minimum Diameter", "submissionValue": "Diameter, Minimum", "synonyms": ["Diameter, Minimum"]}, {"conceptId": "C120717", "definition": "The standard deviation in a group of values that represent the diameter of an object.", "preferredTerm": "Standard Deviation of Diameter", "submissionValue": "Diameter, Standard Deviation", "synonyms": ["Diameter, Standard Deviation"]}, {"conceptId": "C132432", "definition": "The position on a scale to assess hyperemia.", "preferredTerm": "Hyperemia Grade", "submissionValue": "Hyperemia Grade", "synonyms": ["Hyperemia Grade"]}, {"conceptId": "C87143", "definition": "The fluid pressure within the eye.", "preferredTerm": "Intraocular Pressure", "submissionValue": "Intraocular Pressure", "synonyms": ["Intraocular Pressure"]}, {"conceptId": "C120718", "definition": "The condition or state of the lens of the eye. (NCI)", "preferredTerm": "Lens Status", "submissionValue": "Lens Status", "synonyms": ["Lens Status"]}, {"conceptId": "C117890", "definition": "A number or range of numeric values on the log scale that measures performance, function, quality, or ability.", "preferredTerm": "Log Score", "submissionValue": "Log Score", "synonyms": ["Log Score"]}, {"conceptId": "C96684", "definition": "The longest possible length of a straight line passing through the center of a circular or spheroid object that connects two points on the circumference.", "preferredTerm": "Longest Diameter", "submissionValue": "Longest Diameter", "synonyms": ["Longest Diameter"]}, {"conceptId": "C117891", "definition": "The integer that describes the number of letters correctly identified by the subject during an eye chart assessment.", "preferredTerm": "Number of Correct Eye Chart Letters", "submissionValue": "Number of Letters Correct", "synonyms": ["Number of Letters Correct"]}, {"conceptId": "C25637", "definition": "A description of the action in response to some kind of stimulus.", "preferredTerm": "Reaction", "submissionValue": "Reactivity", "synonyms": ["Reactivity"]}, {"conceptId": "C25677", "definition": "The spatial arrangement of something as distinct from its substance. (NCI)", "preferredTerm": "Shape", "submissionValue": "Shape", "synonyms": ["Shape"]}, {"conceptId": "C117893", "definition": "A measurement of the extent of defect in vision caused by a mismatch of optimal power between the cornea and/or lens and the length of the eyeball, resulting in sub-optimal reflection of light onto the retina. (NCI)", "preferredTerm": "Spherical Refractive Error", "submissionValue": "Spherical Refractive Error", "synonyms": ["Spherical Refractive Error"]}, {"conceptId": "C41145", "definition": "The dimension between two surfaces of an object, usually the smallest dimension as opposed to the width or the length.", "preferredTerm": "Thickness", "submissionValue": "Thickness", "synonyms": ["Thickness"]}, {"conceptId": "C120719", "definition": "The maximum number in a group of values that represent the thickness of an object.", "preferredTerm": "Maximum Thickness", "submissionValue": "Thickness, Maximum", "synonyms": ["Thickness, Maximum"]}, {"conceptId": "C120721", "definition": "The mean number in a group of values that represent the thickness of an object.", "preferredTerm": "Mean Thickness", "submissionValue": "Thickness, Mean", "synonyms": ["Thickness, Mean"]}, {"conceptId": "C120720", "definition": "The minimum number in a group of values that represent the thickness of an object.", "preferredTerm": "Minimum Thickness", "submissionValue": "Thickness, Minimum", "synonyms": ["Thickness, Minimum"]}, {"conceptId": "C120722", "definition": "The standard deviation in a group of values that represent the thickness of an object.", "preferredTerm": "Standard Deviation of Thickness", "submissionValue": "Thickness, Standard Deviation", "synonyms": ["Thickness, Standard Deviation"]}]}