{"_links": {"parentPackage": {"href": "/mdr/ct/packages/sdtmct-2017-06-30", "title": "SDTM Controlled Terminology Package 30 Effective 2017-06-30", "type": "Terminology"}, "priorVersion": {"href": "/mdr/ct/packages/sdtmct-2017-03-31/codelists/C119018", "title": "CDISC SDTM NHLBI Coronary Artery Dissection Grade Responses Terminology", "type": "Code List"}, "rootItem": {"href": "/mdr/root/ct/sdtmct/codelists/C119018", "title": "Version-agnostic anchor resource for codelist C119018", "type": "Root Value Domain"}, "self": {"href": "/mdr/ct/packages/sdtmct-2017-06-30/codelists/C119018", "title": "CDISC SDTM NHLBI Coronary Artery Dissection Grade Responses Terminology", "type": "Code List"}}, "conceptId": "C119018", "definition": "A terminology codelist relevant to the National Heart, Lung, and Blood Institute grade for coronary artery dissection and perforation.", "extensible": "false", "name": "Coronary Artery Dissection NHLBI Grade Responses", "preferredTerm": "CDISC SDTM NHLBI Coronary Artery Dissection Grade Responses Terminology", "submissionValue": "CADGRS", "synonyms": ["Coronary Artery Dissection NHLBI Grade Responses"], "terms": [{"conceptId": "C119588", "definition": "Minor radiolucencies within the lumen during contrast injection with no persistence after dye clearance. (Adapted from: Coronary artery angiographic changes after PTCA: Manual of Operations NHLBI PTCA Registry 1985-6:9)", "preferredTerm": "NHLBI Coronary Artery Dissection Type A", "submissionValue": "CORONARY DISSECTION NHLBI GRADE A"}, {"conceptId": "C119589", "definition": "Parallel tracts or double lumen separated by a radiolucent area during contrast injection with no persistence after dye clearance. (Adapted from: Coronary artery angiographic changes after PTCA: Manual of Operations NHLBI PTCA Registry 1985-6:9)", "preferredTerm": "NHLBI Coronary Artery Dissection Type B", "submissionValue": "CORONARY DISSECTION NHLBI GRADE B"}, {"conceptId": "C119590", "definition": "Extraluminal cap with persistence of contrast after dye clearance from the lumen. (Adapted from: Coronary artery angiographic changes after PTCA: Manual of Operations NHLBI PTCA Registry 1985-6:9)", "preferredTerm": "NHLBI Coronary Artery Dissection Type C", "submissionValue": "CORONARY DISSECTION NHLBI GRADE C"}, {"conceptId": "C119591", "definition": "Spiral luminal filling defect with delayed but complete distal flow. (Adapted from: Coronary artery angiographic changes after PTCA: Manual of Operations NHLBI PTCA Registry 1985-6:9)", "preferredTerm": "NHLBI Coronary Artery Dissection Type D", "submissionValue": "CORONARY DISSECTION NHLBI GRADE D"}, {"conceptId": "C119592", "definition": "New persistent filling defect with delayed antegrade flow. May represent thrombus. (Adapted from: Coronary artery angiographic changes after PTCA: Manual of Operations NHLBI PTCA Registry 1985-6:9)", "preferredTerm": "NHLBI Coronary Artery Dissection Type E", "submissionValue": "CORONARY DISSECTION NHLBI GRADE E"}, {"conceptId": "C119593", "definition": "Non-A-E types with total coronary occlusion and no distal antegrade flow. May represent thrombus. (Adapted from: Coronary artery angiographic changes after PTCA: Manual of Operations NHLBI PTCA Registry 1985-6:9)", "preferredTerm": "NHLBI Coronary Artery Dissection Type F", "submissionValue": "CORONARY DISSECTION NHLBI GRADE F"}]}