{"_links": {"parentPackage": {"href": "/mdr/ct/packages/sdtmct-2017-06-30", "title": "SDTM Controlled Terminology Package 30 Effective 2017-06-30", "type": "Terminology"}, "priorVersion": {"href": "/mdr/ct/packages/sdtmct-2017-03-31/codelists/C119017", "title": "CDISC SDTM Coronary Thrombus TIMI Grade Responses Terminology", "type": "Code List"}, "rootItem": {"href": "/mdr/root/ct/sdtmct/codelists/C119017", "title": "Version-agnostic anchor resource for codelist C119017", "type": "Root Value Domain"}, "self": {"href": "/mdr/ct/packages/sdtmct-2017-06-30/codelists/C119017", "title": "CDISC SDTM Coronary Thrombus TIMI Grade Responses Terminology", "type": "Code List"}}, "conceptId": "C119017", "definition": "A terminology codelist relevant to the Thrombolysis in Myocardial Infarction group grade for the description of coronary thrombus as visualized during angiography.", "extensible": "false", "name": "Coronary Thrombus TIMI Grade Responses", "preferredTerm": "CDISC SDTM Coronary Thrombus TIMI Grade Responses Terminology", "submissionValue": "CTTIMIRS", "synonyms": ["Coronary Thrombus TIMI Grade Responses"], "terms": [{"conceptId": "C119583", "definition": "Possible thrombus present - angiography demonstrates characteristics such as reduced contrast density, haziness, irregular lesion contour or a smooth convex 'meniscus' at the site of total occlusion suggestive but not diagnostic of thrombus. (Gibson, C. M., de Lemos, J. A., Murphy, S. A., Marble, S. J., McCabe, C. H., Cannon, C. P., Antman, E. M., Braunwald, E. Combination therapy with abciximab reduces angiographically evident thrombus in acute myocardial infarction: a TIMI 14 substudy Circulation. 2001;103(21):2550-4.)", "preferredTerm": "TIMI Coronary Thrombus Grade 1", "submissionValue": "CORONARY THROMBUS TIMI GRADE 1"}, {"conceptId": "C119584", "definition": "Small size definite thrombus, with greatest dimensions less than or equal to 1/2 vessel diameter. (Gibson, C. M., de Lemos, J. A., Murphy, S. A., Marble, S. J., McCabe, C. H., Cannon, C. P., Antman, E. M., Braunwald, E. Combination therapy with abciximab reduces angiographically evident thrombus in acute myocardial infarction: a TIMI 14 substudy Circulation. 2001;103(21):2550-4.)", "preferredTerm": "TIMI Coronary Thrombus Grade 2", "submissionValue": "CORONARY THROMBUS TIMI GRADE 2"}, {"conceptId": "C119585", "definition": "Moderate size definite thrombus, with greatest linear dimension greater than 1/2 but less than 2 vessel diameters. (Gibson, C. M., de Lemos, J. A., Murphy, S. A., Marble, S. J., McCabe, C. H., Cannon, C. P., Antman, E. M., Braunwald, E. Combination therapy with abciximab reduces angiographically evident thrombus in acute myocardial infarction: a TIMI 14 substudy Circulation. 2001;103(21):2550-4.)", "preferredTerm": "TIMI Coronary Thrombus Grade 3", "submissionValue": "CORONARY THROMBUS TIMI GRADE 3"}, {"conceptId": "C119586", "definition": "Large size definite thrombus, with the largest dimension greater than or equal to 2 vessel diameters. (Gibson, C. M., de Lemos, J. A., Murphy, S. A., Marble, S. J., McCabe, C. H., Cannon, C. P., Antman, E. M., Braunwald, E. Combination therapy with abciximab reduces angiographically evident thrombus in acute myocardial infarction: a TIMI 14 substudy Circulation. 2001;103(21):2550-4.)", "preferredTerm": "TIMI Coronary Thrombus Grade 4", "submissionValue": "CORONARY THROMBUS TIMI GRADE 4"}, {"conceptId": "C119587", "definition": "Total vessel occlusion. (Gibson, C. M., de Lemos, J. A., Murphy, S. A., Marble, S. J., McCabe, C. H., Cannon, C. P., Antman, E. M., Braunwald, E. Combination therapy with abciximab reduces angiographically evident thrombus in acute myocardial infarction: a TIMI 14 substudy Circulation. 2001;103(21):2550-4.)", "preferredTerm": "TIMI Coronary Thrombus Grade 5", "submissionValue": "CORONARY THROMBUS TIMI GRADE 5"}]}