{"_links": {"parentPackage": {"href": "/mdr/ct/packages/sdtmct-2017-06-30", "title": "SDTM Controlled Terminology Package 30 Effective 2017-06-30", "type": "Terminology"}, "priorVersion": {"href": "/mdr/ct/packages/sdtmct-2017-03-31/codelists/C120527", "title": "CDISC SDTM Microbiology Test Code Terminology", "type": "Code List"}, "rootItem": {"href": "/mdr/root/ct/sdtmct/codelists/C120527", "title": "Version-agnostic anchor resource for codelist C120527", "type": "Root Value Domain"}, "self": {"href": "/mdr/ct/packages/sdtmct-2017-06-30/codelists/C120527", "title": "CDISC SDTM Microbiology Test Code Terminology", "type": "Code List"}}, "conceptId": "C120527", "definition": "Terminology relevant to the microbiology test codes of the CDISC Study Data Tabulation Model.", "extensible": "true", "name": "Microbiology Test Code", "preferredTerm": "CDISC SDTM Microbiology Test Code Terminology", "submissionValue": "MBTESTCD", "synonyms": ["Microbiology Test Code"], "terms": [{"conceptId": "C128981", "definition": "A measurement of any rod-shaped bacteria that resist decolorizing by acid after accepting an aqueous stain solution, due to the mycolic acids in their cell walls.", "preferredTerm": "Acid-Fast Bacilli Measurement", "submissionValue": "AFB", "synonyms": ["Acid-Fast Bacilli"]}, {"conceptId": "C135409", "definition": "A measurement of a targeted deoxyribonucleic acid (DNA) in a biological specimen.", "preferredTerm": "Deoxyribonucleic Acid Measurement", "submissionValue": "DNA", "synonyms": ["Deoxyribonucleic Acid"]}, {"conceptId": "C135410", "definition": "A measurement of the Ebola virus IgM antibodies in a biological specimen.", "preferredTerm": "Ebola Virus IgM Antibody Measurement", "submissionValue": "EBOIGMAB", "synonyms": ["Ebola Virus IgM Antibody"]}, {"conceptId": "C120677", "definition": "A measurement of the influenza A antigen in a biological specimen.", "preferredTerm": "Influenza A Antigen Measurement", "submissionValue": "INFAAG", "synonyms": ["Influenza A Antigen"]}, {"conceptId": "C120678", "definition": "A measurement of the influenza A/B antigen in a biological specimen.", "preferredTerm": "Influenza A/B Antigen Measurement", "submissionValue": "INFABAG", "synonyms": ["Influenza A/B Antigen"]}, {"conceptId": "C120679", "definition": "A measurement of the influenza B antigen in a biological specimen.", "preferredTerm": "Influenza B Antigen Measurement", "submissionValue": "INFBAG", "synonyms": ["Influenza B Antigen"]}, {"conceptId": "C132416", "definition": "The identification of the type of a microbial organism in a biological specimen.", "preferredTerm": "Microoganism Detection", "submissionValue": "MCORGDET", "synonyms": ["Microbial Organism Detected"]}, {"conceptId": "C128982", "definition": "A measurement of the organisms assignable to the Mycobacterium tuberculosis species in a biological specimen.", "preferredTerm": "Mycobacterium Tuberculosis Measurement", "submissionValue": "MTB", "synonyms": ["Mycobacterium Tuberculosis"]}, {"conceptId": "C128983", "definition": "A measurement of the organisms assignable to the Mycobacterium tuberculosis complex in a biological specimen.", "preferredTerm": "Mycobacterium Tuberculosis Complex Measurement", "submissionValue": "MTBCMPLX", "synonyms": ["Mycobacterium Tuberculosis Complex"]}, {"conceptId": "C132417", "definition": "A measurement of the Plasmodium knowlesi in a asexual replication stage in a biological specimen.", "preferredTerm": "Asexual Plasmodium knowlesi Measurement", "submissionValue": "PKNOWLA", "synonyms": ["Plasmodium knowlesi, Asexual"]}, {"conceptId": "C132418", "definition": "A measurement of the Plasmodium knowlesi in a sexual replication stage in a biological specimen.", "preferredTerm": "Sexual Plasmodium knowlesi Measurement", "submissionValue": "PKNOWLS", "synonyms": ["Plasmodium knowlesi, Sexual"]}, {"conceptId": "C132419", "definition": "The identification below the species level of an organism in a biological specimen.", "preferredTerm": "Taxonomic Identification Below Species Level", "submissionValue": "TXIDBSL", "synonyms": ["Taxonomic Ident Below Species Level"]}, {"conceptId": "C132420", "definition": "A measurement of the Zaire ebolavirus present in a biological specimen.", "preferredTerm": "Zaire Ebolavirus Measurement", "submissionValue": "ZEBOV", "synonyms": ["Zaire Ebolavirus"]}]}