{"_links": {"parentPackage": {"href": "/mdr/ct/packages/sdtmct-2017-06-30", "title": "SDTM Controlled Terminology Package 30 Effective 2017-06-30", "type": "Terminology"}, "priorVersion": {"href": "/mdr/ct/packages/sdtmct-2017-03-31/codelists/C124676", "title": "CDISC Clinical Classification WHO Clinical Staging of HIV/AIDS for Children Test Code Terminology", "type": "Code List"}, "rootItem": {"href": "/mdr/root/ct/sdtmct/codelists/C124676", "title": "Version-agnostic anchor resource for codelist C124676", "type": "Root Value Domain"}, "self": {"href": "/mdr/ct/packages/sdtmct-2017-06-30/codelists/C124676", "title": "CDISC Clinical Classification WHO Clinical Staging of HIV/AIDS for Children Test Code Terminology", "type": "Code List"}}, "conceptId": "C124676", "definition": "WHO Clinical Staging of HIV/AIDS for Children test code.", "extensible": "false", "name": "WHO Clinical Staging of HIV/AIDS for Children Clinical Classification Test Code", "preferredTerm": "CDISC Clinical Classification WHO Clinical Staging of HIV/AIDS for Children Test Code Terminology", "submissionValue": "WHIVS2TC", "synonyms": ["WHO Clinical Staging of HIV/AIDS for Children Clinical Classification Test Code"], "terms": [{"conceptId": "C124778", "definition": "WHO Clinical Staging of HIV/AIDS for Children - WHO clinical stage of HIV/AIDS.", "preferredTerm": "WHO Clinical Staging of HIV/AIDS for Children - WHO Clinical Stage of HIV/AIDS", "submissionValue": "WHIVS201", "synonyms": ["WHIVS2-WHO Clinical Stage of HIV/AIDS"]}]}