{"_links": {"parentPackage": {"href": "/mdr/ct/packages/sdtmct-2017-06-30", "title": "SDTM Controlled Terminology Package 30 Effective 2017-06-30", "type": "Terminology"}, "priorVersion": {"href": "/mdr/ct/packages/sdtmct-2017-03-31/codelists/C124672", "title": "CDISC Clinical Classification Reynolds CVD 10-Year Risk Score Test Code Terminology", "type": "Code List"}, "rootItem": {"href": "/mdr/root/ct/sdtmct/codelists/C124672", "title": "Version-agnostic anchor resource for codelist C124672", "type": "Root Value Domain"}, "self": {"href": "/mdr/ct/packages/sdtmct-2017-06-30/codelists/C124672", "title": "CDISC Clinical Classification Reynolds CVD 10-Year Risk Score Test Code Terminology", "type": "Code List"}}, "conceptId": "C124672", "definition": "Reynolds Cardiovascular Disease 10-Year Risk Score test code.", "extensible": "false", "name": "Reynolds Cardiovascular Disease 10-Year Risk Score Clinical Classification Test Code", "preferredTerm": "CDISC Clinical Classification Reynolds CVD 10-Year Risk Score Test Code Terminology", "submissionValue": "RCVD01TC", "synonyms": ["Reynolds Cardiovascular Disease 10-Year Risk Score Clinical Classification Test Code"], "terms": [{"conceptId": "C124723", "definition": "Reynolds Cardiovascular Disease 10-Year Risk Score - Cardiovascular disease 10-year risk score.", "preferredTerm": "Reynolds CVD 10-Year Risk Score - Risk Score", "submissionValue": "RCVD0101", "synonyms": ["RCVD01-Reynolds CVD 10-Year Risk Score"]}]}