{"_links": {"parentPackage": {"href": "/mdr/ct/packages/sdtmct-2017-06-30", "title": "SDTM Controlled Terminology Package 30 Effective 2017-06-30", "type": "Terminology"}, "priorVersion": {"href": "/mdr/ct/packages/sdtmct-2017-03-31/codelists/C127260", "title": "CDISC SDTM Observational Study Sampling Method Terminology", "type": "Code List"}, "rootItem": {"href": "/mdr/root/ct/sdtmct/codelists/C127260", "title": "Version-agnostic anchor resource for codelist C127260", "type": "Root Value Domain"}, "self": {"href": "/mdr/ct/packages/sdtmct-2017-06-30/codelists/C127260", "title": "CDISC SDTM Observational Study Sampling Method Terminology", "type": "Code List"}}, "conceptId": "C127260", "definition": "The terminology relevant to the method by which the study population is selected in an observational study.", "extensible": "true", "name": "Observational Study Sampling Method", "preferredTerm": "CDISC SDTM Observational Study Sampling Method Terminology", "submissionValue": "OBSSSM", "synonyms": ["Observational Study Sampling Method"], "terms": [{"conceptId": "C127781", "definition": "A non-random process used to select a study population in which the participants have been selected based on convenience or with a particular purpose in mind.", "preferredTerm": "Non-Probability Sampling Method", "submissionValue": "NON-PROBABILITY SAMPLE"}, {"conceptId": "C71517", "definition": "An exclusively random process to guarantee that each participant or population has specified chance of selection, such as simple random sampling, systematic sampling, stratified random sampling, cluster sampling, and consecutive patient sampling. (clinicaltrials.gov)", "preferredTerm": "Equal Probability Sampling Method", "submissionValue": "PROBABILITY SAMPLE"}]}