{"_links": {"parentPackage": {"href": "/mdr/ct/packages/sdtmct-2017-06-30", "title": "SDTM Controlled Terminology Package 30 Effective 2017-06-30", "type": "Terminology"}, "priorVersion": {"href": "/mdr/ct/packages/sdtmct-2017-03-31/codelists/C127257", "title": "CDISC SDTM Contact Role for Clinical Study Terminology", "type": "Code List"}, "rootItem": {"href": "/mdr/root/ct/sdtmct/codelists/C127257", "title": "Version-agnostic anchor resource for codelist C127257", "type": "Root Value Domain"}, "self": {"href": "/mdr/ct/packages/sdtmct-2017-06-30/codelists/C127257", "title": "CDISC SDTM Contact Role for Clinical Study Terminology", "type": "Code List"}}, "conceptId": "C127257", "definition": "The terminology relevant to the role that the responsible individual or entity plays with respect to being a contact for the study.", "extensible": "true", "name": "Contact Role for Clinical Study", "preferredTerm": "CDISC SDTM Contact Role for Clinical Study Terminology", "submissionValue": "CONROL", "synonyms": ["Contact Role for Clinical Study"], "terms": [{"conceptId": "C127522", "definition": "The person responsible for the competent authority application.", "preferredTerm": "Competent Authority Applicant", "submissionValue": "CA APPLICANT"}, {"conceptId": "C127523", "definition": "The contact person providing centralized, coordinated recruitment information for the entire study. (clinicaltrials.gov)", "preferredTerm": "Central Contact for Recruitment", "submissionValue": "CENTRAL CONTACT FOR RECRUITMENT"}, {"conceptId": "C127524", "definition": "The secondary contact person providing centralized, coordinated recruitment information for the entire study. (clinicaltrials.gov)", "preferredTerm": "Central Contact for Recruitment Backup", "submissionValue": "CENTRAL CONTACT FOR RECRUITMENT BACKUP"}, {"conceptId": "C127525", "definition": "The main or principal contact person for the clinical investigator network.", "preferredTerm": "Clinical Investigator Network Contact", "submissionValue": "CLINICAL NETWORK CONTACT"}, {"conceptId": "C127526", "definition": "The study contact person who is responsible for questions from the public.", "preferredTerm": "Public Queries Study Contact", "submissionValue": "CONTACT FOR PUBLIC QUERIES"}, {"conceptId": "C127527", "definition": "The study contact person who is responsible for questions from the scientific community.", "preferredTerm": "Scientific Queries Study Contact", "submissionValue": "CONTACT FOR SCIENTIFIC QUERIES"}, {"conceptId": "C127528", "definition": "The main or principal contact person at the facility.", "preferredTerm": "Facility Contact", "submissionValue": "FACILITY CONTACT"}, {"conceptId": "C127529", "definition": "The secondary contact person at the facility.", "preferredTerm": "Facility Contact Backup", "submissionValue": "FACILITY CONTACT BACKUP"}, {"conceptId": "C127530", "definition": "The contact person responsible for disseminating additional information about the study.", "preferredTerm": "Study Further Information Contact", "submissionValue": "FURTHER INFORMATION CONTACT"}, {"conceptId": "C127531", "definition": "The person responsible for the independent ethics committee application.", "preferredTerm": "Independent Ethics Committee Applicant", "submissionValue": "IEC APPLICANT"}, {"conceptId": "C127532", "definition": "An individual with expertise in the law who provides legal counsel and representation for a study.", "preferredTerm": "Legal Representative for the Study", "submissionValue": "LEGAL REPRESENTATIVE FOR THE STUDY"}, {"conceptId": "C127533", "definition": "The main or principal contact person for the study.", "preferredTerm": "Primary Study Contact", "submissionValue": "PRIMARY CONTACT"}, {"conceptId": "C51878", "definition": "A person who has overall responsibility for the technical conduct of a study, as well as for the interpretation, analysis, documentation and reporting of results, and represents the single point of study control. (FDA)", "preferredTerm": "Study Chair", "submissionValue": "STUDY CHAIR", "synonyms": ["Study Director"]}, {"conceptId": "C127534", "definition": "The main or principal contact person for the subcontractor or subcontracting organization.", "preferredTerm": "Subcontractor Contact", "submissionValue": "SUBCONTRACTOR CONTACT"}, {"conceptId": "C54622", "definition": "Any member of the clinical trial team designated and supervised by the investigator at a trial site to perform critical trial-related procedures and/or to make important trial-related decisions (e.g., associates, residents, research fellows). (ICH)", "preferredTerm": "Subinvestigator", "submissionValue": "SUBINVESTIGATOR"}]}