{"_links": {"parentPackage": {"href": "/mdr/ct/packages/sdtmct-2017-06-30", "title": "SDTM Controlled Terminology Package 30 Effective 2017-06-30", "type": "Terminology"}, "priorVersion": {"href": "/mdr/ct/packages/sdtmct-2017-03-31/codelists/C130266", "title": "CDISC Questionnaire Q-LES-Q-SF Test Name Terminology", "type": "Code List"}, "rootItem": {"href": "/mdr/root/ct/sdtmct/codelists/C130266", "title": "Version-agnostic anchor resource for codelist C130266", "type": "Root Value Domain"}, "self": {"href": "/mdr/ct/packages/sdtmct-2017-06-30/codelists/C130266", "title": "CDISC Questionnaire Q-LES-Q-SF Test Name Terminology", "type": "Code List"}}, "conceptId": "C130266", "definition": "Quality Of Life Enjoyment And Satisfaction Questionnaire - Short Form test name.", "extensible": "false", "name": "Quality Of Life Enjoyment And Satisfaction Questionnaire - Short Form Test Name", "preferredTerm": "CDISC Questionnaire Q-LES-Q-SF Test Name Terminology", "submissionValue": "QLES2TN", "synonyms": ["Quality Of Life Enjoyment And Satisfaction Questionnaire - Short Form Test Name"], "terms": [{"conceptId": "C130712", "definition": "Quality Of Life Enjoyment And Satisfaction Questionnaire - Short Form - Taking everything into consideration, during the past week how satisfied have you been with your: Ability to function in daily life?", "preferredTerm": "Q-LES-Q-SF - Ability to Function in Daily Life", "submissionValue": "QLES2-Ability to Function in Daily Life", "synonyms": ["QLES2-Ability to Function in Daily Life"]}, {"conceptId": "C130716", "definition": "Quality Of Life Enjoyment And Satisfaction Questionnaire - Short Form - Taking everything into consideration, during the past week how satisfied have you been with your: Ability to get around physically without feeling dizzy or unsteady or falling?", "preferredTerm": "Q-LES-Q-SF - Ability to Get Around Physically", "submissionValue": "QLES2-Ability to Get Around Physically", "synonyms": ["QLES2-Ability to Get Around Physically"]}, {"conceptId": "C130714", "definition": "Quality Of Life Enjoyment And Satisfaction Questionnaire - Short Form - Taking everything into consideration, during the past week how satisfied have you been with your: Economic status?", "preferredTerm": "Q-LES-Q-SF - Economic Status", "submissionValue": "QLES2-Economic Status", "synonyms": ["QLES2-Economic Status"]}, {"conceptId": "C130710", "definition": "Quality Of Life Enjoyment And Satisfaction Questionnaire - Short Form - Taking everything into consideration, during the past week how satisfied have you been with your: Family relationships?", "preferredTerm": "Q-LES-Q-SF - Family Relationships", "submissionValue": "QLES2-Family Relationships", "synonyms": ["QLES2-Family Relationships"]}, {"conceptId": "C130708", "definition": "Quality Of Life Enjoyment And Satisfaction Questionnaire - Short Form - Taking everything into consideration, during the past week how satisfied have you been with your: Household activities?", "preferredTerm": "Q-LES-Q-SF - Household Activities", "submissionValue": "QLES2-Household Activities", "synonyms": ["QLES2-Household Activities"]}, {"conceptId": "C130711", "definition": "Quality Of Life Enjoyment And Satisfaction Questionnaire - Short Form - Taking everything into consideration, during the past week how satisfied have you been with your: Leisure time activities?", "preferredTerm": "Q-LES-Q-SF - Leisure Time Activities", "submissionValue": "QLES2-Leisure Time Activities", "synonyms": ["QLES2-Leisure Time Activities"]}, {"conceptId": "C130715", "definition": "Quality Of Life Enjoyment And Satisfaction Questionnaire - Short Form - Taking everything into consideration, during the past week how satisfied have you been with your: Living/housing situation?", "preferredTerm": "Q-LES-Q-SF - Living or Housing Situation", "submissionValue": "QLES2-Living/Housing Situation", "synonyms": ["QLES2-Living/Housing Situation"]}, {"conceptId": "C130719", "definition": "Quality Of Life Enjoyment And Satisfaction Questionnaire - Short Form - Taking everything into consideration, during the past week how satisfied have you been with your: Medication?", "preferredTerm": "Q-LES-Q-SF - Medication", "submissionValue": "QLES2-Medication", "synonyms": ["QLES2-Medication"]}, {"conceptId": "C130706", "definition": "Quality Of Life Enjoyment And Satisfaction Questionnaire - Short Form - Taking everything into consideration, during the past week how satisfied have you been with your: Mood?", "preferredTerm": "Q-LES-Q-SF - Mood", "submissionValue": "QLES2-Mood", "synonyms": ["QLES2-Mood"]}, {"conceptId": "C130718", "definition": "Quality Of Life Enjoyment And Satisfaction Questionnaire - Short Form - Taking everything into consideration, during the past week how satisfied have you been with your: Overall sense of well being?", "preferredTerm": "Q-LES-Q-SF - Overall Sense of Well Being", "submissionValue": "QLES2-Overall Sense of Well Being", "synonyms": ["QLES2-Overall Sense of Well Being"]}, {"conceptId": "C130705", "definition": "Quality Of Life Enjoyment And Satisfaction Questionnaire - Short Form - Taking everything into consideration, during the past week how satisfied have you been with your: Physical health?", "preferredTerm": "Q-LES-Q-SF - Physical Health", "submissionValue": "QLES2-Physical Health", "synonyms": ["QLES2-Physical Health"]}, {"conceptId": "C130720", "definition": "Quality Of Life Enjoyment And Satisfaction Questionnaire - Short Form - How would you rate your overall life satisfaction and contentment during the past week?", "preferredTerm": "Q-LES-Q-SF - Rate Overall Life Satisfaction", "submissionValue": "QLES2-Rate Overall Life Satisfaction", "synonyms": ["QLES2-Rate Overall Life Satisfaction"]}, {"conceptId": "C130713", "definition": "Quality Of Life Enjoyment And Satisfaction Questionnaire - Short Form - Taking everything into consideration, during the past week how satisfied have you been with your: Sexual drive, interest and/or performance?", "preferredTerm": "Q-LES-Q-SF - Sex Drive, Interest, Performance", "submissionValue": "QLES2-Sex Drive, Interest, Performance", "synonyms": ["QLES2-Sex Drive, Interest, Performance"]}, {"conceptId": "C130709", "definition": "Quality Of Life Enjoyment And Satisfaction Questionnaire - Short Form - Taking everything into consideration, during the past week how satisfied have you been with your: Social relationships?", "preferredTerm": "Q-LES-Q-SF - Social Relationships", "submissionValue": "QLES2-Social Relationships", "synonyms": ["QLES2-Social Relationships"]}, {"conceptId": "C130717", "definition": "Quality Of Life Enjoyment And Satisfaction Questionnaire - Short Form - Taking everything into consideration, during the past week how satisfied have you been with your: Your vision in terms of ability to do work or hobbies?", "preferredTerm": "Q-LES-Q-SF - Vision Ability to Do Work or Hobbies", "submissionValue": "QLES2-Vision Ability to Do Work/Hobbies", "synonyms": ["QLES2-Vision Ability to Do Work/Hobbies"]}, {"conceptId": "C130707", "definition": "Quality Of Life Enjoyment And Satisfaction Questionnaire - Short Form - Taking everything into consideration, during the past week how satisfied have you been with your: Work?", "preferredTerm": "Q-LES-Q-SF - Work", "submissionValue": "QLES2-Work", "synonyms": ["QLES2-Work"]}]}