{"_links": {"parentPackage": {"href": "/mdr/ct/packages/sdtmct-2017-06-30", "title": "SDTM Controlled Terminology Package 30 Effective 2017-06-30", "type": "Terminology"}, "priorVersion": {"href": "/mdr/ct/packages/sdtmct-2017-03-31/codelists/C132517", "title": "CDISC Clinical Classification NSAA Test Code Terminology", "type": "Code List"}, "rootItem": {"href": "/mdr/root/ct/sdtmct/codelists/C132517", "title": "Version-agnostic anchor resource for codelist C132517", "type": "Root Value Domain"}, "self": {"href": "/mdr/ct/packages/sdtmct-2017-06-30/codelists/C132517", "title": "CDISC Clinical Classification NSAA Test Code Terminology", "type": "Code List"}}, "conceptId": "C132517", "definition": "North Star Ambulatory Assessment test code.", "extensible": "false", "name": "North Star Ambulatory Assessment Clinical Classification Test Code", "preferredTerm": "CDISC Clinical Classification NSAA Test Code Terminology", "submissionValue": "NSAA1TC", "synonyms": ["North Star Ambulatory Assessment Clinical Classification Test Code"], "terms": [{"conceptId": "C132536", "definition": "North Star Ambulatory Assessment - Can you stand up tall for me for as long as you can and as still as you can.", "preferredTerm": "NSAA - Stand", "submissionValue": "NSAA101", "synonyms": ["NSAA1-Stand"]}, {"conceptId": "C132537", "definition": "North Star Ambulatory Assessment - Can you walk from A to B (state to and where from) for me.", "preferredTerm": "NSAA - Walk", "submissionValue": "NSAA102", "synonyms": ["NSAA1-Walk"]}, {"conceptId": "C132538", "definition": "North Star Ambulatory Assessment - Stand up from the chair keeping your arms folded if you can.", "preferredTerm": "NSAA - Stand Up From Chair", "submissionValue": "NSAA103", "synonyms": ["NSAA1-Stand Up From Chair"]}, {"conceptId": "C132539", "definition": "North Star Ambulatory Assessment - Can you stand on your right leg for as long as you can?", "preferredTerm": "NSAA - Stand on One Leg - Right", "submissionValue": "NSAA104", "synonyms": ["NSAA1-Stand on One Leg - Right"]}, {"conceptId": "C132540", "definition": "North Star Ambulatory Assessment - Can you stand on your left leg for as long as you can?", "preferredTerm": "NSAA - Stand on One Leg - Left", "submissionValue": "NSAA105", "synonyms": ["NSAA1-Stand on One Leg - Left"]}, {"conceptId": "C132541", "definition": "North Star Ambulatory Assessment - Can you step onto the top of the box using your right leg first?", "preferredTerm": "NSAA - Climb Box Step - Right", "submissionValue": "NSAA106", "synonyms": ["NSAA1-Climb Box Step - Right"]}, {"conceptId": "C132542", "definition": "North Star Ambulatory Assessment - Can you step onto the top of the box using your left leg first?", "preferredTerm": "NSAA - Climb Box Step - Left", "submissionValue": "NSAA107", "synonyms": ["NSAA1-Climb Box Step - Left"]}, {"conceptId": "C132543", "definition": "North Star Ambulatory Assessment - Can you step down from the box using your right leg first?", "preferredTerm": "NSAA - Descend Box Step - Right", "submissionValue": "NSAA108", "synonyms": ["NSAA1-Descend Box Step - Right"]}, {"conceptId": "C132544", "definition": "North Star Ambulatory Assessment - Can you step down from the box using your left leg first?", "preferredTerm": "NSAA - Descend Box Step - Left", "submissionValue": "NSAA109", "synonyms": ["NSAA1-Descend Box Step - Left"]}, {"conceptId": "C132545", "definition": "North Star Ambulatory Assessment - Can you get from lying to sitting?", "preferredTerm": "NSAA - Gets to Sitting", "submissionValue": "NSAA110", "synonyms": ["NSAA1-Gets to Sitting"]}, {"conceptId": "C132546", "definition": "North Star Ambulatory Assessment - Get up from the floor using as little support as possible and as fast as you can (from supine).", "preferredTerm": "NSAA - Rise From Floor", "submissionValue": "NSAA111", "synonyms": ["NSAA1-Rise From Floor"]}, {"conceptId": "C132547", "definition": "North Star Ambulatory Assessment - Time to get up from the floor using as little support as possible and as fast as you can (from supine) (seconds).", "preferredTerm": "NSAA - Rise From Floor Time", "submissionValue": "NSAA111A", "synonyms": ["NSAA1-Rise From Floor Time"]}, {"conceptId": "C132548", "definition": "North Star Ambulatory Assessment - Lift your head to look at your toes keeping your arms folded.", "preferredTerm": "NSAA - Lifts Head", "submissionValue": "NSAA112", "synonyms": ["NSAA1-Lifts Head"]}, {"conceptId": "C132549", "definition": "North Star Ambulatory Assessment - Can you stand on your heels?", "preferredTerm": "NSAA - Stands on Heels", "submissionValue": "NSAA113", "synonyms": ["NSAA1-Stands on Heels"]}, {"conceptId": "C132550", "definition": "North Star Ambulatory Assessment - How high can you jump?", "preferredTerm": "NSAA - Jump", "submissionValue": "NSAA114", "synonyms": ["NSAA1-Jump"]}, {"conceptId": "C132551", "definition": "North Star Ambulatory Assessment - Can you hop on your right leg?", "preferredTerm": "NSAA - Hop Right Leg", "submissionValue": "NSAA115", "synonyms": ["NSAA1-Hop Right Leg"]}, {"conceptId": "C132552", "definition": "North Star Ambulatory Assessment - Can you hop on your left leg?", "preferredTerm": "NSAA - Hop Left Leg", "submissionValue": "NSAA116", "synonyms": ["NSAA1-Hop Left Leg"]}, {"conceptId": "C132553", "definition": "North Star Ambulatory Assessment - Run as fast as you can to......(give point).", "preferredTerm": "NSAA - Run (10m)", "submissionValue": "NSAA117", "synonyms": ["NSAA1-Run (10m)"]}, {"conceptId": "C132554", "definition": "North Star Ambulatory Assessment - Time to run as fast as you can (seconds).", "preferredTerm": "NSAA - Run (10m) Time", "submissionValue": "NSAA117A", "synonyms": ["NSAA1-Run (10m) Time"]}, {"conceptId": "C132555", "definition": "North Star Ambulatory Assessment - Total.", "preferredTerm": "NSAA - Total", "submissionValue": "NSAA118", "synonyms": ["NSAA1-Total"]}]}