{"_links": {"parentPackage": {"href": "/mdr/ct/packages/sdtmct-2017-06-30", "title": "SDTM Controlled Terminology Package 30 Effective 2017-06-30", "type": "Terminology"}, "priorVersion": {"href": "/mdr/ct/packages/sdtmct-2017-03-31/codelists/C132520", "title": "CDISC Questionnaire EPDS Test Name Terminology", "type": "Code List"}, "rootItem": {"href": "/mdr/root/ct/sdtmct/codelists/C132520", "title": "Version-agnostic anchor resource for codelist C132520", "type": "Root Value Domain"}, "self": {"href": "/mdr/ct/packages/sdtmct-2017-06-30/codelists/C132520", "title": "CDISC Questionnaire EPDS Test Name Terminology", "type": "Code List"}}, "conceptId": "C132520", "definition": "Edinburgh Postnatal Depression Scale test name.", "extensible": "false", "name": "Edinburgh Postnatal Depression Scale Questionnaire Test Name", "preferredTerm": "CDISC Questionnaire EPDS Test Name Terminology", "submissionValue": "EPDS01TN", "synonyms": ["Edinburgh Postnatal Depression Scale Questionnaire Test Name"], "terms": [{"conceptId": "C132563", "definition": "Edinburgh Postnatal Depression Scale - I have been able to laugh and see the funny side of things.", "preferredTerm": "EPDS - Able to Laugh and See Funny Side", "submissionValue": "EPDS01-Able to Laugh and See Funny Side", "synonyms": ["EPDS01-Able to Laugh and See Funny Side"]}, {"conceptId": "C132566", "definition": "Edinburgh Postnatal Depression Scale - I have been anxious or worried for no good reason.", "preferredTerm": "EPDS - Anxious or Worried No Good Reason", "submissionValue": "EPDS01-Anxious/Worried No Good Reason", "synonyms": ["EPDS01-Anxious/Worried No Good Reason"]}, {"conceptId": "C132565", "definition": "Edinburgh Postnatal Depression Scale - I have blamed myself unnecessarily when things went wrong.", "preferredTerm": "EPDS - Blamed Myself Unnecessarily", "submissionValue": "EPDS01-Blamed Myself Unnecessarily", "synonyms": ["EPDS01-Blamed Myself Unnecessarily"]}, {"conceptId": "C132570", "definition": "Edinburgh Postnatal Depression Scale - I have felt sad or miserable.", "preferredTerm": "EPDS - I Have Felt Sad or Miserable", "submissionValue": "EPDS01-I Have Felt Sad or Miserable", "synonyms": ["EPDS01-I Have Felt Sad or Miserable"]}, {"conceptId": "C132564", "definition": "Edinburgh Postnatal Depression Scale - I have looked forward with enjoyment to things.", "preferredTerm": "EPDS - Looked Forward With Enjoyment", "submissionValue": "EPDS01-Looked Forward With Enjoyment", "synonyms": ["EPDS01-Looked Forward With Enjoyment"]}, {"conceptId": "C132567", "definition": "Edinburgh Postnatal Depression Scale - I have felt scared or panicky for no very good reason.", "preferredTerm": "EPDS - Scared or Panicky for No Good Reason", "submissionValue": "EPDS01-Scared/Panicky for No Good Reason", "synonyms": ["EPDS01-Scared/Panicky for No Good Reason"]}, {"conceptId": "C132571", "definition": "Edinburgh Postnatal Depression Scale - I have been so unhappy that I have been crying.", "preferredTerm": "EPDS - So Unhappy I Have Been Crying", "submissionValue": "EPDS01-So Unhappy I Have Been Crying", "synonyms": ["EPDS01-So Unhappy I Have Been Crying"]}, {"conceptId": "C132568", "definition": "Edinburgh Postnatal Depression Scale - Things have been getting on top of me.", "preferredTerm": "EPDS - Things Getting on Top of Me", "submissionValue": "EPDS01-Things Getting on Top of Me", "synonyms": ["EPDS01-Things Getting on Top of Me"]}, {"conceptId": "C132572", "definition": "Edinburgh Postnatal Depression Scale - The thought of harming myself has occurred to me.", "preferredTerm": "EPDS - Thought of Harming Myself", "submissionValue": "EPDS01-Thought of Harming Myself", "synonyms": ["EPDS01-Thought of Harming Myself"]}, {"conceptId": "C132569", "definition": "Edinburgh Postnatal Depression Scale - I have been so unhappy that I have had difficulty sleeping.", "preferredTerm": "EPDS - Unhappy Had Difficulty Sleeping", "submissionValue": "EPDS01-Unhappy Had Difficulty Sleeping", "synonyms": ["EPDS01-Unhappy Had Difficulty Sleeping"]}]}