{"_links": {"parentPackage": {"href": "/mdr/ct/packages/sdtmct-2017-06-30", "title": "SDTM Controlled Terminology Package 30 Effective 2017-06-30", "type": "Terminology"}, "rootItem": {"href": "/mdr/root/ct/sdtmct/codelists/C135684", "title": "Version-agnostic anchor resource for codelist C135684", "type": "Root Value Domain"}, "self": {"href": "/mdr/ct/packages/sdtmct-2017-06-30/codelists/C135684", "title": "CDISC Questionnaire CGI Original Version Test Code Terminology", "type": "Code List"}}, "conceptId": "C135684", "definition": "Clinical Global Impression test code.", "extensible": "false", "name": "Clinical Global Impression Questionnaire Test Code", "preferredTerm": "CDISC Questionnaire CGI Original Version Test Code Terminology", "submissionValue": "CGGUY1TC", "synonyms": ["Clinical Global Impression Questionnaire Test Code"], "terms": [{"conceptId": "C135811", "definition": "Clinical Global Impression Guy - Considering your total clinical experience with this particular population, how mentally ill is the patient at this time?", "preferredTerm": "CGI Original Version - Severity of Illness", "submissionValue": "CGGUY101", "synonyms": ["CGGUY1-Severity of Illness"]}, {"conceptId": "C135812", "definition": "Clinical Global Impression Guy - Rate total improvement whether or not, in your judgement, it is due entirely to drug treatment. Compared to his condition at admission to the project, how much has he changed?", "preferredTerm": "CGI Original Version - Global Improvement", "submissionValue": "CGGUY102", "synonyms": ["CGGUY1-Global Improvement"]}, {"conceptId": "C135813", "definition": "Clinical Global Impression Guy - Rate this item on the basis of drug effect only. Select the terms which best describe the degrees of therapeutic effect and side effects.", "preferredTerm": "CGI Original Version - Efficacy Index", "submissionValue": "CGGUY103", "synonyms": ["CGGUY1-Efficacy Index"]}]}