{"_links": {"parentPackage": {"href": "/mdr/ct/packages/sdtmct-2017-06-30", "title": "SDTM Controlled Terminology Package 30 Effective 2017-06-30", "type": "Terminology"}, "rootItem": {"href": "/mdr/root/ct/sdtmct/codelists/C135700", "title": "Version-agnostic anchor resource for codelist C135700", "type": "Root Value Domain"}, "self": {"href": "/mdr/ct/packages/sdtmct-2017-06-30/codelists/C135700", "title": "CDISC Questionnaire RAND Social Support Survey Test Code Terminology", "type": "Code List"}}, "conceptId": "C135700", "definition": "RAND Social Support Survey Instrument test code.", "extensible": "false", "name": "RAND Social Support Survey Instrument Questionnaire Test Code", "preferredTerm": "CDISC Questionnaire RAND Social Support Survey Test Code Terminology", "submissionValue": "RSSS01TC", "synonyms": ["RAND Social Support Survey Instrument Questionnaire Test Code"], "terms": [{"conceptId": "C136215", "definition": "RAND Social Support Survey Instrument - How often is each of the following kinds of support available to you if you need it: Someone you can count on to listen to you when you need to talk.", "preferredTerm": "RAND Social Support Survey - Count on to Listen to You", "submissionValue": "RSSS0101", "synonyms": ["RSSS01-Count on to Listen to You"]}, {"conceptId": "C136216", "definition": "RAND Social Support Survey Instrument - How often is each of the following kinds of support available to you if you need it: Someone to give you information to help you understand a situation.", "preferredTerm": "RAND Social Support Survey - Give You Info to Help Understand", "submissionValue": "RSSS0102", "synonyms": ["RSSS01-Give You Info to Help Understand"]}, {"conceptId": "C136217", "definition": "RAND Social Support Survey Instrument - How often is each of the following kinds of support available to you if you need it: Someone to give you good advice about a crisis.", "preferredTerm": "RAND Social Support Survey - Give You Advice About a Crisis", "submissionValue": "RSSS0103", "synonyms": ["RSSS01-Give You Advice About a Crisis"]}, {"conceptId": "C136218", "definition": "RAND Social Support Survey Instrument - How often is each of the following kinds of support available to you if you need it: Someone to confide in or talk to about yourself or your problems.", "preferredTerm": "RAND Social Support Survey - Confide in or Talk to About Yourself", "submissionValue": "RSSS0104", "synonyms": ["RSSS01-Confide in/Talk to About Yourself"]}, {"conceptId": "C136219", "definition": "RAND Social Support Survey Instrument - How often is each of the following kinds of support available to you if you need it: Someone whose advice you really want.", "preferredTerm": "RAND Social Support Survey - Advice You Really Want", "submissionValue": "RSSS0105", "synonyms": ["RSSS01-Advice You Really Want"]}, {"conceptId": "C136220", "definition": "RAND Social Support Survey Instrument - How often is each of the following kinds of support available to you if you need it: Someone to share your most private worries and fears with.", "preferredTerm": "RAND Social Support Survey - Share Your Private Worries and Fears", "submissionValue": "RSSS0106", "synonyms": ["RSSS01-Share Your Private Worries/Fears"]}, {"conceptId": "C136221", "definition": "RAND Social Support Survey Instrument - How often is each of the following kinds of support available to you if you need it: Someone to turn to for suggestions about how to deal with a personal problem.", "preferredTerm": "RAND Social Support Survey - Suggestions to Deal With Personal Problem", "submissionValue": "RSSS0107", "synonyms": ["RSSS01-Turn to Suggestions Personal Prob"]}, {"conceptId": "C136222", "definition": "RAND Social Support Survey Instrument - How often is each of the following kinds of support available to you if you need it: Someone who understands your problems.", "preferredTerm": "RAND Social Support Survey - Understands Your Problems", "submissionValue": "RSSS0108", "synonyms": ["RSSS01-Understands Your Problems"]}, {"conceptId": "C136223", "definition": "RAND Social Support Survey Instrument - How often is each of the following kinds of support available to you if you need it: Someone to help you if you were confined to bed.", "preferredTerm": "RAND Social Support Survey - Help If You Were Confined to Bed", "submissionValue": "RSSS0109", "synonyms": ["RSSS01-Help If You Were Confined to Bed"]}, {"conceptId": "C136224", "definition": "RAND Social Support Survey Instrument - How often is each of the following kinds of support available to you if you need it: Someone to take you to the doctor if you needed it.", "preferredTerm": "RAND Social Support Survey - Take You to the Doctor If Needed", "submissionValue": "RSSS0110", "synonyms": ["RSSS01-Take You to the Doctor If Needed"]}, {"conceptId": "C136225", "definition": "RAND Social Support Survey Instrument - How often is each of the following kinds of support available to you if you need it: Someone to prepare your meals if you were unable to do it yourself.", "preferredTerm": "RAND Social Support Survey - Prepare Your Meals If Unable", "submissionValue": "RSSS0111", "synonyms": ["RSSS01-Prepare Your Meals If Unable"]}, {"conceptId": "C136226", "definition": "RAND Social Support Survey Instrument - How often is each of the following kinds of support available to you if you need it: Someone to help with daily chores if you were sick.", "preferredTerm": "RAND Social Support Survey - Help With Daily Chores If Sick", "submissionValue": "RSSS0112", "synonyms": ["RSSS01-Help With Daily Chores If Sick"]}, {"conceptId": "C136227", "definition": "RAND Social Support Survey Instrument - How often is each of the following kinds of support available to you if you need it: Someone who shows you love and affection.", "preferredTerm": "RAND Social Support Survey - Shows You Love and Affection", "submissionValue": "RSSS0113", "synonyms": ["RSSS01-Shows You Love and Affection"]}, {"conceptId": "C136228", "definition": "RAND Social Support Survey Instrument - How often is each of the following kinds of support available to you if you need it: Someone to love and make you feel wanted.", "preferredTerm": "RAND Social Support Survey - Love and Make You Feel Wanted", "submissionValue": "RSSS0114", "synonyms": ["RSSS01-Love and Make You Feel Wanted"]}, {"conceptId": "C136229", "definition": "RAND Social Support Survey Instrument - How often is each of the following kinds of support available to you if you need it: Someone who hugs you.", "preferredTerm": "RAND Social Support Survey - Hugs You", "submissionValue": "RSSS0115", "synonyms": ["RSSS01-Hugs You"]}, {"conceptId": "C136230", "definition": "RAND Social Support Survey Instrument - How often is each of the following kinds of support available to you if you need it: Someone to have a good time with.", "preferredTerm": "RAND Social Support Survey - Have a Good Time With", "submissionValue": "RSSS0116", "synonyms": ["RSSS01-Have a Good Time With"]}, {"conceptId": "C136231", "definition": "RAND Social Support Survey Instrument - How often is each of the following kinds of support available to you if you need it: Someone to get together with for relaxation.", "preferredTerm": "RAND Social Support Survey - Get Together With for Relaxation", "submissionValue": "RSSS0117", "synonyms": ["RSSS01-Get Together With for Relaxation"]}, {"conceptId": "C136232", "definition": "RAND Social Support Survey Instrument - How often is each of the following kinds of support available to you if you need it: Someone to do something enjoyable with.", "preferredTerm": "RAND Social Support Survey - Do Something Enjoyable With", "submissionValue": "RSSS0118", "synonyms": ["RSSS01-Do Something Enjoyable With"]}, {"conceptId": "C136233", "definition": "RAND Social Support Survey Instrument - How often is each of the following kinds of support available to you if you need it: Someone to do things with to help you get your mind off things.", "preferredTerm": "RAND Social Support Survey - Help You Get Your Mind Off Things", "submissionValue": "RSSS0119", "synonyms": ["RSSS01-Help You Get Your Mind Off Things"]}]}