{"_links": {"parentPackage": {"href": "/mdr/ct/packages/sdtmct-2017-06-30", "title": "SDTM Controlled Terminology Package 30 Effective 2017-06-30", "type": "Terminology"}, "priorVersion": {"href": "/mdr/ct/packages/sdtmct-2017-03-31/codelists/C66788", "title": "CDISC SDTM Dictionary Name Terminology", "type": "Code List"}, "rootItem": {"href": "/mdr/root/ct/sdtmct/codelists/C66788", "title": "Version-agnostic anchor resource for codelist C66788", "type": "Root Value Domain"}, "self": {"href": "/mdr/ct/packages/sdtmct-2017-06-30/codelists/C66788", "title": "CDISC SDTM Dictionary Name Terminology", "type": "Code List"}}, "conceptId": "C66788", "definition": "A name given to a reference source that lists words and gives their meaning. (NCI)", "extensible": "true", "name": "Dictionary Name", "preferredTerm": "CDISC SDTM Dictionary Name Terminology", "submissionValue": "DICTNAM", "synonyms": ["Dictionary Name"], "terms": [{"conceptId": "C49471", "definition": "A terminology developed and used by the Food and Drug Administration (FDA) for the coding, filing and retrieving of post marketing adverse reaction reports. (NCI)", "preferredTerm": "Thesaurus of Adverse Reaction Term Coding Symbols", "submissionValue": "COSTART", "synonyms": ["Coding Symbols for a Thesaurus of Adverse Reaction Terms"]}, {"conceptId": "C49474", "definition": "A system of categories to which morbid entries are assigned according to established criteria. Included is the entire range of conditions in a manageable number of categories, grouped to facilitate mortality reporting. It is produced by the World Health Organization (from ICD-10, p1). The Clinical Modifications, produced by the United States Dept. of Health and Human Services, are larger extensions used for morbidity and general epidemiological purposes, primarily in the U.S. (MSH2005_2004_10_12)", "preferredTerm": "International Classification of Diseases", "submissionValue": "ICD", "synonyms": ["International Classification of Diseases"]}, {"conceptId": "C49476", "definition": "Published by The Regenstrief Institute, the Logical Observation Identifiers Names and Codes covers clinical and clinical laboratory terminology. (NCI)", "preferredTerm": "Logical Observation Identifiers Names and Codes", "submissionValue": "LOINC", "synonyms": ["Logical Observation Identifiers Names and Codes"]}, {"conceptId": "C43820", "definition": "MedDRA is an international medical terminology designed to support the classification, retrieval, presentation, and communication of medical information throughout the medical product regulatory cycle. MedDRA was developed under the auspices of the International Conference on Harmonisation of Technical Requirements for Registration of Pharmaceuticals for Human Use (ICH). The MedDRA Maintenance and Support Services Organization (MSSO) holds a contract with the International Federation of Pharmaceutical Manufacturers Associations (IFPMA) to maintain and support the implementation of the terminology. (NCI)", "preferredTerm": "MedDRA", "submissionValue": "MedDRA", "synonyms": ["Medical Dictionary for Regulatory Activities"]}, {"conceptId": "C53489", "definition": "A multiaxial, hierarchical classification system for diseases in man developed by the College of American Pathologists. (NCI)", "preferredTerm": "Systematized Nomenclature of Medicine", "submissionValue": "SNOMED", "synonyms": ["Systematized Nomenclature of Medicine"]}, {"conceptId": "C49468", "definition": "A terminology implemented by the World Health Organization to describe adverse reactions to a prescribed medication or treatment regimen. (NCI)", "preferredTerm": "World Health Organization Adverse Reaction Terminology", "submissionValue": "WHOART", "synonyms": ["World Health Organization Adverse Reaction Terms"]}, {"conceptId": "C49475", "definition": "A reference source of drugs and drug associated information maintained by the World Health Organization. (NCI)", "preferredTerm": "World Health Organization Drug Dictionary", "submissionValue": "WHODD", "synonyms": ["World Health Organization Drug Dictionary"]}]}