{"_links": {"parentPackage": {"href": "/mdr/ct/packages/sdtmct-2017-06-30", "title": "SDTM Controlled Terminology Package 30 Effective 2017-06-30", "type": "Terminology"}, "priorVersion": {"href": "/mdr/ct/packages/sdtmct-2017-03-31/codelists/C66768", "title": "CDISC SDTM Adverse Event Outcome Terminology", "type": "Code List"}, "rootItem": {"href": "/mdr/root/ct/sdtmct/codelists/C66768", "title": "Version-agnostic anchor resource for codelist C66768", "type": "Root Value Domain"}, "self": {"href": "/mdr/ct/packages/sdtmct-2017-06-30/codelists/C66768", "title": "CDISC SDTM Adverse Event Outcome Terminology", "type": "Code List"}}, "conceptId": "C66768", "definition": "A condition or event that is attributed to the adverse event and is the result or conclusion of the adverse event. (NCI)", "extensible": "false", "name": "Outcome of Event", "preferredTerm": "CDISC SDTM Adverse Event Outcome Terminology", "submissionValue": "OUT", "synonyms": ["Outcome of Event"], "terms": [{"conceptId": "C48275", "definition": "The termination of life as a result of an adverse event. (NCI)", "preferredTerm": "Death Related to Adverse Event", "submissionValue": "FATAL", "synonyms": ["5", "FATAL", "Grade 5"]}, {"conceptId": "C49494", "definition": "One of the possible results of an adverse event outcome that indicates that the event has not improved or recuperated. (NCI)", "preferredTerm": "Not Recovered or Not Resolved", "submissionValue": "NOT RECOVERED/NOT RESOLVED"}, {"conceptId": "C49498", "definition": "One of the possible results of an adverse event outcome that indicates that the event has improved or recuperated. (NCI)", "preferredTerm": "Recovered or Resolved", "submissionValue": "RECOVERED/RESOLVED"}, {"conceptId": "C49495", "definition": "One of the possible results of an adverse event outcome where the subject recuperated but retained pathological conditions resulting from the prior disease or injury. (NCI)", "preferredTerm": "Recovered or Resolved with Sequelae", "submissionValue": "RECOVERED/RESOLVED WITH SEQUELAE"}, {"conceptId": "C49496", "definition": "One of the possible results of an adverse event outcome that indicates that the event is improving. (NCI)", "preferredTerm": "Recovering or Resolving", "submissionValue": "RECOVERING/RESOLVING"}, {"conceptId": "C17998", "definition": "Not known, not observed, not recorded, or refused. (NCI)", "preferredTerm": "Unknown", "submissionValue": "UNKNOWN", "synonyms": ["U", "Unknown"]}]}