{"_links": {"parentPackage": {"href": "/mdr/ct/packages/sdtmct-2017-06-30", "title": "SDTM Controlled Terminology Package 30 Effective 2017-06-30", "type": "Terminology"}, "priorVersion": {"href": "/mdr/ct/packages/sdtmct-2017-03-31/codelists/C78736", "title": "CDISC SDTM Reference Range Indicator", "type": "Code List"}, "rootItem": {"href": "/mdr/root/ct/sdtmct/codelists/C78736", "title": "Version-agnostic anchor resource for codelist C78736", "type": "Root Value Domain"}, "self": {"href": "/mdr/ct/packages/sdtmct-2017-06-30/codelists/C78736", "title": "CDISC SDTM Reference Range Indicator", "type": "Code List"}}, "conceptId": "C78736", "definition": "A description of the results relative to the normal or expected range of values.", "extensible": "true", "name": "Reference Range Indicator", "preferredTerm": "CDISC SDTM Reference Range Indicator", "submissionValue": "NRIND", "synonyms": ["Reference Range Indicator"], "terms": [{"conceptId": "C78802", "definition": "Reported values outside the typical or expected range. (NCI)", "preferredTerm": "Abnormal Reference Range", "submissionValue": "ABNORMAL"}, {"conceptId": "C78800", "definition": "Reported values above the typical or expected range. (NCI)", "preferredTerm": "Value Above Reference Range", "submissionValue": "HIGH"}, {"conceptId": "C78801", "definition": "Reported values below the typical or expected range. (NCI)", "preferredTerm": "Value Below Reference Range", "submissionValue": "LOW"}, {"conceptId": "C78727", "definition": "Reported values within the typical or expected range. (NCI)", "preferredTerm": "Normal Reference Range", "submissionValue": "NORMAL"}]}