{"_links": {"parentPackage": {"href": "/mdr/ct/packages/sdtmct-2017-06-30", "title": "SDTM Controlled Terminology Package 30 Effective 2017-06-30", "type": "Terminology"}, "priorVersion": {"href": "/mdr/ct/packages/sdtmct-2017-03-31/codelists/C96783", "title": "CDISC SDTM Tumor Identification Test Name Terminology", "type": "Code List"}, "rootItem": {"href": "/mdr/root/ct/sdtmct/codelists/C96783", "title": "Version-agnostic anchor resource for codelist C96783", "type": "Root Value Domain"}, "self": {"href": "/mdr/ct/packages/sdtmct-2017-06-30/codelists/C96783", "title": "CDISC SDTM Tumor Identification Test Name Terminology", "type": "Code List"}}, "conceptId": "C96783", "definition": "Terminology relevant to the test names that describe tumor or lesion assessments for identification purposes.", "extensible": "true", "name": "Tumor or Lesion Identification Test Name", "preferredTerm": "CDISC SDTM Tumor Identification Test Name Terminology", "submissionValue": "TUTEST", "synonyms": ["Tumor or Lesion Identification Test Name"], "terms": [{"conceptId": "C123633", "definition": "A description of the region or relative location for the disease recurrence.", "preferredTerm": "Disease Recurrence Relative Location", "submissionValue": "Disease Recurrence Relative Location", "synonyms": ["Disease Recurrence Relative Location"]}, {"conceptId": "C119567", "definition": "An indication that a graft with a lesion has been located and characterized.", "preferredTerm": "Graft Lesion Identification", "submissionValue": "Graft Lesion Identification", "synonyms": ["Graft Lesion Identification"]}, {"conceptId": "C94189", "definition": "An indication that a lesion has been located and characterized.", "preferredTerm": "Lesion Identification", "submissionValue": "Lesion Identification", "synonyms": ["Lesion Identification"]}, {"conceptId": "C119568", "definition": "An indication that a limb containing a lesion has been selected and characterized.", "preferredTerm": "Limb Associated Lesion Identification", "submissionValue": "Limb Lesion Identification", "synonyms": ["Limb Lesion Identification"]}, {"conceptId": "C94523", "definition": "An indication that a tumor has been located and characterized.", "preferredTerm": "Tumor Identification", "submissionValue": "Tumor Identification", "synonyms": ["Tumor Identification"]}, {"conceptId": "C94525", "definition": "An indication that multiple tumors have coalesced into one tumor.", "preferredTerm": "Matted Tumor Mass Present", "submissionValue": "Tumor Merged", "synonyms": ["Tumor Merged"]}, {"conceptId": "C96642", "definition": "An indication that a single tumor has divided into two or more tumors.", "preferredTerm": "Tumor Split", "submissionValue": "Tumor Split", "synonyms": ["Tumor Split"]}, {"conceptId": "C119569", "definition": "An indication that a vessel with a lesion has been located and characterized.", "preferredTerm": "Vessel Lesion Identification", "submissionValue": "Vessel Lesion Identification", "synonyms": ["Vessel Lesion Identification"]}]}