{"_links": {"parentPackage": {"href": "/mdr/ct/packages/sdtmct-2017-06-30", "title": "SDTM Controlled Terminology Package 30 Effective 2017-06-30", "type": "Terminology"}, "priorVersion": {"href": "/mdr/ct/packages/sdtmct-2017-03-31/codelists/C96777", "title": "CDISC SDTM Medical Evaluator Terminology", "type": "Code List"}, "rootItem": {"href": "/mdr/root/ct/sdtmct/codelists/C96777", "title": "Version-agnostic anchor resource for codelist C96777", "type": "Root Value Domain"}, "self": {"href": "/mdr/ct/packages/sdtmct-2017-06-30/codelists/C96777", "title": "CDISC SDTM Medical Evaluator Terminology", "type": "Code List"}}, "conceptId": "C96777", "definition": "The individual responsible for the medical assessment.", "extensible": "true", "name": "Medical Evaluator", "preferredTerm": "CDISC SDTM Medical Evaluator Terminology", "submissionValue": "MEDEVAL", "synonyms": ["Medical Evaluator"], "terms": [{"conceptId": "C96561", "definition": "An individual that presides over and arbitrates between individuals or organizations.", "preferredTerm": "Adjudicator", "submissionValue": "ADJUDICATOR"}, {"conceptId": "C125951", "definition": "A physician who specializes in the diagnosis and treatment of heart disorders.", "preferredTerm": "Cardiologist", "submissionValue": "CARDIOLOGIST"}, {"conceptId": "C132303", "definition": "A health care professional trained in the visualization of structures too small to be seen by the naked eye, using various microscopic techniques.", "preferredTerm": "Microscopist", "submissionValue": "MICROSCOPIST"}, {"conceptId": "C132421", "definition": "A microscopist performing the assessment that is given the designation of one.", "preferredTerm": "Microscopist 1", "submissionValue": "MICROSCOPIST 1"}, {"conceptId": "C132422", "definition": "A microscopist performing the assessment that is given the designation of two.", "preferredTerm": "Microscopist 2", "submissionValue": "MICROSCOPIST 2"}, {"conceptId": "C132423", "definition": "A microscopist performing the assessment that is given the designation of three.", "preferredTerm": "Microscopist 3", "submissionValue": "MICROSCOPIST 3"}, {"conceptId": "C17721", "definition": "A physician who specializes in diagnosing and treating diseases and disorders of the nervous system.", "preferredTerm": "Neurologist", "submissionValue": "NEUROLOGIST"}, {"conceptId": "C96692", "definition": "A neurologist performing the assessment that is given the designation of one.", "preferredTerm": "Neurologist 1", "submissionValue": "NEUROLOGIST 1"}, {"conceptId": "C96606", "definition": "A neurologist performing the assessment that is given the designation of two.", "preferredTerm": "Neurologist 2", "submissionValue": "NEUROLOGIST 2"}, {"conceptId": "C17821", "definition": "A physician who specializes in diagnosing and treating cancer. (NCI)", "preferredTerm": "Oncologist", "submissionValue": "ONCOLOGIST"}, {"conceptId": "C96611", "definition": "An oncologist performing the assessment that is given the designation of one.", "preferredTerm": "Oncologist 1", "submissionValue": "ONCOLOGIST 1"}, {"conceptId": "C96612", "definition": "An oncologist performing the assessment that is given the designation of two.", "preferredTerm": "Oncologist 2", "submissionValue": "ONCOLOGIST 2"}, {"conceptId": "C17822", "definition": "A physician with a Doctor of Medicine or Doctor of Osteopathic Medicine degree (or analogous) who specializes in diagnosing and treating eye disorders, including more complex disorders that require surgery. (NCI)", "preferredTerm": "Ophthalmologist", "submissionValue": "OPHTHALMOLOGIST"}, {"conceptId": "C132424", "definition": "A physician with a Doctor of Optometry degree (or analogous) who specializes in the diagnosis and treatment of eye disorders.", "preferredTerm": "Optometrist", "submissionValue": "OPTOMETRIST"}, {"conceptId": "C17824", "definition": "A physician who specializes in the diagnostic and/or therapeutic uses of radiation. (NCI)", "preferredTerm": "Radiologist", "submissionValue": "RADIOLOGIST"}, {"conceptId": "C94530", "definition": "A radiologist performing the assessment that is given the designation of one.", "preferredTerm": "Radiologist 1", "submissionValue": "RADIOLOGIST 1"}, {"conceptId": "C94531", "definition": "A radiologist performing the assessment that is given the designation of two.", "preferredTerm": "Radiologist 2", "submissionValue": "RADIOLOGIST 2"}, {"conceptId": "C132304", "definition": "An individual qualified to perform an assessment.", "preferredTerm": "Rater", "submissionValue": "RATER"}, {"conceptId": "C132425", "definition": "A rater performing the assessment that is given the designation of one.", "preferredTerm": "Rater 1", "submissionValue": "RATER 1"}, {"conceptId": "C132426", "definition": "A rater performing the assessment that is given the designation of two.", "preferredTerm": "Rater 2", "submissionValue": "RATER 2"}, {"conceptId": "C28747", "definition": "An individual who takes non-quantifiable data and provides quantifiable assessments for that data.", "preferredTerm": "Reader", "submissionValue": "READER"}, {"conceptId": "C94532", "definition": "A reader performing the assessment that is given the designation of one.", "preferredTerm": "Reader 1", "submissionValue": "READER 1"}, {"conceptId": "C94533", "definition": "A reader performing the assessment that is given the designation of two.", "preferredTerm": "Reader 2", "submissionValue": "READER 2"}]}