{"_links": {"parentPackage": {"href": "/mdr/ct/packages/sdtmct-2017-06-30", "title": "SDTM Controlled Terminology Package 30 Effective 2017-06-30", "type": "Terminology"}, "priorVersion": {"href": "/mdr/ct/packages/sdtmct-2017-03-31/codelists/C99076", "title": "CDISC SDTM Intervention Model Terminology", "type": "Code List"}, "rootItem": {"href": "/mdr/root/ct/sdtmct/codelists/C99076", "title": "Version-agnostic anchor resource for codelist C99076", "type": "Root Value Domain"}, "self": {"href": "/mdr/ct/packages/sdtmct-2017-06-30/codelists/C99076", "title": "CDISC SDTM Intervention Model Terminology", "type": "Code List"}}, "conceptId": "C99076", "definition": "A terminology codelist relevant to the trial design developed to compare treatment groups.", "extensible": "true", "name": "Intervention Model Response", "preferredTerm": "CDISC SDTM Intervention Model Terminology", "submissionValue": "INTMODEL", "synonyms": ["Intervention Model Response"], "terms": [{"conceptId": "C82637", "definition": "Participants receive one of two or more alternative intervention(s) during the initial epoch of the study and receive other intervention(s) during the subsequent epoch(s) of the study.", "preferredTerm": "Crossover Study", "submissionValue": "CROSS-OVER"}, {"conceptId": "C82638", "definition": "Two or more interventions, each alone and in combination, are evaluated in parallel against a control group.", "preferredTerm": "Factorial Study", "submissionValue": "FACTORIAL"}, {"conceptId": "C82639", "definition": "Participants are assigned to one of two or more arms in parallel for the duration of the study.", "preferredTerm": "Parallel Study", "submissionValue": "PARALLEL"}, {"conceptId": "C82640", "definition": "Single arm study.", "preferredTerm": "Single Group Study", "submissionValue": "SINGLE GROUP"}]}