{"_links": {"parentPackage": {"href": "/mdr/ct/packages/cdashct-2021-12-17", "title": "CDASH Controlled Terminology Package 48 Effective 2021-12-17", "type": "Terminology"}, "priorVersion": {"href": "/mdr/ct/packages/cdashct-2021-09-24/codelists/C181164", "title": "CDISC CDASH Study Agent Dechallenge Reaction Response Terminology", "type": "Code List"}, "rootItem": {"href": "/mdr/root/ct/cdashct/codelists/C181164", "title": "Version-agnostic anchor resource for codelist C181164", "type": "Root Value Domain"}, "self": {"href": "/mdr/ct/packages/cdashct-2021-12-17/codelists/C181164", "title": "CDISC CDASH Study Agent Dechallenge Reaction Response Terminology", "type": "Code List"}}, "conceptId": "C181164", "definition": "A terminology codelist relevant to the resultant reaction due to withdrawing, interrupting, or otherwise altering administration of study treatment.", "extensible": "true", "name": "Study Agent Dechallenge Reaction Response", "preferredTerm": "CDISC CDASH Study Agent Dechallenge Reaction Response Terminology", "submissionValue": "SADCRR", "synonyms": ["Study Agent Dechallenge Reaction Response"], "terms": [{"conceptId": "C181222", "definition": "Continued presence of an adverse event after decrease or change in dose, or withdrawal of the product/drug.", "preferredTerm": "Negative Dechallenge Response", "submissionValue": "NEGATIVE DECHALLENGE"}, {"conceptId": "C181224", "definition": "The outcome of decreasing the dose or discontinuation of the product/drug is not relevant in the current context.", "preferredTerm": "Not Applicable Dechallenge Response", "submissionValue": "NOT APPLICABLE DECHALLENGE"}, {"conceptId": "C181223", "definition": "Partial or complete abatement of an adverse event after decrease or change in dose, or withdrawal of the product/drug.", "preferredTerm": "Positive Dechallenge Response", "submissionValue": "POSITIVE DECHALLENGE"}, {"conceptId": "C181225", "definition": "No information regarding the outcome of decreasing the dose or discontinuation of the product/drug.", "preferredTerm": "Unknown Dechallenge Response", "submissionValue": "UNKNOWN DECHALLENGE"}]}