{"_links": {"parentPackage": {"href": "/mdr/ct/packages/cdashct-2017-09-29", "title": "CDASH Controlled Terminology Package 31 Effective 2017-09-29", "type": "Terminology"}, "priorVersion": {"href": "/mdr/ct/packages/cdashct-2016-12-16/codelists/C78423", "title": "CDISC CDASH Units for Exposure Terminology", "type": "Code List"}, "rootItem": {"href": "/mdr/root/ct/cdashct/codelists/C78423", "title": "Version-agnostic anchor resource for codelist C78423", "type": "Root Value Domain"}, "self": {"href": "/mdr/ct/packages/cdashct-2017-09-29/codelists/C78423", "title": "CDISC CDASH Units for Exposure Terminology", "type": "Code List"}}, "conceptId": "C78423", "definition": "A terminology subset of the CDISC SDTM Unit codelist created for CDASH Units for Exposure codelist. (NCI)", "extensible": "true", "name": "Units for Exposure", "preferredTerm": "CDISC CDASH Units for Exposure Terminology", "submissionValue": "EXDOSU", "synonyms": ["Units for Exposure"], "terms": [{"conceptId": "C48480", "definition": "A dosing measurement based on the capsule unit.(NCI)", "preferredTerm": "Capsule Dosing Unit", "submissionValue": "CAPSULE", "synonyms": ["Capsule Dosing Unit", "cap"]}, {"conceptId": "C65060", "definition": "A means of delivering a defined dose of a therapeutic aerolized solution into either the upper or lower respiratory tract. Metered-dose inhalers or spray pumps are devices that provide a puff dose for delivery into either the oral or the nasal cavity.(NCI)", "preferredTerm": "Puff Dosing Unit", "submissionValue": "PUFF", "synonyms": ["Puff Dosing Unit"]}, {"conceptId": "C48542", "definition": "A dosing measurement based on the tablet unit.(NCI)", "preferredTerm": "Tablet Dosing Unit", "submissionValue": "TABLET", "synonyms": ["Tablet Dosing Unit", "tab"]}, {"conceptId": "C48155", "definition": "A unit of mass equal to one thousandth (10E-3) of a kilogram, the kilogram being the base unit of mass in the International System of Units (SI).", "preferredTerm": "Gram", "submissionValue": "g", "synonyms": ["Gram"]}, {"conceptId": "C28254", "definition": "A unit of volume equal to one thousandth (10E-3) of a liter.", "preferredTerm": "Milliliter", "submissionValue": "mL", "synonyms": ["Milliliter", "cm3"]}, {"conceptId": "C28253", "definition": "A unit of mass equal to one thousandth (10E-3) of a gram.", "preferredTerm": "Milligram", "submissionValue": "mg", "synonyms": ["Milligram"]}, {"conceptId": "C48152", "definition": "A unit of mass equal to one millionth (10E-6) of a gram.", "preferredTerm": "Microgram", "submissionValue": "ug", "synonyms": ["Microgram", "mcg"]}]}