{"_links": {"parentPackage": {"href": "/mdr/ct/packages/sdtmct-2019-12-20", "title": "SDTM Controlled Terminology Package 40 Effective 2019-12-20", "type": "Terminology"}, "priorVersion": {"href": "/mdr/ct/packages/sdtmct-2019-09-27/codelists/C102583", "title": "CDISC SDTM Reason for Treatment Interruption Terminology", "type": "Code List"}, "rootItem": {"href": "/mdr/root/ct/sdtmct/codelists/C102583", "title": "Version-agnostic anchor resource for codelist C102583", "type": "Root Value Domain"}, "self": {"href": "/mdr/ct/packages/sdtmct-2019-12-20/codelists/C102583", "title": "CDISC SDTM Reason for Treatment Interruption Terminology", "type": "Code List"}}, "conceptId": "C102583", "definition": "Terminology relevant to the reason the drug or therapy was temporarily ceased.", "extensible": "true", "name": "Reason for Treatment Interruption", "preferredTerm": "CDISC SDTM Reason for Treatment Interruption Terminology", "submissionValue": "REASTINT", "synonyms": ["Reason for Treatment Interruption"], "terms": [{"conceptId": "C102638", "definition": "A patient's failure to remember to take a dose of medication.", "preferredTerm": "Forgot to Take Medication Dose", "submissionValue": "FORGOT TO TAKE MEDICATION DOSE"}, {"conceptId": "C71437", "definition": "An inability to absorb or metabolize certain substances in the normal way.", "preferredTerm": "Intolerance", "submissionValue": "INTOLERANCE"}, {"conceptId": "C102664", "definition": "Medications that were lost because they were put in the wrong place.", "preferredTerm": "Medication Misplaced", "submissionValue": "MEDICATION MISPLACED"}, {"conceptId": "C91752", "definition": "Failure of a patient to follow medical advice, take medication as directed, or adhere to a prescribed course of treatment.", "preferredTerm": "Patient Noncompliance", "submissionValue": "PATIENT NONCOMPLIANCE"}, {"conceptId": "C48226", "definition": "The lack of expected or desired effect related to a therapy. (NCI)", "preferredTerm": "Lack of Efficacy", "submissionValue": "TREATMENT FAILURE"}, {"conceptId": "C80227", "definition": "Leisure time away from work devoted to rest or pleasure.", "preferredTerm": "Vacation", "submissionValue": "VACATION"}]}