{"_links": {"parentPackage": {"href": "/mdr/ct/packages/sdtmct-2019-12-20", "title": "SDTM Controlled Terminology Package 40 Effective 2019-12-20", "type": "Terminology"}, "priorVersion": {"href": "/mdr/ct/packages/sdtmct-2019-09-27/codelists/C103462", "title": "CDISC Questionnaire ESS Test Name Terminology", "type": "Code List"}, "rootItem": {"href": "/mdr/root/ct/sdtmct/codelists/C103462", "title": "Version-agnostic anchor resource for codelist C103462", "type": "Root Value Domain"}, "self": {"href": "/mdr/ct/packages/sdtmct-2019-12-20/codelists/C103462", "title": "CDISC Questionnaire ESS Test Name Terminology", "type": "Code List"}}, "conceptId": "C103462", "definition": "Epworth Sleepiness Scale test name.", "extensible": "false", "name": "Epworth Sleepiness Scale Questionnaire Test Name", "preferredTerm": "CDISC Questionnaire ESS Test Name Terminology", "submissionValue": "ESS01TN", "synonyms": ["Epworth Sleepiness Scale Questionnaire Test Name"], "terms": [{"conceptId": "C103543", "definition": "Epworth Sleepiness Scale - In a car, while stopped for a few minutes in the traffic.", "preferredTerm": "ESS - In a car, While Stopped for a Few Minutes in the Traffic", "submissionValue": "ESS01-In Car Stopped Few Minutes Traffic", "synonyms": ["ESS01-In Car Stopped Few Minutes Traffic"]}, {"conceptId": "C103540", "definition": "Epworth Sleepiness Scale - Lying down to rest in the afternoon when circumstances permit.", "preferredTerm": "ESS - Lying Down to Rest in the Afternoon When Circumstances Permit", "submissionValue": "ESS01-Lying Down to Rest In Afternoon", "synonyms": ["ESS01-Lying Down to Rest In Afternoon"]}, {"conceptId": "C103539", "definition": "Epworth Sleepiness Scale - As a passenger in a car for an hour without a break.", "preferredTerm": "ESS - As a Passenger in a Car for an Hour Without a Break", "submissionValue": "ESS01-Passenger for Hour Without Break", "synonyms": ["ESS01-Passenger for Hour Without Break"]}, {"conceptId": "C103538", "definition": "Epworth Sleepiness Scale - Sitting, inactive in a public place (e.g. a theatre or a meeting).", "preferredTerm": "ESS - Sitting, Inactive in a Public Place", "submissionValue": "ESS01-Sitting Inactive in a Public Place", "synonyms": ["ESS01-Sitting Inactive in a Public Place"]}, {"conceptId": "C103542", "definition": "Epworth Sleepiness Scale - Sitting quietly after a lunch without alcohol.", "preferredTerm": "ESS - Sitting Quietly After a Lunch without Alcohol", "submissionValue": "ESS01-Sitting Quietly After Lunch", "synonyms": ["ESS01-Sitting Quietly After Lunch"]}, {"conceptId": "C103536", "definition": "Epworth Sleepiness Scale - Sitting and reading.", "preferredTerm": "ESS - Sitting and Reading", "submissionValue": "ESS01-Sitting and Reading", "synonyms": ["ESS01-Sitting and Reading"]}, {"conceptId": "C103541", "definition": "Epworth Sleepiness Scale - Sitting and talking to someone.", "preferredTerm": "ESS - Sitting and Talking to Someone", "submissionValue": "ESS01-Sitting and Talking to Someone", "synonyms": ["ESS01-Sitting and Talking to Someone"]}, {"conceptId": "C157731", "definition": "Epworth Sleepiness Scale - Total score.", "preferredTerm": "ESS - Total Score", "submissionValue": "ESS01-Total Score", "synonyms": ["ESS01-Total Score"]}, {"conceptId": "C103537", "definition": "Epworth Sleepiness Scale - Watching TV.", "preferredTerm": "ESS - Watching TV", "submissionValue": "ESS01-Watching TV", "synonyms": ["ESS01-Watching TV"]}]}