{"_links": {"parentPackage": {"href": "/mdr/ct/packages/sdtmct-2019-12-20", "title": "SDTM Controlled Terminology Package 40 Effective 2019-12-20", "type": "Terminology"}, "priorVersion": {"href": "/mdr/ct/packages/sdtmct-2019-09-27/codelists/C105138", "title": "CDISC Questionnaire GCGI v1 Test Code Terminology", "type": "Code List"}, "rootItem": {"href": "/mdr/root/ct/sdtmct/codelists/C105138", "title": "Version-agnostic anchor resource for codelist C105138", "type": "Root Value Domain"}, "self": {"href": "/mdr/ct/packages/sdtmct-2019-12-20/codelists/C105138", "title": "CDISC Questionnaire GCGI v1 Test Code Terminology", "type": "Code List"}}, "conceptId": "C105138", "definition": "General Clinical Global Impressions test code.", "extensible": "false", "name": "General Clinical Global Impressions Questionnaire Test Code", "preferredTerm": "CDISC Questionnaire GCGI v1 Test Code Terminology", "submissionValue": "GCGI01TC", "synonyms": ["General Clinical Global Impressions Questionnaire Test Code"], "terms": [{"conceptId": "C105278", "definition": "General Clinical Global Impressions - Global severity of pain.", "preferredTerm": "GCGI - Global Severity of Pain", "submissionValue": "GCGI0101", "synonyms": ["GCGI01-Global Severity of Pain"]}, {"conceptId": "C105279", "definition": "General Clinical Global Impressions - Global improvement of pain.", "preferredTerm": "GCGI - Global Improvement of Pain", "submissionValue": "GCGI0102", "synonyms": ["GCGI01-Global Improvement of Pain"]}, {"conceptId": "C105280", "definition": "General Clinical Global Impressions - Global disease status of pain.", "preferredTerm": "GCGI - Global Disease Status of Pain", "submissionValue": "GCGI0103", "synonyms": ["GCGI01-Global Disease Status of Pain"]}, {"conceptId": "C105281", "definition": "General Clinical Global Impressions - Pain treatment preference.", "preferredTerm": "GCGI - Pain Treatment Preference", "submissionValue": "GCGI0104", "synonyms": ["GCGI01-Pain Treatment Preference"]}, {"conceptId": "C105282", "definition": "General Clinical Global Impressions - Global rating of pain medication.", "preferredTerm": "GCGI - Global Rating of Pain Medication", "submissionValue": "GCGI0105", "synonyms": ["GCGI01-Global Rating of Pain Medication"]}]}