{"_links": {"parentPackage": {"href": "/mdr/ct/packages/sdtmct-2019-12-20", "title": "SDTM Controlled Terminology Package 40 Effective 2019-12-20", "type": "Terminology"}, "priorVersion": {"href": "/mdr/ct/packages/sdtmct-2019-09-27/codelists/C106661", "title": "CDISC Questionnaire C-SSRS Baseline/Screening Version Test Code Terminology", "type": "Code List"}, "rootItem": {"href": "/mdr/root/ct/sdtmct/codelists/C106661", "title": "Version-agnostic anchor resource for codelist C106661", "type": "Root Value Domain"}, "self": {"href": "/mdr/ct/packages/sdtmct-2019-12-20/codelists/C106661", "title": "CDISC Questionnaire C-SSRS Baseline/Screening Version Test Code Terminology", "type": "Code List"}}, "conceptId": "C106661", "definition": "Columbia-Suicide Severity Rating Scale Baseline/Screening Version test code.", "extensible": "false", "name": "Columbia-Suicide Severity Rating Scale Baseline/Screening Version Questionnaire Test Code", "preferredTerm": "CDISC Questionnaire C-SSRS Baseline/Screening Version Test Code Terminology", "submissionValue": "CSS04TC", "synonyms": ["Columbia-Suicide Severity Rating Scale Baseline/Screening Version Questionnaire Test Code"], "terms": [{"conceptId": "C106707", "definition": "Columbia-Suicide Severity Rating Scale Baseline/Screening Version - Have you wished you were dead or wished you could go to sleep and not wake up? (Lifetime).", "preferredTerm": "C-SSRS Baseline/Screening Version - Wish to be Dead (Lifetime)", "submissionValue": "CSS0401A", "synonyms": ["CSS04-Wish to be Dead-Life"]}, {"conceptId": "C106708", "definition": "Columbia-Suicide Severity Rating Scale Baseline/Screening Version - Have you wished you were dead or wished you could go to sleep and not wake up? (Past _ Months).", "preferredTerm": "C-SSRS Baseline/Screening Version - Wish to be Dead (Past X Months)", "submissionValue": "CSS0401B", "synonyms": ["CSS04-Wish to be Dead-P_M"]}, {"conceptId": "C106709", "definition": "Columbia-Suicide Severity Rating Scale Baseline/Screening Version - Description of wishing to be dead.", "preferredTerm": "C-SSRS Baseline/Screening Version - Description of Wish to be Dead", "submissionValue": "CSS0401C", "synonyms": ["CSS04-Wish to be Dead, Describe"]}, {"conceptId": "C106710", "definition": "Columbia-Suicide Severity Rating Scale Baseline/Screening Version - Have you actually had any thoughts of killing yourself? (Lifetime).", "preferredTerm": "C-SSRS Baseline/Screening Version - Non-Specific Active Suicidal Thoughts (Lifetime)", "submissionValue": "CSS0402A", "synonyms": ["CSS04-Non-Spec Suicid Thought-Life"]}, {"conceptId": "C106711", "definition": "Columbia-Suicide Severity Rating Scale Baseline/Screening Version - Have you actually had any thoughts of killing yourself? (Past _ Months).", "preferredTerm": "C-SSRS Baseline/Screening Version - Non-Specific Active Suicidal Thoughts (Past X Months)", "submissionValue": "CSS0402B", "synonyms": ["CSS04-Non-Spec Suicid Thought-P_M"]}, {"conceptId": "C106712", "definition": "Columbia-Suicide Severity Rating Scale Baseline/Screening Version - Description of non-specific active suicidal thoughts.", "preferredTerm": "C-SSRS Baseline/Screening Version - Description of Non-Specific Active Suicidal Thoughts", "submissionValue": "CSS0402C", "synonyms": ["CSS04-Non-Spec Suicid Thought, Describe"]}, {"conceptId": "C106713", "definition": "Columbia-Suicide Severity Rating Scale Baseline/Screening Version - Have you been thinking about how you might do this? (Lifetime).", "preferredTerm": "C-SSRS Baseline/Screening Version - Active Suicidal Ideation with Any Methods (Not Plan) without Intent to Act (Lifetime)", "submissionValue": "CSS0403A", "synonyms": ["CSS04-Idea, No Intent, No Plan-Life"]}, {"conceptId": "C106714", "definition": "Columbia-Suicide Severity Rating Scale Baseline/Screening Version - Have you been thinking about how you might do this? (Past _ Months).", "preferredTerm": "C-SSRS Baseline/Screening Version - Active Suicidal Ideation with Any Methods (Not Plan) without Intent to Act (Past X Months)", "submissionValue": "CSS0403B", "synonyms": ["CSS04-Idea, No Intent, No Plan-P_M"]}, {"conceptId": "C106715", "definition": "Columbia-Suicide Severity Rating Scale Baseline/Screening Version - Description of active suicidal ideation with any methods (not plan) without intent to act.", "preferredTerm": "C-SSRS Baseline/Screening Version - Description of Active Suicidal Ideation with Any Methods (Not Plan) without Intent to Act", "submissionValue": "CSS0403C", "synonyms": ["CSS04-Idea, No Intent, No Plan, Describe"]}, {"conceptId": "C107017", "definition": "Columbia-Suicide Severity Rating Scale Baseline/Screening Version - Have you had these thoughts and had some intention of acting on them? (Lifetime).", "preferredTerm": "C-SSRS Baseline/Screening Version - Active Suicidal Ideation with Some Intent to Act, without Specific Plan (Lifetime)", "submissionValue": "CSS0404A", "synonyms": ["CSS04-Idea, Intent, No Plan-Life"]}, {"conceptId": "C107018", "definition": "Columbia-Suicide Severity Rating Scale Baseline/Screening Version - Have you had these thoughts and had some intention of acting on them? (Past _ Months).", "preferredTerm": "C-SSRS Baseline/Screening Version - Active Suicidal Ideation with Some Intent to Act, without Specific Plan (Past X Months)", "submissionValue": "CSS0404B", "synonyms": ["CSS04-Idea, Intent, No Plan-P_M"]}, {"conceptId": "C107019", "definition": "Columbia-Suicide Severity Rating Scale Baseline/Screening Version - Description of active suicidal ideation with some intent to act, without specific plan.", "preferredTerm": "C-SSRS Baseline/Screening Version - Description of Active Suicidal Ideation with Some Intent to Act, without Specific Plan", "submissionValue": "CSS0404C", "synonyms": ["CSS04-Idea, Intent, No Plan, Describe"]}, {"conceptId": "C106716", "definition": "Columbia-Suicide Severity Rating Scale Baseline/Screening Version - Have you started to work out or worked out the details of how to kill yourself? Do you intend to carry out this plan? (Lifetime).", "preferredTerm": "C-SSRS Baseline/Screening Version - Active Suicidal Ideation with Specific Plan and Intent (Lifetime)", "submissionValue": "CSS0405A", "synonyms": ["CSS04-Idea, Plan, Intent-Life"]}, {"conceptId": "C106717", "definition": "Columbia-Suicide Severity Rating Scale Baseline/Screening Version - Have you started to work out or worked out the details of how to kill yourself? Do you intend to carry out this plan? (Past _ Months).", "preferredTerm": "C-SSRS Baseline/Screening Version - Active Suicidal Ideation with Specific Plan and Intent (Past X Months)", "submissionValue": "CSS0405B", "synonyms": ["CSS04-Idea, Plan, Intent-P_M"]}, {"conceptId": "C106718", "definition": "Columbia-Suicide Severity Rating Scale Baseline/Screening Version - Description of active suicidal ideation with specific plan and intent.", "preferredTerm": "C-SSRS Baseline/Screening Version - Description of Active Suicidal Ideation with Specific Plan and Intent", "submissionValue": "CSS0405C", "synonyms": ["CSS04-Idea, Plan, Intent, Describe"]}, {"conceptId": "C106719", "definition": "Columbia-Suicide Severity Rating Scale Baseline/Screening Version - Most severe ideation. (Lifetime).", "preferredTerm": "C-SSRS Baseline/Screening Version - Most Severe Ideation (Lifetime)", "submissionValue": "CSS0406A", "synonyms": ["CSS04-Most Severe Idea-Life"]}, {"conceptId": "C106720", "definition": "Columbia-Suicide Severity Rating Scale Baseline/Screening Version - Description of most severe ideation. (Lifetime).", "preferredTerm": "C-SSRS Baseline/Screening Version - Describe Most Severe Ideation (Lifetime)", "submissionValue": "CSS0406B", "synonyms": ["CSS04-Most Severe Idea, Desc-Life"]}, {"conceptId": "C106721", "definition": "Columbia-Suicide Severity Rating Scale Baseline/Screening Version - Most severe ideation. (Past _ Months).", "preferredTerm": "C-SSRS Baseline/Screening Version - Most Severe Ideation (Past X Months)", "submissionValue": "CSS0406C", "synonyms": ["CSS04-Most Severe Idea-P_M"]}, {"conceptId": "C106722", "definition": "Columbia-Suicide Severity Rating Scale Baseline/Screening Version - Description of most severe ideation. (Past _ Months).", "preferredTerm": "C-SSRS Baseline/Screening Version - Describe Most Severe Ideation (Past X Months)", "submissionValue": "CSS0406D", "synonyms": ["CSS04-Most Severe Idea, Desc-P_M"]}, {"conceptId": "C106723", "definition": "Columbia-Suicide Severity Rating Scale Baseline/Screening Version - How many times have you had these thoughts? (Lifetime).", "preferredTerm": "C-SSRS Baseline/Screening Version - Frequency of Most Severe Ideation (Lifetime)", "submissionValue": "CSS0407A", "synonyms": ["CSS04-Most Severe Idea, Frequency-Life"]}, {"conceptId": "C106724", "definition": "Columbia-Suicide Severity Rating Scale Baseline/Screening Version - How many times have you had these thoughts? (Past _ Months).", "preferredTerm": "C-SSRS Baseline/Screening Version - Frequency of Most Severe Ideation (Past X Months)", "submissionValue": "CSS0407B", "synonyms": ["CSS04-Most Severe Idea, Frequency-P_M"]}, {"conceptId": "C106725", "definition": "Columbia-Suicide Severity Rating Scale Baseline/Screening Version - When you have the thoughts how long do they last? (Lifetime).", "preferredTerm": "C-SSRS Baseline/Screening Version - Duration of Most Severe Ideation (Lifetime)", "submissionValue": "CSS0408A", "synonyms": ["CSS04-Most Severe Idea, Duration-Life"]}, {"conceptId": "C106726", "definition": "Columbia-Suicide Severity Rating Scale Baseline/Screening Version - When you have the thoughts how long do they last? (Past _ Months).", "preferredTerm": "C-SSRS Baseline/Screening Version - Duration of Most Severe Ideation (Past X Months)", "submissionValue": "CSS0408B", "synonyms": ["CSS04-Most Severe Idea, Duration-P_M"]}, {"conceptId": "C106727", "definition": "Columbia-Suicide Severity Rating Scale Baseline/Screening Version - Could/can you stop thinking about killing yourself or wanting to die if you want to? (Lifetime).", "preferredTerm": "C-SSRS Baseline/Screening Version - Controllability of Most Severe Ideation (Lifetime)", "submissionValue": "CSS0409A", "synonyms": ["CSS04-Most Severe Idea, Control-Life"]}, {"conceptId": "C106728", "definition": "Columbia-Suicide Severity Rating Scale Baseline/Screening Version - Could/can you stop thinking about killing yourself or wanting to die if you want to? (Past _ Months).", "preferredTerm": "C-SSRS Baseline/Screening Version - Controllability of Most Severe Ideation (Past X Months)", "submissionValue": "CSS0409B", "synonyms": ["CSS04-Most Severe Idea, Control-P_M"]}, {"conceptId": "C106729", "definition": "Columbia-Suicide Severity Rating Scale Baseline/Screening Version - Are there things-anyone or anything (e.g., family, religion, pain of death) - that stopped you from wanting to die or acting on thoughts of committing suicide? (Lifetime).", "preferredTerm": "C-SSRS Baseline/Screening Version - Deterrents to Most Severe Ideation (Lifetime)", "submissionValue": "CSS0410A", "synonyms": ["CSS04-Most Severe Idea, Deterrents-Life"]}, {"conceptId": "C106730", "definition": "Columbia-Suicide Severity Rating Scale Baseline/Screening Version - Are there things-anyone or anything (e.g., family, religion, pain of death) - that stopped you from wanting to die or acting on thoughts of committing suicide? (Past _ Months).", "preferredTerm": "C-SSRS Baseline/Screening Version - Deterrents to Most Severe Ideation (Past X Months)", "submissionValue": "CSS0410B", "synonyms": ["CSS04-Most Severe Idea, Deterrents-P_M"]}, {"conceptId": "C106731", "definition": "Columbia-Suicide Severity Rating Scale Baseline/Screening Version - What sort of reasons did you have for thinking about wanting to die or killing yourself? Was it to end the pain or stop the way you were feeling (in other words you couldn't go on living with this pain or how you were feeling) or was it to get attention, revenge or a reaction from others? Or both? (Lifetime).", "preferredTerm": "C-SSRS Baseline/Screening Version - Reasons for Most Severe Ideation (Lifetime)", "submissionValue": "CSS0411A", "synonyms": ["CSS04-Most Severe Idea, Reasons-Life"]}, {"conceptId": "C106732", "definition": "Columbia-Suicide Severity Rating Scale Baseline/Screening Version - What sort of reasons did you have for thinking about wanting to die or killing yourself? Was it to end the pain or stop the way you were feeling (in other words you couldn't go on living with this pain or how you were feeling) or was it to get attention, revenge or a reaction from others? Or both? (Past _ Months).", "preferredTerm": "C-SSRS Baseline/Screening Version - Reasons for Most Severe Ideation (Past X Months)", "submissionValue": "CSS0411B", "synonyms": ["CSS04-Most Severe Idea, Reasons-P_M"]}, {"conceptId": "C106733", "definition": "Columbia-Suicide Severity Rating Scale Baseline/Screening Version - Have you made a suicide attempt? Have you done anything to harm yourself? Have you done anything dangerous where you could have died? (Lifetime).", "preferredTerm": "C-SSRS Baseline/Screening Version - Actual Suicide Attempt (Lifetime)", "submissionValue": "CSS0412A", "synonyms": ["CSS04-Actual Attempt-Life"]}, {"conceptId": "C106734", "definition": "Columbia-Suicide Severity Rating Scale Baseline/Screening Version - Have you made a suicide attempt? Have you done anything to harm yourself? Have you done anything dangerous where you could have died? (Past _ Years).", "preferredTerm": "C-SSRS Baseline/Screening Version - Actual Suicide Attempt (Past X Years)", "submissionValue": "CSS0412B", "synonyms": ["CSS04-Actual Attempt-P_Y"]}, {"conceptId": "C106735", "definition": "Columbia-Suicide Severity Rating Scale Baseline/Screening Version - Total number of actual attempts. (Lifetime).", "preferredTerm": "C-SSRS Baseline/Screening Version - Number of Actual Suicide Attempts (Lifetime)", "submissionValue": "CSS0413A", "synonyms": ["CSS04-Number of Actual Attempts-Life"]}, {"conceptId": "C106736", "definition": "Columbia-Suicide Severity Rating Scale Baseline/Screening Version - Total number of actual attempts. (Past _ Years).", "preferredTerm": "C-SSRS Baseline/Screening Version - Number of Actual Suicide Attempts (Past X Years)", "submissionValue": "CSS0413B", "synonyms": ["CSS04-Number of Actual Attempts-P_Y"]}, {"conceptId": "C106737", "definition": "Columbia-Suicide Severity Rating Scale Baseline/Screening Version - Description of actual attempt.", "preferredTerm": "C-SSRS Baseline/Screening Version - Description of Actual Suicide Attempt", "submissionValue": "CSS0413C", "synonyms": ["CSS04-Actual Attempt, Describe"]}, {"conceptId": "C106738", "definition": "Columbia-Suicide Severity Rating Scale Baseline/Screening Version - Has the subject engaged in non-suicidal self-injurious behavior. (Lifetime).", "preferredTerm": "C-SSRS Baseline/Screening Version - Non-suicidal Self-injurious Behavior (Lifetime)", "submissionValue": "CSS0414A", "synonyms": ["CSS04-Non-suicidal Self-injur Behav-Life"]}, {"conceptId": "C106739", "definition": "Columbia-Suicide Severity Rating Scale Baseline/Screening Version - Has the subject engaged in non-suicidal self-injurious behavior. (Past _ Years).", "preferredTerm": "C-SSRS Baseline/Screening Version - Non-suicidal Self-injurious Behavior (Past X Years)", "submissionValue": "CSS0414B", "synonyms": ["CSS04-Non-suicidal Self-injur Behav-P_Y"]}, {"conceptId": "C106740", "definition": "Columbia-Suicide Severity Rating Scale Baseline/Screening Version - Has there been a time when you started to do something to try to end your life but someone or something stopped you before you actually did anything? (Lifetime).", "preferredTerm": "C-SSRS Baseline/Screening Version - Interrupted Suicide Attempt (Lifetime)", "submissionValue": "CSS0415A", "synonyms": ["CSS04-Interrupted Attempt-Life"]}, {"conceptId": "C106741", "definition": "Columbia-Suicide Severity Rating Scale Baseline/Screening Version - Has there been a time when you started to do something to try to end your life but someone or something stopped you before you actually did anything? (Past _ Years).", "preferredTerm": "C-SSRS Baseline/Screening Version - Interrupted Suicide Attempt (Past X Years)", "submissionValue": "CSS0415B", "synonyms": ["CSS04-Interrupted Attempt-P_Y"]}, {"conceptId": "C106742", "definition": "Columbia-Suicide Severity Rating Scale Baseline/Screening Version - Total number of interrupted attempts. (Lifetime).", "preferredTerm": "C-SSRS Baseline/Screening Version - Number of Interrupted Suicide Attempts (Lifetime)", "submissionValue": "CSS0416A", "synonyms": ["CSS04-Number of Interrupt Attempts-Life"]}, {"conceptId": "C106743", "definition": "Columbia-Suicide Severity Rating Scale Baseline/Screening Version - Total number of interrupted attempts. (Past _ Years).", "preferredTerm": "C-SSRS Baseline/Screening Version - Number of Interrupted Suicide Attempts (Past X Years)", "submissionValue": "CSS0416B", "synonyms": ["CSS04-Number of Interrupt Attempts-P_Y"]}, {"conceptId": "C106744", "definition": "Columbia-Suicide Severity Rating Scale Baseline/Screening Version - Description of interrupted attempt.", "preferredTerm": "C-SSRS Baseline/Screening Version - Description of Interrupted Suicide Attempt", "submissionValue": "CSS0416C", "synonyms": ["CSS04-Interrupted Attempt, Describe"]}, {"conceptId": "C106745", "definition": "Columbia-Suicide Severity Rating Scale Baseline/Screening Version - Has there been a time when you started to do something to try to end your life but you stopped yourself before you actually did anything? (Lifetime).", "preferredTerm": "C-SSRS Baseline/Screening Version - Aborted Suicide Attempt (Lifetime)", "submissionValue": "CSS0417A", "synonyms": ["CSS04-Aborted Attempt-Life"]}, {"conceptId": "C106746", "definition": "Columbia-Suicide Severity Rating Scale Baseline/Screening Version - Has there been a time when you started to do something to try to end your life but you stopped yourself before you actually did anything? (Past _ Years).", "preferredTerm": "C-SSRS Baseline/Screening Version - Aborted Suicide Attempt (Past X Years)", "submissionValue": "CSS0417B", "synonyms": ["CSS04-Aborted Attempt-P_Y"]}, {"conceptId": "C106747", "definition": "Columbia-Suicide Severity Rating Scale Baseline/Screening Version - Total number of aborted attempts. (Lifetime).", "preferredTerm": "C-SSRS Baseline/Screening Version - Number of Aborted Suicide Attempts (Lifetime)", "submissionValue": "CSS0418A", "synonyms": ["CSS04-Number of Aborted Attempts-Life"]}, {"conceptId": "C106748", "definition": "Columbia-Suicide Severity Rating Scale Baseline/Screening Version - Total number of aborted attempts. (Past _ Years).", "preferredTerm": "C-SSRS Baseline/Screening Version - Number of Aborted Suicide Attempts (Past X Years)", "submissionValue": "CSS0418B", "synonyms": ["CSS04-Number of Aborted Attempts-P_Y"]}, {"conceptId": "C106749", "definition": "Columbia-Suicide Severity Rating Scale Baseline/Screening Version - Description of aborted attempt.", "preferredTerm": "C-SSRS Baseline/Screening Version - Description of Aborted Suicide Attempt", "submissionValue": "CSS0418C", "synonyms": ["CSS04-Aborted Attempt, Describe"]}, {"conceptId": "C106750", "definition": "Columbia-Suicide Severity Rating Scale Baseline/Screening Version - Have you taken any steps towards making a suicide attempt or preparing to kill yourself (such as collecting pills, getting a gun, giving valuables away or writing a suicide note)? (Lifetime).", "preferredTerm": "C-SSRS Baseline/Screening Version - Preparatory Acts or Behaviors Toward Suicide Attempt (Lifetime)", "submissionValue": "CSS0419A", "synonyms": ["CSS04-Preparatory Acts/Behavior-Life"]}, {"conceptId": "C106751", "definition": "Columbia-Suicide Severity Rating Scale Baseline/Screening Version - Have you taken any steps towards making a suicide attempt or preparing to kill yourself (such as collecting pills, getting a gun, giving valuables away or writing a suicide note)? (Past _ Years).", "preferredTerm": "C-SSRS Baseline/Screening Version - Preparatory Acts or Behaviors Toward Suicide Attempt (Past X Years)", "submissionValue": "CSS0419B", "synonyms": ["CSS04-Preparatory Acts/Behavior-P_Y"]}, {"conceptId": "C106752", "definition": "Columbia-Suicide Severity Rating Scale Baseline/Screening Version - Description of preparatory acts or behavior.", "preferredTerm": "C-SSRS Baseline/Screening Version - Description of Preparatory Acts or Behaviors Toward Suicide Attempt", "submissionValue": "CSS0419C", "synonyms": ["CSS04-Preparatory Acts/Behav, Descr"]}, {"conceptId": "C106753", "definition": "Columbia-Suicide Severity Rating Scale Baseline/Screening Version - Suicidal behavior was present during the assessment period? (Lifetime).", "preferredTerm": "C-SSRS Baseline/Screening Version - Suicidal Behavior (Lifetime)", "submissionValue": "CSS0420A", "synonyms": ["CSS04-Suicidal Behavior-Life"]}, {"conceptId": "C106754", "definition": "Columbia-Suicide Severity Rating Scale Baseline/Screening Version - Suicidal behavior was present during the assessment period? (Past _ Years).", "preferredTerm": "C-SSRS Baseline/Screening Version - Suicidal Behavior (Past X Years)", "submissionValue": "CSS0420B", "synonyms": ["CSS04-Suicidal Behavior-P_Y"]}, {"conceptId": "C106755", "definition": "Columbia-Suicide Severity Rating Scale Baseline/Screening Version - Most recent attempt date.", "preferredTerm": "C-SSRS Baseline/Screening Version - Most Recent Suicide Attempt Date", "submissionValue": "CSS0421A", "synonyms": ["CSS04-Most Recent Attempt Date"]}, {"conceptId": "C106756", "definition": "Columbia-Suicide Severity Rating Scale Baseline/Screening Version - Most recent attempt actual lethality/medical damage.", "preferredTerm": "C-SSRS Baseline/Screening Version - Most Recent Suicide Attempt Actual Lethality/Medical Damage", "submissionValue": "CSS0421B", "synonyms": ["CSS04-Most Recent Attempt Damage"]}, {"conceptId": "C106757", "definition": "Columbia-Suicide Severity Rating Scale Baseline/Screening Version - Most recent attempt potential lethality.", "preferredTerm": "C-SSRS Baseline/Screening Version - Most Recent Suicide Attempt Potential Lethality", "submissionValue": "CSS0421C", "synonyms": ["CSS04-Most Recent Attempt Potential"]}, {"conceptId": "C106758", "definition": "Columbia-Suicide Severity Rating Scale Baseline/Screening Version - Most lethal attempt date.", "preferredTerm": "C-SSRS Baseline/Screening Version - Most Lethal Suicide Attempt Date", "submissionValue": "CSS0422A", "synonyms": ["CSS04-Most Lethal Attempt Date"]}, {"conceptId": "C106759", "definition": "Columbia-Suicide Severity Rating Scale Baseline/Screening Version - Most lethal attempt actual lethality/medical damage.", "preferredTerm": "C-SSRS Baseline/Screening Version - Most Lethal Suicide Attempt Actual Lethality/Medical Damage", "submissionValue": "CSS0422B", "synonyms": ["CSS04-Most Lethal Attempt Damage"]}, {"conceptId": "C106760", "definition": "Columbia-Suicide Severity Rating Scale Baseline/Screening Version - Most lethal attempt potential lethality.", "preferredTerm": "C-SSRS Baseline/Screening Version - Most Lethal Suicide Attempt Potential Lethality", "submissionValue": "CSS0422C", "synonyms": ["CSS04-Most Lethal Attempt Potential"]}, {"conceptId": "C106761", "definition": "Columbia-Suicide Severity Rating Scale Baseline/Screening Version - Initial/first attempt date.", "preferredTerm": "C-SSRS Baseline/Screening Version - First Suicide Attempt Date", "submissionValue": "CSS0423A", "synonyms": ["CSS04-First Attempt Date"]}, {"conceptId": "C106762", "definition": "Columbia-Suicide Severity Rating Scale Baseline/Screening Version - Initial/first attempt actual lethality/medical damage.", "preferredTerm": "C-SSRS Baseline/Screening Version - First Suicide Attempt Actual Lethality/Medical Damage", "submissionValue": "CSS0423B", "synonyms": ["CSS04-First Attempt Damage"]}, {"conceptId": "C106763", "definition": "Columbia-Suicide Severity Rating Scale Baseline/Screening Version - Initial/first attempt potential lethality.", "preferredTerm": "C-SSRS Baseline/Screening Version - First Suicide Attempt Potential Lethality", "submissionValue": "CSS0423C", "synonyms": ["CSS04-First Attempt Potential"]}]}