{"_links": {"parentPackage": {"href": "/mdr/ct/packages/sdtmct-2019-12-20", "title": "SDTM Controlled Terminology Package 40 Effective 2019-12-20", "type": "Terminology"}, "priorVersion": {"href": "/mdr/ct/packages/sdtmct-2019-09-27/codelists/C113846", "title": "CDISC Questionnaire Borg CR10 Test Code Terminology", "type": "Code List"}, "rootItem": {"href": "/mdr/root/ct/sdtmct/codelists/C113846", "title": "Version-agnostic anchor resource for codelist C113846", "type": "Root Value Domain"}, "self": {"href": "/mdr/ct/packages/sdtmct-2019-12-20/codelists/C113846", "title": "CDISC Questionnaire Borg CR10 Test Code Terminology", "type": "Code List"}}, "conceptId": "C113846", "definition": "Borg CR10 scale test code.", "extensible": "false", "name": "Borg CR10 Scale Questionnaire Test Code", "preferredTerm": "CDISC Questionnaire Borg CR10 Test Code Terminology", "submissionValue": "BCR101TC", "synonyms": ["Borg CR10 Scale Questionnaire Test Code"], "terms": [{"conceptId": "C113888", "definition": "Borg CR10 Scale - Rating.", "preferredTerm": "Borg CR10 - Rating", "submissionValue": "BCR10101", "synonyms": ["BCR101-Rating"]}]}