{"_links": {"parentPackage": {"href": "/mdr/ct/packages/sdtmct-2019-12-20", "title": "SDTM Controlled Terminology Package 40 Effective 2019-12-20", "type": "Terminology"}, "priorVersion": {"href": "/mdr/ct/packages/sdtmct-2019-09-27/codelists/C119013", "title": "CDISC SDTM Ophthalmic Focus of Study Specific Interest Terminology", "type": "Code List"}, "rootItem": {"href": "/mdr/root/ct/sdtmct/codelists/C119013", "title": "Version-agnostic anchor resource for codelist C119013", "type": "Root Value Domain"}, "self": {"href": "/mdr/ct/packages/sdtmct-2019-12-20/codelists/C119013", "title": "CDISC SDTM Ophthalmic Focus of Study Specific Interest Terminology", "type": "Code List"}}, "conceptId": "C119013", "definition": "Terminology relevant to the identification of a focus of ophthalmic observations.", "extensible": "false", "name": "Ophthalmic Focus of Study Specific Interest", "preferredTerm": "CDISC SDTM Ophthalmic Focus of Study Specific Interest Terminology", "submissionValue": "OEFOCUS", "synonyms": ["Ophthalmic Focus of Study Specific Interest"], "terms": [{"conceptId": "C119333", "definition": "The eye positioned in the right orbit, Oculus Dexter.", "preferredTerm": "Right Eye", "submissionValue": "OD"}, {"conceptId": "C119334", "definition": "The eye positioned in the left orbit, Oculus Sinister.", "preferredTerm": "Left Eye", "submissionValue": "OS"}, {"conceptId": "C119335", "definition": "Of or pertaining to both the left and right eyes, Oculus Uterque.", "preferredTerm": "Both Eyes", "submissionValue": "OU"}]}