{"_links": {"parentPackage": {"href": "/mdr/ct/packages/sdtmct-2019-12-20", "title": "SDTM Controlled Terminology Package 40 Effective 2019-12-20", "type": "Terminology"}, "priorVersion": {"href": "/mdr/ct/packages/sdtmct-2019-09-27/codelists/C125749", "title": "CDISC Questionnaire PHQ Screener Version Test Code Terminology", "type": "Code List"}, "rootItem": {"href": "/mdr/root/ct/sdtmct/codelists/C125749", "title": "Version-agnostic anchor resource for codelist C125749", "type": "Root Value Domain"}, "self": {"href": "/mdr/ct/packages/sdtmct-2019-12-20/codelists/C125749", "title": "CDISC Questionnaire PHQ Screener Version Test Code Terminology", "type": "Code List"}}, "conceptId": "C125749", "definition": "Patient Health Questionnaire Screener Version test code.", "extensible": "false", "name": "Patient Health Questionnaire Screener Version Questionnaire Test Code", "preferredTerm": "CDISC Questionnaire PHQ Screener Version Test Code Terminology", "submissionValue": "PHQ03TC", "synonyms": ["Patient Health Questionnaire Screener Version Questionnaire Test Code"], "terms": [{"conceptId": "C125829", "definition": "Patient Health Questionnaire Screener Version - During the last 4 weeks, how much have you been bothered by stomach pain?", "preferredTerm": "PHQ Screener Version - Stomach Pain", "submissionValue": "PHQ0301A", "synonyms": ["PHQ03-Stomach Pain"]}, {"conceptId": "C125830", "definition": "Patient Health Questionnaire Screener Version - During the last 4 weeks, how much have you been bothered by back pain?", "preferredTerm": "PHQ Screener Version - Back Pain", "submissionValue": "PHQ0301B", "synonyms": ["PHQ03-Back Pain"]}, {"conceptId": "C125831", "definition": "Patient Health Questionnaire Screener Version - During the last 4 weeks, how much have you been bothered by pain in your arms, legs, or joints (knees, hips, etc.)?", "preferredTerm": "PHQ Screener Version - Pain in Arms, Legs, Joints", "submissionValue": "PHQ0301C", "synonyms": ["PHQ03-Pain in Your Arms/Legs/Joints"]}, {"conceptId": "C125832", "definition": "Patient Health Questionnaire Screener Version - During the last 4 weeks, how much have you been bothered by menstrual cramps or other problems with your periods?", "preferredTerm": "PHQ Screener Version - Menstrual Cramp or Other Problem", "submissionValue": "PHQ0301D", "synonyms": ["PHQ03-Menstrual Cramp/Problem"]}, {"conceptId": "C125833", "definition": "Patient Health Questionnaire Screener Version - During the last 4 weeks, how much have you been bothered by pain or problems during sexual intercourse?", "preferredTerm": "PHQ Screener Version - Pain During Intercourse", "submissionValue": "PHQ0301E", "synonyms": ["PHQ03-Pain/Problems During Intercourse"]}, {"conceptId": "C125834", "definition": "Patient Health Questionnaire Screener Version - During the last 4 weeks, how much have you been bothered by headaches?", "preferredTerm": "PHQ Screener Version - Headaches", "submissionValue": "PHQ0301F", "synonyms": ["PHQ03-Headaches"]}, {"conceptId": "C125835", "definition": "Patient Health Questionnaire Screener Version - During the last 4 weeks, how much have you been bothered by chest pain?", "preferredTerm": "PHQ Screener Version - Chest Pain", "submissionValue": "PHQ0301G", "synonyms": ["PHQ03-Chest Pain"]}, {"conceptId": "C125836", "definition": "Patient Health Questionnaire Screener Version - During the last 4 weeks, how much have you been bothered by dizziness?", "preferredTerm": "PHQ Screener Version - Dizziness", "submissionValue": "PHQ0301H", "synonyms": ["PHQ03-Dizziness"]}, {"conceptId": "C125837", "definition": "Patient Health Questionnaire Screener Version - During the last 4 weeks, how much have you been bothered by fainting spells?", "preferredTerm": "PHQ Screener Version - Fainting Spells", "submissionValue": "PHQ0301I", "synonyms": ["PHQ03-Fainting Spells"]}, {"conceptId": "C125838", "definition": "Patient Health Questionnaire Screener Version - During the last 4 weeks, how much have you been bothered by feeling your heart pound/race?", "preferredTerm": "PHQ Screener Version - Feeling Your Heart Pound or Race", "submissionValue": "PHQ0301J", "synonyms": ["PHQ03-Feeling Your Heart Pound/Race"]}, {"conceptId": "C125839", "definition": "Patient Health Questionnaire Screener Version - During the last 4 weeks, how much have you been bothered by shortness of breath?", "preferredTerm": "PHQ Screener Version - Shortness of Breath", "submissionValue": "PHQ0301K", "synonyms": ["PHQ03-Shortness of Breath"]}, {"conceptId": "C125840", "definition": "Patient Health Questionnaire Screener Version - During the last 4 weeks, how much have you been bothered by constipation, loose bowels, or diarrhea?", "preferredTerm": "PHQ Screener Version - Constipation or Diarrhea", "submissionValue": "PHQ0301L", "synonyms": ["PHQ03-Constipation/Diarrhea"]}, {"conceptId": "C125841", "definition": "Patient Health Questionnaire Screener Version - During the last 4 weeks, how much have you been bothered by nausea, gas, indigestion?", "preferredTerm": "PHQ Screener Version - Nausea, Gas or Indigestion", "submissionValue": "PHQ0301M", "synonyms": ["PHQ03-Nausea/Gas/Indigestion"]}, {"conceptId": "C125842", "definition": "Patient Health Questionnaire Screener Version - Over the last 2 weeks, how often have you been bothered by little interest or pleasure in doing things?", "preferredTerm": "PHQ Screener Version - Little Interest in Doing Things", "submissionValue": "PHQ0302A", "synonyms": ["PHQ03-Little Interest in Doing Things"]}, {"conceptId": "C125843", "definition": "Patient Health Questionnaire Screener Version - Over the last 2 weeks, how often have you been bothered by feeling down, depressed, or hopeless?", "preferredTerm": "PHQ Screener Version - Feeling Down or Depressed", "submissionValue": "PHQ0302B", "synonyms": ["PHQ03-Feeling Down/Depressed"]}, {"conceptId": "C125844", "definition": "Patient Health Questionnaire Screener Version - Over the last 2 weeks, how often have you been bothered by trouble falling or staying asleep, or sleeping too much?", "preferredTerm": "PHQ Screener Version - Last 2 Weeks, Trouble Falling or Staying Asleep", "submissionValue": "PHQ0302C", "synonyms": ["PHQ03-Last 2 Week Trouble Falling Asleep"]}, {"conceptId": "C125845", "definition": "Patient Health Questionnaire Screener Version - Over the last 2 weeks, how often have you been bothered by feeling tired or having little energy?", "preferredTerm": "PHQ Screener Version - Feeling Tired or Little Energy", "submissionValue": "PHQ0302D", "synonyms": ["PHQ03-Feeling Tired/Little Energy"]}, {"conceptId": "C125846", "definition": "Patient Health Questionnaire Screener Version - Over the last 2 weeks, how often have you been bothered by poor appetite or overeating?", "preferredTerm": "PHQ Screener Version - Poor Appetite or Overeating", "submissionValue": "PHQ0302E", "synonyms": ["PHQ03-Poor Appetite or Overeating"]}, {"conceptId": "C125847", "definition": "Patient Health Questionnaire Screener Version - Over the last 2 weeks, how often have you been bothered by feeling bad about yourself - or that you are a failure or have let yourself or your family down?", "preferredTerm": "PHQ Screener Version - Feeling Bad About Yourself", "submissionValue": "PHQ0302F", "synonyms": ["PHQ03-Feeling Bad About Yourself"]}, {"conceptId": "C125848", "definition": "Patient Health Questionnaire Screener Version - Over the last 2 weeks, how often have you been bothered by trouble concentrating on things, such as reading the newspaper or watching television?", "preferredTerm": "PHQ Screener Version - Last 2 Weeks, Trouble Concentrating", "submissionValue": "PHQ0302G", "synonyms": ["PHQ03-Last 2 Week Trouble Concentrating"]}, {"conceptId": "C125849", "definition": "Patient Health Questionnaire Screener Version - Over the last 2 weeks, how often have you been bothered by moving or speaking so slowly that other people could have noticed? Or the opposite - being so fidgety or restless that you have been moving around a lot more than usual?", "preferredTerm": "PHQ Screener Version - Moving Slowly or Moving More", "submissionValue": "PHQ0302H", "synonyms": ["PHQ03-Moving Slowly/Fidgety/Restless"]}, {"conceptId": "C125850", "definition": "Patient Health Questionnaire Screener Version - Over the last 2 weeks, how often have you been bothered by thoughts that you would be better off dead or of hurting yourself in some way?", "preferredTerm": "PHQ Screener Version - Thoughts Be Better Off Dead", "submissionValue": "PHQ0302I", "synonyms": ["PHQ03-Thoughts Be Better Off Dead"]}, {"conceptId": "C125851", "definition": "Patient Health Questionnaire Screener Version - In the last 4 weeks, have you had an anxiety attack - suddenly feeling fear or panic?", "preferredTerm": "PHQ Screener Version - Anxiety Attack", "submissionValue": "PHQ0303A", "synonyms": ["PHQ03-Anxiety Attack"]}, {"conceptId": "C125852", "definition": "Patient Health Questionnaire Screener Version - Has this ever happened before?", "preferredTerm": "PHQ Screener Version - Anxiety Attack Happened Before", "submissionValue": "PHQ0303B", "synonyms": ["PHQ03-Anxiety Attack Happened Before"]}, {"conceptId": "C125853", "definition": "Patient Health Questionnaire Screener Version - Do some of these attacks come suddenly out of the blue - that is, in situations where you don't expect to be nervous or uncomfortable?", "preferredTerm": "PHQ Screener Version - Anxiety Attacks Come Suddenly", "submissionValue": "PHQ0303C", "synonyms": ["PHQ03-Anxiety Attacks Come Suddenly"]}, {"conceptId": "C125854", "definition": "Patient Health Questionnaire Screener Version - Do these attacks bother you a lot or are you worried about having another attack?", "preferredTerm": "PHQ Screener Version - Anxiety Attacks Bother a Lot", "submissionValue": "PHQ0303D", "synonyms": ["PHQ03-Anxiety Attacks Bother a Lot"]}, {"conceptId": "C125855", "definition": "Patient Health Questionnaire Screener Version - Think about your last bad anxiety attack. Were you short of breath?", "preferredTerm": "PHQ Screener Version - Anxiety Attack Short of Breath", "submissionValue": "PHQ0304A", "synonyms": ["PHQ03-Anxiety Attack Short of Breath"]}, {"conceptId": "C125856", "definition": "Patient Health Questionnaire Screener Version - Think about your last bad anxiety attack. Did your heart race, pound, or skip?", "preferredTerm": "PHQ Screener Version - Anxiety Attack Heart Race or Pound", "submissionValue": "PHQ0304B", "synonyms": ["PHQ03-Anxiety Attack Heart Race/Pound"]}, {"conceptId": "C125857", "definition": "Patient Health Questionnaire Screener Version - Think about your last bad anxiety attack. Did you have chest pain or pressure?", "preferredTerm": "PHQ Screener Version - Anxiety Attack Chest Pain", "submissionValue": "PHQ0304C", "synonyms": ["PHQ03-Anxiety Attack Chest Pain"]}, {"conceptId": "C125858", "definition": "Patient Health Questionnaire Screener Version - Think about your last bad anxiety attack. Did you sweat?", "preferredTerm": "PHQ Screener Version - Anxiety Attack Sweat", "submissionValue": "PHQ0304D", "synonyms": ["PHQ03-Anxiety Attack Sweat"]}, {"conceptId": "C125859", "definition": "Patient Health Questionnaire Screener Version - Think about your last bad anxiety attack. Did you feel as if you were choking?", "preferredTerm": "PHQ Screener Version - Anxiety Attack Choking", "submissionValue": "PHQ0304E", "synonyms": ["PHQ03-Anxiety Attack Choking"]}, {"conceptId": "C125860", "definition": "Patient Health Questionnaire Screener Version - Think about your last bad anxiety attack. Did you have hot flashes or chills?", "preferredTerm": "PHQ Screener Version - Anxiety Attack Hot Flash or Chill", "submissionValue": "PHQ0304F", "synonyms": ["PHQ03-Anxiety Attack Hot Flash/Chill"]}, {"conceptId": "C125861", "definition": "Patient Health Questionnaire Screener Version - Think about your last bad anxiety attack. Did you have nausea or an upset stomach, or the feeling that you were going to have diarrhea?", "preferredTerm": "PHQ Screener Version - Anxiety Attack Nausea or Diarrhea", "submissionValue": "PHQ0304G", "synonyms": ["PHQ03-Anxiety Attack Nausea/Diarrhea"]}, {"conceptId": "C125862", "definition": "Patient Health Questionnaire Screener Version - Think about your last bad anxiety attack. Did you feel dizzy, unsteady, or faint?", "preferredTerm": "PHQ Screener Version - Anxiety Attack Dizzy or Faint", "submissionValue": "PHQ0304H", "synonyms": ["PHQ03-Anxiety Attack Dizzy/Faint"]}, {"conceptId": "C125863", "definition": "Patient Health Questionnaire Screener Version - Think about your last bad anxiety attack. Did you have tingling or numbness in parts of your body?", "preferredTerm": "PHQ Screener Version - Anxiety Attack Tingling or Numbness", "submissionValue": "PHQ0304I", "synonyms": ["PHQ03-Anxiety Attack Tingling/Numbness"]}, {"conceptId": "C125864", "definition": "Patient Health Questionnaire Screener Version - Think about your last bad anxiety attack. Did you tremble or shake?", "preferredTerm": "PHQ Screener Version - Anxiety Attack Tremble or Shake", "submissionValue": "PHQ0304J", "synonyms": ["PHQ03-Anxiety Attack Tremble/Shake"]}, {"conceptId": "C125865", "definition": "Patient Health Questionnaire Screener Version - Think about your last bad anxiety attack. Were you afraid you were dying?", "preferredTerm": "PHQ Screener Version - Anxiety Attack Afraid You Were Dying", "submissionValue": "PHQ0304K", "synonyms": ["PHQ03-Anxiety Attack Afraid You Dying"]}, {"conceptId": "C125866", "definition": "Patient Health Questionnaire Screener Version - Over the last 4 weeks, how often have you been bothered by feeling nervous, anxious, on edge, or worrying a lot about different things?", "preferredTerm": "PHQ Screener Version - Feeling Nervous or Anxious", "submissionValue": "PHQ0305A", "synonyms": ["PHQ03-Feeling Nervous/Anxious"]}, {"conceptId": "C125867", "definition": "Patient Health Questionnaire Screener Version - Over the last 4 weeks, how often have you been bothered by feeling restless so that it is hard to sit still?", "preferredTerm": "PHQ Screener Version - Feeling Restless", "submissionValue": "PHQ0305B", "synonyms": ["PHQ03-Feeling Restless"]}, {"conceptId": "C125868", "definition": "Patient Health Questionnaire Screener Version - Over the last 4 weeks, how often have you been bothered by getting tired very easily?", "preferredTerm": "PHQ Screener Version - Getting Tired Easily", "submissionValue": "PHQ0305C", "synonyms": ["PHQ03-Getting Tired Easily"]}, {"conceptId": "C125869", "definition": "Patient Health Questionnaire Screener Version - Over the last 4 weeks, how often have you been bothered by muscle tension, aches, or soreness?", "preferredTerm": "PHQ Screener Version - Muscle Tension", "submissionValue": "PHQ0305D", "synonyms": ["PHQ03-Muscle Tension/Aches/Soreness"]}, {"conceptId": "C125870", "definition": "Patient Health Questionnaire Screener Version - Over the last 4 weeks, how often have you been bothered by trouble falling asleep or staying asleep?", "preferredTerm": "PHQ Screener Version - Last 4 Weeks, Trouble Falling or Staying Asleep", "submissionValue": "PHQ0305E", "synonyms": ["PHQ03-Last 4 Week Trouble Falling Asleep"]}, {"conceptId": "C125871", "definition": "Patient Health Questionnaire Screener Version - Over the last 4 weeks, how often have you been bothered by trouble concentrating on things, such as reading a book or watching TV?", "preferredTerm": "PHQ Screener Version - Last 4 Weeks, Trouble Concentrating", "submissionValue": "PHQ0305F", "synonyms": ["PHQ03-Last 4 Week Trouble Concentrating"]}, {"conceptId": "C125872", "definition": "Patient Health Questionnaire Screener Version - Over the last 4 weeks, how often have you been bothered by becoming easily annoyed or irritable?", "preferredTerm": "PHQ Screener Version - Becoming Easily Annoyed", "submissionValue": "PHQ0305G", "synonyms": ["PHQ03-Becoming Easily Annoyed"]}, {"conceptId": "C125873", "definition": "Patient Health Questionnaire Screener Version - Do you often feel that you can't control what or how much you eat?", "preferredTerm": "PHQ Screener Version - No Control What or How Much Eat", "submissionValue": "PHQ0306A", "synonyms": ["PHQ03-No Control What/How Much Eat"]}, {"conceptId": "C125874", "definition": "Patient Health Questionnaire Screener Version - Do you often eat, within any 2 - hour period, what most people would regard as an unusually large amount of food?", "preferredTerm": "PHQ Screener Version - Often Eat Large Amount Food", "submissionValue": "PHQ0306B", "synonyms": ["PHQ03-Eat 2-Hours Large Amount Food"]}, {"conceptId": "C125875", "definition": "Patient Health Questionnaire Screener Version - Has this been as often, on average, as twice a week for the last 3 months?", "preferredTerm": "PHQ Screener Version - Eat a Lot Twice Week", "submissionValue": "PHQ0306C", "synonyms": ["PHQ03-Eat a Lot Twice Week"]}, {"conceptId": "C125876", "definition": "Patient Health Questionnaire Screener Version - In the last 3 months have you often done any of the following in order to avoid gaining weight: Made yourself vomit?", "preferredTerm": "PHQ Screener Version - Avoid Gaining Weight, Made Yourself Vomit", "submissionValue": "PHQ0307A", "synonyms": ["PHQ03-Made Yourself Vomit"]}, {"conceptId": "C125877", "definition": "Patient Health Questionnaire Screener Version - In the last 3 months have you often done any of the following in order to avoid gaining weight: Took more than twice the recommended dose of laxatives to avoid gaining weight?", "preferredTerm": "PHQ Screener Version - Avoid Gaining Weight, Took Twice Dose of Laxatives", "submissionValue": "PHQ0307B", "synonyms": ["PHQ03-Took Twice Dose of Laxatives"]}, {"conceptId": "C125878", "definition": "Patient Health Questionnaire Screener Version - In the last 3 months have you often done any of the following in order to avoid gaining weight: Fasted - not eaten anything at all for at least 24 hours to avoid gaining weight?", "preferredTerm": "PHQ Screener Version - Avoid Gaining Weight, Fasted at Least 24 Hours", "submissionValue": "PHQ0307C", "synonyms": ["PHQ03-Fasted at Least 24 Hours"]}, {"conceptId": "C125879", "definition": "Patient Health Questionnaire Screener Version - In the last 3 months have you often done any of the following in order to avoid gaining weight: Exercised for more than an hour specifically to avoid gaining weight after binge eating?", "preferredTerm": "PHQ Screener Version - Avoid Gaining Weight, Exercise", "submissionValue": "PHQ0307D", "synonyms": ["PHQ03-Exercised Avoid Gaining Weight"]}, {"conceptId": "C125880", "definition": "Patient Health Questionnaire Screener Version - If you checked \"YES\" to any of these ways of avoiding gaining weight, were any as often, on average, as twice a week?", "preferredTerm": "PHQ Screener Version - Avoid Gaining Weight Twice Week", "submissionValue": "PHQ0308", "synonyms": ["PHQ03-Avoid Gaining Weight Twice Week"]}, {"conceptId": "C125881", "definition": "Patient Health Questionnaire Screener Version - Do you ever drink alcohol (including beer or wine)?", "preferredTerm": "PHQ Screener Version - Drink Alcohol", "submissionValue": "PHQ0309", "synonyms": ["PHQ03-Drink Alcohol"]}, {"conceptId": "C125882", "definition": "Patient Health Questionnaire Screener Version - Have any of the following happened to you more than once in the last 6 months: You drank alcohol even though a doctor suggested that you stop drinking because of a problem with your health?", "preferredTerm": "PHQ Screener Version - Drank Alcohol With Health Problem", "submissionValue": "PHQ0310A", "synonyms": ["PHQ03-Drank Alcohol With Health Problem"]}, {"conceptId": "C125883", "definition": "Patient Health Questionnaire Screener Version - Have any of the following happened to you more than once in the last 6 months: You drank alcohol, were high from alcohol, or hung over while you were working, or going to school, or taking care of children or other responsibilities?", "preferredTerm": "PHQ Screener Version - Drank Alcohol at Work or School", "submissionValue": "PHQ0310B", "synonyms": ["PHQ03-Alcohol at Work/School"]}, {"conceptId": "C125884", "definition": "Patient Health Questionnaire Screener Version - Have any of the following happened to you more than once in the last 6 months: You missed or were late for work, school, or other activities because you were drinking or hung over?", "preferredTerm": "PHQ Screener Version - Missed Work Because of Drinking", "submissionValue": "PHQ0310C", "synonyms": ["PHQ03-Missed Work Because of Drinking"]}, {"conceptId": "C125885", "definition": "Patient Health Questionnaire Screener Version - Have any of the following happened to you more than once in the last 6 months: You had a problem getting along with other people while you were drinking?", "preferredTerm": "PHQ Screener Version - Problem Getting Along With People While Drinking", "submissionValue": "PHQ0310D", "synonyms": ["PHQ03-Problem With People While Drinking"]}, {"conceptId": "C125886", "definition": "Patient Health Questionnaire Screener Version - Have any of the following happened to you more than once in the last 6 months: You drove a car after having several drinks or after drinking too much?", "preferredTerm": "PHQ Screener Version - Drove Car After Several Drinks", "submissionValue": "PHQ0310E", "synonyms": ["PHQ03-Drove After Several Drinks"]}, {"conceptId": "C125887", "definition": "Patient Health Questionnaire Screener Version - If you checked off any problems on this questionnaire, how difficult have these problems made it for you to do your work, take care of things at home, or get along with other people?", "preferredTerm": "PHQ Screener Version - Problems Made It Difficult to Work", "submissionValue": "PHQ0311", "synonyms": ["PHQ03-Problems Made It Difficult to Work"]}]}