{"_links": {"parentPackage": {"href": "/mdr/ct/packages/sdtmct-2019-12-20", "title": "SDTM Controlled Terminology Package 40 Effective 2019-12-20", "type": "Terminology"}, "priorVersion": {"href": "/mdr/ct/packages/sdtmct-2019-09-27/codelists/C125742", "title": "CDISC Questionnaire ASEX-Male Version Test Name Terminology", "type": "Code List"}, "rootItem": {"href": "/mdr/root/ct/sdtmct/codelists/C125742", "title": "Version-agnostic anchor resource for codelist C125742", "type": "Root Value Domain"}, "self": {"href": "/mdr/ct/packages/sdtmct-2019-12-20/codelists/C125742", "title": "CDISC Questionnaire ASEX-Male Version Test Name Terminology", "type": "Code List"}}, "conceptId": "C125742", "definition": "Arizona Sexual Experiences Scale - Male test name.", "extensible": "false", "name": "Arizona Sexual Experiences Scale - Male Questionnaire Test Name", "preferredTerm": "CDISC Questionnaire ASEX-Male Version Test Name Terminology", "submissionValue": "ASEX02TN", "synonyms": ["Arizona Sexual Experiences Scale - Male Questionnaire Test Name"], "terms": [{"conceptId": "C129256", "definition": "Arizona Sexual Experiences Scale Male - Comments.", "preferredTerm": "ASEX-Male Version - Comments", "submissionValue": "ASEX02-Comments", "synonyms": ["ASEX02-Comments"]}, {"conceptId": "C125770", "definition": "Arizona Sexual Experiences Scale Male - Can you easily get and keep an erection?", "preferredTerm": "ASEX-Male Version - Keep Erection", "submissionValue": "ASEX02-Keep Erection", "synonyms": ["ASEX02-Keep Erection"]}, {"conceptId": "C125772", "definition": "Arizona Sexual Experiences Scale Male - Are your orgasms satisfying?", "preferredTerm": "ASEX-Male Version - Orgasms Satisfying", "submissionValue": "ASEX02-Orgasms Satisfying", "synonyms": ["ASEX02-Orgasms Satisfying"]}, {"conceptId": "C125771", "definition": "Arizona Sexual Experiences Scale Male - How easily can you reach an orgasm?", "preferredTerm": "ASEX-Male Version - Reach Orgasm", "submissionValue": "ASEX02-Reach Orgasm", "synonyms": ["ASEX02-Reach Orgasm"]}, {"conceptId": "C125768", "definition": "Arizona Sexual Experiences Scale Male - How strong is your sex drive?", "preferredTerm": "ASEX-Male Version - Sex Drive", "submissionValue": "ASEX02-Sex Drive", "synonyms": ["ASEX02-Sex Drive"]}, {"conceptId": "C125769", "definition": "Arizona Sexual Experiences Scale Male - How easily are you sexually aroused (turned on)?", "preferredTerm": "ASEX-Male Version - Sexually Aroused", "submissionValue": "ASEX02-Sexually Aroused", "synonyms": ["ASEX02-Sexually Aroused"]}]}