{"_links": {"parentPackage": {"href": "/mdr/ct/packages/sdtmct-2019-12-20", "title": "SDTM Controlled Terminology Package 40 Effective 2019-12-20", "type": "Terminology"}, "priorVersion": {"href": "/mdr/ct/packages/sdtmct-2019-09-27/codelists/C130264", "title": "CDISC Questionnaire Q-LES-Q Test Name Terminology", "type": "Code List"}, "rootItem": {"href": "/mdr/root/ct/sdtmct/codelists/C130264", "title": "Version-agnostic anchor resource for codelist C130264", "type": "Root Value Domain"}, "self": {"href": "/mdr/ct/packages/sdtmct-2019-12-20/codelists/C130264", "title": "CDISC Questionnaire Q-LES-Q Test Name Terminology", "type": "Code List"}}, "conceptId": "C130264", "definition": "Quality Of Life Enjoyment And Satisfaction Questionnaire test name.", "extensible": "false", "name": "Quality Of Life Enjoyment And Satisfaction Questionnaire Test Name", "preferredTerm": "CDISC Questionnaire Q-LES-Q Test Name Terminology", "submissionValue": "QLES1TN", "synonyms": ["Quality Of Life Enjoyment And Satisfaction Questionnaire Test Name"], "terms": [{"conceptId": "C130696", "definition": "Quality Of Life Enjoyment And Satisfaction Questionnaire - Taking everything into consideration, during the past week how satisfied have you been with your: Ability to function in daily life?", "preferredTerm": "Q-LES-Q - Ability to Function in Daily Life", "submissionValue": "QLES1-Ability to Function in Daily Life", "synonyms": ["QLES1-Ability to Function in Daily Life"]}, {"conceptId": "C130700", "definition": "Quality Of Life Enjoyment And Satisfaction Questionnaire - Taking everything into consideration, during the past week how satisfied have you been with your: Ability to get around physically without feeling dizzy or unsteady or falling?", "preferredTerm": "Q-LES-Q - Ability to Get Around Physically", "submissionValue": "QLES1-Ability to Get Around Physically", "synonyms": ["QLES1-Ability to Get Around Physically"]}, {"conceptId": "C130623", "definition": "Quality Of Life Enjoyment And Satisfaction Questionnaire - During the past week how much of the time have you: Felt able to communicate with others?", "preferredTerm": "Q-LES-Q - Able to Communicate With Others", "submissionValue": "QLES1-Able to Communicate With Others", "synonyms": ["QLES1-Able to Communicate With Others"]}, {"conceptId": "C130629", "definition": "Quality Of Life Enjoyment And Satisfaction Questionnaire - During the past week how much of the time have you: Felt able to deal with life's problems?", "preferredTerm": "Q-LES-Q - Able to Deal With Life's Problems", "submissionValue": "QLES1-Able to Deal With Life's Problems", "synonyms": ["QLES1-Able to Deal With Life's Problems"]}, {"conceptId": "C130630", "definition": "Quality Of Life Enjoyment And Satisfaction Questionnaire - During the past week how much of the time have you: Felt able to take care of yourself?", "preferredTerm": "Q-LES-Q - Able to Take Care of Yourself", "submissionValue": "QLES1-Able to Take Care of Yourself", "synonyms": ["QLES1-Able to Take Care of Yourself"]}, {"conceptId": "C130628", "definition": "Quality Of Life Enjoyment And Satisfaction Questionnaire - During the past week how much of the time have you: Felt able to travel about to get things done when needed (walk, use car, bus, train, or whatever is available as needed)?", "preferredTerm": "Q-LES-Q - Able to Travel About to Get Things Done When Needed", "submissionValue": "QLES1-Able to Travel About When Needed", "synonyms": ["QLES1-Able to Travel About When Needed"]}, {"conceptId": "C130655", "definition": "Quality Of Life Enjoyment And Satisfaction Questionnaire - During the past week, how often have you: Had a feeling of accomplishment with regard to household activities?", "preferredTerm": "Q-LES-Q - Accomplish Household Activities", "submissionValue": "QLES1-Accomplish Household Activities", "synonyms": ["QLES1-Accomplish Household Activities"]}, {"conceptId": "C130639", "definition": "Quality Of Life Enjoyment And Satisfaction Questionnaire - During the past week, how often have you: Accomplished what you wanted to do?", "preferredTerm": "Q-LES-Q - Accomplished What You Wanted to Do", "submissionValue": "QLES1-Accomplished What You Wanted to Do", "synonyms": ["QLES1-Accomplished What You Wanted to Do"]}, {"conceptId": "C130608", "definition": "Quality Of Life Enjoyment And Satisfaction Questionnaire - With regard to your physical health, during the past week how much of the time have you: Felt in at least very good physical health?", "preferredTerm": "Q-LES-Q - At Least Very Good Physical Health", "submissionValue": "QLES1-At Least Very Good Physical Health", "synonyms": ["QLES1-At Least Very Good Physical Health"]}, {"conceptId": "C130611", "definition": "Quality Of Life Enjoyment And Satisfaction Questionnaire - With regard to your physical health, during the past week how much of the time have you: Felt able to be as physically active as needed?", "preferredTerm": "Q-LES-Q - Be as Physically Active as Needed", "submissionValue": "QLES1-Be as Physically Active as Needed", "synonyms": ["QLES1-Be as Physically Active as Needed"]}, {"conceptId": "C130642", "definition": "Quality Of Life Enjoyment And Satisfaction Questionnaire - During the past week, how often have you: Been interested in your work?", "preferredTerm": "Q-LES-Q - Been Interested in Your Work", "submissionValue": "QLES1-Been Interested in Your Work", "synonyms": ["QLES1-Been Interested in Your Work"]}, {"conceptId": "C130671", "definition": "Quality Of Life Enjoyment And Satisfaction Questionnaire - During the past week how much of the time have you: Communicated and interacted with ease with others at your course/class?", "preferredTerm": "Q-LES-Q - Communicated With Ease at Course", "submissionValue": "QLES1-Communicated With Ease at Course", "synonyms": ["QLES1-Communicated With Ease at Course"]}, {"conceptId": "C130647", "definition": "Quality Of Life Enjoyment And Satisfaction Questionnaire - During the past week, how often have you: Communicated and interacted with ease with others while working?", "preferredTerm": "Q-LES-Q - Communicated and Interacted With Ease", "submissionValue": "QLES1-Communicated/Interacted With Ease", "synonyms": ["QLES1-Communicated/Interacted With Ease"]}, {"conceptId": "C130675", "definition": "Quality Of Life Enjoyment And Satisfaction Questionnaire - How often did you concentrate on the leisure activities and pay attention to them?", "preferredTerm": "Q-LES-Q - Concentrate on Leisure Activities", "submissionValue": "QLES1-Concentrate on Leisure Activities", "synonyms": ["QLES1-Concentrate on Leisure Activities"]}, {"conceptId": "C130669", "definition": "Quality Of Life Enjoyment And Satisfaction Questionnaire - During the past week how much of the time have you: Concentrated on the course/class work?", "preferredTerm": "Q-LES-Q - Concentrated on Course Work", "submissionValue": "QLES1-Concentrated on Course Work", "synonyms": ["QLES1-Concentrated on Course Work"]}, {"conceptId": "C130643", "definition": "Quality Of Life Enjoyment And Satisfaction Questionnaire - During the past week, how often have you: Concentrated on work?", "preferredTerm": "Q-LES-Q - Concentrated on Work", "submissionValue": "QLES1-Concentrated on Work", "synonyms": ["QLES1-Concentrated on Work"]}, {"conceptId": "C130664", "definition": "Quality Of Life Enjoyment And Satisfaction Questionnaire - During the past week how much of the time have you: Dealt with the course/class work without undue stress?", "preferredTerm": "Q-LES-Q - Dealt With Course or Class Work Without Stress", "submissionValue": "QLES1-Course/Class Work Without Stress", "synonyms": ["QLES1-Course/Class Work Without Stress"]}, {"conceptId": "C130666", "definition": "Quality Of Life Enjoyment And Satisfaction Questionnaire - During the past week how much of the time have you: Been decisive about the course/class work when needed?", "preferredTerm": "Q-LES-Q - Decisive About Course Work", "submissionValue": "QLES1-Decisive About Course Work", "synonyms": ["QLES1-Decisive About Course Work"]}, {"conceptId": "C130638", "definition": "Quality Of Life Enjoyment And Satisfaction Questionnaire - During the past week, how often have you: Been decisive about work, or made decisions when needed?", "preferredTerm": "Q-LES-Q - Decisive About Work or Made Decisions", "submissionValue": "QLES1-Decisive About Work/Made Decisions", "synonyms": ["QLES1-Decisive About Work/Made Decisions"]}, {"conceptId": "C130658", "definition": "Quality Of Life Enjoyment And Satisfaction Questionnaire - During the past week, how often have you: Been decisive or made decisions when needed with regard to household activities?", "preferredTerm": "Q-LES-Q - Decisive With Regard to Household Activities", "submissionValue": "QLES1-Decisive Household Activities", "synonyms": ["QLES1-Decisive Household Activities"]}, {"conceptId": "C130633", "definition": "Quality Of Life Enjoyment And Satisfaction Questionnaire - Do you do volunteer work?", "preferredTerm": "Q-LES-Q - Do Volunteer Work", "submissionValue": "QLES1-Do Volunteer Work", "synonyms": ["QLES1-Do Volunteer Work"]}, {"conceptId": "C130698", "definition": "Quality Of Life Enjoyment And Satisfaction Questionnaire - Taking everything into consideration, during the past week how satisfied have you been with your: Economic status?", "preferredTerm": "Q-LES-Q - Economic Status", "submissionValue": "QLES1-Economic Status", "synonyms": ["QLES1-Economic Status"]}, {"conceptId": "C130673", "definition": "Quality Of Life Enjoyment And Satisfaction Questionnaire - How often did you enjoy the leisure activities?", "preferredTerm": "Q-LES-Q - Enjoy the Leisure Activities", "submissionValue": "QLES1-Enjoy the Leisure Activities", "synonyms": ["QLES1-Enjoy the Leisure Activities"]}, {"conceptId": "C130678", "definition": "Quality Of Life Enjoyment And Satisfaction Questionnaire - During the past week how often have you: Enjoyed talking with or being with friends or relatives?", "preferredTerm": "Q-LES-Q - Enjoyed Being With Friends", "submissionValue": "QLES1-Enjoyed Being With Friends", "synonyms": ["QLES1-Enjoyed Being With Friends"]}, {"conceptId": "C130662", "definition": "Quality Of Life Enjoyment And Satisfaction Questionnaire - During the past week how much of the time have you: Enjoyed the course/class work?", "preferredTerm": "Q-LES-Q - Enjoyed Course or Class Work", "submissionValue": "QLES1-Enjoyed Course/Class Work", "synonyms": ["QLES1-Enjoyed Course/Class Work"]}, {"conceptId": "C130681", "definition": "Quality Of Life Enjoyment And Satisfaction Questionnaire - During the past week how often have you: Enjoyed talking with co-workers or neighbors?", "preferredTerm": "Q-LES-Q - Enjoyed Talking With Co-workers", "submissionValue": "QLES1-Enjoyed Talking With Co-workers", "synonyms": ["QLES1-Enjoyed Talking With Co-workers"]}, {"conceptId": "C130635", "definition": "Quality Of Life Enjoyment And Satisfaction Questionnaire - During the past week, how often have you: Enjoyed your work?", "preferredTerm": "Q-LES-Q - Enjoyed Your Work", "submissionValue": "QLES1-Enjoyed Your Work", "synonyms": ["QLES1-Enjoyed Your Work"]}, {"conceptId": "C130694", "definition": "Quality Of Life Enjoyment And Satisfaction Questionnaire - Taking everything into consideration, during the past week how satisfied have you been with your: Family relationships?", "preferredTerm": "Q-LES-Q - Family Relationships", "submissionValue": "QLES1-Family Relationships", "synonyms": ["QLES1-Family Relationships"]}, {"conceptId": "C130625", "definition": "Quality Of Life Enjoyment And Satisfaction Questionnaire - During the past week how much of the time have you: Felt able to make decisions?", "preferredTerm": "Q-LES-Q - Felt Able to Make Decisions", "submissionValue": "QLES1-Felt Able to Make Decisions", "synonyms": ["QLES1-Felt Able to Make Decisions"]}, {"conceptId": "C130684", "definition": "Quality Of Life Enjoyment And Satisfaction Questionnaire - During the past week how often have you: Felt affection toward one or more people?", "preferredTerm": "Q-LES-Q - Felt Affection Toward People", "submissionValue": "QLES1-Felt Affection Toward People", "synonyms": ["QLES1-Felt Affection Toward People"]}, {"conceptId": "C130617", "definition": "Quality Of Life Enjoyment And Satisfaction Questionnaire - During the past week how much of the time have you: Felt clearheaded?", "preferredTerm": "Q-LES-Q - Felt Clearheaded", "submissionValue": "QLES1-Felt Clearheaded", "synonyms": ["QLES1-Felt Clearheaded"]}, {"conceptId": "C130622", "definition": "Quality Of Life Enjoyment And Satisfaction Questionnaire - During the past week how much of the time have you: Felt content?", "preferredTerm": "Q-LES-Q - Felt Content", "submissionValue": "QLES1-Felt Content", "synonyms": ["QLES1-Felt Content"]}, {"conceptId": "C130606", "definition": "Quality Of Life Enjoyment And Satisfaction Questionnaire - With regard to your physical health, during the past week how much of the time have you: Felt energetic?", "preferredTerm": "Q-LES-Q - Felt Energetic", "submissionValue": "QLES1-Felt Energetic", "synonyms": ["QLES1-Felt Energetic"]}, {"conceptId": "C130615", "definition": "Quality Of Life Enjoyment And Satisfaction Questionnaire - With regard to your physical health, during the past week how much of the time have you: Felt full of pep and vitality?", "preferredTerm": "Q-LES-Q - Felt Full of Pep and Vitality", "submissionValue": "QLES1-Felt Full of Pep and Vitality", "synonyms": ["QLES1-Felt Full of Pep and Vitality"]}, {"conceptId": "C130619", "definition": "Quality Of Life Enjoyment And Satisfaction Questionnaire - During the past week how much of the time have you: Felt good about your appearance?", "preferredTerm": "Q-LES-Q - Felt Good About Your Appearance", "submissionValue": "QLES1-Felt Good About Your Appearance", "synonyms": ["QLES1-Felt Good About Your Appearance"]}, {"conceptId": "C130627", "definition": "Quality Of Life Enjoyment And Satisfaction Questionnaire - During the past week how much of the time have you: Felt good about your life?", "preferredTerm": "Q-LES-Q - Felt Good About Your Life", "submissionValue": "QLES1-Felt Good About Your Life", "synonyms": ["QLES1-Felt Good About Your Life"]}, {"conceptId": "C130670", "definition": "Quality Of Life Enjoyment And Satisfaction Questionnaire - During the past week how much of the time have you: Felt good while doing your course/class work?", "preferredTerm": "Q-LES-Q - Felt Good Doing Course Work", "submissionValue": "QLES1-Felt Good Doing Course Work", "synonyms": ["QLES1-Felt Good Doing Course Work"]}, {"conceptId": "C130614", "definition": "Quality Of Life Enjoyment And Satisfaction Questionnaire - With regard to your physical health, during the past week how much of the time have you: Felt good physically?", "preferredTerm": "Q-LES-Q - Felt Good Physically", "submissionValue": "QLES1-Felt Good Physically", "synonyms": ["QLES1-Felt Good Physically"]}, {"conceptId": "C130620", "definition": "Quality Of Life Enjoyment And Satisfaction Questionnaire - During the past week how much of the time have you: Felt happy or cheerful?", "preferredTerm": "Q-LES-Q - Felt Happy or Cheerful", "submissionValue": "QLES1-Felt Happy or Cheerful", "synonyms": ["QLES1-Felt Happy or Cheerful"]}, {"conceptId": "C130621", "definition": "Quality Of Life Enjoyment And Satisfaction Questionnaire - During the past week how much of the time have you: Felt independent?", "preferredTerm": "Q-LES-Q - Felt Independent", "submissionValue": "QLES1-Felt Independent", "synonyms": ["QLES1-Felt Independent"]}, {"conceptId": "C130613", "definition": "Quality Of Life Enjoyment And Satisfaction Questionnaire - With regard to your physical health, during the past week how much of the time have you: Felt your memory was functioning well?", "preferredTerm": "Q-LES-Q - Felt Memory Was Functioning Well", "submissionValue": "QLES1-Felt Memory Was Functioning Well", "synonyms": ["QLES1-Felt Memory Was Functioning Well"]}, {"conceptId": "C130626", "definition": "Quality Of Life Enjoyment And Satisfaction Questionnaire - During the past week how much of the time have you: Felt relaxed?", "preferredTerm": "Q-LES-Q - Felt Relaxed", "submissionValue": "QLES1-Felt Relaxed", "synonyms": ["QLES1-Felt Relaxed"]}, {"conceptId": "C130605", "definition": "Quality Of Life Enjoyment And Satisfaction Questionnaire - With regard to your physical health, during the past week how much of the time have you: Felt rested?", "preferredTerm": "Q-LES-Q - Felt Rested", "submissionValue": "QLES1-Felt Rested", "synonyms": ["QLES1-Felt Rested"]}, {"conceptId": "C130618", "definition": "Quality Of Life Enjoyment And Satisfaction Questionnaire - During the past week how much of the time have you: Felt satisfied with your life?", "preferredTerm": "Q-LES-Q - Felt Satisfied With Your Life", "submissionValue": "QLES1-Felt Satisfied With Your Life", "synonyms": ["QLES1-Felt Satisfied With Your Life"]}, {"conceptId": "C130612", "definition": "Quality Of Life Enjoyment And Satisfaction Questionnaire - With regard to your physical health, during the past week how much of the time have you: Felt well coordinated?", "preferredTerm": "Q-LES-Q - Felt Well Coordinated", "submissionValue": "QLES1-Felt Well Coordinated", "synonyms": ["QLES1-Felt Well Coordinated"]}, {"conceptId": "C130610", "definition": "Quality Of Life Enjoyment And Satisfaction Questionnaire - With regard to your physical health, during the past week how much of the time have you: Felt you got enough sleep?", "preferredTerm": "Q-LES-Q - Felt You Got Enough Sleep", "submissionValue": "QLES1-Felt You Got Enough Sleep", "synonyms": ["QLES1-Felt You Got Enough Sleep"]}, {"conceptId": "C130607", "definition": "Quality Of Life Enjoyment And Satisfaction Questionnaire - With regard to your physical health, during the past week how much of the time have you: Felt in excellent physical health?", "preferredTerm": "Q-LES-Q - Felt in Excellent Physical Health", "submissionValue": "QLES1-Felt in Excellent Physical Health", "synonyms": ["QLES1-Felt in Excellent Physical Health"]}, {"conceptId": "C130604", "definition": "Quality Of Life Enjoyment And Satisfaction Questionnaire - With regard to your physical health, during the past week how much of the time have you: Been completely free of aches, pains, or discomfort?", "preferredTerm": "Q-LES-Q - Free of Aches, Pains, Discomfort", "submissionValue": "QLES1-Free of Aches, Pains, Discomfort", "synonyms": ["QLES1-Free of Aches, Pains, Discomfort"]}, {"conceptId": "C130616", "definition": "Quality Of Life Enjoyment And Satisfaction Questionnaire - With regard to your physical health, during the past week how much of the time have you: Been free of visual problems?", "preferredTerm": "Q-LES-Q - Free of Visual Problems", "submissionValue": "QLES1-Free of Visual Problems", "synonyms": ["QLES1-Free of Visual Problems"]}, {"conceptId": "C130609", "definition": "Quality Of Life Enjoyment And Satisfaction Questionnaire - With regard to your physical health, during the past week how much of the time have you: Been free of worry about your physical health?", "preferredTerm": "Q-LES-Q - Free of Worry of Physical Health", "submissionValue": "QLES1-Free of Worry of Physical Health", "synonyms": ["QLES1-Free of Worry of Physical Health"]}, {"conceptId": "C130679", "definition": "Quality Of Life Enjoyment And Satisfaction Questionnaire - During the past week how often have you: Looked forward to getting together with friends or relatives?", "preferredTerm": "Q-LES-Q - Getting Together With Friends", "submissionValue": "QLES1-Getting Together With Friends", "synonyms": ["QLES1-Getting Together With Friends"]}, {"conceptId": "C130685", "definition": "Quality Of Life Enjoyment And Satisfaction Questionnaire - During the past week how often have you: Gotten along well with other people?", "preferredTerm": "Q-LES-Q - Gotten Along Well With People", "submissionValue": "QLES1-Gotten Along Well With People", "synonyms": ["QLES1-Gotten Along Well With People"]}, {"conceptId": "C130631", "definition": "Quality Of Life Enjoyment And Satisfaction Questionnaire - Do you have a job?", "preferredTerm": "Q-LES-Q - Have a Job", "submissionValue": "QLES1-Have a Job", "synonyms": ["QLES1-Have a Job"]}, {"conceptId": "C130692", "definition": "Quality Of Life Enjoyment And Satisfaction Questionnaire - Taking everything into consideration, during the past week how satisfied have you been with your: Household activities?", "preferredTerm": "Q-LES-Q - Household Activities", "submissionValue": "QLES1-Household Activities", "synonyms": ["QLES1-Household Activities"]}, {"conceptId": "C130683", "definition": "Quality Of Life Enjoyment And Satisfaction Questionnaire - During the past week how often have you: Been interested in the problems of other people?", "preferredTerm": "Q-LES-Q - Interested in Problems of People", "submissionValue": "QLES1-Interested in Problems of People", "synonyms": ["QLES1-Interested in Problems of People"]}, {"conceptId": "C130668", "definition": "Quality Of Life Enjoyment And Satisfaction Questionnaire - During the past week how much of the time have you: Been interested in your course/class work?", "preferredTerm": "Q-LES-Q - Interested in Your Course Work", "submissionValue": "QLES1-Interested in Your Course Work", "synonyms": ["QLES1-Interested in Your Course Work"]}, {"conceptId": "C130686", "definition": "Quality Of Life Enjoyment And Satisfaction Questionnaire - During the past week how often have you: Joked or laughed with other people?", "preferredTerm": "Q-LES-Q - Joked or Laughed With Other People", "submissionValue": "QLES1-Joked or Laughed With Other People", "synonyms": ["QLES1-Joked or Laughed With Other People"]}, {"conceptId": "C130650", "definition": "Quality Of Life Enjoyment And Satisfaction Questionnaire - During the past week, how often have you: Kept your room/apartment/house cleaned to your satisfaction?", "preferredTerm": "Q-LES-Q - Kept Room Clean to Satisfaction", "submissionValue": "QLES1-Kept Room Clean to Satisfaction", "synonyms": ["QLES1-Kept Room Clean to Satisfaction"]}, {"conceptId": "C130645", "definition": "Quality Of Life Enjoyment And Satisfaction Questionnaire - During the past week, how often have you: Kept up with expected work?", "preferredTerm": "Q-LES-Q - Kept Up With Expected Work", "submissionValue": "QLES1-Kept Up With Expected Work", "synonyms": ["QLES1-Kept Up With Expected Work"]}, {"conceptId": "C130677", "definition": "Quality Of Life Enjoyment And Satisfaction Questionnaire - How often did the leisure activities sustain your interest?", "preferredTerm": "Q-LES-Q - Leisure Activity Sustain Interest", "submissionValue": "QLES1-Leisure Activity Sustain Interest", "synonyms": ["QLES1-Leisure Activity Sustain Interest"]}, {"conceptId": "C130695", "definition": "Quality Of Life Enjoyment And Satisfaction Questionnaire - Taking everything into consideration, during the past week how satisfied have you been with your: Leisure time activities?", "preferredTerm": "Q-LES-Q - Leisure Time Activities", "submissionValue": "QLES1-Leisure Time Activities", "synonyms": ["QLES1-Leisure Time Activities"]}, {"conceptId": "C130699", "definition": "Quality Of Life Enjoyment And Satisfaction Questionnaire - Taking everything into consideration, during the past week how satisfied have you been with your: Living/housing situation?", "preferredTerm": "Q-LES-Q - Living or Housing Situation", "submissionValue": "QLES1-Living/Housing Situation", "synonyms": ["QLES1-Living/Housing Situation"]}, {"conceptId": "C130674", "definition": "Quality Of Life Enjoyment And Satisfaction Questionnaire - How often did you look forward to the leisure activities before spending time at them?", "preferredTerm": "Q-LES-Q - Look Forward to Leisure Activities", "submissionValue": "QLES1-Look Forward to Leisure Activities", "synonyms": ["QLES1-Look Forward to Leisure Activities"]}, {"conceptId": "C130663", "definition": "Quality Of Life Enjoyment And Satisfaction Questionnaire - During the past week how much of the time have you: Looked forward to getting to work on the course/class work?", "preferredTerm": "Q-LES-Q - Looked Forward to Course Work", "submissionValue": "QLES1-Looked Forward to Course Work", "synonyms": ["QLES1-Looked Forward to Course Work"]}, {"conceptId": "C130659", "definition": "Quality Of Life Enjoyment And Satisfaction Questionnaire - During the past week, how often have you: Made repairs or taken care of household maintenance as needed?", "preferredTerm": "Q-LES-Q - Made Repairs or Household Maintenance", "submissionValue": "QLES1-Made Repairs Household Maintenance", "synonyms": ["QLES1-Made Repairs Household Maintenance"]}, {"conceptId": "C130680", "definition": "Quality Of Life Enjoyment And Satisfaction Questionnaire - During the past week how often have you: Made social plans with friends or relatives for future activities?", "preferredTerm": "Q-LES-Q - Made Social Plans With Friends", "submissionValue": "QLES1-Made Social Plans With Friends", "synonyms": ["QLES1-Made Social Plans With Friends"]}, {"conceptId": "C130703", "definition": "Quality Of Life Enjoyment And Satisfaction Questionnaire - Taking everything into consideration, during the past week how satisfied have you been with your: Medication?", "preferredTerm": "Q-LES-Q - Medication", "submissionValue": "QLES1-Medication", "synonyms": ["QLES1-Medication"]}, {"conceptId": "C130687", "definition": "Quality Of Life Enjoyment And Satisfaction Questionnaire - During the past week how often have you: Felt you met the needs of friends or relatives?", "preferredTerm": "Q-LES-Q - Met Needs of Friends or Relatives", "submissionValue": "QLES1-Met Needs of Friends or Relatives", "synonyms": ["QLES1-Met Needs of Friends or Relatives"]}, {"conceptId": "C130690", "definition": "Quality Of Life Enjoyment And Satisfaction Questionnaire - Taking everything into consideration, during the past week how satisfied have you been with your: Mood?", "preferredTerm": "Q-LES-Q - Mood", "submissionValue": "QLES1-Mood", "synonyms": ["QLES1-Mood"]}, {"conceptId": "C130702", "definition": "Quality Of Life Enjoyment And Satisfaction Questionnaire - Taking everything into consideration, during the past week how satisfied have you been with your: Overall sense of well being?", "preferredTerm": "Q-LES-Q - Overall Sense of Well Being", "submissionValue": "QLES1-Overall Sense of Well Being", "synonyms": ["QLES1-Overall Sense of Well Being"]}, {"conceptId": "C130651", "definition": "Quality Of Life Enjoyment And Satisfaction Questionnaire - During the past week, how often have you: Paid the bills, done the banking to your satisfaction?", "preferredTerm": "Q-LES-Q - Paid Bills, Done Banking", "submissionValue": "QLES1-Paid Bills, Done Banking", "synonyms": ["QLES1-Paid Bills, Done Banking"]}, {"conceptId": "C130682", "definition": "Quality Of Life Enjoyment And Satisfaction Questionnaire - During the past week how often have you: Been patient with others when others were irritating in their actions or words?", "preferredTerm": "Q-LES-Q - Patient With Others", "submissionValue": "QLES1-Patient With Others", "synonyms": ["QLES1-Patient With Others"]}, {"conceptId": "C130689", "definition": "Quality Of Life Enjoyment And Satisfaction Questionnaire - Taking everything into consideration, during the past week how satisfied have you been with your: Physical health?", "preferredTerm": "Q-LES-Q - Physical Health", "submissionValue": "QLES1-Physical Health", "synonyms": ["QLES1-Physical Health"]}, {"conceptId": "C130667", "definition": "Quality Of Life Enjoyment And Satisfaction Questionnaire - During the past week how much of the time have you: Been pleased with your course/class work accomplishments?", "preferredTerm": "Q-LES-Q - Pleased With Course Accomplishment", "submissionValue": "QLES1-Pleased With Course Accomplishment", "synonyms": ["QLES1-Pleased With Course Accomplishment"]}, {"conceptId": "C130640", "definition": "Quality Of Life Enjoyment And Satisfaction Questionnaire - During the past week, how often have you: Been pleased with your work accomplishments?", "preferredTerm": "Q-LES-Q - Pleased With Work Accomplishments", "submissionValue": "QLES1-Pleased With Work Accomplishments", "synonyms": ["QLES1-Pleased With Work Accomplishments"]}, {"conceptId": "C130653", "definition": "Quality Of Life Enjoyment And Satisfaction Questionnaire - During the past week, how often have you: Prepared food or obtained food to your satisfaction?", "preferredTerm": "Q-LES-Q - Prepared Food or Obtained Food", "submissionValue": "QLES1-Prepared Food or Obtained Food", "synonyms": ["QLES1-Prepared Food or Obtained Food"]}, {"conceptId": "C130704", "definition": "Quality Of Life Enjoyment And Satisfaction Questionnaire - How would you rate your overall life satisfaction and contentment during the past week?", "preferredTerm": "Q-LES-Q - Rate Overall Life Satisfaction", "submissionValue": "QLES1-Rate Overall Life Satisfaction", "synonyms": ["QLES1-Rate Overall Life Satisfaction"]}, {"conceptId": "C130661", "definition": "Quality Of Life Enjoyment And Satisfaction Questionnaire - Reason not taking any courses, going to class, or been involved in any type of course work, school or college studies during the past week.", "preferredTerm": "Q-LES-Q - Reason for No Courses", "submissionValue": "QLES1-Reason for No Courses", "synonyms": ["QLES1-Reason for No Courses"]}, {"conceptId": "C130649", "definition": "Quality Of Life Enjoyment And Satisfaction Questionnaire - Reason for no household duties/housework/homemaker activities (e.g., cleaning, shopping doing dishes, food shopping or preparation) for your-self or for other people?", "preferredTerm": "Q-LES-Q - Reason for No Household Activities", "submissionValue": "QLES1-Reason for No Household Activities", "synonyms": ["QLES1-Reason for No Household Activities"]}, {"conceptId": "C130634", "definition": "Quality Of Life Enjoyment And Satisfaction Questionnaire - Reason not having a job, working for yourself, and not doing volunteer work?", "preferredTerm": "Q-LES-Q - Reason for Not Working", "submissionValue": "QLES1-Reason for Not Working", "synonyms": ["QLES1-Reason for Not Working"]}, {"conceptId": "C130688", "definition": "Quality Of Life Enjoyment And Satisfaction Questionnaire - During the past week how often have you: Felt your relationships with your friends or relatives were without major problems or conflicts?", "preferredTerm": "Q-LES-Q - Relationships Without Problems", "submissionValue": "QLES1-Relationships Without Problems", "synonyms": ["QLES1-Relationships Without Problems"]}, {"conceptId": "C130648", "definition": "Quality Of Life Enjoyment And Satisfaction Questionnaire - Are you responsible for any household duties/housework/homemaker activities (e.g., cleaning, shopping, doing dishes, food shopping or preparation) for your-self or for other people?", "preferredTerm": "Q-LES-Q - Responsible for Household", "submissionValue": "QLES1-Responsible for Household", "synonyms": ["QLES1-Responsible for Household"]}, {"conceptId": "C130697", "definition": "Quality Of Life Enjoyment And Satisfaction Questionnaire - Taking everything into consideration, during the past week how satisfied have you been with your: Sexual drive, interest and/or performance?", "preferredTerm": "Q-LES-Q - Sex Drive, Interest, Performance", "submissionValue": "QLES1-Sex Drive, Interest, Performance", "synonyms": ["QLES1-Sex Drive, Interest, Performance"]}, {"conceptId": "C130652", "definition": "Quality Of Life Enjoyment And Satisfaction Questionnaire - During the past week, how often have you: Shopped for food or other household items to your satisfaction?", "preferredTerm": "Q-LES-Q - Shopped for Food or Household Items", "submissionValue": "QLES1-Shopped for Food/Household Items", "synonyms": ["QLES1-Shopped for Food/Household Items"]}, {"conceptId": "C130693", "definition": "Quality Of Life Enjoyment And Satisfaction Questionnaire - Taking everything into consideration, during the past week how satisfied have you been with your: Social relationships?", "preferredTerm": "Q-LES-Q - Social Relationships", "submissionValue": "QLES1-Social Relationships", "synonyms": ["QLES1-Social Relationships"]}, {"conceptId": "C130676", "definition": "Quality Of Life Enjoyment And Satisfaction Questionnaire - If a problem arose in your leisure activities, how often did you solve it or deal with it without undue stress?", "preferredTerm": "Q-LES-Q - Solve or Deal Without Undue Stress", "submissionValue": "QLES1-Solve or Deal Without Undue Stress", "synonyms": ["QLES1-Solve or Deal Without Undue Stress"]}, {"conceptId": "C130657", "definition": "Quality Of Life Enjoyment And Satisfaction Questionnaire - During the past week, how often have you: Solved household problems or dealt with them without undue stress?", "preferredTerm": "Q-LES-Q - Solved House Problems Without Stress", "submissionValue": "QLES1-Solved House Problems w/o Stress", "synonyms": ["QLES1-Solved House Problems w/o Stress"]}, {"conceptId": "C130636", "definition": "Quality Of Life Enjoyment And Satisfaction Questionnaire - During the past week, how often have you: Solved work problems or dealt with them without undue stress?", "preferredTerm": "Q-LES-Q - Solved Work Problem Without Stress", "submissionValue": "QLES1-Solved Work Problem Without Stress", "synonyms": ["QLES1-Solved Work Problem Without Stress"]}, {"conceptId": "C130654", "definition": "Quality Of Life Enjoyment And Satisfaction Questionnaire - During the past week, how often have you: Taken care of the laundry/cleaning to your satisfaction?", "preferredTerm": "Q-LES-Q - Taken Care of Laundry or Cleaning", "submissionValue": "QLES1-Taken Care of Laundry/Cleaning", "synonyms": ["QLES1-Taken Care of Laundry/Cleaning"]}, {"conceptId": "C130646", "definition": "Quality Of Life Enjoyment And Satisfaction Questionnaire - During the past week, how often have you: Taken care of work by yourself when it was necessary?", "preferredTerm": "Q-LES-Q - Taken Care of Work by Yourself", "submissionValue": "QLES1-Taken Care of Work by Yourself", "synonyms": ["QLES1-Taken Care of Work by Yourself"]}, {"conceptId": "C130660", "definition": "Quality Of Life Enjoyment And Satisfaction Questionnaire - Have you been taking any courses, going to class, or been involved in any type of course work, school or college studies during the past week?", "preferredTerm": "Q-LES-Q - Taken Courses or Going to Class", "submissionValue": "QLES1-Taken Courses/Going to Class", "synonyms": ["QLES1-Taken Courses/Going to Class"]}, {"conceptId": "C130624", "definition": "Quality Of Life Enjoyment And Satisfaction Questionnaire - During the past week how much of the time have you: Felt interested in taking care of your appearance (hair, clothing) and personal hygiene (bathing, dressing)?", "preferredTerm": "Q-LES-Q - Taking Care of Your Appearance", "submissionValue": "QLES1-Taking Care of Your Appearance", "synonyms": ["QLES1-Taking Care of Your Appearance"]}, {"conceptId": "C130665", "definition": "Quality Of Life Enjoyment And Satisfaction Questionnaire - During the past week how much of the time have you: Thought clearly about the course/class work?", "preferredTerm": "Q-LES-Q - Thought Clearly About Course Work", "submissionValue": "QLES1-Thought Clearly About Course Work", "synonyms": ["QLES1-Thought Clearly About Course Work"]}, {"conceptId": "C130637", "definition": "Quality Of Life Enjoyment And Satisfaction Questionnaire - During the past week, how often have you: Thought clearly about work?", "preferredTerm": "Q-LES-Q - Thought Clearly About Work", "submissionValue": "QLES1-Thought Clearly About Work", "synonyms": ["QLES1-Thought Clearly About Work"]}, {"conceptId": "C130656", "definition": "Quality Of Life Enjoyment And Satisfaction Questionnaire - During the past week, how often have you: Concentrated and thought clearly about what household activities needed to be done?", "preferredTerm": "Q-LES-Q - Thought Clearly Household Activities to be Done", "submissionValue": "QLES1-Thought Clearly Household Activ", "synonyms": ["QLES1-Thought Clearly Household Activ"]}, {"conceptId": "C130672", "definition": "Quality Of Life Enjoyment And Satisfaction Questionnaire - When you had time, how often did you use that time for a leisure time activity?", "preferredTerm": "Q-LES-Q - Use Time for a Leisure Activity", "submissionValue": "QLES1-Use Time for a Leisure Activity", "synonyms": ["QLES1-Use Time for a Leisure Activity"]}, {"conceptId": "C130701", "definition": "Quality Of Life Enjoyment And Satisfaction Questionnaire - Taking everything into consideration, during the past week how satisfied have you been with your: your vision in terms of ability to do work or hobbies?", "preferredTerm": "Q-LES-Q - Vision Ability to Do Work or Hobbies", "submissionValue": "QLES1-Vision Ability to Do Work/Hobbies", "synonyms": ["QLES1-Vision Ability to Do Work/Hobbies"]}, {"conceptId": "C130691", "definition": "Quality Of Life Enjoyment And Satisfaction Questionnaire - Taking everything into consideration, during the past week how satisfied have you been with your: Work?", "preferredTerm": "Q-LES-Q - Work", "submissionValue": "QLES1-Work", "synonyms": ["QLES1-Work"]}, {"conceptId": "C130632", "definition": "Quality Of Life Enjoyment And Satisfaction Questionnaire - Do you work for yourself?", "preferredTerm": "Q-LES-Q - Work for Yourself", "submissionValue": "QLES1-Work for Yourself", "synonyms": ["QLES1-Work for Yourself"]}, {"conceptId": "C130644", "definition": "Quality Of Life Enjoyment And Satisfaction Questionnaire - During the past week, how often have you: Worked carefully?", "preferredTerm": "Q-LES-Q - Worked Carefully", "submissionValue": "QLES1-Worked Carefully", "synonyms": ["QLES1-Worked Carefully"]}, {"conceptId": "C130641", "definition": "Quality Of Life Enjoyment And Satisfaction Questionnaire - During the past week, how often have you: Worked well?", "preferredTerm": "Q-LES-Q - Worked Well", "submissionValue": "QLES1-Worked Well", "synonyms": ["QLES1-Worked Well"]}]}