{"_links": {"parentPackage": {"href": "/mdr/ct/packages/sdtmct-2019-12-20", "title": "SDTM Controlled Terminology Package 40 Effective 2019-12-20", "type": "Terminology"}, "priorVersion": {"href": "/mdr/ct/packages/sdtmct-2019-09-27/codelists/C135695", "title": "CDISC Questionnaire PODCI Adolescent Parent-Reported Version Test Name Terminology", "type": "Code List"}, "rootItem": {"href": "/mdr/root/ct/sdtmct/codelists/C135695", "title": "Version-agnostic anchor resource for codelist C135695", "type": "Root Value Domain"}, "self": {"href": "/mdr/ct/packages/sdtmct-2019-12-20/codelists/C135695", "title": "CDISC Questionnaire PODCI Adolescent Parent-Reported Version Test Name Terminology", "type": "Code List"}}, "conceptId": "C135695", "definition": "Pediatric Outcomes Data Collection Instrument, Adolescent Parent-Reported Version test name.", "extensible": "false", "name": "Pediatric Outcomes Data Collection Instrument, Adolescent Parent-Reported Version Questionnaire Test Name", "preferredTerm": "CDISC Questionnaire PODCI Adolescent Parent-Reported Version Test Name Terminology", "submissionValue": "PODCI2TN", "synonyms": ["Pediatric Outcomes Data Collection Instrument, Adolescent Parent-Reported Version Questionnaire Test Name"], "terms": [{"conceptId": "C136046", "definition": "Pediatric Outcomes Data Collection Instrument, Adolescent Parent-Reported - During the last week, how happy has your child been with: His/her ability to do the same things his/her friends do?", "preferredTerm": "PODCI Adolescent Parent-Reported Version - Ability Do Same Things Friends Do", "submissionValue": "PODCI2-Ability Do Same Things Friends Do", "synonyms": ["PODCI2-Ability Do Same Things Friends Do"]}, {"conceptId": "C136114", "definition": "Pediatric Outcomes Data Collection Instrument, Adolescent Parent-Reported - As a result of my child's treatment, I expect my child: To be able to do activities at home.", "preferredTerm": "PODCI Adolescent Parent-Reported Version - Able to Do Activities at Home", "submissionValue": "PODCI2-Able to Do Activities at Home", "synonyms": ["PODCI2-Able to Do Activities at Home"]}, {"conceptId": "C136116", "definition": "Pediatric Outcomes Data Collection Instrument, Adolescent Parent-Reported - As a result of my child's treatment, I expect my child: To be able to do more play or recreational activities.", "preferredTerm": "PODCI Adolescent Parent-Reported Version - Able to Do More Play", "submissionValue": "PODCI2-Able to Do More Play", "synonyms": ["PODCI2-Able to Do More Play"]}, {"conceptId": "C136117", "definition": "Pediatric Outcomes Data Collection Instrument, Adolescent Parent-Reported - As a result of my child's treatment, I expect my child: To be able to do more sports.", "preferredTerm": "PODCI Adolescent Parent-Reported Version - Able to Do More Sports", "submissionValue": "PODCI2-Able to Do More Sports", "synonyms": ["PODCI2-Able to Do More Sports"]}, {"conceptId": "C136115", "definition": "Pediatric Outcomes Data Collection Instrument, Adolescent Parent-Reported - As a result of my child's treatment, I expect my child: To be able to do more at school.", "preferredTerm": "PODCI Adolescent Parent-Reported Version - Able to Do More at School", "submissionValue": "PODCI2-Able to Do More at School", "synonyms": ["PODCI2-Able to Do More at School"]}, {"conceptId": "C136066", "definition": "Pediatric Outcomes Data Collection Instrument, Adolescent Parent-Reported - During the last week, has it been easy or hard for your child to: Bend over from a standing position and pick up something off the floor?", "preferredTerm": "PODCI Adolescent Parent-Reported Version - Bend Over and Pick Up Something", "submissionValue": "PODCI2-Bend Over and Pick Up Something", "synonyms": ["PODCI2-Bend Over and Pick Up Something"]}, {"conceptId": "C136052", "definition": "Pediatric Outcomes Data Collection Instrument, Adolescent Parent-Reported - During the last week, has it been easy or hard for your child to: Bicycle or tricycle?", "preferredTerm": "PODCI Adolescent Parent-Reported Version - Bicycle or Tricycle", "submissionValue": "PODCI2-Bicycle or Tricycle", "synonyms": ["PODCI2-Bicycle or Tricycle"]}, {"conceptId": "C136039", "definition": "Pediatric Outcomes Data Collection Instrument, Adolescent Parent-Reported - During the last week, was it easy or hard for your child to: Button buttons?", "preferredTerm": "PODCI Adolescent Parent-Reported Version - Button Buttons", "submissionValue": "PODCI2-Button Buttons", "synonyms": ["PODCI2-Button Buttons"]}, {"conceptId": "C136054", "definition": "Pediatric Outcomes Data Collection Instrument, Adolescent Parent-Reported - During the last week, has it been easy or hard for your child to: Climb one flight of stairs?", "preferredTerm": "PODCI Adolescent Parent-Reported Version - Climb One Flight of Stairs", "submissionValue": "PODCI2-Climb One Flight of Stairs", "synonyms": ["PODCI2-Climb One Flight of Stairs"]}, {"conceptId": "C136053", "definition": "Pediatric Outcomes Data Collection Instrument, Adolescent Parent-Reported - During the last week, has it been easy or hard for your child to: Climb three flights of stairs?", "preferredTerm": "PODCI Adolescent Parent-Reported Version - Climb Three Flights of Stairs", "submissionValue": "PODCI2-Climb Three Flights of Stairs", "synonyms": ["PODCI2-Climb Three Flights of Stairs"]}, {"conceptId": "C136038", "definition": "Pediatric Outcomes Data Collection Instrument, Adolescent Parent-Reported - During the last week, was it easy or hard for your child to: Comb his/her hair?", "preferredTerm": "PODCI Adolescent Parent-Reported Version - Comb His or Her Hair", "submissionValue": "PODCI2-Comb His/Her Hair", "synonyms": ["PODCI2-Comb His/Her Hair"]}, {"conceptId": "C136090", "definition": "Pediatric Outcomes Data Collection Instrument, Adolescent Parent-Reported - If you answered \"no\" to Question 52 above, was your child's activity limited by: Dislike of pickup games or sports?", "preferredTerm": "PODCI Adolescent Parent-Reported Version - Competitive Sports Limited by: Dislike", "submissionValue": "PODCI2-Comp Sports Limited by: Dislike", "synonyms": ["PODCI2-Comp Sports Limited by: Dislike"]}, {"conceptId": "C136089", "definition": "Pediatric Outcomes Data Collection Instrument, Adolescent Parent-Reported - If you answered \"no\" to Question 52 above, was your child's activity limited by: Fear the other kids won't like him/her?", "preferredTerm": "PODCI Adolescent Parent-Reported Version - Competitive Sports Limited by: Fear", "submissionValue": "PODCI2-Comp Sports Limited by: Fear", "synonyms": ["PODCI2-Comp Sports Limited by: Fear"]}, {"conceptId": "C136087", "definition": "Pediatric Outcomes Data Collection Instrument, Adolescent Parent-Reported - If you answered \"no\" to Question 52 above, was your child's activity limited by: General health?", "preferredTerm": "PODCI Adolescent Parent-Reported Version - Competitive Sports Limited by: Health", "submissionValue": "PODCI2-Comp Sports Limited by: Health", "synonyms": ["PODCI2-Comp Sports Limited by: Health"]}, {"conceptId": "C136088", "definition": "Pediatric Outcomes Data Collection Instrument, Adolescent Parent-Reported - If you answered \"no\" to Question 52 above, was your child's activity limited by: Doctor or parent instructions?", "preferredTerm": "PODCI Adolescent Parent-Reported Version - Competitive Sports Limited by: Instructions", "submissionValue": "PODCI2-Comp Sports Limited by: Instruct", "synonyms": ["PODCI2-Comp Sports Limited by: Instruct"]}, {"conceptId": "C136086", "definition": "Pediatric Outcomes Data Collection Instrument, Adolescent Parent-Reported - If you answered \"no\" to Question 52 above, was your child's activity limited by: Pain?", "preferredTerm": "PODCI Adolescent Parent-Reported Version - Competitive Sports Limited by: Pain", "submissionValue": "PODCI2-Comp Sports Limited by: Pain", "synonyms": ["PODCI2-Comp Sports Limited by: Pain"]}, {"conceptId": "C136092", "definition": "Pediatric Outcomes Data Collection Instrument, Adolescent Parent-Reported - If you answered \"no\" to Question 52 above, was your child's activity limited by: Activity not in season?", "preferredTerm": "PODCI Adolescent Parent-Reported Version - Competitive Sports Limited by: Season", "submissionValue": "PODCI2-Comp Sports Limited by: Season", "synonyms": ["PODCI2-Comp Sports Limited by: Season"]}, {"conceptId": "C136091", "definition": "Pediatric Outcomes Data Collection Instrument, Adolescent Parent-Reported - If you answered \"no\" to Question 52 above, was your child's activity limited by: Too young?", "preferredTerm": "PODCI Adolescent Parent-Reported Version - Competitive Sports Limited by: Too Young", "submissionValue": "PODCI2-Comp Sports Limited by: Too Young", "synonyms": ["PODCI2-Comp Sports Limited by: Too Young"]}, {"conceptId": "C136107", "definition": "Pediatric Outcomes Data Collection Instrument, Adolescent Parent-Reported - Is it easy or hard for your child to make friends with children his/her own age?", "preferredTerm": "PODCI Adolescent Parent-Reported Version - Easy to Make Friends", "submissionValue": "PODCI2-Easy to Make Friends", "synonyms": ["PODCI2-Easy to Make Friends"]}, {"conceptId": "C136112", "definition": "Pediatric Outcomes Data Collection Instrument, Adolescent Parent-Reported - As a result of my child's treatment, I expect my child: To feel better about himself/herself.", "preferredTerm": "PODCI Adolescent Parent-Reported Version - Feel Better", "submissionValue": "PODCI2-Feel Better", "synonyms": ["PODCI2-Feel Better"]}, {"conceptId": "C136048", "definition": "Pediatric Outcomes Data Collection Instrument, Adolescent Parent-Reported - During the last week, how much of the time: Did your child feel sick and tired?", "preferredTerm": "PODCI Adolescent Parent-Reported Version - Feel Sick and Tired", "submissionValue": "PODCI2-Feel Sick and Tired", "synonyms": ["PODCI2-Feel Sick and Tired"]}, {"conceptId": "C136118", "definition": "Pediatric Outcomes Data Collection Instrument, Adolescent Parent-Reported - As a result of my child's treatment, I expect my child: To be free from pain or disability as an adult.", "preferredTerm": "PODCI Adolescent Parent-Reported Version - Free From Pain as Adult", "submissionValue": "PODCI2-Free From Pain as Adult", "synonyms": ["PODCI2-Free From Pain as Adult"]}, {"conceptId": "C136097", "definition": "Pediatric Outcomes Data Collection Instrument, Adolescent Parent-Reported - If you answered \"sometimes\" or \"never or rarely\" to Question 60 above, was your child's activity limited by: Fear the other kids won't like him/her?", "preferredTerm": "PODCI Adolescent Parent-Reported Version - Friends Limited by: Fear", "submissionValue": "PODCI2-Friends Limited by: Fear", "synonyms": ["PODCI2-Friends Limited by: Fear"]}, {"conceptId": "C136095", "definition": "Pediatric Outcomes Data Collection Instrument, Adolescent Parent-Reported - If you answered \"sometimes\" or \"never or rarely\" to Question 60 above, was your child's activity limited by: General health?", "preferredTerm": "PODCI Adolescent Parent-Reported Version - Friends Limited by: Health", "submissionValue": "PODCI2-Friends Limited by: Health", "synonyms": ["PODCI2-Friends Limited by: Health"]}, {"conceptId": "C136096", "definition": "Pediatric Outcomes Data Collection Instrument, Adolescent Parent-Reported - If you answered \"sometimes\" or \"never or rarely\" to Question 60 above, was your child's activity limited by: Doctor or parent instructions?", "preferredTerm": "PODCI Adolescent Parent-Reported Version - Friends Limited by: Instructions", "submissionValue": "PODCI2-Friends Limited by: Instructions", "synonyms": ["PODCI2-Friends Limited by: Instructions"]}, {"conceptId": "C136098", "definition": "Pediatric Outcomes Data Collection Instrument, Adolescent Parent-Reported - If you answered \"sometimes\" or \"never or rarely\" to Question 60 above, was your child's activity limited by: Friends not around?", "preferredTerm": "PODCI Adolescent Parent-Reported Version - Friends Limited by: Not Around", "submissionValue": "PODCI2-Friends Limited by: Not Around", "synonyms": ["PODCI2-Friends Limited by: Not Around"]}, {"conceptId": "C136094", "definition": "Pediatric Outcomes Data Collection Instrument, Adolescent Parent-Reported - If you answered \"sometimes\" or \"never or rarely\" to Question 60 above, was your child's activity limited by: Pain?", "preferredTerm": "PODCI Adolescent Parent-Reported Version - Friends Limited by: Pain", "submissionValue": "PODCI2-Friends Limited by: Pain", "synonyms": ["PODCI2-Friends Limited by: Pain"]}, {"conceptId": "C136049", "definition": "Pediatric Outcomes Data Collection Instrument, Adolescent Parent-Reported - During the last week, how much of the time: Were your child full of pep and energy?", "preferredTerm": "PODCI Adolescent Parent-Reported Version - Full of Pep and Energy", "submissionValue": "PODCI2-Full of Pep and Energy", "synonyms": ["PODCI2-Full of Pep and Energy"]}, {"conceptId": "C136082", "definition": "Pediatric Outcomes Data Collection Instrument, Adolescent Parent-Reported - If you answered \"no\" to Question 44 above, was your child's activity limited by: Dislike of pickup games or sports?", "preferredTerm": "PODCI Adolescent Parent-Reported Version - Games Limited by: Dislike", "submissionValue": "PODCI2-Games Limited by: Dislike", "synonyms": ["PODCI2-Games Limited by: Dislike"]}, {"conceptId": "C136081", "definition": "Pediatric Outcomes Data Collection Instrument, Adolescent Parent-Reported - If you answered \"no\" to Question 44 above, was your child's activity limited by: Fear the other kids won't like him/her?", "preferredTerm": "PODCI Adolescent Parent-Reported Version - Games Limited by: Fear", "submissionValue": "PODCI2-Games Limited by: Fear", "synonyms": ["PODCI2-Games Limited by: Fear"]}, {"conceptId": "C136079", "definition": "Pediatric Outcomes Data Collection Instrument, Adolescent Parent-Reported - If you answered \"no\" to Question 44 above, was your child's activity limited by: General health?", "preferredTerm": "PODCI Adolescent Parent-Reported Version - Games Limited by: Health", "submissionValue": "PODCI2-Games Limited by: Health", "synonyms": ["PODCI2-Games Limited by: Health"]}, {"conceptId": "C136080", "definition": "Pediatric Outcomes Data Collection Instrument, Adolescent Parent-Reported - If you answered \"no\" to Question 44 above, was your child's activity limited by: Doctor or parent instructions?", "preferredTerm": "PODCI Adolescent Parent-Reported Version - Games Limited by: Instructions", "submissionValue": "PODCI2-Games Limited by: Instructions", "synonyms": ["PODCI2-Games Limited by: Instructions"]}, {"conceptId": "C136078", "definition": "Pediatric Outcomes Data Collection Instrument, Adolescent Parent-Reported - If you answered \"no\" to Question 44 above, was your child's activity limited by: Pain?", "preferredTerm": "PODCI Adolescent Parent-Reported Version - Games Limited by: Pain", "submissionValue": "PODCI2-Games Limited by: Pain", "synonyms": ["PODCI2-Games Limited by: Pain"]}, {"conceptId": "C136084", "definition": "Pediatric Outcomes Data Collection Instrument, Adolescent Parent-Reported - If you answered \"no\" to Question 44 above, was your child's activity limited by: Activity not in season?", "preferredTerm": "PODCI Adolescent Parent-Reported Version - Games Limited by: Season", "submissionValue": "PODCI2-Games Limited by: Season", "synonyms": ["PODCI2-Games Limited by: Season"]}, {"conceptId": "C136083", "definition": "Pediatric Outcomes Data Collection Instrument, Adolescent Parent-Reported - If you answered \"no\" to Question 44 above, was your child's activity limited by: Too young?", "preferredTerm": "PODCI Adolescent Parent-Reported Version - Games Limited by: Too Young", "submissionValue": "PODCI2-Games Limited by: Too Young", "synonyms": ["PODCI2-Games Limited by: Too Young"]}, {"conceptId": "C136064", "definition": "Pediatric Outcomes Data Collection Instrument, Adolescent Parent-Reported - During the last week, has it been easy or hard for your child to: Get in and out of bed?", "preferredTerm": "PODCI Adolescent Parent-Reported Version - Get In and Out of Bed", "submissionValue": "PODCI2-Get In and Out of Bed", "synonyms": ["PODCI2-Get In and Out of Bed"]}, {"conceptId": "C136058", "definition": "Pediatric Outcomes Data Collection Instrument, Adolescent Parent-Reported - During the last week, has it been easy or hard for your child to: Get on and off a bus?", "preferredTerm": "PODCI Adolescent Parent-Reported Version - Get On and Off a Bus", "submissionValue": "PODCI2-Get On and Off a Bus", "synonyms": ["PODCI2-Get On and Off a Bus"]}, {"conceptId": "C136063", "definition": "Pediatric Outcomes Data Collection Instrument, Adolescent Parent-Reported - During the last week, has it been easy or hard for your child to: Get on and off a toilet or chair?", "preferredTerm": "PODCI Adolescent Parent-Reported Version - Get On and Off a Toilet or Chair", "submissionValue": "PODCI2-Get On and Off a Toilet or Chair", "synonyms": ["PODCI2-Get On and Off a Toilet or Chair"]}, {"conceptId": "C136093", "definition": "Pediatric Outcomes Data Collection Instrument, Adolescent Parent-Reported - How often in the last week did your child get together and do things with friends?", "preferredTerm": "PODCI Adolescent Parent-Reported Version - Get Together With Friends", "submissionValue": "PODCI2-Get Together With Friends", "synonyms": ["PODCI2-Get Together With Friends"]}, {"conceptId": "C136125", "definition": "Pediatric Outcomes Data Collection Instrument, Adolescent Parent-Reported - Global functioning scale.", "preferredTerm": "PODCI Adolescent Parent-Reported Version - Global Functioning Scale", "submissionValue": "PODCI2-Global Functioning Scale", "synonyms": ["PODCI2-Global Functioning Scale"]}, {"conceptId": "C136104", "definition": "Pediatric Outcomes Data Collection Instrument, Adolescent Parent-Reported - If you answered \"sometimes\" or \"never or rarely\" to Question 66 above, was your child's activity limited by: Dislike of gym/recess?", "preferredTerm": "PODCI Adolescent Parent-Reported Version - Gym Limited by: Dislike", "submissionValue": "PODCI2-Gym Limited by: Dislike", "synonyms": ["PODCI2-Gym Limited by: Dislike"]}, {"conceptId": "C136103", "definition": "Pediatric Outcomes Data Collection Instrument, Adolescent Parent-Reported - If you answered \"sometimes\" or \"never or rarely\" to Question 66 above, was your child's activity limited by: Fear the other kids won't like him/her?", "preferredTerm": "PODCI Adolescent Parent-Reported Version - Gym Limited by: Fear", "submissionValue": "PODCI2-Gym Limited by: Fear", "synonyms": ["PODCI2-Gym Limited by: Fear"]}, {"conceptId": "C136101", "definition": "Pediatric Outcomes Data Collection Instrument, Adolescent Parent-Reported - If you answered \"sometimes\" or \"never or rarely\" to Question 66 above, was your child's activity limited by: General health?", "preferredTerm": "PODCI Adolescent Parent-Reported Version - Gym Limited by: Health", "submissionValue": "PODCI2-Gym Limited by: Health", "synonyms": ["PODCI2-Gym Limited by: Health"]}, {"conceptId": "C136102", "definition": "Pediatric Outcomes Data Collection Instrument, Adolescent Parent-Reported - If you answered \"sometimes\" or \"never or rarely\" to Question 66 above, was your child's activity limited by: Doctor or parent instructions?", "preferredTerm": "PODCI Adolescent Parent-Reported Version - Gym Limited by: Instructions", "submissionValue": "PODCI2-Gym Limited by: Instructions", "synonyms": ["PODCI2-Gym Limited by: Instructions"]}, {"conceptId": "C136106", "definition": "Pediatric Outcomes Data Collection Instrument, Adolescent Parent-Reported - If you answered \"sometimes\" or \"never or rarely\" to Question 66 above, was your child's activity limited by: Does not attend school?", "preferredTerm": "PODCI Adolescent Parent-Reported Version - Gym Limited by: Not Attend School", "submissionValue": "PODCI2-Gym Limited by: Not Attend School", "synonyms": ["PODCI2-Gym Limited by: Not Attend School"]}, {"conceptId": "C136105", "definition": "Pediatric Outcomes Data Collection Instrument, Adolescent Parent-Reported - If you answered \"sometimes\" or \"never or rarely\" to Question 66 above, was your child's activity limited by: School not in session?", "preferredTerm": "PODCI Adolescent Parent-Reported Version - Gym Limited by: Not in Session", "submissionValue": "PODCI2-Gym Limited by: Not in Session", "synonyms": ["PODCI2-Gym Limited by: Not in Session"]}, {"conceptId": "C136100", "definition": "Pediatric Outcomes Data Collection Instrument, Adolescent Parent-Reported - If you answered \"sometimes\" or \"never or rarely\" to Question 66 above, was your child's activity limited by: Pain?", "preferredTerm": "PODCI Adolescent Parent-Reported Version - Gym Limited by: Pain", "submissionValue": "PODCI2-Gym Limited by: Pain", "synonyms": ["PODCI2-Gym Limited by: Pain"]}, {"conceptId": "C136124", "definition": "Pediatric Outcomes Data Collection Instrument, Adolescent Parent-Reported - Happiness core scale.", "preferredTerm": "PODCI Adolescent Parent-Reported Version - Happiness Scale", "submissionValue": "PODCI2-Happiness Scale", "synonyms": ["PODCI2-Happiness Scale"]}, {"conceptId": "C136110", "definition": "Pediatric Outcomes Data Collection Instrument, Adolescent Parent-Reported - As a result of my child's treatment, I expect my child: To have pain relief.", "preferredTerm": "PODCI Adolescent Parent-Reported Version - Have Pain Relief", "submissionValue": "PODCI2-Have Pain Relief", "synonyms": ["PODCI2-Have Pain Relief"]}, {"conceptId": "C136044", "definition": "Pediatric Outcomes Data Collection Instrument, Adolescent Parent-Reported - During the last week, how happy has your child been with: His/her body?", "preferredTerm": "PODCI Adolescent Parent-Reported Version - His or Her Body", "submissionValue": "PODCI2-His/Her Body", "synonyms": ["PODCI2-His/Her Body"]}, {"conceptId": "C136047", "definition": "Pediatric Outcomes Data Collection Instrument, Adolescent Parent-Reported - During the last week, how happy has your child been with: His/her health in general?", "preferredTerm": "PODCI Adolescent Parent-Reported Version - His or Her Health in General", "submissionValue": "PODCI2-His/Her Health in General", "synonyms": ["PODCI2-His/Her Health in General"]}, {"conceptId": "C136043", "definition": "Pediatric Outcomes Data Collection Instrument, Adolescent Parent-Reported - During the last week, how happy has your child been with: How he/she looks?", "preferredTerm": "PODCI Adolescent Parent-Reported Version - How He or She Looks", "submissionValue": "PODCI2-How He/She Looks", "synonyms": ["PODCI2-How He/She Looks"]}, {"conceptId": "C136034", "definition": "Pediatric Outcomes Data Collection Instrument, Adolescent Parent-Reported - During the last week, was it easy or hard for your child to: Lift heavy books?", "preferredTerm": "PODCI Adolescent Parent-Reported Version - Lift Heavy Books", "submissionValue": "PODCI2-Lift Heavy Books", "synonyms": ["PODCI2-Lift Heavy Books"]}, {"conceptId": "C136111", "definition": "Pediatric Outcomes Data Collection Instrument, Adolescent Parent-Reported - As a result of my child's treatment, I expect my child: To look better.", "preferredTerm": "PODCI Adolescent Parent-Reported Version - Look Better", "submissionValue": "PODCI2-Look Better", "synonyms": ["PODCI2-Look Better"]}, {"conceptId": "C136042", "definition": "Pediatric Outcomes Data Collection Instrument, Adolescent Parent-Reported - On average, over the last 12 months, how often did your child miss school (camp, etc.) because of his/her health?", "preferredTerm": "PODCI Adolescent Parent-Reported Version - Miss School Because of Health", "submissionValue": "PODCI2-Miss School Because of Health", "synonyms": ["PODCI2-Miss School Because of Health"]}, {"conceptId": "C136067", "definition": "Pediatric Outcomes Data Collection Instrument, Adolescent Parent-Reported - How often does your child need help from another person for sitting and standing?", "preferredTerm": "PODCI Adolescent Parent-Reported Version - Need Help Sitting and Standing", "submissionValue": "PODCI2-Need Help Sitting and Standing", "synonyms": ["PODCI2-Need Help Sitting and Standing"]}, {"conceptId": "C136059", "definition": "Pediatric Outcomes Data Collection Instrument, Adolescent Parent-Reported - How often does your child need help from another person for walking and climbing?", "preferredTerm": "PODCI Adolescent Parent-Reported Version - Need Help Walking and Climbing", "submissionValue": "PODCI2-Need Help Walking and Climbing", "synonyms": ["PODCI2-Need Help Walking and Climbing"]}, {"conceptId": "C136036", "definition": "Pediatric Outcomes Data Collection Instrument, Adolescent Parent-Reported - During the last week, was it easy or hard for your child to: Open a jar that has been opened before?", "preferredTerm": "PODCI Adolescent Parent-Reported Version - Open a Jar Been Opened Before", "submissionValue": "PODCI2-Open a Jar Been Opened Before", "synonyms": ["PODCI2-Open a Jar Been Opened Before"]}, {"conceptId": "C136074", "definition": "Pediatric Outcomes Data Collection Instrument, Adolescent Parent-Reported - If you answered \"no\" to Question 36 above, was your child's activity limited by: Dislike of recreational outdoor activities?", "preferredTerm": "PODCI Adolescent Parent-Reported Version - Outdoor Limited by: Dislike", "submissionValue": "PODCI2-Outdoor Limited by: Dislike", "synonyms": ["PODCI2-Outdoor Limited by: Dislike"]}, {"conceptId": "C136073", "definition": "Pediatric Outcomes Data Collection Instrument, Adolescent Parent-Reported - If you answered \"no\" to Question 36 above, was your child's activity limited by: Fear the other kids won't like him/her?", "preferredTerm": "PODCI Adolescent Parent-Reported Version - Outdoor Limited by: Fear", "submissionValue": "PODCI2-Outdoor Limited by: Fear", "synonyms": ["PODCI2-Outdoor Limited by: Fear"]}, {"conceptId": "C136071", "definition": "Pediatric Outcomes Data Collection Instrument, Adolescent Parent-Reported - If you answered \"no\" to Question 36 above, was your child's activity limited by: General health?", "preferredTerm": "PODCI Adolescent Parent-Reported Version - Outdoor Limited by: Health", "submissionValue": "PODCI2-Outdoor Limited by: Health", "synonyms": ["PODCI2-Outdoor Limited by: Health"]}, {"conceptId": "C136072", "definition": "Pediatric Outcomes Data Collection Instrument, Adolescent Parent-Reported - If you answered \"no\" to Question 36 above, was your child's activity limited by: Doctor or parent instructions?", "preferredTerm": "PODCI Adolescent Parent-Reported Version - Outdoor Limited by: Instructions", "submissionValue": "PODCI2-Outdoor Limited by: Instructions", "synonyms": ["PODCI2-Outdoor Limited by: Instructions"]}, {"conceptId": "C136070", "definition": "Pediatric Outcomes Data Collection Instrument, Adolescent Parent-Reported - If you answered \"no\" to Question 36 above, was your child's activity limited by: Pain?", "preferredTerm": "PODCI Adolescent Parent-Reported Version - Outdoor Limited by: Pain", "submissionValue": "PODCI2-Outdoor Limited by: Pain", "synonyms": ["PODCI2-Outdoor Limited by: Pain"]}, {"conceptId": "C136076", "definition": "Pediatric Outcomes Data Collection Instrument, Adolescent Parent-Reported - If you answered \"no\" to Question 36 above, was your child's activity limited by: Activity not in season?", "preferredTerm": "PODCI Adolescent Parent-Reported Version - Outdoor Limited by: Season", "submissionValue": "PODCI2-Outdoor Limited by: Season", "synonyms": ["PODCI2-Outdoor Limited by: Season"]}, {"conceptId": "C136075", "definition": "Pediatric Outcomes Data Collection Instrument, Adolescent Parent-Reported - If you answered \"no\" to Question 36 above, was your child's activity limited by: Too young?", "preferredTerm": "PODCI Adolescent Parent-Reported Version - Outdoor Limited by: Too Young", "submissionValue": "PODCI2-Outdoor Limited by: Too Young", "synonyms": ["PODCI2-Outdoor Limited by: Too Young"]}, {"conceptId": "C136108", "definition": "Pediatric Outcomes Data Collection Instrument, Adolescent Parent-Reported - How much pain has your child had during the last week?", "preferredTerm": "PODCI Adolescent Parent-Reported Version - Pain During the Last Week", "submissionValue": "PODCI2-Pain During the Last Week", "synonyms": ["PODCI2-Pain During the Last Week"]}, {"conceptId": "C136109", "definition": "Pediatric Outcomes Data Collection Instrument, Adolescent Parent-Reported - During the last week, how much did pain interfere with your child's normal activities (including at home, outside of the home, and at school)?", "preferredTerm": "PODCI Adolescent Parent-Reported Version - Pain Interfere With Activities", "submissionValue": "PODCI2-Pain Interfere With Activities", "synonyms": ["PODCI2-Pain Interfere With Activities"]}, {"conceptId": "C136123", "definition": "Pediatric Outcomes Data Collection Instrument, Adolescent Parent-Reported - Pain/comfort core scale.", "preferredTerm": "PODCI Adolescent Parent-Reported Version - Pain or Comfort Scale", "submissionValue": "PODCI2-Pain/Comfort Scale", "synonyms": ["PODCI2-Pain/Comfort Scale"]}, {"conceptId": "C136050", "definition": "Pediatric Outcomes Data Collection Instrument, Adolescent Parent-Reported - During the last week, how much of the time: Did pain or discomfort interfere with your child's activities?", "preferredTerm": "PODCI Adolescent Parent-Reported Version - Pain or Discomfort Interfere With Activities", "submissionValue": "PODCI2-Pain/Discom Inter With Activities", "synonyms": ["PODCI2-Pain/Discom Inter With Activities"]}, {"conceptId": "C136085", "definition": "Pediatric Outcomes Data Collection Instrument, Adolescent Parent-Reported - Can your child participate in competitive level sports with other children the same age (For example: hockey, basketball, soccer, football, baseball, swimming, running [track or cross country], gymnastics, or dance)?", "preferredTerm": "PODCI Adolescent Parent-Reported Version - Participate in Competitive Sports", "submissionValue": "PODCI2-Participate in Competitive Sports", "synonyms": ["PODCI2-Participate in Competitive Sports"]}, {"conceptId": "C136099", "definition": "Pediatric Outcomes Data Collection Instrument, Adolescent Parent-Reported - How often in the last week did your child participate in gym/recess?", "preferredTerm": "PODCI Adolescent Parent-Reported Version - Participate in Gym or Recess", "submissionValue": "PODCI2-Participate in Gym/Recess", "synonyms": ["PODCI2-Participate in Gym/Recess"]}, {"conceptId": "C136069", "definition": "Pediatric Outcomes Data Collection Instrument, Adolescent Parent-Reported - Can your child participate in recreational outdoor activities with other children the same age (For example: bicycling, skating, hiking, jogging)?", "preferredTerm": "PODCI Adolescent Parent-Reported Version - Participate in Outdoor Activities", "submissionValue": "PODCI2-Participate in Outdoor Activities", "synonyms": ["PODCI2-Participate in Outdoor Activities"]}, {"conceptId": "C136077", "definition": "Pediatric Outcomes Data Collection Instrument, Adolescent Parent-Reported - Can your child participate in pickup games or sports with other children the same age (For example: tag, dodge ball, basketball, softball, soccer, catch, jump rope, touch football, hop scotch)?", "preferredTerm": "PODCI Adolescent Parent-Reported Version - Participate in Pickup Games", "submissionValue": "PODCI2-Participate in Pickup Games", "synonyms": ["PODCI2-Participate in Pickup Games"]}, {"conceptId": "C136035", "definition": "Pediatric Outcomes Data Collection Instrument, Adolescent Parent-Reported - During the last week, was it easy or hard for your child to: Pour a half gallon of milk?", "preferredTerm": "PODCI Adolescent Parent-Reported Version - Pour a Half Gallon of Milk", "submissionValue": "PODCI2-Pour a Half Gallon of Milk", "synonyms": ["PODCI2-Pour a Half Gallon of Milk"]}, {"conceptId": "C136040", "definition": "Pediatric Outcomes Data Collection Instrument, Adolescent Parent-Reported - During the last week, was it easy or hard for your child to: Put on his/her coat?", "preferredTerm": "PODCI Adolescent Parent-Reported Version - Put on His or Her Coat", "submissionValue": "PODCI2-Put on His/Her Coat", "synonyms": ["PODCI2-Put on His/Her Coat"]}, {"conceptId": "C136051", "definition": "Pediatric Outcomes Data Collection Instrument, Adolescent Parent-Reported - During the last week, has it been easy or hard for your child to: Run short distances?", "preferredTerm": "PODCI Adolescent Parent-Reported Version - Run Short Distances", "submissionValue": "PODCI2-Run Short Distances", "synonyms": ["PODCI2-Run Short Distances"]}, {"conceptId": "C136062", "definition": "Pediatric Outcomes Data Collection Instrument, Adolescent Parent-Reported - During the last week, has it been easy or hard for your child to: Sit in a regular chair without holding on?", "preferredTerm": "PODCI Adolescent Parent-Reported Version - Sit in Chair Without Holding On", "submissionValue": "PODCI2-Sit in Chair Without Holding On", "synonyms": ["PODCI2-Sit in Chair Without Holding On"]}, {"conceptId": "C136113", "definition": "Pediatric Outcomes Data Collection Instrument, Adolescent Parent-Reported - As a result of my child's treatment, I expect my child: To sleep more comfortably.", "preferredTerm": "PODCI Adolescent Parent-Reported Version - Sleep More Comfortably", "submissionValue": "PODCI2-Sleep More Comfortably", "synonyms": ["PODCI2-Sleep More Comfortably"]}, {"conceptId": "C136119", "definition": "Pediatric Outcomes Data Collection Instrument, Adolescent Parent-Reported - If your child had to spend the rest of his/her life with his/her bone and muscle condition as it is right now, how would you feel about it?", "preferredTerm": "PODCI Adolescent Parent-Reported Version - Spend Rest of Life With Condition", "submissionValue": "PODCI2-Spend Rest of Life With Condition", "synonyms": ["PODCI2-Spend Rest of Life With Condition"]}, {"conceptId": "C136122", "definition": "Pediatric Outcomes Data Collection Instrument, Adolescent Parent-Reported - Sports and physical functioning core scale.", "preferredTerm": "PODCI Adolescent Parent-Reported Version - Sports and Physical Function Scale", "submissionValue": "PODCI2-Sports/Phys Function Scale", "synonyms": ["PODCI2-Sports/Phys Function Scale"]}, {"conceptId": "C136061", "definition": "Pediatric Outcomes Data Collection Instrument, Adolescent Parent-Reported - During the last week, has it been easy or hard for your child to: Stand while washing his/her hands and face at a sink?", "preferredTerm": "PODCI Adolescent Parent-Reported Version - Stand Washing Hands at a Sink", "submissionValue": "PODCI2-Stand Washing Hands at a Sink", "synonyms": ["PODCI2-Stand Washing Hands at a Sink"]}, {"conceptId": "C136121", "definition": "Pediatric Outcomes Data Collection Instrument, Adolescent Parent-Reported - Transfer and basic mobility core scale.", "preferredTerm": "PODCI Adolescent Parent-Reported Version - Transfer and Basic Mobility Scale", "submissionValue": "PODCI2-Transfer/Basic Mobility Scale", "synonyms": ["PODCI2-Transfer/Basic Mobility Scale"]}, {"conceptId": "C136065", "definition": "Pediatric Outcomes Data Collection Instrument, Adolescent Parent-Reported - During the last week, has it been easy or hard for your child to: Turn door knobs?", "preferredTerm": "PODCI Adolescent Parent-Reported Version - Turn Door Knobs", "submissionValue": "PODCI2-Turn Door Knobs", "synonyms": ["PODCI2-Turn Door Knobs"]}, {"conceptId": "C136120", "definition": "Pediatric Outcomes Data Collection Instrument, Adolescent Parent-Reported - Upper extremity and physical function core scale.", "preferredTerm": "PODCI Adolescent Parent-Reported Version - Upper Extremity and Physical Function Scale", "submissionValue": "PODCI2-Up Extremity/Phys Function Scale", "synonyms": ["PODCI2-Up Extremity/Phys Function Scale"]}, {"conceptId": "C136068", "definition": "Pediatric Outcomes Data Collection Instrument, Adolescent Parent-Reported - How often does your child use assistive devices (such as braces, crutches, or wheelchair) for sitting and standing?", "preferredTerm": "PODCI Adolescent Parent-Reported Version - Use Assistive Devices for Sitting", "submissionValue": "PODCI2-Use Assistive Devices for Sitting", "synonyms": ["PODCI2-Use Assistive Devices for Sitting"]}, {"conceptId": "C136060", "definition": "Pediatric Outcomes Data Collection Instrument, Adolescent Parent-Reported - How often does your child use assistive devices (such as braces, crutches, or wheelchair) for walking and climbing?", "preferredTerm": "PODCI Adolescent Parent-Reported Version - Use Assistive Devices for Walking", "submissionValue": "PODCI2-Use Assistive Devices for Walking", "synonyms": ["PODCI2-Use Assistive Devices for Walking"]}, {"conceptId": "C136037", "definition": "Pediatric Outcomes Data Collection Instrument, Adolescent Parent-Reported - During the last week, was it easy or hard for your child to: Use a fork and spoon?", "preferredTerm": "PODCI Adolescent Parent-Reported Version - Use a Fork and Spoon", "submissionValue": "PODCI2-Use a Fork and Spoon", "synonyms": ["PODCI2-Use a Fork and Spoon"]}, {"conceptId": "C136055", "definition": "Pediatric Outcomes Data Collection Instrument, Adolescent Parent-Reported - During the last week, has it been easy or hard for your child to: Walk more than a mile?", "preferredTerm": "PODCI Adolescent Parent-Reported Version - Walk More Than a Mile", "submissionValue": "PODCI2-Walk More Than a Mile", "synonyms": ["PODCI2-Walk More Than a Mile"]}, {"conceptId": "C136057", "definition": "Pediatric Outcomes Data Collection Instrument, Adolescent Parent-Reported - During the last week, has it been easy or hard for your child to: Walk one block?", "preferredTerm": "PODCI Adolescent Parent-Reported Version - Walk One Block", "submissionValue": "PODCI2-Walk One Block", "synonyms": ["PODCI2-Walk One Block"]}, {"conceptId": "C136056", "definition": "Pediatric Outcomes Data Collection Instrument, Adolescent Parent-Reported - During the last week, has it been easy or hard for your child to: Walk three blocks?", "preferredTerm": "PODCI Adolescent Parent-Reported Version - Walk Three Blocks", "submissionValue": "PODCI2-Walk Three Blocks", "synonyms": ["PODCI2-Walk Three Blocks"]}, {"conceptId": "C136045", "definition": "Pediatric Outcomes Data Collection Instrument, Adolescent Parent-Reported - During the last week, how happy has your child been with: What clothes or shoes he/she can wear?", "preferredTerm": "PODCI Adolescent Parent-Reported Version - What Clothes or Shoes He or She Wear", "submissionValue": "PODCI2-What Clothes/Shoes He/She Wear", "synonyms": ["PODCI2-What Clothes/Shoes He/She Wear"]}, {"conceptId": "C136041", "definition": "Pediatric Outcomes Data Collection Instrument, Adolescent Parent-Reported - During the last week, was it easy or hard for your child to: Write with a pencil?", "preferredTerm": "PODCI Adolescent Parent-Reported Version - Write With a Pencil", "submissionValue": "PODCI2-Write With a Pencil", "synonyms": ["PODCI2-Write With a Pencil"]}]}