{"_links": {"parentPackage": {"href": "/mdr/ct/packages/sdtmct-2019-12-20", "title": "SDTM Controlled Terminology Package 40 Effective 2019-12-20", "type": "Terminology"}, "priorVersion": {"href": "/mdr/ct/packages/sdtmct-2019-09-27/codelists/C138247", "title": "CDISC Questionnaire PedsQL Neuromuscular Module Version 3.0 Parent of Toddler Test Code Terminology", "type": "Code List"}, "rootItem": {"href": "/mdr/root/ct/sdtmct/codelists/C138247", "title": "Version-agnostic anchor resource for codelist C138247", "type": "Root Value Domain"}, "self": {"href": "/mdr/ct/packages/sdtmct-2019-12-20/codelists/C138247", "title": "CDISC Questionnaire PedsQL Neuromuscular Module Version 3.0 Parent of Toddler Test Code Terminology", "type": "Code List"}}, "conceptId": "C138247", "definition": "Pediatric Quality of Life Neuromuscular Module Version 3 Toddler Parent Report test code.", "extensible": "false", "name": "Pediatric Quality of Life Neuromuscular Module Version 3 Toddler Parent Report Questionnaire Test Code", "preferredTerm": "CDISC Questionnaire PedsQL Neuromuscular Module Version 3.0 Parent of Toddler Test Code Terminology", "submissionValue": "PQL09TC", "synonyms": ["Pediatric Quality of Life Neuromuscular Module Version 3 Toddler Parent Report Questionnaire Test Code"], "terms": [{"conceptId": "C138707", "definition": "Pediatric Quality of Life Neuromuscular Module Version 3 Toddler Parent Report - In the past one month, how much of a problem has this been for your child: It is hard for my child to breathe.", "preferredTerm": "PedsQL Neuromuscular Module Version 3.0 Parent of Toddler - Hard to Breathe", "submissionValue": "PQL0901", "synonyms": ["PQL09-Hard to Breathe"]}, {"conceptId": "C138708", "definition": "Pediatric Quality of Life Neuromuscular Module Version 3 Toddler Parent Report - In the past one month, how much of a problem has this been for your child: My child gets sick easily.", "preferredTerm": "PedsQL Neuromuscular Module Version 3.0 Parent of Toddler - Get Sick Easily", "submissionValue": "PQL0902", "synonyms": ["PQL09-Get Sick Easily"]}, {"conceptId": "C138709", "definition": "Pediatric Quality of Life Neuromuscular Module Version 3 Toddler Parent Report - In the past one month, how much of a problem has this been for your child: My child gets sores and/or rashes.", "preferredTerm": "PedsQL Neuromuscular Module Version 3.0 Parent of Toddler - Get Sores and/or Rashes", "submissionValue": "PQL0903", "synonyms": ["PQL09-Get Sores and/or Rashes"]}, {"conceptId": "C138710", "definition": "Pediatric Quality of Life Neuromuscular Module Version 3 Toddler Parent Report - In the past one month, how much of a problem has this been for your child: My child's legs hurt.", "preferredTerm": "PedsQL Neuromuscular Module Version 3.0 Parent of Toddler - Legs Hurt", "submissionValue": "PQL0904", "synonyms": ["PQL09-Legs Hurt"]}, {"conceptId": "C138711", "definition": "Pediatric Quality of Life Neuromuscular Module Version 3 Toddler Parent Report - In the past one month, how much of a problem has this been for your child: My child feels tired.", "preferredTerm": "PedsQL Neuromuscular Module Version 3.0 Parent of Toddler - Feel Tired", "submissionValue": "PQL0905", "synonyms": ["PQL09-Feel Tired"]}, {"conceptId": "C138712", "definition": "Pediatric Quality of Life Neuromuscular Module Version 3 Toddler Parent Report - In the past one month, how much of a problem has this been for your child: My child's back feels stiff.", "preferredTerm": "PedsQL Neuromuscular Module Version 3.0 Parent of Toddler - Back Feels Stiff", "submissionValue": "PQL0906", "synonyms": ["PQL09-Back Feels Stiff"]}, {"conceptId": "C138713", "definition": "Pediatric Quality of Life Neuromuscular Module Version 3 Toddler Parent Report - In the past one month, how much of a problem has this been for your child: My child wakes up tired.", "preferredTerm": "PedsQL Neuromuscular Module Version 3.0 Parent of Toddler - Wake Up Tired", "submissionValue": "PQL0907", "synonyms": ["PQL09-Wake Up Tired"]}, {"conceptId": "C138714", "definition": "Pediatric Quality of Life Neuromuscular Module Version 3 Toddler Parent Report - In the past one month, how much of a problem has this been for your child: My child's hands are weak.", "preferredTerm": "PedsQL Neuromuscular Module Version 3.0 Parent of Toddler - Hands Are Weak", "submissionValue": "PQL0908", "synonyms": ["PQL09-Hands Are Weak"]}, {"conceptId": "C138715", "definition": "Pediatric Quality of Life Neuromuscular Module Version 3 Toddler Parent Report - In the past one month, how much of a problem has this been for your child: It is hard for my child to use the bathroom.", "preferredTerm": "PedsQL Neuromuscular Module Version 3.0 Parent of Toddler - Hard to Use Bathroom", "submissionValue": "PQL0909", "synonyms": ["PQL09-Hard to Use Bathroom"]}, {"conceptId": "C138716", "definition": "Pediatric Quality of Life Neuromuscular Module Version 3 Toddler Parent Report - In the past one month, how much of a problem has this been for your child: It is hard for my child to gain or lose weight when he or she wants to.", "preferredTerm": "PedsQL Neuromuscular Module Version 3.0 Parent of Toddler - Hard to Gain or Lose Weight", "submissionValue": "PQL0910", "synonyms": ["PQL09-Hard to Gain/Lose Weight"]}, {"conceptId": "C138717", "definition": "Pediatric Quality of Life Neuromuscular Module Version 3 Toddler Parent Report - In the past one month, how much of a problem has this been for your child: It is hard for my child to use his or her hands.", "preferredTerm": "PedsQL Neuromuscular Module Version 3.0 Parent of Toddler - Hard to Use Hands", "submissionValue": "PQL0911", "synonyms": ["PQL09-Hard to Use Hands"]}, {"conceptId": "C138718", "definition": "Pediatric Quality of Life Neuromuscular Module Version 3 Toddler Parent Report - In the past one month, how much of a problem has this been for your child: It is hard for my child to swallow food.", "preferredTerm": "PedsQL Neuromuscular Module Version 3.0 Parent of Toddler - Hard to Swallow Food", "submissionValue": "PQL0912", "synonyms": ["PQL09-Hard to Swallow Food"]}, {"conceptId": "C138719", "definition": "Pediatric Quality of Life Neuromuscular Module Version 3 Toddler Parent Report - In the past one month, how much of a problem has this been for your child: It takes my child a long time to bathe or shower.", "preferredTerm": "PedsQL Neuromuscular Module Version 3.0 Parent of Toddler - Long Time to Bathe or Shower", "submissionValue": "PQL0913", "synonyms": ["PQL09-Long Time to Bathe/Shower"]}, {"conceptId": "C138720", "definition": "Pediatric Quality of Life Neuromuscular Module Version 3 Toddler Parent Report - In the past one month, how much of a problem has this been for your child: My child gets hurt accidentally.", "preferredTerm": "PedsQL Neuromuscular Module Version 3.0 Parent of Toddler - Get Hurt Accidentally", "submissionValue": "PQL0914", "synonyms": ["PQL09-Get Hurt Accidentally"]}, {"conceptId": "C138721", "definition": "Pediatric Quality of Life Neuromuscular Module Version 3 Toddler Parent Report - In the past one month, how much of a problem has this been for your child: My child takes a long time to eat.", "preferredTerm": "PedsQL Neuromuscular Module Version 3.0 Parent of Toddler - Take Long Time to Eat", "submissionValue": "PQL0915", "synonyms": ["PQL09-Take Long Time to Eat"]}, {"conceptId": "C138722", "definition": "Pediatric Quality of Life Neuromuscular Module Version 3 Toddler Parent Report - In the past one month, how much of a problem has this been for your child: It is hard for my child to turn him or herself during the night.", "preferredTerm": "PedsQL Neuromuscular Module Version 3.0 Parent of Toddler - Hard to Turn During Night", "submissionValue": "PQL0916", "synonyms": ["PQL09-Hard to Turn During Night"]}, {"conceptId": "C138723", "definition": "Pediatric Quality of Life Neuromuscular Module Version 3 Toddler Parent Report - In the past one month, how much of a problem has this been for your child: It is hard for my child to go places with his or her equipment.", "preferredTerm": "PedsQL Neuromuscular Module Version 3.0 Parent of Toddler - Hard to Go Places With Equipment", "submissionValue": "PQL0917", "synonyms": ["PQL09-Hard to Go Places With Equipment"]}, {"conceptId": "C138724", "definition": "Pediatric Quality of Life Neuromuscular Module Version 3 Toddler Parent Report - In the past one month, how much of a problem has this been for your child: It is hard for my child to tell the doctors and nurses how he or she feels.", "preferredTerm": "PedsQL Neuromuscular Module Version 3.0 Parent of Toddler - Hard Tell Doctors and Nurses How Feel", "submissionValue": "PQL0918", "synonyms": ["PQL09-Hard Tell Doctors/Nurses How Feel"]}, {"conceptId": "C138725", "definition": "Pediatric Quality of Life Neuromuscular Module Version 3 Toddler Parent Report - In the past one month, how much of a problem has this been for your child: It is hard for my child to ask the doctors and nurses questions.", "preferredTerm": "PedsQL Neuromuscular Module Version 3.0 Parent of Toddler - Hard Ask Doctors and Nurses Questions", "submissionValue": "PQL0919", "synonyms": ["PQL09-Hard Ask Doctors/Nurses Questions"]}, {"conceptId": "C138726", "definition": "Pediatric Quality of Life Neuromuscular Module Version 3 Toddler Parent Report - In the past one month, how much of a problem has this been for your child: It is hard for my child to explain his or her illness to other people.", "preferredTerm": "PedsQL Neuromuscular Module Version 3.0 Parent of Toddler - Hard Explain Illness to People", "submissionValue": "PQL0920", "synonyms": ["PQL09-Hard Explain Illness to People"]}, {"conceptId": "C138727", "definition": "Pediatric Quality of Life Neuromuscular Module Version 3 Toddler Parent Report - In the past one month, how much of a problem has this been for your child: It is hard for our family to plan activities like vacations.", "preferredTerm": "PedsQL Neuromuscular Module Version 3.0 Parent of Toddler - Hard for Family to Plan Activities", "submissionValue": "PQL0921", "synonyms": ["PQL09-Hard for Family to Plan Activities"]}, {"conceptId": "C138728", "definition": "Pediatric Quality of Life Neuromuscular Module Version 3 Toddler Parent Report - In the past one month, how much of a problem has this been for your child: It is hard for our family to get enough rest.", "preferredTerm": "PedsQL Neuromuscular Module Version 3.0 Parent of Toddler - Hard for Family to Rest", "submissionValue": "PQL0922", "synonyms": ["PQL09-Hard for Family to Rest"]}, {"conceptId": "C138729", "definition": "Pediatric Quality of Life Neuromuscular Module Version 3 Toddler Parent Report - In the past one month, how much of a problem has this been for your child: I think money is a problem in our family.", "preferredTerm": "PedsQL Neuromuscular Module Version 3.0 Parent of Toddler - Money Problem in Our Family", "submissionValue": "PQL0923", "synonyms": ["PQL09-Money Problem in Our Family"]}, {"conceptId": "C138730", "definition": "Pediatric Quality of Life Neuromuscular Module Version 3 Toddler Parent Report - In the past one month, how much of a problem has this been for your child: I think our family has a lot of problems.", "preferredTerm": "PedsQL Neuromuscular Module Version 3.0 Parent of Toddler - Family Has Lot of Problems", "submissionValue": "PQL0924", "synonyms": ["PQL09-Family Has Lot of Problems"]}, {"conceptId": "C138731", "definition": "Pediatric Quality of Life Neuromuscular Module Version 3 Toddler Parent Report - In the past one month, how much of a problem has this been for your child: My child does not have the equipment he or she needs.", "preferredTerm": "PedsQL Neuromuscular Module Version 3.0 Parent of Toddler - Do Not Have Equipment Need", "submissionValue": "PQL0925", "synonyms": ["PQL09-Do Not Have Equipment Need"]}]}