{"_links": {"parentPackage": {"href": "/mdr/ct/packages/sdtmct-2019-12-20", "title": "SDTM Controlled Terminology Package 40 Effective 2019-12-20", "type": "Terminology"}, "priorVersion": {"href": "/mdr/ct/packages/sdtmct-2019-09-27/codelists/C141660", "title": "CDISC Functional Test 4 Stair Descend Test Name Terminology", "type": "Code List"}, "rootItem": {"href": "/mdr/root/ct/sdtmct/codelists/C141660", "title": "Version-agnostic anchor resource for codelist C141660", "type": "Root Value Domain"}, "self": {"href": "/mdr/ct/packages/sdtmct-2019-12-20/codelists/C141660", "title": "CDISC Functional Test 4 Stair Descend Test Name Terminology", "type": "Code List"}}, "conceptId": "C141660", "definition": "Descend 4 Stairs test name.", "extensible": "false", "name": "Descend 4 Stairs Functional Test Test Name", "preferredTerm": "CDISC Functional Test 4 Stair Descend Test Name Terminology", "submissionValue": "D4STR1TN", "synonyms": ["Descend 4 Stairs Functional Test Test Name"], "terms": [{"conceptId": "C141705", "definition": "4 Stair Descend - Test grade.", "preferredTerm": "4 Stair Descend - Test Grade", "submissionValue": "D4STR1-Test Grade", "synonyms": ["D4STR1-Test Grade"]}, {"conceptId": "C141704", "definition": "4 Stair Descend - Time taken to descend 4 stairs.", "preferredTerm": "4 Stair Descend - Time to Descend 4 Stairs", "submissionValue": "D4STR1-Time to Descend 4 Stairs", "synonyms": ["D4STR1-Time to Descend 4 Stairs"]}, {"conceptId": "C147591", "definition": "4 Stair Descend - Did subject wear orthoses?", "preferredTerm": "4 Stair Descend - Wear Orthoses", "submissionValue": "D4STR1-Wear Orthoses", "synonyms": ["D4STR1-Wear Orthoses"]}]}