{"_links": {"parentPackage": {"href": "/mdr/ct/packages/sdtmct-2019-12-20", "title": "SDTM Controlled Terminology Package 40 Effective 2019-12-20", "type": "Terminology"}, "priorVersion": {"href": "/mdr/ct/packages/sdtmct-2019-09-27/codelists/C147538", "title": "CDISC Clinical Classification ATLAS Test Code Terminology", "type": "Code List"}, "rootItem": {"href": "/mdr/root/ct/sdtmct/codelists/C147538", "title": "Version-agnostic anchor resource for codelist C147538", "type": "Root Value Domain"}, "self": {"href": "/mdr/ct/packages/sdtmct-2019-12-20/codelists/C147538", "title": "CDISC Clinical Classification ATLAS Test Code Terminology", "type": "Code List"}}, "conceptId": "C147538", "definition": "ATLAS test code.", "extensible": "false", "name": "ATLAS Clinical Classification Test Code", "preferredTerm": "CDISC Clinical Classification ATLAS Test Code Terminology", "submissionValue": "ATLAS1TC", "synonyms": ["ATLAS Clinical Classification Test Code"], "terms": [{"conceptId": "C147843", "definition": "Age, treatment with systemic antibiotics, leukocyte count, serum albumin, and serum creatinine as a measure of renal function - Age.", "preferredTerm": "ATLAS - Age", "submissionValue": "ATLAS101", "synonyms": ["ATLAS1-Age"]}, {"conceptId": "C147844", "definition": "Age, treatment with systemic antibiotics, leukocyte count, serum albumin, and serum creatinine as a measure of renal function - Treatment with systemic antibiotics during CDI therapy (>= 1 day).", "preferredTerm": "ATLAS - Treatment With Antibiotics", "submissionValue": "ATLAS102", "synonyms": ["ATLAS1-Treatment With Antibiotics"]}, {"conceptId": "C147845", "definition": "Age, treatment with systemic antibiotics, leukocyte count, serum albumin, and serum creatinine as a measure of renal function - Leukocyte count (total).", "preferredTerm": "ATLAS - Leukocyte Count", "submissionValue": "ATLAS103", "synonyms": ["ATLAS1-Leukocyte Count"]}, {"conceptId": "C147846", "definition": "Age, treatment with systemic antibiotics, leukocyte count, serum albumin, and serum creatinine as a measure of renal function - Albumin (serum).", "preferredTerm": "ATLAS - Albumin", "submissionValue": "ATLAS104", "synonyms": ["ATLAS1-Albumin"]}, {"conceptId": "C147847", "definition": "Age, treatment with systemic antibiotics, leukocyte count, serum albumin, and serum creatinine as a measure of renal function - Serum creatinine (as a measure of renal function).", "preferredTerm": "ATLAS - Serum Creatinine", "submissionValue": "ATLAS105", "synonyms": ["ATLAS1-Serum Creatinine"]}, {"conceptId": "C147848", "definition": "Age, treatment with systemic antibiotics, leukocyte count, serum albumin, and serum creatinine as a measure of renal function - Score.", "preferredTerm": "ATLAS - Score", "submissionValue": "ATLAS106", "synonyms": ["ATLAS1-Score"]}]}