{"_links": {"parentPackage": {"href": "/mdr/ct/packages/sdtmct-2019-12-20", "title": "SDTM Controlled Terminology Package 40 Effective 2019-12-20", "type": "Terminology"}, "priorVersion": {"href": "/mdr/ct/packages/sdtmct-2019-09-27/codelists/C156672", "title": "CDISC Clinical Classification COVI Test Name Terminology", "type": "Code List"}, "rootItem": {"href": "/mdr/root/ct/sdtmct/codelists/C156672", "title": "Version-agnostic anchor resource for codelist C156672", "type": "Root Value Domain"}, "self": {"href": "/mdr/ct/packages/sdtmct-2019-12-20/codelists/C156672", "title": "CDISC Clinical Classification COVI Test Name Terminology", "type": "Code List"}}, "conceptId": "C156672", "definition": "Covi Anxiety Scale test name.", "extensible": "false", "name": "Covi Anxiety Scale Clinical Classification Test Name", "preferredTerm": "CDISC Clinical Classification COVI Test Name Terminology", "submissionValue": "COVI01TN", "synonyms": ["Covi Anxiety Scale Clinical Classification Test Name"], "terms": [{"conceptId": "C156677", "definition": "Covi Anxiety Scale - Behavior.", "preferredTerm": "COVI - Behavior", "submissionValue": "COVI01-Behavior", "synonyms": ["COVI01-Behavior"]}, {"conceptId": "C156678", "definition": "Covi Anxiety Scale - Somatic symptoms of anxiety.", "preferredTerm": "COVI - Somatic Symptoms of Anxiety", "submissionValue": "COVI01-Somatic Symptoms of Anxiety", "synonyms": ["COVI01-Somatic Symptoms of Anxiety"]}, {"conceptId": "C156679", "definition": "Covi Anxiety Scale - Total score.", "preferredTerm": "COVI - Total Score", "submissionValue": "COVI01-Total Score", "synonyms": ["COVI01-Total Score"]}, {"conceptId": "C156676", "definition": "Covi Anxiety Scale - Verbal report.", "preferredTerm": "COVI - Verbal Report", "submissionValue": "COVI01-Verbal Report", "synonyms": ["COVI01-Verbal Report"]}]}