{"_links": {"parentPackage": {"href": "/mdr/ct/packages/sdtmct-2019-12-20", "title": "SDTM Controlled Terminology Package 40 Effective 2019-12-20", "type": "Terminology"}, "priorVersion": {"href": "/mdr/ct/packages/sdtmct-2019-09-27/codelists/C160922", "title": "CDISC SDTM Laboratory Analytical Method Calculation Formula Terminology", "type": "Code List"}, "rootItem": {"href": "/mdr/root/ct/sdtmct/codelists/C160922", "title": "Version-agnostic anchor resource for codelist C160922", "type": "Root Value Domain"}, "self": {"href": "/mdr/ct/packages/sdtmct-2019-12-20/codelists/C160922", "title": "CDISC SDTM Laboratory Analytical Method Calculation Formula Terminology", "type": "Code List"}}, "conceptId": "C160922", "definition": "Terminology relevant to the formula names associated with a laboratory test calculation.", "extensible": "true", "name": "Laboratory Analytical Method Calculation Formula", "preferredTerm": "CDISC SDTM Laboratory Analytical Method Calculation Formula Terminology", "submissionValue": "LBANMET", "synonyms": ["Laboratory Analytical Method Calculation Formula"], "terms": [{"conceptId": "C161338", "definition": "A formula to estimate glomerular filtration rate that takes into account sex, age, race, and serum creatinine (SCr). eGFR(mL/min/1.73 m2)=141 x min(SCr/k, 1)^a x max(SCr/k, 1)^-1.209 x 0.993^Age x 1.018 [if female] x 1.159 [if black] where: SCr is in mg/dL; k=0.7 for Female and 0.9 for Male; a=-0.329 for female and -0.411 for male. (Levey AS, Stevens LA, Schmid CH, Zhang YL, Castro AF, Feldman HI, Kusek JW, Eggers P, Van Lente F, Greene T. A new equation to estimate glomerular filtration rate. Ann Intern Med. 2009;150:604-612.)", "preferredTerm": "CKD-EPI Creatinine Formula", "submissionValue": "CKD-EPI CREATININE FORMULA"}, {"conceptId": "C161340", "definition": "A formula to estimate glomerular filtration rate that takes into account sex, age, race, serum creatinine (SCr) and serum cystatin C (Scys). eGFR(mL/min/1.73 m2)=135 x min(SCr/k, 1)a x max(SCr/k, 1)-0.601 x min(Scys/0.8, 1)-0.375 x max(Scys/0.8, 1)-0.711 x 0.995^Age x 0.969 [if female] x 1.08 [if black]. (Inker LA, Schmid CH, Tighiouart H, et al. Estimating glomerular filtration rate from serum creatinine and cystatin C. N Engl J Med. 2012;367(1):20-29.)", "preferredTerm": "CKD-EPI Creatinine-Cystatin C Formula", "submissionValue": "CKD-EPI CREATININE-CYSTATIN C FORMULA"}, {"conceptId": "C161339", "definition": "A formula to estimate glomerular filtration rate that takes into account sex, age, race, and serum cystatin C (Scys). eGFR(mL/min/1.73 m2)=133 x min(Scys/0.8, 1)^-0.499 x max (Scys/0.8, 1)^-1.328 x 0.996^Age x 0.932 [if female]. (Inker LA, Schmid CH, Tighiouart H, et al. Estimating glomerular filtration rate from serum creatinine and cystatin C. N Engl J Med. 2012;367(1):20-29.)", "preferredTerm": "CKD-EPI Cystatin C Formula", "submissionValue": "CKD-EPI CYSTATIN C FORMULA"}, {"conceptId": "C161341", "definition": "An unspecified formula to estimate glomerular filtration rate that takes into account factors such as sex, age, race, and biomarker measurements.", "preferredTerm": "CKD-EPI Formula", "submissionValue": "CKD-EPI FORMULA"}, {"conceptId": "C161342", "definition": "A formula to estimate creatinine clearance that takes into account sex, age, weight, and serum creatinine (SCr). CCr=(140 - Age) x Wgt (Kg) / 72xCrt (mg/dL) x 1 (if M) or 0.85 (if F), for conventional units. CCr=(140 - Age) x Wgt (Kg) / 72xCrt (MCMOL/L) x 88.4 x 1 (if M) or 0.85 (if F) [If Wgt is in lbs; Wgt (Kg) = Wgt (lbs) x 0.45], for SI units. (Cockcroft, D.W. and M.H. Gault. Prediction of creatinine clearance from serum creatinine. Nephron. 1976. 16(1):31-41.)", "preferredTerm": "Cockcroft-Gault Formula", "submissionValue": "COCKCROFT-GAULT FORMULA"}, {"conceptId": "C161343", "definition": "A formula to estimate glomerular filtration rate that takes into account age, sex, race, and serum creatinine (Scr). eGFR (mL/min/1.73 m2) = 186 x (Scr)^-1.154 x (Age)^-0.203 x (0.742 if female) x (1.210 if African American). (Levey AS, Bosch JP, Lewis JB, Greene T, Rogers N, Roth D. A more accurate method to estimate glomerular filtration rate from serum creatinine: a new prediction equation. Modification of Diet in Renal Disease Study Group. Ann Intern Med. 1999;130:461-70.)", "preferredTerm": "MDRD 4 Variable Formula", "submissionValue": "MDRD 4 VARIABLE FORMULA"}, {"conceptId": "C161344", "definition": "A formula to estimate glomerular filtration rate that takes into account age, sex, race, serum creatinine and serum urea nitrogen. eGFR (mL/min/1.73 m = 270 x creatinine (mg/dl)^-1.007 x age^-0.180 x 1.178 (if black) x 0.762 (if female) x serum urea nitrogen^-0.169. (Levey AS, Greene T, Kusek JW, Beck GJ, MDRD study group. A simplified equation to predict glomerular filtration rate from serum creatinine. J Am Soc Nephrol 2000; 11: A0828.)", "preferredTerm": "MDRD 5 Variable Formula", "submissionValue": "MDRD 5 VARIABLE FORMULA"}, {"conceptId": "C161345", "definition": "A formula to estimate glomerular filtration rate that takes into account age, sex, race, serum creatinine, serum urea nitrogen, and albumin. eGFR (mL/min/1.73 m2) = 170 x (SCr/88.4)^-0.999 x age^-0.176 x (SU x 2.78)^-0.170 x albumin^0.318 x (0.762, if female) x (1.18, if African American). (Levey AS, Greene T, Kusek JW, Beck GJ, MDRD study group. A simplified equation to predict glomerular filtration rate from serum creatinine. J Am Soc Nephrol 2000; 11: A0828.)", "preferredTerm": "MDRD 6 Variable Formula", "submissionValue": "MDRD 6 VARIABLE FORMULA"}, {"conceptId": "C161346", "definition": "A formula to estimate glomerular filtration rate that takes into account age, sex, race, and serum creatinine. eGFR (mL/min/1.73 m2)=175 x (serum Cr [conv mg/dL])^-1.154 x (Age)^ -0.203 x (0.742 if female) x (1.212 if black), for conventional units. eGFR=175 x (serum Cr [SI UMOL/L]/88.4)^-1.154 x (Age)^ -0.203 x (0.742 if female) x (1.212 if black), for SI units. (Levey AS, Stevens LA, Schmid CH, Zhang YL, Castro AF, 3rd, Feldman HI, et al. A new equation to estimate glomerular filtration rate. Ann Intern Med. 2009;150(9):604-12.)", "preferredTerm": "MDRD Enzymatic Formula", "submissionValue": "MDRD ENZYMATIC FORMULA", "synonyms": ["IDMS MDRD"]}, {"conceptId": "C161347", "definition": "A formula to estimate glomerular filtration rate in Japanese subjects that takes into account age, sex, and serum creatinine. eGFR (ml/min/1.73m2) = 194 x PD93 power^-1.094 x Age power^- 0.287 x Sex; where PD93 = Serum Cr (mg/dL), Sex = 1.00 for male and 0.739 for female. (Imai E, Horio M, Nitta K, Yamagata K, Iseki K, Tsukamoto Y, Ito S, Makino H, Hishida A, Matsuo S. Modification of the Modification of Diet in Renal Disease (MDRD) Study equation for Japan. Am J Kidney Dis. 2007 Dec;50(6):927-37.)", "preferredTerm": "MDRD Enzymatic Japanese Formula", "submissionValue": "MDRD ENZYMATIC JAPANESE FORMULA"}, {"conceptId": "C161348", "definition": "A formula to estimate glomerular filtration rate in children that takes into account age, height, and serum creatinine. eGFR (mL/min/1.73 m2) = k x Height (cm)/Serum creatinine (mg/dL) where k=0.33 for pre-term babies, 0.45 for full-term babies and 0.55 for girls ages 1-13 or 0.70 for boys ages 1-13. (Schwartz GJ, Gauthier B. A simple estimate of glomerular filtration rate in adolescent boys. J Pediatr. 1985 Mar;106(3):522-6.)", "preferredTerm": "Schwartz Method For Children Formula", "submissionValue": "SCHWARTZ METHOD FOR CHILDREN FORMULA"}]}