{"_links": {"parentPackage": {"href": "/mdr/ct/packages/sdtmct-2019-12-20", "title": "SDTM Controlled Terminology Package 40 Effective 2019-12-20", "type": "Terminology"}, "priorVersion": {"href": "/mdr/ct/packages/sdtmct-2019-09-27/codelists/C161627", "title": "CDISC Clinical Classification E-TRIP Test Code Terminology", "type": "Code List"}, "rootItem": {"href": "/mdr/root/ct/sdtmct/codelists/C161627", "title": "Version-agnostic anchor resource for codelist C161627", "type": "Root Value Domain"}, "self": {"href": "/mdr/ct/packages/sdtmct-2019-12-20/codelists/C161627", "title": "CDISC Clinical Classification E-TRIP Test Code Terminology", "type": "Code List"}}, "conceptId": "C161627", "definition": "Emory Treatment Resistance Interview for PTSD test code.", "extensible": "false", "name": "Emory Treatment Resistance Interview for PTSD Clinical Classification Test Code", "preferredTerm": "CDISC Clinical Classification E-TRIP Test Code Terminology", "submissionValue": "ETRP01TC", "synonyms": ["Emory Treatment Resistance Interview for PTSD Clinical Classification Test Code"], "terms": [{"conceptId": "C161760", "definition": "Emory Treatment Resistance Interview for PTSD - Medication total points.", "preferredTerm": "E-TRIP- Medication Total Points", "submissionValue": "ETRP0101", "synonyms": ["ETRP01-Medication Total Points"]}, {"conceptId": "C161761", "definition": "Emory Treatment Resistance Interview for PTSD - Psychotherapy total points.", "preferredTerm": "E-TRIP- Psychotherapy Total Points", "submissionValue": "ETRP0102", "synonyms": ["ETRP01-Psychotherapy Total Points"]}, {"conceptId": "C161762", "definition": "Emory Treatment Resistance Interview for PTSD - Total points.", "preferredTerm": "E-TRIP- Total Points", "submissionValue": "ETRP0103", "synonyms": ["ETRP01-Total Points"]}]}