{"_links": {"parentPackage": {"href": "/mdr/ct/packages/sdtmct-2019-12-20", "title": "SDTM Controlled Terminology Package 40 Effective 2019-12-20", "type": "Terminology"}, "priorVersion": {"href": "/mdr/ct/packages/sdtmct-2019-09-27/codelists/C163028", "title": "CDISC SDTM Type 1 Diabetes Findings About Test Name Terminology", "type": "Code List"}, "rootItem": {"href": "/mdr/root/ct/sdtmct/codelists/C163028", "title": "Version-agnostic anchor resource for codelist C163028", "type": "Root Value Domain"}, "self": {"href": "/mdr/ct/packages/sdtmct-2019-12-20/codelists/C163028", "title": "CDISC SDTM Type 1 Diabetes Findings About Test Name Terminology", "type": "Code List"}}, "conceptId": "C163028", "definition": "Terminology relevant to the test names that describe findings about Type 1 Diabetes event or intervention.", "extensible": "true", "name": "Type 1 Diabetes Findings About Test Name", "preferredTerm": "CDISC SDTM Type 1 Diabetes Findings About Test Name Terminology", "submissionValue": "D1FATS", "synonyms": ["Type 1 Diabetes Findings About Test Name"], "terms": [{"conceptId": "C117037", "definition": "Action taken with respect to a device in a study, which may or may not be the device under study.", "preferredTerm": "Action Taken with Device", "submissionValue": "Action Taken With Device", "synonyms": ["Action Taken With Device"]}, {"conceptId": "C163412", "definition": "Action taken with respect to a subject in a study.", "preferredTerm": "Action Taken With Subject", "submissionValue": "Action Taken With Subject", "synonyms": ["Action Taken With Subject"]}, {"conceptId": "C94596", "definition": "The total amount that a subject is exposed to over time.", "preferredTerm": "Cumulative Exposure", "submissionValue": "Cumulative Exposure", "synonyms": ["Cumulative Exposure"]}, {"conceptId": "C124281", "definition": "The total number of episodes that have occurred for the condition.", "preferredTerm": "Number of Episodes", "submissionValue": "Number of Episodes", "synonyms": ["Number of Episodes"]}, {"conceptId": "C163413", "definition": "The factor that causes or triggers the onset of an occurrence.", "preferredTerm": "Precipitating Factor", "submissionValue": "Precipitating Factor", "synonyms": ["Precipitating Factor"]}, {"conceptId": "C163414", "definition": "The relationship of an event to a device, which may or may not be a device under study.", "preferredTerm": "Relationship to Device", "submissionValue": "Relationship to Device", "synonyms": ["Relationship to Device"]}]}