{"_links": {"parentPackage": {"href": "/mdr/ct/packages/sdtmct-2019-12-20", "title": "SDTM Controlled Terminology Package 40 Effective 2019-12-20", "type": "Terminology"}, "priorVersion": {"href": "/mdr/ct/packages/sdtmct-2019-09-27/codelists/C163385", "title": "CDISC Questionnaire ADSD Version 1.0 Test Code Terminology", "type": "Code List"}, "rootItem": {"href": "/mdr/root/ct/sdtmct/codelists/C163385", "title": "Version-agnostic anchor resource for codelist C163385", "type": "Root Value Domain"}, "self": {"href": "/mdr/ct/packages/sdtmct-2019-12-20/codelists/C163385", "title": "CDISC Questionnaire ADSD Version 1.0 Test Code Terminology", "type": "Code List"}}, "conceptId": "C163385", "definition": "Asthma Daytime Symptom Diary v1.0 test code.", "extensible": "false", "name": "Asthma Daytime Symptom Diary v1.0 Questionnaire Test Code", "preferredTerm": "CDISC Questionnaire ADSD Version 1.0 Test Code Terminology", "submissionValue": "ADSD01TC", "synonyms": ["Asthma Daytime Symptom Diary v1.0 Questionnaire Test Code"], "terms": [{"conceptId": "C163818", "definition": "Asthma Daytime Symptom Diary v1.0 - Please rate your difficulty breathing at its worst since you got up this morning.", "preferredTerm": "ADSD Version 1.0 - Rate Breathing at Its Worst", "submissionValue": "ADSD0101", "synonyms": ["ADSD01-Rate Breathing at Its Worst"]}, {"conceptId": "C163819", "definition": "Asthma Daytime Symptom Diary v1.0 - Please rate your wheezing at its worst since you got up this morning.", "preferredTerm": "ADSD Version 1.0 - Rate Wheezing at Its Worst", "submissionValue": "ADSD0102", "synonyms": ["ADSD01-Rate Wheezing at Its Worst"]}, {"conceptId": "C163820", "definition": "Asthma Daytime Symptom Diary v1.0 - Please rate your shortness of breath at its worst since you got up this morning.", "preferredTerm": "ADSD Version 1.0 - Rate Shortness of Breath at Worst", "submissionValue": "ADSD0103", "synonyms": ["ADSD01-Rate Shortness of Breath at Worst"]}, {"conceptId": "C163821", "definition": "Asthma Daytime Symptom Diary v1.0 - Please rate your chest tightness at its worst since you got up this morning.", "preferredTerm": "ADSD Version 1.0 - Rate Chest Tightness at Its Worst", "submissionValue": "ADSD0104", "synonyms": ["ADSD01-Rate Chest Tightness at Its Worst"]}, {"conceptId": "C163822", "definition": "Asthma Daytime Symptom Diary v1.0 - Please rate your chest pain at its worst since you got up this morning.", "preferredTerm": "ADSD Version 1.0 - Rate Chest Pain at Its Worst", "submissionValue": "ADSD0105", "synonyms": ["ADSD01-Rate Chest Pain at Its Worst"]}, {"conceptId": "C163823", "definition": "Asthma Daytime Symptom Diary v1.0 - Please rate your cough at its worst since you got up this morning.", "preferredTerm": "ADSD Version 1.0 - Rate Cough at Its Worst", "submissionValue": "ADSD0106", "synonyms": ["ADSD01-Rate Cough at Its Worst"]}, {"conceptId": "C163824", "definition": "Asthma Daytime Symptom Diary v1.0 - Total score.", "preferredTerm": "ADSD Version 1.0 - Total Score", "submissionValue": "ADSD0107", "synonyms": ["ADSD01-Total Score"]}]}