{"_links": {"parentPackage": {"href": "/mdr/ct/packages/sdtmct-2019-12-20", "title": "SDTM Controlled Terminology Package 40 Effective 2019-12-20", "type": "Terminology"}, "rootItem": {"href": "/mdr/root/ct/sdtmct/codelists/C165643", "title": "Version-agnostic anchor resource for codelist C165643", "type": "Root Value Domain"}, "self": {"href": "/mdr/ct/packages/sdtmct-2019-12-20/codelists/C165643", "title": "CDISC SDTM Severity Response Terminology", "type": "Code List"}}, "conceptId": "C165643", "definition": "Terminology relevant to a severity scale that describes the degree or intensity of a notable event or finding.", "extensible": "true", "name": "Severity Response", "preferredTerm": "CDISC SDTM Severity Response Terminology", "submissionValue": "SEVRS", "synonyms": ["Severity Response"], "terms": [{"conceptId": "C70666", "definition": "Slight or minor in degree, quality or extent.", "preferredTerm": "Mild", "submissionValue": "MILD"}, {"conceptId": "C61376", "definition": "Middling or intermediate in degree, quality or extent.", "preferredTerm": "Moderate", "submissionValue": "MODERATE"}, {"conceptId": "C70667", "definition": "Intensely bad or major in degree, quality or extent.", "preferredTerm": "Severe", "submissionValue": "SEVERE"}, {"conceptId": "C17998", "definition": "Not known, not observed, not recorded, or refused. (NCI)", "preferredTerm": "Unknown", "submissionValue": "U", "synonyms": ["U", "UNK", "Unknown"]}]}