{"_links": {"parentPackage": {"href": "/mdr/ct/packages/sdtmct-2019-12-20", "title": "SDTM Controlled Terminology Package 40 Effective 2019-12-20", "type": "Terminology"}, "rootItem": {"href": "/mdr/root/ct/sdtmct/codelists/C166187", "title": "Version-agnostic anchor resource for codelist C166187", "type": "Root Value Domain"}, "self": {"href": "/mdr/ct/packages/sdtmct-2019-12-20/codelists/C166187", "title": "CDISC Functional Test HD-CAB Test Name Terminology", "type": "Code List"}}, "conceptId": "C166187", "definition": "Huntington's Disease Cognitive Assessment Battery test name.", "extensible": "false", "name": "Huntington's Disease Cognitive Assessment Battery Functional Test Test Name", "preferredTerm": "CDISC Functional Test HD-CAB Test Name Terminology", "submissionValue": "HDCAB1TN", "synonyms": ["Huntington's Disease Cognitive Assessment Battery Functional Test Test Name"], "terms": [{"conceptId": "C166332", "definition": "Huntington's Disease Cognitive Assessment Battery - Emotion Recognition key variable for composite score: Number of correct responses to the negative expressions (anger, fear, sadness, disgust) out of 24 possible.", "preferredTerm": "HD-CAB - Emotion Recognition", "submissionValue": "HDCAB1-Emotion Recognition", "synonyms": ["HDCAB1-Emotion Recognition"]}, {"conceptId": "C166337", "definition": "Huntington's Disease Cognitive Assessment Battery - HD-CAB total score.", "preferredTerm": "HD-CAB - HD-CAB Total Score", "submissionValue": "HDCAB1-HD-CAB Total Score", "synonyms": ["HDCAB1-HD-CAB Total Score"]}, {"conceptId": "C166335", "definition": "Huntington's Disease Cognitive Assessment Battery - Hopkins Verbal Learning Test - Revised key variable for composite score: Total number of words correctly recalled over Trials 1-4 out of 48 possible.", "preferredTerm": "HD-CAB - Hopkins Verbal Learning Test Revised", "submissionValue": "HDCAB1-Hopkins Verbal Learning Test Rev", "synonyms": ["HDCAB1-Hopkins Verbal Learning Test Rev"]}, {"conceptId": "C166333", "definition": "Huntington's Disease Cognitive Assessment Battery - One Touch Stockings of Cambridge key variable for composite score: Mean time to correct response (sec) averaged across all 10 trials (reverse scored).", "preferredTerm": "HD-CAB - One Touch Stockings of Cambridge", "submissionValue": "HDCAB1-One Touch Stockings of Cambridge", "synonyms": ["HDCAB1-One Touch Stockings of Cambridge"]}, {"conceptId": "C166331", "definition": "Huntington's Disease Cognitive Assessment Battery - Paced Tapping key variable for composite score: 1/SD of the inter-tap interval for the self-paced taps.", "preferredTerm": "HD-CAB - Paced Tapping", "submissionValue": "HDCAB1-Paced Tapping", "synonyms": ["HDCAB1-Paced Tapping"]}, {"conceptId": "C166334", "definition": "Huntington's Disease Cognitive Assessment Battery - Symbol Digit Modalities Test key variable for composite score: Number of correct responses in 90 seconds out of 110 possible responses.", "preferredTerm": "HD-CAB - Symbol Digit Modalities Test", "submissionValue": "HDCAB1-Symbol Digit Modalities Test", "synonyms": ["HDCAB1-Symbol Digit Modalities Test"]}, {"conceptId": "C166336", "definition": "Huntington's Disease Cognitive Assessment Battery - Trail Making Test-B key variable for composite score: Time to completion (sec) of TMT Part B with upper time limit of 240 seconds (reverse scored).", "preferredTerm": "HD-CAB - Trail Making Test-B", "submissionValue": "HDCAB1-Trail Making Test-B", "synonyms": ["HDCAB1-Trail Making Test-B"]}]}