{"codelists": [{"conceptId": "", "definition": "Parameter Type", "extensible": "No", "name": "Parameter Type", "preferredTerm": "PARAMTYP", "submissionValue": "Parameter Type", "synonyms": ["Parameter Type: Indicates whether the parameter is derived as a function of one or more other parameters."], "terms": [{"conceptId": "C81197", "definition": "", "preferredTerm": "DERIVED", "submissionValue": "Parameter Type", "synonyms": ["Derived: Indicates that a parameter is derived as a function of one or more other parameters."]}]}, {"conceptId": "", "definition": "Date Imputation Flag", "extensible": "No", "name": "Date Imputation Flag", "preferredTerm": "DATEFL", "submissionValue": "Date Imputation Flag", "synonyms": ["Date Imputation Flag: Indicates the level of imputation reflected in a date value."], "terms": [{"conceptId": "C81210", "definition": "", "preferredTerm": "Y", "submissionValue": "Date Imputation Flag", "synonyms": ["Year Imputed: Entire date (year, month and day) is imputed."]}, {"conceptId": "C81211", "definition": "", "preferredTerm": "M", "submissionValue": "Date Imputation Flag", "synonyms": ["Month Imputed: Month and day are imputed."]}, {"conceptId": "C81212", "definition": "", "preferredTerm": "D", "submissionValue": "Date Imputation Flag", "synonyms": ["Day Imputed: Day is imputed."]}]}, {"conceptId": "", "definition": "Time Imputation Flag", "extensible": "No", "name": "Time Imputation Flag", "preferredTerm": "TIMEFL", "submissionValue": "Time Imputation Flag", "synonyms": ["Time Imputation Flag: Indicates the level of imputation reflected in a time value."], "terms": [{"conceptId": "C81214", "definition": "", "preferredTerm": "M", "submissionValue": "Time Imputation Flag", "synonyms": ["Minutes Imputed: Minutes and seconds are imputed."]}, {"conceptId": "C81215", "definition": "", "preferredTerm": "S", "submissionValue": "Time Imputation Flag", "synonyms": ["Seconds Imputed: Seconds are imputed."]}, {"conceptId": "C81213", "definition": "", "preferredTerm": "H", "submissionValue": "Time Imputation Flag", "synonyms": ["Hours Imputed: Entire time (hours, minutes and seconds) is imputed."]}]}, {"conceptId": "", "definition": "Derivation Type", "extensible": "Yes", "name": "Derivation Type", "preferredTerm": "DTYPE", "submissionValue": "Derivation Type", "synonyms": ["Derivation Type: Analysis value derivation method."], "terms": [{"conceptId": "C53331", "definition": "", "preferredTerm": "ML", "submissionValue": "Derivation Type", "synonyms": ["Maximum Likelihood: A data imputation technique which populates missing values with estimates that maximize the probability of observing what has in fact been observed."]}, {"conceptId": "C81198", "definition": "", "preferredTerm": "LOCF", "submissionValue": "Derivation Type", "synonyms": ["Last Observation Carried Forward: A data imputation technique which populates missing values with the subject's previous nonmissing value."]}, {"conceptId": "C81199", "definition": "", "preferredTerm": "WOCF", "submissionValue": "Derivation Type", "synonyms": ["Worst Observation Carried Forward: A data imputation technique which populates missing values with the subject's worst-case nonmissing value."]}, {"conceptId": "C81200", "definition": "", "preferredTerm": "SOCF", "submissionValue": "Derivation Type", "synonyms": ["Screening Observation Carried Forward: A data imputation technique which populates missing values with the subject's nonmissing screening observation."]}, {"conceptId": "C81201", "definition": "", "preferredTerm": "BLOCF", "submissionValue": "Derivation Type", "synonyms": ["Baseline Observation Carried Forward: A data imputation technique which populates missing values with the subject's nonmissing baseline observation."]}, {"conceptId": "C81203", "definition": "", "preferredTerm": "WC", "submissionValue": "Derivation Type", "synonyms": ["Worst Case: A data imputation technique which populates missing values with the worst possible outcome."]}, {"conceptId": "C81204", "definition": "", "preferredTerm": "MOTH", "submissionValue": "Derivation Type", "synonyms": ["Mean of Other Group: A data imputation technique which populates missing values with the mean value from a comparator or reference group."]}, {"conceptId": "C81205", "definition": "", "preferredTerm": "POCF", "submissionValue": "Derivation Type", "synonyms": ["Penultimate Observation Carried Forward: A data imputation technique which populates missing values with the subject's next-to-last nonmissing value."]}, {"conceptId": "C81206", "definition": "", "preferredTerm": "WOV", "submissionValue": "Derivation Type", "synonyms": ["Worst Observed Value in a Group: A data imputation technique which populates missing values with the worst value observed in a group of subjects."]}, {"conceptId": "C81207", "definition": "", "preferredTerm": "MOV", "submissionValue": "Derivation Type", "synonyms": ["Mean Observed Value in a Group: A data imputation technique which populates missing values with the mean value observed in a group of subjects."]}, {"conceptId": "C81208", "definition": "", "preferredTerm": "INTERP", "submissionValue": "Derivation Type", "synonyms": ["Interpolation: A method of imputation involving a missing value that is between known values and is estimated by a function of those known values."]}, {"conceptId": "C81209", "definition": "", "preferredTerm": "AVERAGE", "submissionValue": "Derivation Type", "synonyms": ["Average: A data derivation technique which calculates a subject's average value over a defined set of records."]}, {"conceptId": "C82866", "definition": "", "preferredTerm": "ENDPOINT", "submissionValue": "Derivation Type", "synonyms": ["Endpoint: A data derivation technique which calculates a subject's analysis end point value."]}, {"conceptId": "C82867", "definition": "", "preferredTerm": "MINIMUM", "submissionValue": "Derivation Type", "synonyms": ["Minimum: A data derivation technique which calculates a subject's minimum value over a defined set of records."]}, {"conceptId": "C82868", "definition": "", "preferredTerm": "MAXIMUM", "submissionValue": "Derivation Type", "synonyms": ["Maximum: A data derivation technique which calculates a subject's maximum value over a defined set of records."]}]}], "_links": {"priorVersion": {"href": "", "title": "", "type": "Terminology"}, "self": {"href": "", "title": "", "type": "Terminology"}}}