{"codelists": [{"conceptId": "", "definition": "Parameter Type: Indicates whether the parameter is derived as a function of one or more other parameters.", "extensible": "No", "name": "Parameter Type", "preferredTerm": "Parameter Type", "submissionValue": "Parameter Type", "synonyms": ["CDISC ADaM Parameter Type Terminology"], "terms": [{"conceptId": "C81197", "definition": "Derived: Indicates that a parameter is derived as a function of one or more other parameters.", "preferredTerm": "", "submissionValue": "Parameter Type", "synonyms": ["Derived Flag"]}]}, {"conceptId": "", "definition": "Date Imputation Flag: Indicates the level of imputation reflected in a date value.", "extensible": "No", "name": "Date Imputation Flag", "preferredTerm": "Date Imputation Flag", "submissionValue": "Date Imputation Flag", "synonyms": ["CDISC ADaM Date Imputation Flag Terminology"], "terms": [{"conceptId": "C81210", "definition": "Year Imputed: Entire date (year, month and day) is imputed.", "preferredTerm": "", "submissionValue": "Date Imputation Flag", "synonyms": ["Year Month Day Imputed"]}, {"conceptId": "C81211", "definition": "Month Imputed: Month and day are imputed.", "preferredTerm": "", "submissionValue": "Date Imputation Flag", "synonyms": ["Month Day Imputed"]}, {"conceptId": "C81212", "definition": "Day Imputed: Day is imputed.", "preferredTerm": "", "submissionValue": "Date Imputation Flag", "synonyms": ["Day Imputed"]}]}, {"conceptId": "", "definition": "Time Imputation Flag: Indicates the level of imputation reflected in a time value.", "extensible": "No", "name": "Time Imputation Flag", "preferredTerm": "Time Imputation Flag", "submissionValue": "Time Imputation Flag", "synonyms": ["CDISC ADaM Time Imputation Flag Terminology"], "terms": [{"conceptId": "C81214", "definition": "Minutes Imputed: Minutes and seconds are imputed.", "preferredTerm": "", "submissionValue": "Time Imputation Flag", "synonyms": ["Minutes Seconds Imputed"]}, {"conceptId": "C81215", "definition": "Seconds Imputed: Seconds are imputed.", "preferredTerm": "", "submissionValue": "Time Imputation Flag", "synonyms": ["Seconds Imputed"]}, {"conceptId": "C81213", "definition": "Hours Imputed: Entire time (hours, minutes and seconds) is imputed.", "preferredTerm": "", "submissionValue": "Time Imputation Flag", "synonyms": ["Hours Minutes Seconds Imputed"]}]}, {"conceptId": "", "definition": "Derivation Type: Analysis value derivation method.", "extensible": "Yes", "name": "Derivation Type", "preferredTerm": "Derivation Type", "submissionValue": "Derivation Type", "synonyms": ["CDISC ADaM Derivation Type Terminology"], "terms": [{"conceptId": "C53331", "definition": "Maximum Likelihood: A data imputation technique which populates missing values with estimates that maximize the probability of observing what has in fact been observed.", "preferredTerm": "", "submissionValue": "Derivation Type", "synonyms": ["Maximum Likelihood Estimation"]}, {"conceptId": "C81198", "definition": "Last Observation Carried Forward: A data imputation technique which populates missing values with the subject's previous nonmissing value.", "preferredTerm": "", "submissionValue": "Derivation Type", "synonyms": ["Last Observation Carried Forward Imputation Technique"]}, {"conceptId": "C81199", "definition": "Worst Observation Carried Forward: A data imputation technique which populates missing values with the subject's worst-case nonmissing value.", "preferredTerm": "", "submissionValue": "Derivation Type", "synonyms": ["Worst Observation Carried Forward Imputation Technique"]}, {"conceptId": "C81200", "definition": "Screening Observation Carried Forward: A data imputation technique which populates missing values with the subject's nonmissing screening observation.", "preferredTerm": "", "submissionValue": "Derivation Type", "synonyms": ["Screening Observation Carried Forward Imputation Technique"]}, {"conceptId": "C81201", "definition": "Baseline Observation Carried Forward: A data imputation technique which populates missing values with the subject's nonmissing baseline observation.", "preferredTerm": "", "submissionValue": "Derivation Type", "synonyms": ["Baseline Observation Carried Forward Imputation Technique"]}, {"conceptId": "C81203", "definition": "Worst Case: A data imputation technique which populates missing values with the worst possible outcome.", "preferredTerm": "", "submissionValue": "Derivation Type", "synonyms": ["Worst Case Imputation Technique"]}, {"conceptId": "C81204", "definition": "Mean of Other Group: A data imputation technique which populates missing values with the mean value from a comparator or reference group.", "preferredTerm": "", "submissionValue": "Derivation Type", "synonyms": ["Mean of Other Group Imputation Technique"]}, {"conceptId": "C81205", "definition": "Penultimate Observation Carried Forward: A data imputation technique which populates missing values with the subject's next-to-last nonmissing value.", "preferredTerm": "", "submissionValue": "Derivation Type", "synonyms": ["Penultimate Observation Carried Forward Imputation Technique"]}, {"conceptId": "C81206", "definition": "Worst Observed Value in a Group: A data imputation technique which populates missing values with the worst value observed in a group of subjects.", "preferredTerm": "", "submissionValue": "Derivation Type", "synonyms": ["Worst Observed Value in a Group Imputation Technique"]}, {"conceptId": "C81207", "definition": "Mean Observed Value in a Group: A data imputation technique which populates missing values with the mean value observed in a group of subjects.", "preferredTerm": "", "submissionValue": "Derivation Type", "synonyms": ["Mean Observed Value in a Group Imputation Technique"]}, {"conceptId": "C81208", "definition": "Interpolation: A method of imputation involving a missing value that is between known values and is estimated by a function of those known values.", "preferredTerm": "", "submissionValue": "Derivation Type", "synonyms": ["Interpolation Imputation Technique"]}, {"conceptId": "C81209", "definition": "Average: A data derivation technique which calculates a subject's average value over a defined set of records.", "preferredTerm": "", "submissionValue": "Derivation Type", "synonyms": ["Average of Value Derivation Technique"]}, {"conceptId": "C82866", "definition": "Endpoint: A data derivation technique which calculates a subject's analysis end point value.", "preferredTerm": "", "submissionValue": "Derivation Type", "synonyms": ["Endpoint Value Derivation Technique"]}, {"conceptId": "C82867", "definition": "Minimum: A data derivation technique which calculates a subject's minimum value over a defined set of records.", "preferredTerm": "", "submissionValue": "Derivation Type", "synonyms": ["Minimum Value Derivation Technique"]}, {"conceptId": "C82868", "definition": "Maximum: A data derivation technique which calculates a subject's maximum value over a defined set of records.", "preferredTerm": "", "submissionValue": "Derivation Type", "synonyms": ["Maximum Value Derivation Technique"]}, {"conceptId": "C92225", "definition": "Best Case: A data imputation technique which populates missing values with the best possible outcome.", "preferredTerm": "", "submissionValue": "Derivation Type", "synonyms": ["Best Case Imputation Technique"]}, {"conceptId": "C92226", "definition": "Best Observation Carried Forward: A data imputation technique which populates missing values with the subject's best-case nonmissing value.", "preferredTerm": "", "submissionValue": "Derivation Type", "synonyms": ["Best Observation Carried Forward Imputation Technique"]}]}], "_links": {"priorVersion": {"href": "", "title": "", "type": "Terminology"}, "self": {"href": "", "title": "", "type": "Terminology"}}}