{
  "_links": {
    "priorVersion": {
      "href": "",
      "title": "",
      "type": "Terminology"
    },
    "self": {
      "href": "",
      "title": "",
      "type": "Terminology"
    }
  },
  "codelists": [
    {
      "conceptId": "",
      "definition": "A terminology subset of the CDISC SDTM Unit codelist created for CDASH Concomitant Medication Dose Units codelist. (NCI)",
      "extensible": "Yes",
      "name": "Concomitant Medication Dose Units",
      "preferredTerm": "Dose Units",
      "submissionValue": "CMDOSU",
      "synonyms": [
        "CDISC CDASH Concomitant Medication Dose Units Terminology"
      ],
      "terms": [
        {
          "conceptId": "C28253",
          "definition": "The unit of mass equal to one thousandth of a gram or 1000 micrograms. One milligram equals approximately 0.015432 grain or 35.274 x 10E-6 ounce.(NCI)",
          "preferredTerm": "Milligram",
          "submissionValue": "mg",
          "synonyms": [
            "Milligram"
          ]
        },
        {
          "conceptId": "C48152",
          "definition": "A unit of mass equal to one millionth of a gram or one thousandth of a milligram.(NCI)",
          "preferredTerm": "Microgram; mcg",
          "submissionValue": "ug",
          "synonyms": [
            "Microgram"
          ]
        },
        {
          "conceptId": "C28254",
          "definition": "The unit of volume equal to one thousandth of a liter, one cubic centimeter, 10E-6 cubic meter, or approximately to 0.061 023 7 cubic inch.(NCI)",
          "preferredTerm": "cm3; Milliliter",
          "submissionValue": "mL",
          "synonyms": [
            "Milliliter"
          ]
        },
        {
          "conceptId": "C48155",
          "definition": "A metric unit of mass equal to one one thousandth of a kilogram.(NCI)",
          "preferredTerm": "Gram",
          "submissionValue": "g",
          "synonyms": [
            "Gram"
          ]
        },
        {
          "conceptId": "C48579",
          "definition": "The unitage assigned by the WHO (World Health Organization) to International Biological Standards - substances, classed as biological according to the criteria provided by WHO Expert Committee on Biological Standardization (e.g. hormones, enzymes, and vaccines), to enable the results of biological and immunological assay procedures to be expressed in the same way throughout the world. The definition of an international unit is generally arbitrary and technical, and has to be officially approved by the International Conference for Unification of Formulae.(NCI)",
          "preferredTerm": "International Unit",
          "submissionValue": "IU",
          "synonyms": [
            "International Unit of Biological Activity"
          ]
        },
        {
          "conceptId": "C48542",
          "definition": "A dosing measurement based on the tablet unit.(NCI)",
          "preferredTerm": "tab; Tablet Dosing Unit",
          "submissionValue": "TABLET",
          "synonyms": [
            "Tablet Dosing Unit"
          ]
        },
        {
          "conceptId": "C48480",
          "definition": "A dosing measurement based on the capsule unit.(NCI)",
          "preferredTerm": "cap; Capsule Dosing Unit",
          "submissionValue": "CAPSULE",
          "synonyms": [
            "Capsule Dosing Unit"
          ]
        },
        {
          "conceptId": "C65060",
          "definition": "A means of delivering a defined dose of a therapeutic aerolized solution into either the upper or lower respiratory tract. Metered-dose inhalers or spray pumps are devices that provide a puff dose for delivery into either the oral or the nasal cavity.(NCI)",
          "preferredTerm": "Puff",
          "submissionValue": "PUFF",
          "synonyms": [
            "Puff Dosing Unit"
          ]
        }
      ]
    },
    {
      "conceptId": "",
      "definition": "A terminology subset of the CDISC SDTM Pharmaceutical Dosage Form codelist created for CDASH Concomitant Medication Dose Form codelist. (NCI)",
      "extensible": "Yes",
      "name": "Concomitant Medication Dose Form",
      "preferredTerm": "Dose Form",
      "submissionValue": "CMDOSFRM",
      "synonyms": [
        "CDISC CDASH Concomitant Medication Dose Form Terminology"
      ],
      "terms": [
        {
          "conceptId": "C42998",
          "definition": "A solid dosage form containing medicinal substances with or without suitable diluents. (NCI)",
          "preferredTerm": "tab",
          "submissionValue": "TABLET",
          "synonyms": [
            "Tablet Dosage Form"
          ]
        },
        {
          "conceptId": "C25158",
          "definition": "A solid pharmaceutical dosage form that contains medicinal agent within either a hard or soft soluble container or shell, usually used for the oral administration of medicine. The shells are made of a suitable form of gelatin or other substance. (NCI)",
          "preferredTerm": "cap",
          "submissionValue": "CAPSULE",
          "synonyms": [
            "Capsule Dosage Form"
          ]
        },
        {
          "conceptId": "C42966",
          "definition": "A suspension or emulsion, semisolid (1) dosage form, usually containing < 20% water and volatiles (2) and > 50% hydrocarbons, waxes, or polyols as the vehicle. This dosage form is generally for external application to the skin or mucous membranes. Note 1: A semisolid is not pourable; it does not flow or conform to its container at room temperature. It does not flow at low shear stress and generally exhibits plastic flow behavior. Note 2: Percent water and volatiles are measured by a loss on drying test in which the sample is heated at 105 degrees C until constant weight is achieved. (NCI)",
          "preferredTerm": "oint",
          "submissionValue": "OINTMENT",
          "synonyms": [
            "Ointment Dosage Form"
          ]
        },
        {
          "conceptId": "C42993",
          "definition": "A solid body of various weights and shapes, adapted for introduction into the rectal orifice of the human body; they usually melt, soften, or dissolve at body temperature. (NCI)",
          "preferredTerm": "supp",
          "submissionValue": "SUPPOSITORY",
          "synonyms": [
            "Suppository Dosage Form"
          ]
        },
        {
          "conceptId": "C42887",
          "definition": "A product that is packaged under pressure and contains therapeutically active ingredients that are released upon activation of an appropriate valve system; it is intended for topical application to the skin as well as local application into the nose (nasal aerosols), mouth (lingual aerosols), or lungs (inhalation aerosols). (NCI)",
          "preferredTerm": "aer",
          "submissionValue": "AEROSOL",
          "synonyms": [
            "Aerosol Dosage Form"
          ]
        },
        {
          "conceptId": "C42989",
          "definition": "A liquid minutely divided as by a jet of air or steam. (NCI)",
          "preferredTerm": "",
          "submissionValue": "SPRAY",
          "synonyms": [
            "Spray Dosage Form"
          ]
        },
        {
          "conceptId": "C42994",
          "definition": "A liquid dosage form that contains solid particles dispersed in a liquid vehicle. Note: A liquid is pourable; it flows and conforms to its container at room temperature. It displays Newtonian or pseudoplastic flow behavior. (FDA)",
          "preferredTerm": "susp",
          "submissionValue": "SUSPENSION",
          "synonyms": [
            "Suspension Dosage Form"
          ]
        },
        {
          "conceptId": "C42968",
          "definition": "A drug delivery system that often contains an adhesive backing that is usually applied to an external site on the body.  Its ingredients either passively diffuse from, or are actively transported from, some portion of the patch.  Depending upon the patch, the ingredients are either delivered to the outer surface of the body or into the body.  A patch is sometimes synonymous with the terms Extended Release Film and System. (NCI)",
          "preferredTerm": "",
          "submissionValue": "PATCH",
          "synonyms": [
            "Patch Dosage Form"
          ]
        },
        {
          "conceptId": "C42933",
          "definition": "Any elastic aeriform fluid in which the molecules are separated from one another and have free paths. (NCI)",
          "preferredTerm": "",
          "submissionValue": "GAS",
          "synonyms": [
            "Gas Dosage Form"
          ]
        },
        {
          "conceptId": "C42934",
          "definition": "A semisolid (1) dosage form that contains a gelling agent to provide stiffness to a solution or a colloidal dispersion (2).  A gel may contain suspended particles. Note 1: A semisolid is not pourable; it does not flow or conform to its container at room temperature.  It does not flow at low shear stress and generally exhibits plastic flow behavior. Note 2: A colloidal dispersion is a system in which particles of colloidal dimension (i.e., typically between 1 nm and 1 micrometer) are distributed uniformly throughout a liquid. (NCI)",
          "preferredTerm": "",
          "submissionValue": "GEL",
          "synonyms": [
            "Gel Dosage Form"
          ]
        },
        {
          "conceptId": "C28944",
          "definition": "A semisolid emulsion of either the oil-in-water or the water-in-oil type, ordinarily intended for topical use. (NCI)",
          "preferredTerm": "",
          "submissionValue": "CREAM",
          "synonyms": [
            "Cream Dosage Form"
          ]
        },
        {
          "conceptId": "C42972",
          "definition": "An intimate mixture of dry, finely divided drugs and/or chemicals that may be intended for internal or external use. (NCI)",
          "preferredTerm": "",
          "submissionValue": "POWDER",
          "synonyms": [
            "Powder Dosage Form"
          ]
        }
      ]
    },
    {
      "conceptId": "",
      "definition": "A terminology subset of the CDISC SDTM Frequency codelist created for CDASH Concomitant Medication Dosing Frequency per Interval codelist. (NCI)",
      "extensible": "Yes",
      "name": "Concomitant Medication Dosing Frequency per Interval",
      "preferredTerm": "Dosing Frequency per Interval",
      "submissionValue": "CMDOSFRQ",
      "synonyms": [
        "CDISC CDASH Concomitant Medication Dosing Frequency per Interval Terminology"
      ],
      "terms": [
        {
          "conceptId": "C64496",
          "definition": "Two times per day, at unspecified times. (NCI)",
          "preferredTerm": "BD; Twice per Day",
          "submissionValue": "BID",
          "synonyms": [
            "Twice Daily"
          ]
        },
        {
          "conceptId": "C64527",
          "definition": "Three times per day. (NCI)",
          "preferredTerm": "3 times per day",
          "submissionValue": "TID",
          "synonyms": [
            "Three Times Daily"
          ]
        },
        {
          "conceptId": "C64530",
          "definition": "Four times per day. (NCI)",
          "preferredTerm": "4 times per day",
          "submissionValue": "QID",
          "synonyms": [
            "Four Times Daily"
          ]
        },
        {
          "conceptId": "C64525",
          "definition": "Every other day. (NCI)",
          "preferredTerm": "Every other day",
          "submissionValue": "QOD",
          "synonyms": [
            "Every Other Day"
          ]
        },
        {
          "conceptId": "C64498",
          "definition": "Every month. (NCI)",
          "preferredTerm": "Every Month",
          "submissionValue": "QM",
          "synonyms": [
            "Monthly"
          ]
        },
        {
          "conceptId": "C64499",
          "definition": "As needed. (NCI)",
          "preferredTerm": "As Needed",
          "submissionValue": "PRN",
          "synonyms": [
            "As Necessary"
          ]
        },
        {
          "conceptId": "C17998",
          "definition": "Not known, not observed, not recorded, or refused. (NCI)",
          "preferredTerm": "Unknown; U",
          "submissionValue": "UNKNOWN",
          "synonyms": [
            "Unknown"
          ]
        },
        {
          "conceptId": "C25473",
          "definition": "Occurring or done each day. (NCI)",
          "preferredTerm": "Daily",
          "submissionValue": "QD",
          "synonyms": [
            "Daily"
          ]
        }
      ]
    },
    {
      "conceptId": "",
      "definition": "A terminology subset of the CDISC SDTM Route codelist created for CDASH Concomitant Medication Route of Administration codelist. (NCI)",
      "extensible": "Yes",
      "name": "Concomitant Medication Route of Administration",
      "preferredTerm": "Route of Administration",
      "submissionValue": "CMROUTE",
      "synonyms": [
        "CDISC CDASH Concomitant Medication Route of Administration Terminology"
      ],
      "terms": [
        {
          "conceptId": "C38288",
          "definition": "Administration to or by way of the mouth.(FDA)",
          "preferredTerm": "PO",
          "submissionValue": "ORAL",
          "synonyms": [
            "Oral Route of Drug administration"
          ]
        },
        {
          "conceptId": "C38304",
          "definition": "Administration to a particular spot on the outer surface of the body. The E2B term TRANSMAMMARY is a subset of the term TOPICAL.(FDA)",
          "preferredTerm": "TOP",
          "submissionValue": "TOPICAL",
          "synonyms": [
            "Topical Route of Drug Administration"
          ]
        },
        {
          "conceptId": "C38299",
          "definition": "Administration beneath the skin; hypodermic. Synonymous with the term SUBDERMAL.(FDA)",
          "preferredTerm": "SC",
          "submissionValue": "SUBCUTANEOUS",
          "synonyms": [
            "Subcutaneous Route of Drug Administration"
          ]
        },
        {
          "conceptId": "C38305",
          "definition": "Administration through the dermal layer of the skin to the systemic circulation by diffusion.(FDA)",
          "preferredTerm": "",
          "submissionValue": "TRANSDERMAL",
          "synonyms": [
            "Transdermal Route of Drug Administration"
          ]
        },
        {
          "conceptId": "C38255",
          "definition": "Administration within the eye.(FDA)",
          "preferredTerm": "",
          "submissionValue": "INTRAOCULAR",
          "synonyms": [
            "Intraocular Route of Drug Administration"
          ]
        },
        {
          "conceptId": "C28161",
          "definition": "Administration within a muscle.(FDA)",
          "preferredTerm": "",
          "submissionValue": "INTRAMUSCULAR",
          "synonyms": [
            "Intramuscular Route of Administration"
          ]
        },
        {
          "conceptId": "C38216",
          "definition": "Administration within the respiratory tract by inhaling orally or nasally for local or systemic effect.(FDA)",
          "preferredTerm": "",
          "submissionValue": "RESPIRATORY (INHALATION)",
          "synonyms": [
            "Inhalation Route of Administration"
          ]
        },
        {
          "conceptId": "C38250",
          "definition": "Administration within or introduced directly into a localized lesion.(FDA)",
          "preferredTerm": "",
          "submissionValue": "INTRALESIONAL",
          "synonyms": [
            "Intralesional Route of Drug Administration"
          ]
        },
        {
          "conceptId": "C38258",
          "definition": "Administration within the peritoneal cavity.(FDA)",
          "preferredTerm": "",
          "submissionValue": "INTRAPERITEONEAL",
          "synonyms": [
            "Intraperitoneal Route of Drug Administration"
          ]
        },
        {
          "conceptId": "C38284",
          "definition": "Administration to the nose; administered by way of the nose.(FDA)",
          "preferredTerm": "",
          "submissionValue": "NASAL",
          "synonyms": [
            "Nasal Route of Drug Administration"
          ]
        },
        {
          "conceptId": "C38313",
          "definition": "Administration into the vagina.(FDA)",
          "preferredTerm": "",
          "submissionValue": "VAGINAL",
          "synonyms": [
            "Vaginal Route of Drug Administration"
          ]
        },
        {
          "conceptId": "C38295",
          "definition": "Administration to the rectum.(FDA)",
          "preferredTerm": "",
          "submissionValue": "RECTAL",
          "synonyms": [
            "Rectal Route of Drug Administration"
          ]
        }
      ]
    },
    {
      "conceptId": "",
      "definition": "A terminology subset of the CDISC SDTM Unit codelist created for CDASH Unit of Drug Dispensed or Returned codelist. (NCI)",
      "extensible": "Yes",
      "name": "Unit of Drug Dispensed or Returned",
      "preferredTerm": "Unit of Drug Dispensed or Returned",
      "submissionValue": "DAORRESU",
      "synonyms": [
        "CDISC CDASH Unit of Drug Dispensed or Returned Terminology"
      ],
      "terms": [
        {
          "conceptId": "C48474",
          "definition": "A dosing measurement based on the bag unit.(NCI)",
          "preferredTerm": "Bag Dosing Unit",
          "submissionValue": "BAG",
          "synonyms": [
            "Bag Dosing Unit"
          ]
        },
        {
          "conceptId": "C48477",
          "definition": "A dosing measurement based on the bottle unit.(NCI)",
          "preferredTerm": "Bottle Dosing Unit",
          "submissionValue": "BOTTLE",
          "synonyms": [
            "Bottle Dosing Unit"
          ]
        },
        {
          "conceptId": "C48478",
          "definition": "A dosing measurement based on the box unit.(NCI)",
          "preferredTerm": "Box Dosing Unit",
          "submissionValue": "BOX",
          "synonyms": [
            "Box Dosing Unit"
          ]
        },
        {
          "conceptId": "C48480",
          "definition": "A dosing measurement based on the capsule unit.(NCI)",
          "preferredTerm": "cap; Capsule Dosing Unit",
          "submissionValue": "CAPSULE",
          "synonyms": [
            "Capsule Dosing Unit"
          ]
        },
        {
          "conceptId": "C48484",
          "definition": "A dosing measurement based on the container unit.(NCI)",
          "preferredTerm": "Container Dosing Unit",
          "submissionValue": "CONTAINER",
          "synonyms": [
            "Container Dosing Unit"
          ]
        },
        {
          "conceptId": "C48490",
          "definition": "A dosing measurement based on the disk unit.(NCI)",
          "preferredTerm": "Disk Dosing Unit",
          "submissionValue": "DISK",
          "synonyms": [
            "Disk Dosing Unit"
          ]
        },
        {
          "conceptId": "C48520",
          "definition": "A dosing measurement based on the package unit.(NCI)",
          "preferredTerm": "Pack Dosing Unit; Package Dosing Unit",
          "submissionValue": "PACKAGE",
          "synonyms": [
            "Package Dosing Unit"
          ]
        },
        {
          "conceptId": "C48521",
          "definition": "A dosing measurement based on the packet unit.(NCI)",
          "preferredTerm": "Packet Dosing Unit",
          "submissionValue": "PACKET",
          "synonyms": [
            "Packet Dosing Unit"
          ]
        },
        {
          "conceptId": "C48524",
          "definition": "A dosing measurement based on the patch unit.(NCI)",
          "preferredTerm": "Patch Dosing Unit",
          "submissionValue": "PATCH",
          "synonyms": [
            "Patch Dosing Unit"
          ]
        },
        {
          "conceptId": "C48542",
          "definition": "A dosing measurement based on the tablet unit.(NCI)",
          "preferredTerm": "tab; Tablet Dosing Unit",
          "submissionValue": "TABLET",
          "synonyms": [
            "Tablet Dosing Unit"
          ]
        },
        {
          "conceptId": "C48549",
          "definition": "A dosing measurement based on the tube unit.(NCI)",
          "preferredTerm": "Tube Dosing Unit",
          "submissionValue": "TUBE",
          "synonyms": [
            "Tube Dosing Unit"
          ]
        },
        {
          "conceptId": "C48551",
          "definition": "A dosing measurement based on the vial unit.(NCI)",
          "preferredTerm": "Vial Dosing Unit",
          "submissionValue": "VIAL",
          "synonyms": [
            "Vial Dosing Unit"
          ]
        }
      ]
    },
    {
      "conceptId": "",
      "definition": "A terminology subset of the CDISC SDTM Unit codelist created for CDASH ECG Original Units codelist. (NCI)",
      "extensible": "Yes",
      "name": "ECG Original Units",
      "preferredTerm": "ECG Original Units",
      "submissionValue": "EGORRESU",
      "synonyms": [
        "CDISC CDASH ECG Original Units Terminology"
      ],
      "terms": [
        {
          "conceptId": "C41140",
          "definition": "A unit of time, which is equal to one thousandth of a second.(NCI)",
          "preferredTerm": "Millisecond",
          "submissionValue": "msec",
          "synonyms": [
            "Millisecond"
          ]
        },
        {
          "conceptId": "C42535",
          "definition": "The second is a unit of time with a duration of 919 263 177 0 periods of the specified light radiation corresponding to the transition between the two hyperfine levels of the cesium 133 atom in its ground state at 0 K. According to the convention, 60 seconds constitute one minute; 3,600 seconds constitute one hour. Abbreviation Sec. is acceptable in non-scientific usage only.(NCI)",
          "preferredTerm": "Second",
          "submissionValue": "sec",
          "synonyms": [
            "Second Unit of Time"
          ]
        },
        {
          "conceptId": "C49673",
          "definition": "The number of heartbeats measured per minute time.(NCI)",
          "preferredTerm": "Beats per Minute",
          "submissionValue": "BEATS/MIN",
          "synonyms": [
            "Beats per Minute"
          ]
        }
      ]
    },
    {
      "conceptId": "",
      "definition": "A terminology subset of the CDISC SDTM Unit codelist created for CDASH Units for Exposure codelist. (NCI)",
      "extensible": "Yes",
      "name": "Units for Exposure",
      "preferredTerm": "Units for Exposure",
      "submissionValue": "EXDOSU",
      "synonyms": [
        "CDISC CDASH Units for Exposure Terminology"
      ],
      "terms": [
        {
          "conceptId": "C48542",
          "definition": "A dosing measurement based on the tablet unit.(NCI)",
          "preferredTerm": "tab; Tablet Dosing Unit",
          "submissionValue": "TABLET",
          "synonyms": [
            "Tablet Dosing Unit"
          ]
        },
        {
          "conceptId": "C48480",
          "definition": "A dosing measurement based on the capsule unit.(NCI)",
          "preferredTerm": "cap; Capsule Dosing Unit",
          "submissionValue": "CAPSULE",
          "synonyms": [
            "Capsule Dosing Unit"
          ]
        },
        {
          "conceptId": "C65060",
          "definition": "A means of delivering a defined dose of a therapeutic aerolized solution into either the upper or lower respiratory tract. Metered-dose inhalers or spray pumps are devices that provide a puff dose for delivery into either the oral or the nasal cavity.(NCI)",
          "preferredTerm": "Puff",
          "submissionValue": "PUFF",
          "synonyms": [
            "Puff Dosing Unit"
          ]
        },
        {
          "conceptId": "C28254",
          "definition": "The unit of volume equal to one thousandth of a liter, one cubic centimeter, 10E-6 cubic meter, or approximately to 0.061 023 7 cubic inch.(NCI)",
          "preferredTerm": "cm3; Milliliter",
          "submissionValue": "mL",
          "synonyms": [
            "Milliliter"
          ]
        },
        {
          "conceptId": "C48152",
          "definition": "A unit of mass equal to one millionth of a gram or one thousandth of a milligram.(NCI)",
          "preferredTerm": "Microgram; mcg",
          "submissionValue": "ug",
          "synonyms": [
            "Microgram"
          ]
        },
        {
          "conceptId": "C28253",
          "definition": "The unit of mass equal to one thousandth of a gram or 1000 micrograms. One milligram equals approximately 0.015432 grain or 35.274 x 10E-6 ounce.(NCI)",
          "preferredTerm": "Milligram",
          "submissionValue": "mg",
          "synonyms": [
            "Milligram"
          ]
        },
        {
          "conceptId": "C48155",
          "definition": "A metric unit of mass equal to one one thousandth of a kilogram. (NCI)",
          "preferredTerm": "Gram",
          "submissionValue": "g",
          "synonyms": [
            "Gram"
          ]
        }
      ]
    },
    {
      "conceptId": "",
      "definition": "A terminology subset of the CDISC SDTM Frequency codelist created for CDASH Exposure Dosing Frequency per Interval codelist. (NCI)",
      "extensible": "Yes",
      "name": "Exposure Dosing Frequency per Interval",
      "preferredTerm": "Exposure Dosing Frequency Per Interval",
      "submissionValue": "EXDOSFRQ",
      "synonyms": [
        "CDISC CDASH Exposure Dosing Frequency per Interval Terminology"
      ],
      "terms": [
        {
          "conceptId": "C64496",
          "definition": "Two times per day, at unspecified times. (NCI)",
          "preferredTerm": "BD; Twice per Day",
          "submissionValue": "BID",
          "synonyms": [
            "Twice Daily"
          ]
        },
        {
          "conceptId": "C64527",
          "definition": "Three times per day. (NCI)",
          "preferredTerm": "3 times per day",
          "submissionValue": "TID",
          "synonyms": [
            "Three Times Daily"
          ]
        },
        {
          "conceptId": "C64530",
          "definition": "Four times per day. (NCI)",
          "preferredTerm": "4 times per day",
          "submissionValue": "QID",
          "synonyms": [
            "Four Times Daily"
          ]
        },
        {
          "conceptId": "C64525",
          "definition": "Every other day. (NCI)",
          "preferredTerm": "Every other day",
          "submissionValue": "QOD",
          "synonyms": [
            "Every Other Day"
          ]
        },
        {
          "conceptId": "C64498",
          "definition": "Every month. (NCI)",
          "preferredTerm": "Every Month",
          "submissionValue": "QM",
          "synonyms": [
            "Monthly"
          ]
        },
        {
          "conceptId": "C64499",
          "definition": "As needed. (NCI)",
          "preferredTerm": "As Needed",
          "submissionValue": "PRN",
          "synonyms": [
            "As Necessary"
          ]
        },
        {
          "conceptId": "C17998",
          "definition": "Not known, not observed, not recorded, or refused. (NCI)",
          "preferredTerm": "Unknown; U",
          "submissionValue": "UNKNOWN",
          "synonyms": [
            "Unknown"
          ]
        },
        {
          "conceptId": "C25473",
          "definition": "Occurring or done each day. (NCI)",
          "preferredTerm": "Daily",
          "submissionValue": "QD",
          "synonyms": [
            "Daily"
          ]
        }
      ]
    },
    {
      "conceptId": "",
      "definition": "A terminology subset of the CDISC SDTM Route codelist created for CDASH Exposure Route of Administration codelist. (NCI)",
      "extensible": "Yes",
      "name": "Exposure Route of Administration",
      "preferredTerm": "Exposure Route of Administration",
      "submissionValue": "EXROUTE",
      "synonyms": [
        "CDISC CDASH Exposure Route of Administration Terminology"
      ],
      "terms": [
        {
          "conceptId": "C38288",
          "definition": "Administration to or by way of the mouth.(FDA)",
          "preferredTerm": "PO",
          "submissionValue": "ORAL",
          "synonyms": [
            "Oral Route of Drug administration"
          ]
        },
        {
          "conceptId": "C38304",
          "definition": "Administration to a particular spot on the outer surface of the body. The E2B term TRANSMAMMARY is a subset of the term TOPICAL.(FDA)",
          "preferredTerm": "TOP",
          "submissionValue": "TOPICAL",
          "synonyms": [
            "Topical Route of Drug Administration"
          ]
        },
        {
          "conceptId": "C38299",
          "definition": "Administration beneath the skin; hypodermic. Synonymous with the term SUBDERMAL.(FDA)",
          "preferredTerm": "SC",
          "submissionValue": "SUBCUTANEOUS",
          "synonyms": [
            "Subcutaneous Route of Drug Administration"
          ]
        },
        {
          "conceptId": "C38305",
          "definition": "Administration through the dermal layer of the skin to the systemic circulation by diffusion.(FDA)",
          "preferredTerm": "",
          "submissionValue": "TRANSDERMAL",
          "synonyms": [
            "Transdermal Route of Drug Administration"
          ]
        },
        {
          "conceptId": "C38255",
          "definition": "Administration within the eye.(FDA)",
          "preferredTerm": "",
          "submissionValue": "INTRAOCULAR",
          "synonyms": [
            "Intraocular Route of Drug Administration"
          ]
        },
        {
          "conceptId": "C28161",
          "definition": "Administration within a muscle.(FDA)",
          "preferredTerm": "",
          "submissionValue": "INTRAMUSCULAR",
          "synonyms": [
            "Intramuscular Route of Administration"
          ]
        },
        {
          "conceptId": "C38216",
          "definition": "Administration within the respiratory tract by inhaling orally or nasally for local or systemic effect.(FDA)",
          "preferredTerm": "",
          "submissionValue": "RESPIRATORY (INHALATION)",
          "synonyms": [
            "Inhalation Route of Administration"
          ]
        },
        {
          "conceptId": "C38250",
          "definition": "Administration within or introduced directly into a localized lesion.(FDA)",
          "preferredTerm": "",
          "submissionValue": "INTRALESIONAL",
          "synonyms": [
            "Intralesional Route of Drug Administration"
          ]
        },
        {
          "conceptId": "C38258",
          "definition": "Administration within the peritoneal cavity.(FDA)",
          "preferredTerm": "",
          "submissionValue": "INTRAPERITEONEAL",
          "synonyms": [
            "Intraperitoneal Route of Drug Administration"
          ]
        },
        {
          "conceptId": "C38284",
          "definition": "Administration to the nose; administered by way of the nose.(FDA)",
          "preferredTerm": "",
          "submissionValue": "NASAL",
          "synonyms": [
            "Nasal Route of Drug Administration"
          ]
        },
        {
          "conceptId": "C38313",
          "definition": "Administration into the vagina.(FDA)",
          "preferredTerm": "",
          "submissionValue": "VAGINAL",
          "synonyms": [
            "Vaginal Route of Drug Administration"
          ]
        },
        {
          "conceptId": "C38295",
          "definition": "Administration to the rectum.(FDA)",
          "preferredTerm": "",
          "submissionValue": "RECTAL",
          "synonyms": [
            "Rectal Route of Drug Administration"
          ]
        }
      ]
    },
    {
      "conceptId": "",
      "definition": "A terminology subset of the CDISC SDTM Pharmaceutical Dosage Form codelist created for CDASH Exposure Dose Form codelist. (NCI)",
      "extensible": "Yes",
      "name": "Exposure Dose Form",
      "preferredTerm": "Exposure Dose Form",
      "submissionValue": "EXDOSFRM",
      "synonyms": [
        "CDISC CDASH Exposure Dose Form Terminology"
      ],
      "terms": [
        {
          "conceptId": "C42998",
          "definition": "A solid dosage form containing medicinal substances with or without suitable diluents. (NCI)",
          "preferredTerm": "tab",
          "submissionValue": "TABLET",
          "synonyms": [
            "Tablet Dosage Form"
          ]
        },
        {
          "conceptId": "C25158",
          "definition": "A solid pharmaceutical dosage form that contains medicinal agent within either a hard or soft soluble container or shell, usually used for the oral administration of medicine. The shells are made of a suitable form of gelatin or other substance. (NCI)",
          "preferredTerm": "cap",
          "submissionValue": "CAPSULE",
          "synonyms": [
            "Capsule Dosage Form"
          ]
        },
        {
          "conceptId": "C42966",
          "definition": "A suspension or emulsion, semisolid (1) dosage form, usually containing < 20% water and volatiles (2) and > 50% hydrocarbons, waxes, or polyols as the vehicle. This dosage form is generally for external application to the skin or mucous membranes. Note 1: A semisolid is not pourable; it does not flow or conform to its container at room temperature. It does not flow at low shear stress and generally exhibits plastic flow behavior. Note 2: Percent water and volatiles are measured by a loss on drying test in which the sample is heated at 105 degrees C until constant weight is achieved. (NCI)",
          "preferredTerm": "oint",
          "submissionValue": "OINTMENT",
          "synonyms": [
            "Ointment Dosage Form"
          ]
        },
        {
          "conceptId": "C42993",
          "definition": "A solid body of various weights and shapes, adapted for introduction into the rectal orifice of the human body; they usually melt, soften, or dissolve at body temperature. (NCI)",
          "preferredTerm": "supp",
          "submissionValue": "SUPPOSITORY",
          "synonyms": [
            "Suppository Dosage Form"
          ]
        },
        {
          "conceptId": "C42887",
          "definition": "A product that is packaged under pressure and contains therapeutically active ingredients that are released upon activation of an appropriate valve system; it is intended for topical application to the skin as well as local application into the nose (nasal aerosols), mouth (lingual aerosols), or lungs (inhalation aerosols). (NCI)",
          "preferredTerm": "aer",
          "submissionValue": "AEROSOL",
          "synonyms": [
            "Aerosol Dosage Form"
          ]
        },
        {
          "conceptId": "C42989",
          "definition": "A liquid minutely divided as by a jet of air or steam. (NCI)",
          "preferredTerm": "",
          "submissionValue": "SPRAY",
          "synonyms": [
            "Spray Dosage Form"
          ]
        },
        {
          "conceptId": "C42994",
          "definition": "A liquid dosage form that contains solid particles dispersed in a liquid vehicle. Note: A liquid is pourable; it flows and conforms to its container at room temperature. It displays Newtonian or pseudoplastic flow behavior. (FDA)",
          "preferredTerm": "susp",
          "submissionValue": "SUSPENSION",
          "synonyms": [
            "Suspension Dosage Form"
          ]
        },
        {
          "conceptId": "C42968",
          "definition": "A drug delivery system that often contains an adhesive backing that is usually applied to an external site on the body.  Its ingredients either passively diffuse from, or are actively transported from, some portion of the patch.  Depending upon the patch, the ingredients are either delivered to the outer surface of the body or into the body.  A patch is sometimes synonymous with the terms Extended Release Film and System. (NCI)",
          "preferredTerm": "",
          "submissionValue": "PATCH",
          "synonyms": [
            "Patch Dosage Form"
          ]
        },
        {
          "conceptId": "C42933",
          "definition": "Any elastic aeriform fluid in which the molecules are separated from one another and have free paths. (NCI)",
          "preferredTerm": "",
          "submissionValue": "GAS",
          "synonyms": [
            "Gas Dosage Form"
          ]
        },
        {
          "conceptId": "C42934",
          "definition": "A semisolid (1) dosage form that contains a gelling agent to provide stiffness to a solution or a colloidal dispersion (2).  A gel may contain suspended particles. Note 1: A semisolid is not pourable; it does not flow or conform to its container at room temperature.  It does not flow at low shear stress and generally exhibits plastic flow behavior. Note 2: A colloidal dispersion is a system in which particles of colloidal dimension (i.e., typically between 1 nm and 1 micrometer) are distributed uniformly throughout a liquid. (NCI)",
          "preferredTerm": "",
          "submissionValue": "GEL",
          "synonyms": [
            "Gel Dosage Form"
          ]
        },
        {
          "conceptId": "C28944",
          "definition": "A semisolid emulsion of either the oil-in-water or the water-in-oil type, ordinarily intended for topical use. (NCI)",
          "preferredTerm": "",
          "submissionValue": "CREAM",
          "synonyms": [
            "Cream Dosage Form"
          ]
        },
        {
          "conceptId": "C42972",
          "definition": "An intimate mixture of dry, finely divided drugs and/or chemicals that may be intended for internal or external use. (NCI)",
          "preferredTerm": "",
          "submissionValue": "POWDER",
          "synonyms": [
            "Powder Dosage Form"
          ]
        }
      ]
    },
    {
      "conceptId": "",
      "definition": "A terminology subset of the CDISC SDTM Unit codelist created for CDASH Unit for Duration of Treatment Interruption codelist. (NCI)",
      "extensible": "Yes",
      "name": "Unit for the Duration of Treatment Interruption",
      "preferredTerm": "Unit for the Duration of Treatment Interruption",
      "submissionValue": "EXINTPU",
      "synonyms": [
        "CDISC CDASH Unit for Duration of Treatment Interruption Terminology"
      ],
      "terms": [
        {
          "conceptId": "C42535",
          "definition": "The second is a unit of time with a duration of 919 263 177 0 periods of the specified light radiation corresponding to the transition between the two hyperfine levels of the cesium 133 atom in its ground state at 0 K. According to the convention, 60 seconds constitute one minute; 3,600 seconds constitute one hour. Abbreviation Sec. is acceptable in non-scientific usage only.(NCI)",
          "preferredTerm": "Second",
          "submissionValue": "sec",
          "synonyms": [
            "Second Unit of Time"
          ]
        },
        {
          "conceptId": "C48154",
          "definition": "A unit measure of time equal to 60 seconds.(NCI)",
          "preferredTerm": "Minute Unit of Time",
          "submissionValue": "min",
          "synonyms": [
            "Minute"
          ]
        },
        {
          "conceptId": "C25529",
          "definition": "A unit measure of time equal to 3,600 seconds or 60 minutes. It is approximately 1/24 of a median day. (NCI)",
          "preferredTerm": "hr",
          "submissionValue": "HOURS",
          "synonyms": [
            "Hour"
          ]
        }
      ]
    },
    {
      "conceptId": "",
      "definition": "A terminology subset of the CDISC SDTM Unit codelist created for CDASH Total Volume Administration Unit codelist. (NCI)",
      "extensible": "Yes",
      "name": "Total Volume Administration Unit",
      "preferredTerm": "Total Volume Administration Unit",
      "submissionValue": "EXVOLTU",
      "synonyms": [
        "CDISC CDASH Total Volume Administration Unit Terminology"
      ],
      "terms": [
        {
          "conceptId": "C28254",
          "definition": "The unit of volume equal to one thousandth of a liter, one cubic centimeter, 10E-6 cubic meter, or approximately to 0.061 023 7 cubic inch.(NCI)",
          "preferredTerm": "cm3; Milliliter",
          "submissionValue": "mL",
          "synonyms": [
            "Milliliter"
          ]
        },
        {
          "conceptId": "C48152",
          "definition": "A unit of mass equal to one millionth of a gram or one thousandth of a milligram.(NCI)",
          "preferredTerm": "Microgram; mcg",
          "submissionValue": "ug",
          "synonyms": [
            "Microgram"
          ]
        },
        {
          "conceptId": "C28253",
          "definition": "The unit of mass equal to one thousandth of a gram or 1000 micrograms. One milligram equals approximately 0.015432 grain or 35.274 x 10E-6 ounce.(NCI)",
          "preferredTerm": "Milligram",
          "submissionValue": "mg",
          "synonyms": [
            "Milligram"
          ]
        }
      ]
    },
    {
      "conceptId": "",
      "definition": "A terminology subset of the CDISC SDTM Unit codelist created for CDASH Unit of Measure for Flow Rate codelist. (NCI)",
      "extensible": "Yes",
      "name": "Unit of Measure for Flow Rate",
      "preferredTerm": "Unit of Measure for Flow Rate",
      "submissionValue": "EXFLRTU",
      "synonyms": [
        "CDISC CDASH Unit of Measure for Flow Rate Terminology"
      ],
      "terms": [
        {
          "conceptId": "C71211",
          "definition": "A unit of mass flow rate equivalent to the rate at which one millionth of a gram of matter travels to a given object or space over a period of time equal to one minute. Microgram per minute is also a dose administration rate unit equal to the rate at which one millionth of a gram of a product is administered per unit of time equal to one minute.(NCI)",
          "preferredTerm": "mcg/min; Micrograms per Minute",
          "submissionValue": "ug/min",
          "synonyms": [
            "Microgram per Minute"
          ]
        },
        {
          "conceptId": "C71205",
          "definition": "A unit of mass flow rate equivalent to the rate at which one millionth of a gram of matter travels to a given object or space over a period of time equal to twenty four hours. Microgram per day is also a dose administration rate unit equal to the rate at which one millionth of a gram of a product is administered per unit of time equal to twenty four hours.(NCI)",
          "preferredTerm": "mcg/day; Microgram per Day",
          "submissionValue": "ug/day",
          "synonyms": [
            "Microgram per Day"
          ]
        },
        {
          "conceptId": "C64777",
          "definition": "A metric unit of volumetric flow rate defined as the rate at which one milliliter of matter travels during the period of time equal to one minute.(NCI)",
          "preferredTerm": "Milliliters per Minute",
          "submissionValue": "mL/min",
          "synonyms": [
            "Milliliter per Minute"
          ]
        },
        {
          "conceptId": "C67420",
          "definition": "A unit of amount of substance flow rate equivalent to the rate at which one thousandth of a mole of substance travels or is delivered to a given object or space over a period of time equal to 24 hours.(NCI)",
          "preferredTerm": "Millimole per 24 Hours",
          "submissionValue": "mmol/day",
          "synonyms": [
            "Millimole per 24 Hours"
          ]
        },
        {
          "conceptId": "C67406",
          "definition": "A unit of amount of substance flow rate equivalent to the rate at which one millionth of a mole of substance travels to a given object or space over a period of time equal to 24 hours.(NCI)",
          "preferredTerm": "mcmol/day; Micromoles per Day",
          "submissionValue": "umol/day",
          "synonyms": [
            "Micromole per 24 Hours"
          ]
        }
      ]
    },
    {
      "conceptId": "",
      "definition": "A terminology subset of the CDISC SDTM Unit codelist created for CDASH Units for Planned Exposure codelist. (NCI)",
      "extensible": "Yes",
      "name": "Units for Planned Exposure",
      "preferredTerm": "Units for Planned Exposure",
      "submissionValue": "EXPDOSEU",
      "synonyms": [
        "CDISC CDASH Units for Planned Exposure Terminology"
      ],
      "terms": [
        {
          "conceptId": "C48542",
          "definition": "A dosing measurement based on the tablet unit.(NCI)",
          "preferredTerm": "tab; Tablet Dosing Unit",
          "submissionValue": "TABLET",
          "synonyms": [
            "Tablet Dosing Unit"
          ]
        },
        {
          "conceptId": "C48480",
          "definition": "A dosing measurement based on the capsule unit.(NCI)",
          "preferredTerm": "cap; Capsule Dosing Unit",
          "submissionValue": "CAPSULE",
          "synonyms": [
            "Capsule Dosing Unit"
          ]
        },
        {
          "conceptId": "C65060",
          "definition": "A means of delivering a defined dose of a therapeutic aerolized solution into either the upper or lower respiratory tract. Metered-dose inhalers or spray pumps are devices that provide a puff dose for delivery into either the oral or the nasal cavity.(NCI)",
          "preferredTerm": "Puff",
          "submissionValue": "PUFF",
          "synonyms": [
            "Puff Dosing Unit"
          ]
        },
        {
          "conceptId": "C28254",
          "definition": "The unit of mass equal to one thousandth of a gram or 1000 micrograms. One milligram equals approximately 0.015432 grain or 35.274 x 10E-6 ounce.(NCI)",
          "preferredTerm": "cm3; Milliliter",
          "submissionValue": "mL",
          "synonyms": [
            "Milligram"
          ]
        },
        {
          "conceptId": "C48152",
          "definition": "A unit of mass equal to one millionth of a gram or one thousandth of a milligram.(NCI)",
          "preferredTerm": "Microgram; mcg",
          "submissionValue": "ug",
          "synonyms": [
            "Microgram"
          ]
        },
        {
          "conceptId": "C28253",
          "definition": "The unit of volume equal to one thousandth of a liter, one cubic centimeter, 10E-6 cubic meter, or approximately to 0.061 023 7 cubic inch.(NCI)",
          "preferredTerm": "Milligram",
          "submissionValue": "mg",
          "synonyms": [
            "Milliliter"
          ]
        },
        {
          "conceptId": "C48155",
          "definition": "A metric unit of mass equal to one one thousandth of a kilogram. (NCI)",
          "preferredTerm": "Gram",
          "submissionValue": "g",
          "synonyms": [
            "Gram"
          ]
        }
      ]
    },
    {
      "conceptId": "",
      "definition": "A terminology subset of the CDISC SDTM Position codelist created for CDASH Vital Signs Position of Subject codelist. (NCI)",
      "extensible": "Yes",
      "name": "Vital Signs Position of Subject",
      "preferredTerm": "Vital Signs Position of Subject",
      "submissionValue": "VSPOS",
      "synonyms": [
        "CDISC CDASH Vital Signs Position of Subject Terminology"
      ],
      "terms": [
        {
          "conceptId": "C62122",
          "definition": "The state or act of one who sits; the posture of one who occupies a seat. (NCI)",
          "preferredTerm": "Sitting",
          "submissionValue": "SITTING",
          "synonyms": [
            "Sitting"
          ]
        },
        {
          "conceptId": "C62166",
          "definition": "The act of assuming or maintaining an erect upright position. (NCI)",
          "preferredTerm": "Standing",
          "submissionValue": "STANDING",
          "synonyms": [
            "Standing Position"
          ]
        },
        {
          "conceptId": "C62167",
          "definition": "A posterior recumbent body position whereby the person lies on its back and faces upward. (NCI)",
          "preferredTerm": "Supine",
          "submissionValue": "SUPINE",
          "synonyms": [
            "Supine Position"
          ]
        }
      ]
    },
    {
      "conceptId": "",
      "definition": "A terminology subset of the CDISC SDTM Never/Current/Former Classification codelist created for CDASH Substance Use Never/Current/Former Classification codelist. (NCI)",
      "extensible": "Yes",
      "name": "Substance Use Never/Current/Former Classification",
      "preferredTerm": "Substance Use Never/Current/Former Classification",
      "submissionValue": "SUNCF",
      "synonyms": [
        "CDISC CDASH Substance Use Never/Current/Former Classification Terminology"
      ],
      "terms": [
        {
          "conceptId": "C70543",
          "definition": "Not ever; at no time in the past.",
          "preferredTerm": "",
          "submissionValue": "NEVER",
          "synonyms": [
            "Never"
          ]
        },
        {
          "conceptId": "C25471",
          "definition": "Occurring in or belonging to the present time. (NCI)",
          "preferredTerm": "",
          "submissionValue": "CURRENT",
          "synonyms": [
            "Current"
          ]
        },
        {
          "conceptId": "C25627",
          "definition": "Occurring prior to something else. (NCI)",
          "preferredTerm": "Previous",
          "submissionValue": "FORMER",
          "synonyms": [
            "Previous"
          ]
        }
      ]
    }
  ]
}