{"codelists": [{"conceptId": "", "definition": "Abnormal Involuntary Movement Scale test code.", "extensible": "No", "name": "Abnormal Involuntary Movement Scale Test Code", "preferredTerm": "Abnormal Involuntary Movement Scale Test Code", "submissionValue": "Abnormal Involuntary Movement Scale Test Code", "synonyms": ["CDISC Questionnaire AIMS Test Code Terminology"], "terms": [{"conceptId": "C102034", "definition": "Abnormal Involuntary Movement Scale - Facial and Oral Movements, Muscles of facial expression, e.g., movements of forehead, eyebrows, periorbital area, cheeks. Include frowning, blinking, grimacing of upper face.", "preferredTerm": "AIMS01-Muscles of Facial Expression", "submissionValue": "Abnormal Involuntary Movement Scale Test Code", "synonyms": ["AIMS - Muscles of Facial Expression"]}, {"conceptId": "C102035", "definition": "Abnormal Involuntary Movement Scale - Facial and Oral Movements, Lips and perioral area, e.g., puckering, pouting, smacking.", "preferredTerm": "AIMS01-Lips and Perioral Area", "submissionValue": "Abnormal Involuntary Movement Scale Test Code", "synonyms": ["AIMS - Lips and Perioral Area"]}, {"conceptId": "C102036", "definition": "Abnormal Involuntary Movement Scale - Facial and Oral Movements, Jaw, e.g., biting, clenching, chewing, mouth opening, lateral movement.", "preferredTerm": "AIMS01-Jaw", "submissionValue": "Abnormal Involuntary Movement Scale Test Code", "synonyms": ["AIMS - Jaw"]}, {"conceptId": "C102037", "definition": "Abnormal Involuntary Movement Scale - Facial and Oral Movements, Tongue. Rate only increase in movement both in and out of mouth, not inability to sustain movement.", "preferredTerm": "AIMS01-Tongue", "submissionValue": "Abnormal Involuntary Movement Scale Test Code", "synonyms": ["AIMS - Tongue"]}, {"conceptId": "C102038", "definition": "Abnormal Involuntary Movement Scale - Extremity Movements, Upper (arms, wrists, hands, fingers). Include movements that are choreic (rapid, objectively purposeless, irregular, spontaneous) or athetoid (slow, irregular, complex, serpentine). Do not include tremor (repetitive, regular, rhythmic movements).", "preferredTerm": "AIMS01-Upper Extremities", "submissionValue": "Abnormal Involuntary Movement Scale Test Code", "synonyms": ["AIMS - Upper Extremities"]}, {"conceptId": "C102039", "definition": "Abnormal Involuntary Movement Scale - Extremity Movements, Lower (legs, knees, ankles, toes), e.g., lateral knee movement, foot tapping, heel dropping, foot squirming, inversion and eversion of foot.", "preferredTerm": "AIMS01-Lower Extremities", "submissionValue": "Abnormal Involuntary Movement Scale Test Code", "synonyms": ["AIMS - Lower Extremities"]}, {"conceptId": "C102040", "definition": "Abnormal Involuntary Movement Scale - Trunk Movements, Neck, shoulders, hips, e.g., rocking, twisting, squirming, pelvic gyrations. Include diaphragmatic movements.", "preferredTerm": "AIMS01-Neck, Shoulders, Hips", "submissionValue": "Abnormal Involuntary Movement Scale Test Code", "synonyms": ["AIMS - Neck, Shoulders, Hips"]}, {"conceptId": "C102041", "definition": "Abnormal Involuntary Movement Scale - Global Judgments, Severity of abnormal movements, based on the highest single score on the above items.", "preferredTerm": "AIMS01-Severity of Abnormal Movements", "submissionValue": "Abnormal Involuntary Movement Scale Test Code", "synonyms": ["AIMS - Severity of Abnormal Movements"]}, {"conceptId": "C102042", "definition": "Abnormal Involuntary Movement Scale - Global Judgments, Incapacitation due to abnormal movements.", "preferredTerm": "AIMS01-Incapacitation due Abn Movements", "submissionValue": "Abnormal Involuntary Movement Scale Test Code", "synonyms": ["AIMS - Incapacitation Due to Abnormal Movements"]}, {"conceptId": "C102043", "definition": "Abnormal Involuntary Movement Scale - Global Judgments, Patient's awareness of abnormal movements.", "preferredTerm": "AIMS01-Patient Awareness Abn Movements", "submissionValue": "Abnormal Involuntary Movement Scale Test Code", "synonyms": ["AIMS - Patient's Awareness of Abnormal Movements"]}, {"conceptId": "C102044", "definition": "Abnormal Involuntary Movement Scale - Dental Status, Current problems with teeth and/or dentures.", "preferredTerm": "AIMS01-Current Problems Teeth/Dentures", "submissionValue": "Abnormal Involuntary Movement Scale Test Code", "synonyms": ["AIMS - Current Teeth/Dentures Problems"]}, {"conceptId": "C102045", "definition": "Abnormal Involuntary Movement Scale - Dental Status, Does patient usually wear dentures?", "preferredTerm": "AIMS01-Patient Usually Wear Dentures", "submissionValue": "Abnormal Involuntary Movement Scale Test Code", "synonyms": ["AIMS - Patient Usually Wears Dentures"]}]}, {"conceptId": "", "definition": "Abnormal Involuntary Movement Scale test name.", "extensible": "No", "name": "Abnormal Involuntary Movement Scale Test Name", "preferredTerm": "Abnormal Involuntary Movement Scale Test Name", "submissionValue": "Abnormal Involuntary Movement Scale Test Name", "synonyms": ["CDISC Questionnaire AIMS Test Name Terminology"], "terms": [{"conceptId": "C102044", "definition": "Abnormal Involuntary Movement Scale - Dental Status, Current problems with teeth and/or dentures.", "preferredTerm": "AIMS01-Current Problems Teeth/Dentures", "submissionValue": "Abnormal Involuntary Movement Scale Test Name", "synonyms": ["AIMS - Current Teeth/Dentures Problems"]}, {"conceptId": "C102042", "definition": "Abnormal Involuntary Movement Scale - Global Judgments, Incapacitation due to abnormal movements.", "preferredTerm": "AIMS01-Incapacitation due Abn Movements", "submissionValue": "Abnormal Involuntary Movement Scale Test Name", "synonyms": ["AIMS - Incapacitation Due to Abnormal Movements"]}, {"conceptId": "C102036", "definition": "Abnormal Involuntary Movement Scale - Facial and Oral Movements, Jaw, e.g., biting, clenching, chewing, mouth opening, lateral movement.", "preferredTerm": "AIMS01-Jaw", "submissionValue": "Abnormal Involuntary Movement Scale Test Name", "synonyms": ["AIMS - Jaw"]}, {"conceptId": "C102035", "definition": "Abnormal Involuntary Movement Scale - Facial and Oral Movements, Lips and perioral area, e.g., puckering, pouting, smacking.", "preferredTerm": "AIMS01-Lips and Perioral Area", "submissionValue": "Abnormal Involuntary Movement Scale Test Name", "synonyms": ["AIMS - Lips and Perioral Area"]}, {"conceptId": "C102039", "definition": "Abnormal Involuntary Movement Scale - Extremity Movements, Lower (legs, knees, ankles, toes), e.g., lateral knee movement, foot tapping, heel dropping, foot squirming, inversion and eversion of foot.", "preferredTerm": "AIMS01-Lower Extremities", "submissionValue": "Abnormal Involuntary Movement Scale Test Name", "synonyms": ["AIMS - Lower Extremities"]}, {"conceptId": "C102034", "definition": "Abnormal Involuntary Movement Scale - Facial and Oral Movements, Muscles of facial expression, e.g., movements of forehead, eyebrows, periorbital area, cheeks. Include frowning, blinking, grimacing of upper face.", "preferredTerm": "AIMS01-Muscles of Facial Expression", "submissionValue": "Abnormal Involuntary Movement Scale Test Name", "synonyms": ["AIMS - Muscles of Facial Expression"]}, {"conceptId": "C102040", "definition": "Abnormal Involuntary Movement Scale - Trunk Movements, Neck, shoulders, hips, e.g., rocking, twisting, squirming, pelvic gyrations. Include diaphragmatic movements.", "preferredTerm": "AIMS01-Neck, Shoulders, Hips", "submissionValue": "Abnormal Involuntary Movement Scale Test Name", "synonyms": ["AIMS - Neck, Shoulders, Hips"]}, {"conceptId": "C102043", "definition": "Abnormal Involuntary Movement Scale - Global Judgments, Patient's awareness of abnormal movements.", "preferredTerm": "AIMS01-Patient Awareness Abn Movements", "submissionValue": "Abnormal Involuntary Movement Scale Test Name", "synonyms": ["AIMS - Patient's Awareness of Abnormal Movements"]}, {"conceptId": "C102045", "definition": "Abnormal Involuntary Movement Scale - Dental Status, Does patient usually wear dentures?", "preferredTerm": "AIMS01-Patient Usually Wear Dentures", "submissionValue": "Abnormal Involuntary Movement Scale Test Name", "synonyms": ["AIMS - Patient Usually Wears Dentures"]}, {"conceptId": "C102041", "definition": "Abnormal Involuntary Movement Scale - Global Judgments, Severity of abnormal movements, based on the highest single score on the above items.", "preferredTerm": "AIMS01-Severity of Abnormal Movements", "submissionValue": "Abnormal Involuntary Movement Scale Test Name", "synonyms": ["AIMS - Severity of Abnormal Movements"]}, {"conceptId": "C102037", "definition": "Abnormal Involuntary Movement Scale - Facial and Oral Movements, Tongue. Rate only increase in movement both in and out of mouth, not inability to sustain movement.", "preferredTerm": "AIMS01-Tongue", "submissionValue": "Abnormal Involuntary Movement Scale Test Name", "synonyms": ["AIMS - Tongue"]}, {"conceptId": "C102038", "definition": "Abnormal Involuntary Movement Scale - Extremity Movements, Upper (arms, wrists, hands, fingers). Include movements that are choreic (rapid, objectively purposeless, irregular, spontaneous) or athetoid (slow, irregular, complex, serpentine). Do not include tremor (repetitive, regular, rhythmic movements).", "preferredTerm": "AIMS01-Upper Extremities", "submissionValue": "Abnormal Involuntary Movement Scale Test Name", "synonyms": ["AIMS - Upper Extremities"]}]}, {"conceptId": "", "definition": "ADNI AVLT test code.", "extensible": "No", "name": "ADNI AVLT Test Code", "preferredTerm": "ADNI AVLT Test Code", "submissionValue": "ADNI AVLT Test Code", "synonyms": ["CDISC Questionnaire ADNI AVLT Test Code Terminology"], "terms": [{"conceptId": "C101896", "definition": "Auditory Verbal Learning Test Version A - List A, Recall 1, Word 1.", "preferredTerm": "AVL01-List A Recall 1 Word 1", "submissionValue": "ADNI AVLT Test Code", "synonyms": ["ADNI AVLT - List A Recall 1 Word 1"]}, {"conceptId": "C101897", "definition": "Auditory Verbal Learning Test Version A - List A, Recall 1, Word 2.", "preferredTerm": "AVL01-List A Recall 1 Word 2", "submissionValue": "ADNI AVLT Test Code", "synonyms": ["ADNI AVLT - List A Recall 1 Word 2"]}, {"conceptId": "C101898", "definition": "Auditory Verbal Learning Test Version A - List A, Recall 1, Word 3.", "preferredTerm": "AVL01-List A Recall 1 Word 3", "submissionValue": "ADNI AVLT Test Code", "synonyms": ["ADNI AVLT - List A Recall 1 Word 3"]}, {"conceptId": "C101899", "definition": "Auditory Verbal Learning Test Version A - List A, Recall 1, Word 4.", "preferredTerm": "AVL01-List A Recall 1 Word 4", "submissionValue": "ADNI AVLT Test Code", "synonyms": ["ADNI AVLT - List A Recall 1 Word 4"]}, {"conceptId": "C101900", "definition": "Auditory Verbal Learning Test Version A - List A, Recall 1, Word 5.", "preferredTerm": "AVL01-List A Recall 1 Word 5", "submissionValue": "ADNI AVLT Test Code", "synonyms": ["ADNI AVLT - List A Recall 1 Word 5"]}, {"conceptId": "C101901", "definition": "Auditory Verbal Learning Test Version A - List A, Recall 1, Word 6.", "preferredTerm": "AVL01-List A Recall 1 Word 6", "submissionValue": "ADNI AVLT Test Code", "synonyms": ["ADNI AVLT - List A Recall 1 Word 6"]}, {"conceptId": "C101902", "definition": "Auditory Verbal Learning Test Version A - List A, Recall 1, Word 7.", "preferredTerm": "AVL01-List A Recall 1 Word 7", "submissionValue": "ADNI AVLT Test Code", "synonyms": ["ADNI AVLT - List A Recall 1 Word 7"]}, {"conceptId": "C101903", "definition": "Auditory Verbal Learning Test Version A - List A, Recall 1, Word 8.", "preferredTerm": "AVL01-List A Recall 1 Word 8", "submissionValue": "ADNI AVLT Test Code", "synonyms": ["ADNI AVLT - List A Recall 1 Word 8"]}, {"conceptId": "C101904", "definition": "Auditory Verbal Learning Test Version A - List A, Recall 1, Word 9.", "preferredTerm": "AVL01-List A Recall 1 Word 9", "submissionValue": "ADNI AVLT Test Code", "synonyms": ["ADNI AVLT - List A Recall 1 Word 9"]}, {"conceptId": "C101905", "definition": "Auditory Verbal Learning Test Version A - List A, Recall 1, Word 10.", "preferredTerm": "AVL01-List A Recall 1 Word 10", "submissionValue": "ADNI AVLT Test Code", "synonyms": ["ADNI AVLT - List A Recall 1 Word 10"]}, {"conceptId": "C101906", "definition": "Auditory Verbal Learning Test Version A - List A, Recall 1, Word 11.", "preferredTerm": "AVL01-List A Recall 1 Word 11", "submissionValue": "ADNI AVLT Test Code", "synonyms": ["ADNI AVLT - List A Recall 1 Word 11"]}, {"conceptId": "C101907", "definition": "Auditory Verbal Learning Test Version A - List A, Recall 1, Word 12.", "preferredTerm": "AVL01-List A Recall 1 Word 12", "submissionValue": "ADNI AVLT Test Code", "synonyms": ["ADNI AVLT - List A Recall 1 Word 12"]}, {"conceptId": "C101908", "definition": "Auditory Verbal Learning Test Version A - List A, Recall 1, Word 13.", "preferredTerm": "AVL01-List A Recall 1 Word 13", "submissionValue": "ADNI AVLT Test Code", "synonyms": ["ADNI AVLT - List A Recall 1 Word 13"]}, {"conceptId": "C101909", "definition": "Auditory Verbal Learning Test Version A - List A, Recall 1, Word 14.", "preferredTerm": "AVL01-List A Recall 1 Word 14", "submissionValue": "ADNI AVLT Test Code", "synonyms": ["ADNI AVLT - List A Recall 1 Word 14"]}, {"conceptId": "C101910", "definition": "Auditory Verbal Learning Test Version A - List A, Recall 1, Word 15.", "preferredTerm": "AVL01-List A Recall 1 Word 15", "submissionValue": "ADNI AVLT Test Code", "synonyms": ["ADNI AVLT - List A Recall 1 Word 15"]}, {"conceptId": "C101911", "definition": "Auditory Verbal Learning Test Version A - The number of words recalled from List A, first attempt.", "preferredTerm": "AVL01-List A Recall 1 Total", "submissionValue": "ADNI AVLT Test Code", "synonyms": ["ADNI AVLT - List A Recall 1 Total"]}, {"conceptId": "C101912", "definition": "Auditory Verbal Learning Test Version A - The number of intrusions while recalling List A, first attempt.", "preferredTerm": "AVL01-List A Intrusions 1", "submissionValue": "ADNI AVLT Test Code", "synonyms": ["ADNI AVLT - List A Intrusions 1"]}, {"conceptId": "C101913", "definition": "Auditory Verbal Learning Test Version A - List A, Recall 2, Word 1.", "preferredTerm": "AVL01-List A Recall 2 Word 1", "submissionValue": "ADNI AVLT Test Code", "synonyms": ["ADNI AVLT - List A Recall 2 Word 1"]}, {"conceptId": "C101914", "definition": "Auditory Verbal Learning Test Version A - List A, Recall 2, Word 2.", "preferredTerm": "AVL01-List A Recall 2 Word 2", "submissionValue": "ADNI AVLT Test Code", "synonyms": ["ADNI AVLT - List A Recall 2 Word 2"]}, {"conceptId": "C101915", "definition": "Auditory Verbal Learning Test Version A - List A, Recall 2, Word 3.", "preferredTerm": "AVL01-List A Recall 2 Word 3", "submissionValue": "ADNI AVLT Test Code", "synonyms": ["ADNI AVLT - List A Recall 2 Word 3"]}, {"conceptId": "C101916", "definition": "Auditory Verbal Learning Test Version A - List A, Recall 2, Word 4.", "preferredTerm": "AVL01-List A Recall 2 Word 4", "submissionValue": "ADNI AVLT Test Code", "synonyms": ["ADNI AVLT - List A Recall 2 Word 4"]}, {"conceptId": "C101917", "definition": "Auditory Verbal Learning Test Version A - List A, Recall 2, Word 5.", "preferredTerm": "AVL01-List A Recall 2 Word 5", "submissionValue": "ADNI AVLT Test Code", "synonyms": ["ADNI AVLT - List A Recall 2 Word 5"]}, {"conceptId": "C101918", "definition": "Auditory Verbal Learning Test Version A - List A, Recall 2, Word 6.", "preferredTerm": "AVL01-List A Recall 2 Word 6", "submissionValue": "ADNI AVLT Test Code", "synonyms": ["ADNI AVLT - List A Recall 2 Word 6"]}, {"conceptId": "C101919", "definition": "Auditory Verbal Learning Test Version A - List A, Recall 2, Word 7.", "preferredTerm": "AVL01-List A Recall 2 Word 7", "submissionValue": "ADNI AVLT Test Code", "synonyms": ["ADNI AVLT - List A Recall 2 Word 7"]}, {"conceptId": "C101920", "definition": "Auditory Verbal Learning Test Version A - List A, Recall 2, Word 8.", "preferredTerm": "AVL01-List A Recall 2 Word 8", "submissionValue": "ADNI AVLT Test Code", "synonyms": ["ADNI AVLT - List A Recall 2 Word 8"]}, {"conceptId": "C101921", "definition": "Auditory Verbal Learning Test Version A - List A, Recall 2, Word 9.", "preferredTerm": "AVL01-List A Recall 2 Word 9", "submissionValue": "ADNI AVLT Test Code", "synonyms": ["ADNI AVLT - List A Recall 2 Word 9"]}, {"conceptId": "C101922", "definition": "Auditory Verbal Learning Test Version A - List A, Recall 2, Word 10.", "preferredTerm": "AVL01-List A Recall 2 Word 10", "submissionValue": "ADNI AVLT Test Code", "synonyms": ["ADNI AVLT - List A Recall 2 Word 10"]}, {"conceptId": "C101923", "definition": "Auditory Verbal Learning Test Version A - List A, Recall 2, Word 11.", "preferredTerm": "AVL01-List A Recall 2 Word 11", "submissionValue": "ADNI AVLT Test Code", "synonyms": ["ADNI AVLT - List A Recall 2 Word 11"]}, {"conceptId": "C101924", "definition": "Auditory Verbal Learning Test Version A - List A, Recall 2, Word 12.", "preferredTerm": "AVL01-List A Recall 2 Word 12", "submissionValue": "ADNI AVLT Test Code", "synonyms": ["ADNI AVLT - List A Recall 2 Word 12"]}, {"conceptId": "C101925", "definition": "Auditory Verbal Learning Test Version A - List A, Recall 2, Word 13.", "preferredTerm": "AVL01-List A Recall 2 Word 13", "submissionValue": "ADNI AVLT Test Code", "synonyms": ["ADNI AVLT - List A Recall 2 Word 13"]}, {"conceptId": "C101926", "definition": "Auditory Verbal Learning Test Version A - List A, Recall 2, Word 14.", "preferredTerm": "AVL01-List A Recall 2 Word 14", "submissionValue": "ADNI AVLT Test Code", "synonyms": ["ADNI AVLT - List A Recall 2 Word 14"]}, {"conceptId": "C101927", "definition": "Auditory Verbal Learning Test Version A - List A, Recall 2, Word 15.", "preferredTerm": "AVL01-List A Recall 2 Word 15", "submissionValue": "ADNI AVLT Test Code", "synonyms": ["ADNI AVLT - List A Recall 2 Word 15"]}, {"conceptId": "C101928", "definition": "Auditory Verbal Learning Test Version A - The number of words recalled from List A, second attempt.", "preferredTerm": "AVL01-List A Recall 2 Total", "submissionValue": "ADNI AVLT Test Code", "synonyms": ["ADNI AVLT - List A Recall 2 Total"]}, {"conceptId": "C101929", "definition": "Auditory Verbal Learning Test Version A - The number of intrusions while recalling List A, second attempt.", "preferredTerm": "AVL01-List A Intrusions 2", "submissionValue": "ADNI AVLT Test Code", "synonyms": ["ADNI AVLT - List A Intrusions 2"]}, {"conceptId": "C101930", "definition": "Auditory Verbal Learning Test Version A - List A, Recall 3, Word 1.", "preferredTerm": "AVL01-List A Recall 3 Word 1", "submissionValue": "ADNI AVLT Test Code", "synonyms": ["ADNI AVLT - List A Recall 3 Word 1"]}, {"conceptId": "C101931", "definition": "Auditory Verbal Learning Test Version A - List A, Recall 3, Word 2.", "preferredTerm": "AVL01-List A Recall 3 Word 2", "submissionValue": "ADNI AVLT Test Code", "synonyms": ["ADNI AVLT - List A Recall 3 Word 2"]}, {"conceptId": "C101932", "definition": "Auditory Verbal Learning Test Version A - List A, Recall 3, Word 3.", "preferredTerm": "AVL01-List A Recall 3 Word 3", "submissionValue": "ADNI AVLT Test Code", "synonyms": ["ADNI AVLT - List A Recall 3 Word 3"]}, {"conceptId": "C101933", "definition": "Auditory Verbal Learning Test Version A - List A, Recall 3, Word 4.", "preferredTerm": "AVL01-List A Recall 3 Word 4", "submissionValue": "ADNI AVLT Test Code", "synonyms": ["ADNI AVLT - List A Recall 3 Word 4"]}, {"conceptId": "C101934", "definition": "Auditory Verbal Learning Test Version A - List A, Recall 3, Word 5.", "preferredTerm": "AVL01-List A Recall 3 Word 5", "submissionValue": "ADNI AVLT Test Code", "synonyms": ["ADNI AVLT - List A Recall 3 Word 5"]}, {"conceptId": "C101935", "definition": "Auditory Verbal Learning Test Version A - List A, Recall 3, Word 6.", "preferredTerm": "AVL01-List A Recall 3 Word 6", "submissionValue": "ADNI AVLT Test Code", "synonyms": ["ADNI AVLT - List A Recall 3 Word 6"]}, {"conceptId": "C101936", "definition": "Auditory Verbal Learning Test Version A - List A, Recall 3, Word 7.", "preferredTerm": "AVL01-List A Recall 3 Word 7", "submissionValue": "ADNI AVLT Test Code", "synonyms": ["ADNI AVLT - List A Recall 3 Word 7"]}, {"conceptId": "C101937", "definition": "Auditory Verbal Learning Test Version A - List A, Recall 3, Word 8.", "preferredTerm": "AVL01-List A Recall 3 Word 8", "submissionValue": "ADNI AVLT Test Code", "synonyms": ["ADNI AVLT - List A Recall 3 Word 8"]}, {"conceptId": "C101938", "definition": "Auditory Verbal Learning Test Version A - List A, Recall 3, Word 9.", "preferredTerm": "AVL01-List A Recall 3 Word 9", "submissionValue": "ADNI AVLT Test Code", "synonyms": ["ADNI AVLT - List A Recall 3 Word 9"]}, {"conceptId": "C101939", "definition": "Auditory Verbal Learning Test Version A - List A, Recall 3, Word 10.", "preferredTerm": "AVL01-List A Recall 3 Word 10", "submissionValue": "ADNI AVLT Test Code", "synonyms": ["ADNI AVLT - List A Recall 3 Word 10"]}, {"conceptId": "C101940", "definition": "Auditory Verbal Learning Test Version A - List A, Recall 3, Word 11.", "preferredTerm": "AVL01-List A Recall 3 Word 11", "submissionValue": "ADNI AVLT Test Code", "synonyms": ["ADNI AVLT - List A Recall 3 Word 11"]}, {"conceptId": "C101941", "definition": "Auditory Verbal Learning Test Version A - List A, Recall 3, Word 12.", "preferredTerm": "AVL01-List A Recall 3 Word 12", "submissionValue": "ADNI AVLT Test Code", "synonyms": ["ADNI AVLT - List A Recall 3 Word 12"]}, {"conceptId": "C101942", "definition": "Auditory Verbal Learning Test Version A - List A, Recall 3, Word 13.", "preferredTerm": "AVL01-List A Recall 3 Word 13", "submissionValue": "ADNI AVLT Test Code", "synonyms": ["ADNI AVLT - List A Recall 3 Word 13"]}, {"conceptId": "C101943", "definition": "Auditory Verbal Learning Test Version A - List A, Recall 3, Word 14.", "preferredTerm": "AVL01-List A Recall 3 Word 14", "submissionValue": "ADNI AVLT Test Code", "synonyms": ["ADNI AVLT - List A Recall 3 Word 14"]}, {"conceptId": "C101944", "definition": "Auditory Verbal Learning Test Version A - List A, Recall 3, Word 15.", "preferredTerm": "AVL01-List A Recall 3 Word 15", "submissionValue": "ADNI AVLT Test Code", "synonyms": ["ADNI AVLT - List A Recall 3 Word 15"]}, {"conceptId": "C101945", "definition": "Auditory Verbal Learning Test Version A - The number of words recalled from List A, third attempt.", "preferredTerm": "AVL01-List A Recall 3 Total", "submissionValue": "ADNI AVLT Test Code", "synonyms": ["ADNI AVLT - List A Recall 3 Total"]}, {"conceptId": "C101946", "definition": "Auditory Verbal Learning Test Version A - The number of intrusions while recalling List A, third attempt.", "preferredTerm": "AVL01-List A Intrusions 3", "submissionValue": "ADNI AVLT Test Code", "synonyms": ["ADNI AVLT - List A Intrusions 3"]}, {"conceptId": "C101947", "definition": "Auditory Verbal Learning Test Version A - List A, Recall 4, Word 1.", "preferredTerm": "AVL01-List A Recall 4 Word 1", "submissionValue": "ADNI AVLT Test Code", "synonyms": ["ADNI AVLT - List A Recall 4 Word 1"]}, {"conceptId": "C101948", "definition": "Auditory Verbal Learning Test Version A - List A, Recall 4, Word 2.", "preferredTerm": "AVL01-List A Recall 4 Word 2", "submissionValue": "ADNI AVLT Test Code", "synonyms": ["ADNI AVLT - List A Recall 4 Word 2"]}, {"conceptId": "C101949", "definition": "Auditory Verbal Learning Test Version A - List A, Recall 4, Word 3.", "preferredTerm": "AVL01-List A Recall 4 Word 3", "submissionValue": "ADNI AVLT Test Code", "synonyms": ["ADNI AVLT - List A Recall 4 Word 3"]}, {"conceptId": "C101950", "definition": "Auditory Verbal Learning Test Version A - List A, Recall 4, Word 4.", "preferredTerm": "AVL01-List A Recall 4 Word 4", "submissionValue": "ADNI AVLT Test Code", "synonyms": ["ADNI AVLT - List A Recall 4 Word 4"]}, {"conceptId": "C101951", "definition": "Auditory Verbal Learning Test Version A - List A, Recall 4, Word 5.", "preferredTerm": "AVL01-List A Recall 4 Word 5", "submissionValue": "ADNI AVLT Test Code", "synonyms": ["ADNI AVLT - List A Recall 4 Word 5"]}, {"conceptId": "C101952", "definition": "Auditory Verbal Learning Test Version A - List A, Recall 4, Word 6.", "preferredTerm": "AVL01-List A Recall 4 Word 6", "submissionValue": "ADNI AVLT Test Code", "synonyms": ["ADNI AVLT - List A Recall 4 Word 6"]}, {"conceptId": "C101953", "definition": "Auditory Verbal Learning Test Version A - List A, Recall 4, Word 7.", "preferredTerm": "AVL01-List A Recall 4 Word 7", "submissionValue": "ADNI AVLT Test Code", "synonyms": ["ADNI AVLT - List A Recall 4 Word 7"]}, {"conceptId": "C101954", "definition": "Auditory Verbal Learning Test Version A - List A, Recall 4, Word 8.", "preferredTerm": "AVL01-List A Recall 4 Word 8", "submissionValue": "ADNI AVLT Test Code", "synonyms": ["ADNI AVLT - List A Recall 4 Word 8"]}, {"conceptId": "C101955", "definition": "Auditory Verbal Learning Test Version A - List A, Recall 4, Word 9.", "preferredTerm": "AVL01-List A Recall 4 Word 9", "submissionValue": "ADNI AVLT Test Code", "synonyms": ["ADNI AVLT - List A Recall 4 Word 9"]}, {"conceptId": "C101956", "definition": "Auditory Verbal Learning Test Version A - List A, Recall 4, Word 10.", "preferredTerm": "AVL01-List A Recall 4 Word 10", "submissionValue": "ADNI AVLT Test Code", "synonyms": ["ADNI AVLT - List A Recall 4 Word 10"]}, {"conceptId": "C101957", "definition": "Auditory Verbal Learning Test Version A - List A, Recall 4, Word 11.", "preferredTerm": "AVL01-List A Recall 4 Word 11", "submissionValue": "ADNI AVLT Test Code", "synonyms": ["ADNI AVLT - List A Recall 4 Word 11"]}, {"conceptId": "C101958", "definition": "Auditory Verbal Learning Test Version A - List A, Recall 4, Word 12.", "preferredTerm": "AVL01-List A Recall 4 Word 12", "submissionValue": "ADNI AVLT Test Code", "synonyms": ["ADNI AVLT - List A Recall 4 Word 12"]}, {"conceptId": "C101959", "definition": "Auditory Verbal Learning Test Version A - List A, Recall 4, Word 13.", "preferredTerm": "AVL01-List A Recall 4 Word 13", "submissionValue": "ADNI AVLT Test Code", "synonyms": ["ADNI AVLT - List A Recall 4 Word 13"]}, {"conceptId": "C101960", "definition": "Auditory Verbal Learning Test Version A - List A, Recall 4, Word 14.", "preferredTerm": "AVL01-List A Recall 4 Word 14", "submissionValue": "ADNI AVLT Test Code", "synonyms": ["ADNI AVLT - List A Recall 4 Word 14"]}, {"conceptId": "C101961", "definition": "Auditory Verbal Learning Test Version A - List A, Recall 4, Word 15.", "preferredTerm": "AVL01-List A Recall 4 Word 15", "submissionValue": "ADNI AVLT Test Code", "synonyms": ["ADNI AVLT - List A Recall 4 Word 15"]}, {"conceptId": "C101962", "definition": "Auditory Verbal Learning Test Version A - The number of words recalled from List A, fourth attempt.", "preferredTerm": "AVL01-List A Recall 4 Total", "submissionValue": "ADNI AVLT Test Code", "synonyms": ["ADNI AVLT - List A Recall 4 Total"]}, {"conceptId": "C101963", "definition": "Auditory Verbal Learning Test Version A - The number of intrusions while recalling List A, fourth attempt.", "preferredTerm": "AVL01-List A Intrusions 4", "submissionValue": "ADNI AVLT Test Code", "synonyms": ["ADNI AVLT - List A Intrusions 4"]}, {"conceptId": "C101964", "definition": "Auditory Verbal Learning Test Version A - List A, Recall 5, Word 1.", "preferredTerm": "AVL01-List A Recall 5 Word 1", "submissionValue": "ADNI AVLT Test Code", "synonyms": ["ADNI AVLT - List A Recall 5 Word 1"]}, {"conceptId": "C101965", "definition": "Auditory Verbal Learning Test Version A - List A, Recall 5, Word 2.", "preferredTerm": "AVL01-List A Recall 5 Word 2", "submissionValue": "ADNI AVLT Test Code", "synonyms": ["ADNI AVLT - List A Recall 5 Word 2"]}, {"conceptId": "C101966", "definition": "Auditory Verbal Learning Test Version A - List A, Recall 5, Word 3.", "preferredTerm": "AVL01-List A Recall 5 Word 3", "submissionValue": "ADNI AVLT Test Code", "synonyms": ["ADNI AVLT - List A Recall 5 Word 3"]}, {"conceptId": "C101967", "definition": "Auditory Verbal Learning Test Version A - List A, Recall 5, Word 4.", "preferredTerm": "AVL01-List A Recall 5 Word 4", "submissionValue": "ADNI AVLT Test Code", "synonyms": ["ADNI AVLT - List A Recall 5 Word 4"]}, {"conceptId": "C101968", "definition": "Auditory Verbal Learning Test Version A - List A, Recall 5, Word 5.", "preferredTerm": "AVL01-List A Recall 5 Word 5", "submissionValue": "ADNI AVLT Test Code", "synonyms": ["ADNI AVLT - List A Recall 5 Word 5"]}, {"conceptId": "C101969", "definition": "Auditory Verbal Learning Test Version A - List A, Recall 5, Word 6.", "preferredTerm": "AVL01-List A Recall 5 Word 6", "submissionValue": "ADNI AVLT Test Code", "synonyms": ["ADNI AVLT - List A Recall 5 Word 6"]}, {"conceptId": "C101970", "definition": "Auditory Verbal Learning Test Version A - List A, Recall 5, Word 7.", "preferredTerm": "AVL01-List A Recall 5 Word 7", "submissionValue": "ADNI AVLT Test Code", "synonyms": ["ADNI AVLT - List A Recall 5 Word 7"]}, {"conceptId": "C101971", "definition": "Auditory Verbal Learning Test Version A - List A, Recall 5, Word 8.", "preferredTerm": "AVL01-List A Recall 5 Word 8", "submissionValue": "ADNI AVLT Test Code", "synonyms": ["ADNI AVLT - List A Recall 5 Word 8"]}, {"conceptId": "C101972", "definition": "Auditory Verbal Learning Test Version A - List A, Recall 5, Word 9.", "preferredTerm": "AVL01-List A Recall 5 Word 9", "submissionValue": "ADNI AVLT Test Code", "synonyms": ["ADNI AVLT - List A Recall 5 Word 9"]}, {"conceptId": "C101973", "definition": "Auditory Verbal Learning Test Version A - List A, Recall 5, Word 10.", "preferredTerm": "AVL01-List A Recall 5 Word 10", "submissionValue": "ADNI AVLT Test Code", "synonyms": ["ADNI AVLT - List A Recall 5 Word 10"]}, {"conceptId": "C101974", "definition": "Auditory Verbal Learning Test Version A - List A, Recall 5, Word 11.", "preferredTerm": "AVL01-List A Recall 5 Word 11", "submissionValue": "ADNI AVLT Test Code", "synonyms": ["ADNI AVLT - List A Recall 5 Word 11"]}, {"conceptId": "C101975", "definition": "Auditory Verbal Learning Test Version A - List A, Recall 5, Word 12.", "preferredTerm": "AVL01-List A Recall 5 Word 12", "submissionValue": "ADNI AVLT Test Code", "synonyms": ["ADNI AVLT - List A Recall 5 Word 12"]}, {"conceptId": "C101976", "definition": "Auditory Verbal Learning Test Version A - List A, Recall 5, Word 13.", "preferredTerm": "AVL01-List A Recall 5 Word 13", "submissionValue": "ADNI AVLT Test Code", "synonyms": ["ADNI AVLT - List A Recall 5 Word 13"]}, {"conceptId": "C101977", "definition": "Auditory Verbal Learning Test Version A - List A, Recall 5, Word 14.", "preferredTerm": "AVL01-List A Recall 5 Word 14", "submissionValue": "ADNI AVLT Test Code", "synonyms": ["ADNI AVLT - List A Recall 5 Word 14"]}, {"conceptId": "C101978", "definition": "Auditory Verbal Learning Test Version A - List A, Recall 5, Word 15.", "preferredTerm": "AVL01-List A Recall 5 Word 15", "submissionValue": "ADNI AVLT Test Code", "synonyms": ["ADNI AVLT - List A Recall 5 Word 15"]}, {"conceptId": "C101979", "definition": "Auditory Verbal Learning Test Version A - The number of words recalled from List A, fifth attempt.", "preferredTerm": "AVL01-List A Recall 5 Total", "submissionValue": "ADNI AVLT Test Code", "synonyms": ["ADNI AVLT - List A Recall 5 Total"]}, {"conceptId": "C101980", "definition": "Auditory Verbal Learning Test Version A - The number of intrusions while recalling List A, fifth attempt.", "preferredTerm": "AVL01-List A Intrusions 5", "submissionValue": "ADNI AVLT Test Code", "synonyms": ["ADNI AVLT - List A Intrusions 5"]}, {"conceptId": "C101981", "definition": "Auditory Verbal Learning Test Version A - List A, Recall 6 (after B Recall), Word 1.", "preferredTerm": "AVL01-List A Recall 6 (After B) Word 1", "submissionValue": "ADNI AVLT Test Code", "synonyms": ["ADNI AVLT - List A Recall 6 (After B) Word 1"]}, {"conceptId": "C101982", "definition": "Auditory Verbal Learning Test Version A - List A, Recall 6 (after B Recall), Word 2.", "preferredTerm": "AVL01-List A Recall 6 (After B) Word 2", "submissionValue": "ADNI AVLT Test Code", "synonyms": ["ADNI AVLT - List A Recall 6 (After B) Word 2"]}, {"conceptId": "C101983", "definition": "Auditory Verbal Learning Test Version A - List A, Recall 6 (after B Recall), Word 3.", "preferredTerm": "AVL01-List A Recall 6 (After B) Word 3", "submissionValue": "ADNI AVLT Test Code", "synonyms": ["ADNI AVLT - List A Recall 6 (After B) Word 3"]}, {"conceptId": "C101984", "definition": "Auditory Verbal Learning Test Version A - List A, Recall 6 (after B Recall), Word 4.", "preferredTerm": "AVL01-List A Recall 6 (After B) Word 4", "submissionValue": "ADNI AVLT Test Code", "synonyms": ["ADNI AVLT - List A Recall 6 (After B) Word 4"]}, {"conceptId": "C101985", "definition": "Auditory Verbal Learning Test Version A - List A, Recall 6 (after B Recall), Word 5.", "preferredTerm": "AVL01-List A Recall 6 (After B) Word 5", "submissionValue": "ADNI AVLT Test Code", "synonyms": ["ADNI AVLT - List A Recall 6 (After B) Word 5"]}, {"conceptId": "C101986", "definition": "Auditory Verbal Learning Test Version A - List A, Recall 6 (after B Recall), Word 6.", "preferredTerm": "AVL01-List A Recall 6 (After B) Word 6", "submissionValue": "ADNI AVLT Test Code", "synonyms": ["ADNI AVLT - List A Recall 6 (After B) Word 6"]}, {"conceptId": "C101987", "definition": "Auditory Verbal Learning Test Version A - List A, Recall 6 (after B Recall), Word 7.", "preferredTerm": "AVL01-List A Recall 6 (After B) Word 7", "submissionValue": "ADNI AVLT Test Code", "synonyms": ["ADNI AVLT - List A Recall 6 (After B) Word 7"]}, {"conceptId": "C101988", "definition": "Auditory Verbal Learning Test Version A - List A, Recall 6 (after B Recall), Word 8.", "preferredTerm": "AVL01-List A Recall 6 (After B) Word 8", "submissionValue": "ADNI AVLT Test Code", "synonyms": ["ADNI AVLT - List A Recall 6 (After B) Word 8"]}, {"conceptId": "C101989", "definition": "Auditory Verbal Learning Test Version A - List A, Recall 6 (after B Recall), Word 9.", "preferredTerm": "AVL01-List A Recall 6 (After B) Word 9", "submissionValue": "ADNI AVLT Test Code", "synonyms": ["ADNI AVLT - List A Recall 6 (After B) Word 9"]}, {"conceptId": "C101990", "definition": "Auditory Verbal Learning Test Version A - List A, Recall 6 (after B Recall), Word 10.", "preferredTerm": "AVL01-List A Recall 6 (After B) Word 10", "submissionValue": "ADNI AVLT Test Code", "synonyms": ["ADNI AVLT - List A Recall 6 (After B) Word 10"]}, {"conceptId": "C101991", "definition": "Auditory Verbal Learning Test Version A - List A, Recall 6 (after B Recall), Word 11.", "preferredTerm": "AVL01-List A Recall 6 (After B) Word 11", "submissionValue": "ADNI AVLT Test Code", "synonyms": ["ADNI AVLT - List A Recall 6 (After B) Word 11"]}, {"conceptId": "C101992", "definition": "Auditory Verbal Learning Test Version A - List A, Recall 6 (after B Recall), Word 12.", "preferredTerm": "AVL01-List A Recall 6 (After B) Word 12", "submissionValue": "ADNI AVLT Test Code", "synonyms": ["ADNI AVLT - List A Recall 6 (After B) Word 12"]}, {"conceptId": "C101993", "definition": "Auditory Verbal Learning Test Version A - List A, Recall 6 (after B Recall), Word 13.", "preferredTerm": "AVL01-List A Recall 6 (After B) Word 13", "submissionValue": "ADNI AVLT Test Code", "synonyms": ["ADNI AVLT - List A Recall 6 (After B) Word 13"]}, {"conceptId": "C101994", "definition": "Auditory Verbal Learning Test Version A - List A, Recall 6 (after B Recall), Word 14.", "preferredTerm": "AVL01-List A Recall 6 (After B) Word 14", "submissionValue": "ADNI AVLT Test Code", "synonyms": ["ADNI AVLT - List A Recall 6 (After B) Word 14"]}, {"conceptId": "C101995", "definition": "Auditory Verbal Learning Test Version A - List A, Recall 6 (after B Recall), Word 15.", "preferredTerm": "AVL01-List A Recall 6 (After B) Word 15", "submissionValue": "ADNI AVLT Test Code", "synonyms": ["ADNI AVLT - List A Recall 6 (After B) Word 15"]}, {"conceptId": "C101996", "definition": "Auditory Verbal Learning Test Version A - The number of words recalled from List A, sixth attempt (after List B recall).", "preferredTerm": "AVL01-List A Recall 6 (After B) Total", "submissionValue": "ADNI AVLT Test Code", "synonyms": ["ADNI AVLT - List A Recall 6 (After B) Total"]}, {"conceptId": "C101997", "definition": "Auditory Verbal Learning Test Version A - The number of intrusions while recalling List A, sixth attempt (after List B recall).", "preferredTerm": "AVL01-List A Intrusions 6", "submissionValue": "ADNI AVLT Test Code", "synonyms": ["ADNI AVLT - List A Intrusions 6"]}, {"conceptId": "C101998", "definition": "Auditory Verbal Learning Test Version A - List B, Word 1.", "preferredTerm": "AVL01-List B Recall Word 1", "submissionValue": "ADNI AVLT Test Code", "synonyms": ["ADNI AVLT - List B Recall Word 1"]}, {"conceptId": "C101999", "definition": "Auditory Verbal Learning Test Version A - List B, Word 2.", "preferredTerm": "AVL01-List B Recall Word 2", "submissionValue": "ADNI AVLT Test Code", "synonyms": ["ADNI AVLT - List B Recall Word 2"]}, {"conceptId": "C102000", "definition": "Auditory Verbal Learning Test Version A - List B, Word 3.", "preferredTerm": "AVL01-List B Recall Word 3", "submissionValue": "ADNI AVLT Test Code", "synonyms": ["ADNI AVLT - List B Recall Word 3"]}, {"conceptId": "C102001", "definition": "Auditory Verbal Learning Test Version A - List B, Word 4.", "preferredTerm": "AVL01-List B Recall Word 4", "submissionValue": "ADNI AVLT Test Code", "synonyms": ["ADNI AVLT - List B Recall Word 4"]}, {"conceptId": "C102002", "definition": "Auditory Verbal Learning Test Version A - List B, Word 5.", "preferredTerm": "AVL01-List B Recall Word 5", "submissionValue": "ADNI AVLT Test Code", "synonyms": ["ADNI AVLT - List B Recall Word 5"]}, {"conceptId": "C102003", "definition": "Auditory Verbal Learning Test Version A - List B, Word 6.", "preferredTerm": "AVL01-List B Recall Word 6", "submissionValue": "ADNI AVLT Test Code", "synonyms": ["ADNI AVLT - List B Recall Word 6"]}, {"conceptId": "C102004", "definition": "Auditory Verbal Learning Test Version A - List B, Word 7.", "preferredTerm": "AVL01-List B Recall Word 7", "submissionValue": "ADNI AVLT Test Code", "synonyms": ["ADNI AVLT - List B Recall Word 7"]}, {"conceptId": "C102005", "definition": "Auditory Verbal Learning Test Version A - List B, Word 8.", "preferredTerm": "AVL01-List B Recall Word 8", "submissionValue": "ADNI AVLT Test Code", "synonyms": ["ADNI AVLT - List B Recall Word 8"]}, {"conceptId": "C102006", "definition": "Auditory Verbal Learning Test Version A - List B, Word 9.", "preferredTerm": "AVL01-List B Recall Word 9", "submissionValue": "ADNI AVLT Test Code", "synonyms": ["ADNI AVLT - List B Recall Word 9"]}, {"conceptId": "C102007", "definition": "Auditory Verbal Learning Test Version A - List B, Word 10.", "preferredTerm": "AVL01-List B Recall Word 10", "submissionValue": "ADNI AVLT Test Code", "synonyms": ["ADNI AVLT - List B Recall Word 10"]}, {"conceptId": "C102008", "definition": "Auditory Verbal Learning Test Version A - List B, Word 11.", "preferredTerm": "AVL01-List B Recall Word 11", "submissionValue": "ADNI AVLT Test Code", "synonyms": ["ADNI AVLT - List B Recall Word 11"]}, {"conceptId": "C102009", "definition": "Auditory Verbal Learning Test Version A - List B, Word 12.", "preferredTerm": "AVL01-List B Recall Word 12", "submissionValue": "ADNI AVLT Test Code", "synonyms": ["ADNI AVLT - List B Recall Word 12"]}, {"conceptId": "C102010", "definition": "Auditory Verbal Learning Test Version A - List B, Word 13.", "preferredTerm": "AVL01-List B Recall Word 13", "submissionValue": "ADNI AVLT Test Code", "synonyms": ["ADNI AVLT - List B Recall Word 13"]}, {"conceptId": "C102011", "definition": "Auditory Verbal Learning Test Version A - List B, Word 14.", "preferredTerm": "AVL01-List B Recall Word 14", "submissionValue": "ADNI AVLT Test Code", "synonyms": ["ADNI AVLT - List B Recall Word 14"]}, {"conceptId": "C102012", "definition": "Auditory Verbal Learning Test Version A - List B, Word 15.", "preferredTerm": "AVL01-List B Recall Word 15", "submissionValue": "ADNI AVLT Test Code", "synonyms": ["ADNI AVLT - List B Recall Word 15"]}, {"conceptId": "C102013", "definition": "Auditory Verbal Learning Test Version A - The number of words recalled from List B.", "preferredTerm": "AVL01-List B Recall Total", "submissionValue": "ADNI AVLT Test Code", "synonyms": ["ADNI AVLT - List B Recall Total"]}, {"conceptId": "C102014", "definition": "Auditory Verbal Learning Test Version A - The number of intrusions while recalling List B.", "preferredTerm": "AVL01-List B Intrusions", "submissionValue": "ADNI AVLT Test Code", "synonyms": ["ADNI AVLT - List B Intrusions"]}, {"conceptId": "C102015", "definition": "Auditory Verbal Learning Test Version A - List A, 30 Minute Delay Recall, Word 1.", "preferredTerm": "AVL01-List A 30 Min Delay Recall Word 1", "submissionValue": "ADNI AVLT Test Code", "synonyms": ["ADNI AVLT - List A 30 Min Delay Recall Word 1"]}, {"conceptId": "C102016", "definition": "Auditory Verbal Learning Test Version A - List A, 30 Minute Delay Recall, Word 2.", "preferredTerm": "AVL01-List A 30 Min Delay Recall Word 2", "submissionValue": "ADNI AVLT Test Code", "synonyms": ["ADNI AVLT - List A 30 Min Delay Recall Word 2"]}, {"conceptId": "C102017", "definition": "Auditory Verbal Learning Test Version A - List A, 30 Minute Delay Recall, Word 3.", "preferredTerm": "AVL01-List A 30 Min Delay Recall Word 3", "submissionValue": "ADNI AVLT Test Code", "synonyms": ["ADNI AVLT - List A 30 Min Delay Recall Word 3"]}, {"conceptId": "C102018", "definition": "Auditory Verbal Learning Test Version A - List A, 30 Minute Delay Recall, Word 4.", "preferredTerm": "AVL01-List A 30 Min Delay Recall Word 4", "submissionValue": "ADNI AVLT Test Code", "synonyms": ["ADNI AVLT - List A 30 Min Delay Recall Word 4"]}, {"conceptId": "C102019", "definition": "Auditory Verbal Learning Test Version A - List A, 30 Minute Delay Recall, Word 5.", "preferredTerm": "AVL01-List A 30 Min Delay Recall Word 5", "submissionValue": "ADNI AVLT Test Code", "synonyms": ["ADNI AVLT - List A 30 Min Delay Recall Word 5"]}, {"conceptId": "C102020", "definition": "Auditory Verbal Learning Test Version A - List A, 30 Minute Delay Recall, Word 6.", "preferredTerm": "AVL01-List A 30 Min Delay Recall Word 6", "submissionValue": "ADNI AVLT Test Code", "synonyms": ["ADNI AVLT - List A 30 Min Delay Recall Word 6"]}, {"conceptId": "C102021", "definition": "Auditory Verbal Learning Test Version A - List A, 30 Minute Delay Recall, Word 7.", "preferredTerm": "AVL01-List A 30 Min Delay Recall Word 7", "submissionValue": "ADNI AVLT Test Code", "synonyms": ["ADNI AVLT - List A 30 Min Delay Recall Word 7"]}, {"conceptId": "C102022", "definition": "Auditory Verbal Learning Test Version A - List A, 30 Minute Delay Recall, Word 8.", "preferredTerm": "AVL01-List A 30 Min Delay Recall Word 8", "submissionValue": "ADNI AVLT Test Code", "synonyms": ["ADNI AVLT - List A 30 Min Delay Recall Word 8"]}, {"conceptId": "C102023", "definition": "Auditory Verbal Learning Test Version A - List A, 30 Minute Delay Recall, Word 9.", "preferredTerm": "AVL01-List A 30 Min Delay Recall Word 9", "submissionValue": "ADNI AVLT Test Code", "synonyms": ["ADNI AVLT - List A 30 Min Delay Recall Word 9"]}, {"conceptId": "C102024", "definition": "Auditory Verbal Learning Test Version A - List A, 30 Minute Delay Recall, Word 10.", "preferredTerm": "AVL01-List A 30 Min Delay Recall Word 10", "submissionValue": "ADNI AVLT Test Code", "synonyms": ["ADNI AVLT - List A 30 Min Delay Recall Word 10"]}, {"conceptId": "C102025", "definition": "Auditory Verbal Learning Test Version A - List A, 30 Minute Delay Recall, Word 11.", "preferredTerm": "AVL01-List A 30 Min Delay Recall Word 11", "submissionValue": "ADNI AVLT Test Code", "synonyms": ["ADNI AVLT - List A 30 Min Delay Recall Word 11"]}, {"conceptId": "C102026", "definition": "Auditory Verbal Learning Test Version A - List A, 30 Minute Delay Recall, Word 12.", "preferredTerm": "AVL01-List A 30 Min Delay Recall Word 12", "submissionValue": "ADNI AVLT Test Code", "synonyms": ["ADNI AVLT - List A 30 Min Delay Recall Word 12"]}, {"conceptId": "C102027", "definition": "Auditory Verbal Learning Test Version A - List A, 30 Minute Delay Recall, Word 13.", "preferredTerm": "AVL01-List A 30 Min Delay Recall Word 13", "submissionValue": "ADNI AVLT Test Code", "synonyms": ["ADNI AVLT - List A 30 Min Delay Recall Word 13"]}, {"conceptId": "C102028", "definition": "Auditory Verbal Learning Test Version A - List A, 30 Minute Delay Recall, Word 14.", "preferredTerm": "AVL01-List A 30 Min Delay Recall Word 14", "submissionValue": "ADNI AVLT Test Code", "synonyms": ["ADNI AVLT - List A 30 Min Delay Recall Word 14"]}, {"conceptId": "C102029", "definition": "Auditory Verbal Learning Test Version A - List A, 30 Minute Delay Recall, Word 15.", "preferredTerm": "AVL01-List A 30 Min Delay Recall Word 15", "submissionValue": "ADNI AVLT Test Code", "synonyms": ["ADNI AVLT - List A 30 Min Delay Recall Word 15"]}, {"conceptId": "C102030", "definition": "Auditory Verbal Learning Test Version A - The number of words recalled from List A, 30 Minute Delay recall.", "preferredTerm": "AVL01-List A 30 Min Delay Recall Total", "submissionValue": "ADNI AVLT Test Code", "synonyms": ["ADNI AVLT - List A 30 Min Delay Recall Total"]}, {"conceptId": "C102031", "definition": "Auditory Verbal Learning Test Version A - The number of intrusions while recalling List A, 30 Minute Delay.", "preferredTerm": "AVL01-List A 30 Min Delay Intrusions", "submissionValue": "ADNI AVLT Test Code", "synonyms": ["ADNI AVLT - List A 30 Min Delay Intrusions"]}, {"conceptId": "C102032", "definition": "Auditory Verbal Learning Test Version A - The number of words correct on recognition test.", "preferredTerm": "AVL01-List A Recognition Total", "submissionValue": "ADNI AVLT Test Code", "synonyms": ["ADNI AVLT - List A Recognition Total"]}, {"conceptId": "C102033", "definition": "Auditory Verbal Learning Test Version A - The number of intrusions on recognition test.", "preferredTerm": "AVL01-List A Recognition Intrusions", "submissionValue": "ADNI AVLT Test Code", "synonyms": ["ADNI AVLT - List A Recognition Intrusions"]}]}, {"conceptId": "", "definition": "ADNI AVLT test name.", "extensible": "No", "name": "ADNI AVLT Test Name", "preferredTerm": "ADNI AVLT Test Name", "submissionValue": "ADNI AVLT Test Name", "synonyms": ["CDISC Questionnaire ADNI AVLT Test Name Terminology"], "terms": [{"conceptId": "C102031", "definition": "Auditory Verbal Learning Test Version A - The number of intrusions while recalling List A, 30 Minute Delay.", "preferredTerm": "AVL01-List A 30 Min Delay Intrusions", "submissionValue": "ADNI AVLT Test Name", "synonyms": ["ADNI AVLT - List A 30 Min Delay Intrusions"]}, {"conceptId": "C102030", "definition": "Auditory Verbal Learning Test Version A - The number of words recalled from List A, 30 Minute Delay recall.", "preferredTerm": "AVL01-List A 30 Min Delay Recall Total", "submissionValue": "ADNI AVLT Test Name", "synonyms": ["ADNI AVLT - List A 30 Min Delay Recall Total"]}, {"conceptId": "C102015", "definition": "Auditory Verbal Learning Test Version A - List A, 30 Minute Delay Recall, Word 1.", "preferredTerm": "AVL01-List A 30 Min Delay Recall Word 1", "submissionValue": "ADNI AVLT Test Name", "synonyms": ["ADNI AVLT - List A 30 Min Delay Recall Word 1"]}, {"conceptId": "C102024", "definition": "Auditory Verbal Learning Test Version A - List A, 30 Minute Delay Recall, Word 10.", "preferredTerm": "AVL01-List A 30 Min Delay Recall Word 10", "submissionValue": "ADNI AVLT Test Name", "synonyms": ["ADNI AVLT - List A 30 Min Delay Recall Word 10"]}, {"conceptId": "C102025", "definition": "Auditory Verbal Learning Test Version A - List A, 30 Minute Delay Recall, Word 11.", "preferredTerm": "AVL01-List A 30 Min Delay Recall Word 11", "submissionValue": "ADNI AVLT Test Name", "synonyms": ["ADNI AVLT - List A 30 Min Delay Recall Word 11"]}, {"conceptId": "C102026", "definition": "Auditory Verbal Learning Test Version A - List A, 30 Minute Delay Recall, Word 12.", "preferredTerm": "AVL01-List A 30 Min Delay Recall Word 12", "submissionValue": "ADNI AVLT Test Name", "synonyms": ["ADNI AVLT - List A 30 Min Delay Recall Word 12"]}, {"conceptId": "C102027", "definition": "Auditory Verbal Learning Test Version A - List A, 30 Minute Delay Recall, Word 13.", "preferredTerm": "AVL01-List A 30 Min Delay Recall Word 13", "submissionValue": "ADNI AVLT Test Name", "synonyms": ["ADNI AVLT - List A 30 Min Delay Recall Word 13"]}, {"conceptId": "C102028", "definition": "Auditory Verbal Learning Test Version A - List A, 30 Minute Delay Recall, Word 14.", "preferredTerm": "AVL01-List A 30 Min Delay Recall Word 14", "submissionValue": "ADNI AVLT Test Name", "synonyms": ["ADNI AVLT - List A 30 Min Delay Recall Word 14"]}, {"conceptId": "C102029", "definition": "Auditory Verbal Learning Test Version A - List A, 30 Minute Delay Recall, Word 15.", "preferredTerm": "AVL01-List A 30 Min Delay Recall Word 15", "submissionValue": "ADNI AVLT Test Name", "synonyms": ["ADNI AVLT - List A 30 Min Delay Recall Word 15"]}, {"conceptId": "C102016", "definition": "Auditory Verbal Learning Test Version A - List A, 30 Minute Delay Recall, Word 2.", "preferredTerm": "AVL01-List A 30 Min Delay Recall Word 2", "submissionValue": "ADNI AVLT Test Name", "synonyms": ["ADNI AVLT - List A 30 Min Delay Recall Word 2"]}, {"conceptId": "C102017", "definition": "Auditory Verbal Learning Test Version A - List A, 30 Minute Delay Recall, Word 3.", "preferredTerm": "AVL01-List A 30 Min Delay Recall Word 3", "submissionValue": "ADNI AVLT Test Name", "synonyms": ["ADNI AVLT - List A 30 Min Delay Recall Word 3"]}, {"conceptId": "C102018", "definition": "Auditory Verbal Learning Test Version A - List A, 30 Minute Delay Recall, Word 4.", "preferredTerm": "AVL01-List A 30 Min Delay Recall Word 4", "submissionValue": "ADNI AVLT Test Name", "synonyms": ["ADNI AVLT - List A 30 Min Delay Recall Word 4"]}, {"conceptId": "C102019", "definition": "Auditory Verbal Learning Test Version A - List A, 30 Minute Delay Recall, Word 5.", "preferredTerm": "AVL01-List A 30 Min Delay Recall Word 5", "submissionValue": "ADNI AVLT Test Name", "synonyms": ["ADNI AVLT - List A 30 Min Delay Recall Word 5"]}, {"conceptId": "C102020", "definition": "Auditory Verbal Learning Test Version A - List A, 30 Minute Delay Recall, Word 6.", "preferredTerm": "AVL01-List A 30 Min Delay Recall Word 6", "submissionValue": "ADNI AVLT Test Name", "synonyms": ["ADNI AVLT - List A 30 Min Delay Recall Word 6"]}, {"conceptId": "C102021", "definition": "Auditory Verbal Learning Test Version A - List A, 30 Minute Delay Recall, Word 7.", "preferredTerm": "AVL01-List A 30 Min Delay Recall Word 7", "submissionValue": "ADNI AVLT Test Name", "synonyms": ["ADNI AVLT - List A 30 Min Delay Recall Word 7"]}, {"conceptId": "C102022", "definition": "Auditory Verbal Learning Test Version A - List A, 30 Minute Delay Recall, Word 8.", "preferredTerm": "AVL01-List A 30 Min Delay Recall Word 8", "submissionValue": "ADNI AVLT Test Name", "synonyms": ["ADNI AVLT - List A 30 Min Delay Recall Word 8"]}, {"conceptId": "C102023", "definition": "Auditory Verbal Learning Test Version A - List A, 30 Minute Delay Recall, Word 9.", "preferredTerm": "AVL01-List A 30 Min Delay Recall Word 9", "submissionValue": "ADNI AVLT Test Name", "synonyms": ["ADNI AVLT - List A 30 Min Delay Recall Word 9"]}, {"conceptId": "C101912", "definition": "Auditory Verbal Learning Test Version A - The number of intrusions while recalling List A, first attempt.", "preferredTerm": "AVL01-List A Intrusions 1", "submissionValue": "ADNI AVLT Test Name", "synonyms": ["ADNI AVLT - List A Intrusions 1"]}, {"conceptId": "C101929", "definition": "Auditory Verbal Learning Test Version A - The number of intrusions while recalling List A, second attempt.", "preferredTerm": "AVL01-List A Intrusions 2", "submissionValue": "ADNI AVLT Test Name", "synonyms": ["ADNI AVLT - List A Intrusions 2"]}, {"conceptId": "C101946", "definition": "Auditory Verbal Learning Test Version A - The number of intrusions while recalling List A, third attempt.", "preferredTerm": "AVL01-List A Intrusions 3", "submissionValue": "ADNI AVLT Test Name", "synonyms": ["ADNI AVLT - List A Intrusions 3"]}, {"conceptId": "C101963", "definition": "Auditory Verbal Learning Test Version A - The number of intrusions while recalling List A, fourth attempt.", "preferredTerm": "AVL01-List A Intrusions 4", "submissionValue": "ADNI AVLT Test Name", "synonyms": ["ADNI AVLT - List A Intrusions 4"]}, {"conceptId": "C101980", "definition": "Auditory Verbal Learning Test Version A - The number of intrusions while recalling List A, fifth attempt.", "preferredTerm": "AVL01-List A Intrusions 5", "submissionValue": "ADNI AVLT Test Name", "synonyms": ["ADNI AVLT - List A Intrusions 5"]}, {"conceptId": "C101997", "definition": "Auditory Verbal Learning Test Version A - The number of intrusions while recalling List A, sixth attempt (after List B recall).", "preferredTerm": "AVL01-List A Intrusions 6", "submissionValue": "ADNI AVLT Test Name", "synonyms": ["ADNI AVLT - List A Intrusions 6"]}, {"conceptId": "C101911", "definition": "Auditory Verbal Learning Test Version A - The number of words recalled from List A, first attempt.", "preferredTerm": "AVL01-List A Recall 1 Total", "submissionValue": "ADNI AVLT Test Name", "synonyms": ["ADNI AVLT - List A Recall 1 Total"]}, {"conceptId": "C101896", "definition": "Auditory Verbal Learning Test Version A - List A, Recall 1, Word 1.", "preferredTerm": "AVL01-List A Recall 1 Word 1", "submissionValue": "ADNI AVLT Test Name", "synonyms": ["ADNI AVLT - List A Recall 1 Word 1"]}, {"conceptId": "C101905", "definition": "Auditory Verbal Learning Test Version A - List A, Recall 1, Word 10.", "preferredTerm": "AVL01-List A Recall 1 Word 10", "submissionValue": "ADNI AVLT Test Name", "synonyms": ["ADNI AVLT - List A Recall 1 Word 10"]}, {"conceptId": "C101906", "definition": "Auditory Verbal Learning Test Version A - List A, Recall 1, Word 11.", "preferredTerm": "AVL01-List A Recall 1 Word 11", "submissionValue": "ADNI AVLT Test Name", "synonyms": ["ADNI AVLT - List A Recall 1 Word 11"]}, {"conceptId": "C101907", "definition": "Auditory Verbal Learning Test Version A - List A, Recall 1, Word 12.", "preferredTerm": "AVL01-List A Recall 1 Word 12", "submissionValue": "ADNI AVLT Test Name", "synonyms": ["ADNI AVLT - List A Recall 1 Word 12"]}, {"conceptId": "C101908", "definition": "Auditory Verbal Learning Test Version A - List A, Recall 1, Word 13.", "preferredTerm": "AVL01-List A Recall 1 Word 13", "submissionValue": "ADNI AVLT Test Name", "synonyms": ["ADNI AVLT - List A Recall 1 Word 13"]}, {"conceptId": "C101909", "definition": "Auditory Verbal Learning Test Version A - List A, Recall 1, Word 14.", "preferredTerm": "AVL01-List A Recall 1 Word 14", "submissionValue": "ADNI AVLT Test Name", "synonyms": ["ADNI AVLT - List A Recall 1 Word 14"]}, {"conceptId": "C101910", "definition": "Auditory Verbal Learning Test Version A - List A, Recall 1, Word 15.", "preferredTerm": "AVL01-List A Recall 1 Word 15", "submissionValue": "ADNI AVLT Test Name", "synonyms": ["ADNI AVLT - List A Recall 1 Word 15"]}, {"conceptId": "C101897", "definition": "Auditory Verbal Learning Test Version A - List A, Recall 1, Word 2.", "preferredTerm": "AVL01-List A Recall 1 Word 2", "submissionValue": "ADNI AVLT Test Name", "synonyms": ["ADNI AVLT - List A Recall 1 Word 2"]}, {"conceptId": "C101898", "definition": "Auditory Verbal Learning Test Version A - List A, Recall 1, Word 3.", "preferredTerm": "AVL01-List A Recall 1 Word 3", "submissionValue": "ADNI AVLT Test Name", "synonyms": ["ADNI AVLT - List A Recall 1 Word 3"]}, {"conceptId": "C101899", "definition": "Auditory Verbal Learning Test Version A - List A, Recall 1, Word 4.", "preferredTerm": "AVL01-List A Recall 1 Word 4", "submissionValue": "ADNI AVLT Test Name", "synonyms": ["ADNI AVLT - List A Recall 1 Word 4"]}, {"conceptId": "C101900", "definition": "Auditory Verbal Learning Test Version A - List A, Recall 1, Word 5.", "preferredTerm": "AVL01-List A Recall 1 Word 5", "submissionValue": "ADNI AVLT Test Name", "synonyms": ["ADNI AVLT - List A Recall 1 Word 5"]}, {"conceptId": "C101901", "definition": "Auditory Verbal Learning Test Version A - List A, Recall 1, Word 6.", "preferredTerm": "AVL01-List A Recall 1 Word 6", "submissionValue": "ADNI AVLT Test Name", "synonyms": ["ADNI AVLT - List A Recall 1 Word 6"]}, {"conceptId": "C101902", "definition": "Auditory Verbal Learning Test Version A - List A, Recall 1, Word 7.", "preferredTerm": "AVL01-List A Recall 1 Word 7", "submissionValue": "ADNI AVLT Test Name", "synonyms": ["ADNI AVLT - List A Recall 1 Word 7"]}, {"conceptId": "C101903", "definition": "Auditory Verbal Learning Test Version A - List A, Recall 1, Word 8.", "preferredTerm": "AVL01-List A Recall 1 Word 8", "submissionValue": "ADNI AVLT Test Name", "synonyms": ["ADNI AVLT - List A Recall 1 Word 8"]}, {"conceptId": "C101904", "definition": "Auditory Verbal Learning Test Version A - List A, Recall 1, Word 9.", "preferredTerm": "AVL01-List A Recall 1 Word 9", "submissionValue": "ADNI AVLT Test Name", "synonyms": ["ADNI AVLT - List A Recall 1 Word 9"]}, {"conceptId": "C101928", "definition": "Auditory Verbal Learning Test Version A - The number of words recalled from List A, second attempt.", "preferredTerm": "AVL01-List A Recall 2 Total", "submissionValue": "ADNI AVLT Test Name", "synonyms": ["ADNI AVLT - List A Recall 2 Total"]}, {"conceptId": "C101913", "definition": "Auditory Verbal Learning Test Version A - List A, Recall 2, Word 1.", "preferredTerm": "AVL01-List A Recall 2 Word 1", "submissionValue": "ADNI AVLT Test Name", "synonyms": ["ADNI AVLT - List A Recall 2 Word 1"]}, {"conceptId": "C101922", "definition": "Auditory Verbal Learning Test Version A - List A, Recall 2, Word 10.", "preferredTerm": "AVL01-List A Recall 2 Word 10", "submissionValue": "ADNI AVLT Test Name", "synonyms": ["ADNI AVLT - List A Recall 2 Word 10"]}, {"conceptId": "C101923", "definition": "Auditory Verbal Learning Test Version A - List A, Recall 2, Word 11.", "preferredTerm": "AVL01-List A Recall 2 Word 11", "submissionValue": "ADNI AVLT Test Name", "synonyms": ["ADNI AVLT - List A Recall 2 Word 11"]}, {"conceptId": "C101924", "definition": "Auditory Verbal Learning Test Version A - List A, Recall 2, Word 12.", "preferredTerm": "AVL01-List A Recall 2 Word 12", "submissionValue": "ADNI AVLT Test Name", "synonyms": ["ADNI AVLT - List A Recall 2 Word 12"]}, {"conceptId": "C101925", "definition": "Auditory Verbal Learning Test Version A - List A, Recall 2, Word 13.", "preferredTerm": "AVL01-List A Recall 2 Word 13", "submissionValue": "ADNI AVLT Test Name", "synonyms": ["ADNI AVLT - List A Recall 2 Word 13"]}, {"conceptId": "C101926", "definition": "Auditory Verbal Learning Test Version A - List A, Recall 2, Word 14.", "preferredTerm": "AVL01-List A Recall 2 Word 14", "submissionValue": "ADNI AVLT Test Name", "synonyms": ["ADNI AVLT - List A Recall 2 Word 14"]}, {"conceptId": "C101927", "definition": "Auditory Verbal Learning Test Version A - List A, Recall 2, Word 15.", "preferredTerm": "AVL01-List A Recall 2 Word 15", "submissionValue": "ADNI AVLT Test Name", "synonyms": ["ADNI AVLT - List A Recall 2 Word 15"]}, {"conceptId": "C101914", "definition": "Auditory Verbal Learning Test Version A - List A, Recall 2, Word 2.", "preferredTerm": "AVL01-List A Recall 2 Word 2", "submissionValue": "ADNI AVLT Test Name", "synonyms": ["ADNI AVLT - List A Recall 2 Word 2"]}, {"conceptId": "C101915", "definition": "Auditory Verbal Learning Test Version A - List A, Recall 2, Word 3.", "preferredTerm": "AVL01-List A Recall 2 Word 3", "submissionValue": "ADNI AVLT Test Name", "synonyms": ["ADNI AVLT - List A Recall 2 Word 3"]}, {"conceptId": "C101916", "definition": "Auditory Verbal Learning Test Version A - List A, Recall 2, Word 4.", "preferredTerm": "AVL01-List A Recall 2 Word 4", "submissionValue": "ADNI AVLT Test Name", "synonyms": ["ADNI AVLT - List A Recall 2 Word 4"]}, {"conceptId": "C101917", "definition": "Auditory Verbal Learning Test Version A - List A, Recall 2, Word 5.", "preferredTerm": "AVL01-List A Recall 2 Word 5", "submissionValue": "ADNI AVLT Test Name", "synonyms": ["ADNI AVLT - List A Recall 2 Word 5"]}, {"conceptId": "C101918", "definition": "Auditory Verbal Learning Test Version A - List A, Recall 2, Word 6.", "preferredTerm": "AVL01-List A Recall 2 Word 6", "submissionValue": "ADNI AVLT Test Name", "synonyms": ["ADNI AVLT - List A Recall 2 Word 6"]}, {"conceptId": "C101919", "definition": "Auditory Verbal Learning Test Version A - List A, Recall 2, Word 7.", "preferredTerm": "AVL01-List A Recall 2 Word 7", "submissionValue": "ADNI AVLT Test Name", "synonyms": ["ADNI AVLT - List A Recall 2 Word 7"]}, {"conceptId": "C101920", "definition": "Auditory Verbal Learning Test Version A - List A, Recall 2, Word 8.", "preferredTerm": "AVL01-List A Recall 2 Word 8", "submissionValue": "ADNI AVLT Test Name", "synonyms": ["ADNI AVLT - List A Recall 2 Word 8"]}, {"conceptId": "C101921", "definition": "Auditory Verbal Learning Test Version A - List A, Recall 2, Word 9.", "preferredTerm": "AVL01-List A Recall 2 Word 9", "submissionValue": "ADNI AVLT Test Name", "synonyms": ["ADNI AVLT - List A Recall 2 Word 9"]}, {"conceptId": "C101945", "definition": "Auditory Verbal Learning Test Version A - The number of words recalled from List A, third attempt.", "preferredTerm": "AVL01-List A Recall 3 Total", "submissionValue": "ADNI AVLT Test Name", "synonyms": ["ADNI AVLT - List A Recall 3 Total"]}, {"conceptId": "C101930", "definition": "Auditory Verbal Learning Test Version A - List A, Recall 3, Word 1.", "preferredTerm": "AVL01-List A Recall 3 Word 1", "submissionValue": "ADNI AVLT Test Name", "synonyms": ["ADNI AVLT - List A Recall 3 Word 1"]}, {"conceptId": "C101939", "definition": "Auditory Verbal Learning Test Version A - List A, Recall 3, Word 10.", "preferredTerm": "AVL01-List A Recall 3 Word 10", "submissionValue": "ADNI AVLT Test Name", "synonyms": ["ADNI AVLT - List A Recall 3 Word 10"]}, {"conceptId": "C101940", "definition": "Auditory Verbal Learning Test Version A - List A, Recall 3, Word 11.", "preferredTerm": "AVL01-List A Recall 3 Word 11", "submissionValue": "ADNI AVLT Test Name", "synonyms": ["ADNI AVLT - List A Recall 3 Word 11"]}, {"conceptId": "C101941", "definition": "Auditory Verbal Learning Test Version A - List A, Recall 3, Word 12.", "preferredTerm": "AVL01-List A Recall 3 Word 12", "submissionValue": "ADNI AVLT Test Name", "synonyms": ["ADNI AVLT - List A Recall 3 Word 12"]}, {"conceptId": "C101942", "definition": "Auditory Verbal Learning Test Version A - List A, Recall 3, Word 13.", "preferredTerm": "AVL01-List A Recall 3 Word 13", "submissionValue": "ADNI AVLT Test Name", "synonyms": ["ADNI AVLT - List A Recall 3 Word 13"]}, {"conceptId": "C101943", "definition": "Auditory Verbal Learning Test Version A - List A, Recall 3, Word 14.", "preferredTerm": "AVL01-List A Recall 3 Word 14", "submissionValue": "ADNI AVLT Test Name", "synonyms": ["ADNI AVLT - List A Recall 3 Word 14"]}, {"conceptId": "C101944", "definition": "Auditory Verbal Learning Test Version A - List A, Recall 3, Word 15.", "preferredTerm": "AVL01-List A Recall 3 Word 15", "submissionValue": "ADNI AVLT Test Name", "synonyms": ["ADNI AVLT - List A Recall 3 Word 15"]}, {"conceptId": "C101931", "definition": "Auditory Verbal Learning Test Version A - List A, Recall 3, Word 2.", "preferredTerm": "AVL01-List A Recall 3 Word 2", "submissionValue": "ADNI AVLT Test Name", "synonyms": ["ADNI AVLT - List A Recall 3 Word 2"]}, {"conceptId": "C101932", "definition": "Auditory Verbal Learning Test Version A - List A, Recall 3, Word 3.", "preferredTerm": "AVL01-List A Recall 3 Word 3", "submissionValue": "ADNI AVLT Test Name", "synonyms": ["ADNI AVLT - List A Recall 3 Word 3"]}, {"conceptId": "C101933", "definition": "Auditory Verbal Learning Test Version A - List A, Recall 3, Word 4.", "preferredTerm": "AVL01-List A Recall 3 Word 4", "submissionValue": "ADNI AVLT Test Name", "synonyms": ["ADNI AVLT - List A Recall 3 Word 4"]}, {"conceptId": "C101934", "definition": "Auditory Verbal Learning Test Version A - List A, Recall 3, Word 5.", "preferredTerm": "AVL01-List A Recall 3 Word 5", "submissionValue": "ADNI AVLT Test Name", "synonyms": ["ADNI AVLT - List A Recall 3 Word 5"]}, {"conceptId": "C101935", "definition": "Auditory Verbal Learning Test Version A - List A, Recall 3, Word 6.", "preferredTerm": "AVL01-List A Recall 3 Word 6", "submissionValue": "ADNI AVLT Test Name", "synonyms": ["ADNI AVLT - List A Recall 3 Word 6"]}, {"conceptId": "C101936", "definition": "Auditory Verbal Learning Test Version A - List A, Recall 3, Word 7.", "preferredTerm": "AVL01-List A Recall 3 Word 7", "submissionValue": "ADNI AVLT Test Name", "synonyms": ["ADNI AVLT - List A Recall 3 Word 7"]}, {"conceptId": "C101937", "definition": "Auditory Verbal Learning Test Version A - List A, Recall 3, Word 8.", "preferredTerm": "AVL01-List A Recall 3 Word 8", "submissionValue": "ADNI AVLT Test Name", "synonyms": ["ADNI AVLT - List A Recall 3 Word 8"]}, {"conceptId": "C101938", "definition": "Auditory Verbal Learning Test Version A - List A, Recall 3, Word 9.", "preferredTerm": "AVL01-List A Recall 3 Word 9", "submissionValue": "ADNI AVLT Test Name", "synonyms": ["ADNI AVLT - List A Recall 3 Word 9"]}, {"conceptId": "C101962", "definition": "Auditory Verbal Learning Test Version A - The number of words recalled from List A, fourth attempt.", "preferredTerm": "AVL01-List A Recall 4 Total", "submissionValue": "ADNI AVLT Test Name", "synonyms": ["ADNI AVLT - List A Recall 4 Total"]}, {"conceptId": "C101947", "definition": "Auditory Verbal Learning Test Version A - List A, Recall 4, Word 1.", "preferredTerm": "AVL01-List A Recall 4 Word 1", "submissionValue": "ADNI AVLT Test Name", "synonyms": ["ADNI AVLT - List A Recall 4 Word 1"]}, {"conceptId": "C101956", "definition": "Auditory Verbal Learning Test Version A - List A, Recall 4, Word 10.", "preferredTerm": "AVL01-List A Recall 4 Word 10", "submissionValue": "ADNI AVLT Test Name", "synonyms": ["ADNI AVLT - List A Recall 4 Word 10"]}, {"conceptId": "C101957", "definition": "Auditory Verbal Learning Test Version A - List A, Recall 4, Word 11.", "preferredTerm": "AVL01-List A Recall 4 Word 11", "submissionValue": "ADNI AVLT Test Name", "synonyms": ["ADNI AVLT - List A Recall 4 Word 11"]}, {"conceptId": "C101958", "definition": "Auditory Verbal Learning Test Version A - List A, Recall 4, Word 12.", "preferredTerm": "AVL01-List A Recall 4 Word 12", "submissionValue": "ADNI AVLT Test Name", "synonyms": ["ADNI AVLT - List A Recall 4 Word 12"]}, {"conceptId": "C101959", "definition": "Auditory Verbal Learning Test Version A - List A, Recall 4, Word 13.", "preferredTerm": "AVL01-List A Recall 4 Word 13", "submissionValue": "ADNI AVLT Test Name", "synonyms": ["ADNI AVLT - List A Recall 4 Word 13"]}, {"conceptId": "C101960", "definition": "Auditory Verbal Learning Test Version A - List A, Recall 4, Word 14.", "preferredTerm": "AVL01-List A Recall 4 Word 14", "submissionValue": "ADNI AVLT Test Name", "synonyms": ["ADNI AVLT - List A Recall 4 Word 14"]}, {"conceptId": "C101961", "definition": "Auditory Verbal Learning Test Version A - List A, Recall 4, Word 15.", "preferredTerm": "AVL01-List A Recall 4 Word 15", "submissionValue": "ADNI AVLT Test Name", "synonyms": ["ADNI AVLT - List A Recall 4 Word 15"]}, {"conceptId": "C101948", "definition": "Auditory Verbal Learning Test Version A - List A, Recall 4, Word 2.", "preferredTerm": "AVL01-List A Recall 4 Word 2", "submissionValue": "ADNI AVLT Test Name", "synonyms": ["ADNI AVLT - List A Recall 4 Word 2"]}, {"conceptId": "C101949", "definition": "Auditory Verbal Learning Test Version A - List A, Recall 4, Word 3.", "preferredTerm": "AVL01-List A Recall 4 Word 3", "submissionValue": "ADNI AVLT Test Name", "synonyms": ["ADNI AVLT - List A Recall 4 Word 3"]}, {"conceptId": "C101950", "definition": "Auditory Verbal Learning Test Version A - List A, Recall 4, Word 4.", "preferredTerm": "AVL01-List A Recall 4 Word 4", "submissionValue": "ADNI AVLT Test Name", "synonyms": ["ADNI AVLT - List A Recall 4 Word 4"]}, {"conceptId": "C101951", "definition": "Auditory Verbal Learning Test Version A - List A, Recall 4, Word 5.", "preferredTerm": "AVL01-List A Recall 4 Word 5", "submissionValue": "ADNI AVLT Test Name", "synonyms": ["ADNI AVLT - List A Recall 4 Word 5"]}, {"conceptId": "C101952", "definition": "Auditory Verbal Learning Test Version A - List A, Recall 4, Word 6.", "preferredTerm": "AVL01-List A Recall 4 Word 6", "submissionValue": "ADNI AVLT Test Name", "synonyms": ["ADNI AVLT - List A Recall 4 Word 6"]}, {"conceptId": "C101953", "definition": "Auditory Verbal Learning Test Version A - List A, Recall 4, Word 7.", "preferredTerm": "AVL01-List A Recall 4 Word 7", "submissionValue": "ADNI AVLT Test Name", "synonyms": ["ADNI AVLT - List A Recall 4 Word 7"]}, {"conceptId": "C101954", "definition": "Auditory Verbal Learning Test Version A - List A, Recall 4, Word 8.", "preferredTerm": "AVL01-List A Recall 4 Word 8", "submissionValue": "ADNI AVLT Test Name", "synonyms": ["ADNI AVLT - List A Recall 4 Word 8"]}, {"conceptId": "C101955", "definition": "Auditory Verbal Learning Test Version A - List A, Recall 4, Word 9.", "preferredTerm": "AVL01-List A Recall 4 Word 9", "submissionValue": "ADNI AVLT Test Name", "synonyms": ["ADNI AVLT - List A Recall 4 Word 9"]}, {"conceptId": "C101979", "definition": "Auditory Verbal Learning Test Version A - The number of words recalled from List A, fifth attempt.", "preferredTerm": "AVL01-List A Recall 5 Total", "submissionValue": "ADNI AVLT Test Name", "synonyms": ["ADNI AVLT - List A Recall 5 Total"]}, {"conceptId": "C101964", "definition": "Auditory Verbal Learning Test Version A - List A, Recall 5, Word 1.", "preferredTerm": "AVL01-List A Recall 5 Word 1", "submissionValue": "ADNI AVLT Test Name", "synonyms": ["ADNI AVLT - List A Recall 5 Word 1"]}, {"conceptId": "C101973", "definition": "Auditory Verbal Learning Test Version A - List A, Recall 5, Word 10.", "preferredTerm": "AVL01-List A Recall 5 Word 10", "submissionValue": "ADNI AVLT Test Name", "synonyms": ["ADNI AVLT - List A Recall 5 Word 10"]}, {"conceptId": "C101974", "definition": "Auditory Verbal Learning Test Version A - List A, Recall 5, Word 11.", "preferredTerm": "AVL01-List A Recall 5 Word 11", "submissionValue": "ADNI AVLT Test Name", "synonyms": ["ADNI AVLT - List A Recall 5 Word 11"]}, {"conceptId": "C101975", "definition": "Auditory Verbal Learning Test Version A - List A, Recall 5, Word 12.", "preferredTerm": "AVL01-List A Recall 5 Word 12", "submissionValue": "ADNI AVLT Test Name", "synonyms": ["ADNI AVLT - List A Recall 5 Word 12"]}, {"conceptId": "C101976", "definition": "Auditory Verbal Learning Test Version A - List A, Recall 5, Word 13.", "preferredTerm": "AVL01-List A Recall 5 Word 13", "submissionValue": "ADNI AVLT Test Name", "synonyms": ["ADNI AVLT - List A Recall 5 Word 13"]}, {"conceptId": "C101977", "definition": "Auditory Verbal Learning Test Version A - List A, Recall 5, Word 14.", "preferredTerm": "AVL01-List A Recall 5 Word 14", "submissionValue": "ADNI AVLT Test Name", "synonyms": ["ADNI AVLT - List A Recall 5 Word 14"]}, {"conceptId": "C101978", "definition": "Auditory Verbal Learning Test Version A - List A, Recall 5, Word 15.", "preferredTerm": "AVL01-List A Recall 5 Word 15", "submissionValue": "ADNI AVLT Test Name", "synonyms": ["ADNI AVLT - List A Recall 5 Word 15"]}, {"conceptId": "C101965", "definition": "Auditory Verbal Learning Test Version A - List A, Recall 5, Word 2.", "preferredTerm": "AVL01-List A Recall 5 Word 2", "submissionValue": "ADNI AVLT Test Name", "synonyms": ["ADNI AVLT - List A Recall 5 Word 2"]}, {"conceptId": "C101966", "definition": "Auditory Verbal Learning Test Version A - List A, Recall 5, Word 3.", "preferredTerm": "AVL01-List A Recall 5 Word 3", "submissionValue": "ADNI AVLT Test Name", "synonyms": ["ADNI AVLT - List A Recall 5 Word 3"]}, {"conceptId": "C101967", "definition": "Auditory Verbal Learning Test Version A - List A, Recall 5, Word 4.", "preferredTerm": "AVL01-List A Recall 5 Word 4", "submissionValue": "ADNI AVLT Test Name", "synonyms": ["ADNI AVLT - List A Recall 5 Word 4"]}, {"conceptId": "C101968", "definition": "Auditory Verbal Learning Test Version A - List A, Recall 5, Word 5.", "preferredTerm": "AVL01-List A Recall 5 Word 5", "submissionValue": "ADNI AVLT Test Name", "synonyms": ["ADNI AVLT - List A Recall 5 Word 5"]}, {"conceptId": "C101969", "definition": "Auditory Verbal Learning Test Version A - List A, Recall 5, Word 6.", "preferredTerm": "AVL01-List A Recall 5 Word 6", "submissionValue": "ADNI AVLT Test Name", "synonyms": ["ADNI AVLT - List A Recall 5 Word 6"]}, {"conceptId": "C101970", "definition": "Auditory Verbal Learning Test Version A - List A, Recall 5, Word 7.", "preferredTerm": "AVL01-List A Recall 5 Word 7", "submissionValue": "ADNI AVLT Test Name", "synonyms": ["ADNI AVLT - List A Recall 5 Word 7"]}, {"conceptId": "C101971", "definition": "Auditory Verbal Learning Test Version A - List A, Recall 5, Word 8.", "preferredTerm": "AVL01-List A Recall 5 Word 8", "submissionValue": "ADNI AVLT Test Name", "synonyms": ["ADNI AVLT - List A Recall 5 Word 8"]}, {"conceptId": "C101972", "definition": "Auditory Verbal Learning Test Version A - List A, Recall 5, Word 9.", "preferredTerm": "AVL01-List A Recall 5 Word 9", "submissionValue": "ADNI AVLT Test Name", "synonyms": ["ADNI AVLT - List A Recall 5 Word 9"]}, {"conceptId": "C101996", "definition": "Auditory Verbal Learning Test Version A - The number of words recalled from List A, sixth attempt (after List B recall).", "preferredTerm": "AVL01-List A Recall 6 (After B) Total", "submissionValue": "ADNI AVLT Test Name", "synonyms": ["ADNI AVLT - List A Recall 6 (After B) Total"]}, {"conceptId": "C101981", "definition": "Auditory Verbal Learning Test Version A - List A, Recall 6 (after B Recall), Word 1.", "preferredTerm": "AVL01-List A Recall 6 (After B) Word 1", "submissionValue": "ADNI AVLT Test Name", "synonyms": ["ADNI AVLT - List A Recall 6 (After B) Word 1"]}, {"conceptId": "C101990", "definition": "Auditory Verbal Learning Test Version A - List A, Recall 6 (after B Recall), Word 10.", "preferredTerm": "AVL01-List A Recall 6 (After B) Word 10", "submissionValue": "ADNI AVLT Test Name", "synonyms": ["ADNI AVLT - List A Recall 6 (After B) Word 10"]}, {"conceptId": "C101991", "definition": "Auditory Verbal Learning Test Version A - List A, Recall 6 (after B Recall), Word 11.", "preferredTerm": "AVL01-List A Recall 6 (After B) Word 11", "submissionValue": "ADNI AVLT Test Name", "synonyms": ["ADNI AVLT - List A Recall 6 (After B) Word 11"]}, {"conceptId": "C101992", "definition": "Auditory Verbal Learning Test Version A - List A, Recall 6 (after B Recall), Word 12.", "preferredTerm": "AVL01-List A Recall 6 (After B) Word 12", "submissionValue": "ADNI AVLT Test Name", "synonyms": ["ADNI AVLT - List A Recall 6 (After B) Word 12"]}, {"conceptId": "C101993", "definition": "Auditory Verbal Learning Test Version A - List A, Recall 6 (after B Recall), Word 13.", "preferredTerm": "AVL01-List A Recall 6 (After B) Word 13", "submissionValue": "ADNI AVLT Test Name", "synonyms": ["ADNI AVLT - List A Recall 6 (After B) Word 13"]}, {"conceptId": "C101994", "definition": "Auditory Verbal Learning Test Version A - List A, Recall 6 (after B Recall), Word 14.", "preferredTerm": "AVL01-List A Recall 6 (After B) Word 14", "submissionValue": "ADNI AVLT Test Name", "synonyms": ["ADNI AVLT - List A Recall 6 (After B) Word 14"]}, {"conceptId": "C101995", "definition": "Auditory Verbal Learning Test Version A - List A, Recall 6 (after B Recall), Word 15.", "preferredTerm": "AVL01-List A Recall 6 (After B) Word 15", "submissionValue": "ADNI AVLT Test Name", "synonyms": ["ADNI AVLT - List A Recall 6 (After B) Word 15"]}, {"conceptId": "C101982", "definition": "Auditory Verbal Learning Test Version A - List A, Recall 6 (after B Recall), Word 2.", "preferredTerm": "AVL01-List A Recall 6 (After B) Word 2", "submissionValue": "ADNI AVLT Test Name", "synonyms": ["ADNI AVLT - List A Recall 6 (After B) Word 2"]}, {"conceptId": "C101983", "definition": "Auditory Verbal Learning Test Version A - List A, Recall 6 (after B Recall), Word 3.", "preferredTerm": "AVL01-List A Recall 6 (After B) Word 3", "submissionValue": "ADNI AVLT Test Name", "synonyms": ["ADNI AVLT - List A Recall 6 (After B) Word 3"]}, {"conceptId": "C101984", "definition": "Auditory Verbal Learning Test Version A - List A, Recall 6 (after B Recall), Word 4.", "preferredTerm": "AVL01-List A Recall 6 (After B) Word 4", "submissionValue": "ADNI AVLT Test Name", "synonyms": ["ADNI AVLT - List A Recall 6 (After B) Word 4"]}, {"conceptId": "C101985", "definition": "Auditory Verbal Learning Test Version A - List A, Recall 6 (after B Recall), Word 5.", "preferredTerm": "AVL01-List A Recall 6 (After B) Word 5", "submissionValue": "ADNI AVLT Test Name", "synonyms": ["ADNI AVLT - List A Recall 6 (After B) Word 5"]}, {"conceptId": "C101986", "definition": "Auditory Verbal Learning Test Version A - List A, Recall 6 (after B Recall), Word 6.", "preferredTerm": "AVL01-List A Recall 6 (After B) Word 6", "submissionValue": "ADNI AVLT Test Name", "synonyms": ["ADNI AVLT - List A Recall 6 (After B) Word 6"]}, {"conceptId": "C101987", "definition": "Auditory Verbal Learning Test Version A - List A, Recall 6 (after B Recall), Word 7.", "preferredTerm": "AVL01-List A Recall 6 (After B) Word 7", "submissionValue": "ADNI AVLT Test Name", "synonyms": ["ADNI AVLT - List A Recall 6 (After B) Word 7"]}, {"conceptId": "C101988", "definition": "Auditory Verbal Learning Test Version A - List A, Recall 6 (after B Recall), Word 8.", "preferredTerm": "AVL01-List A Recall 6 (After B) Word 8", "submissionValue": "ADNI AVLT Test Name", "synonyms": ["ADNI AVLT - List A Recall 6 (After B) Word 8"]}, {"conceptId": "C101989", "definition": "Auditory Verbal Learning Test Version A - List A, Recall 6 (after B Recall), Word 9.", "preferredTerm": "AVL01-List A Recall 6 (After B) Word 9", "submissionValue": "ADNI AVLT Test Name", "synonyms": ["ADNI AVLT - List A Recall 6 (After B) Word 9"]}, {"conceptId": "C102033", "definition": "Auditory Verbal Learning Test Version A - The number of intrusions on recognition test.", "preferredTerm": "AVL01-List A Recognition Intrusions", "submissionValue": "ADNI AVLT Test Name", "synonyms": ["ADNI AVLT - List A Recognition Intrusions"]}, {"conceptId": "C102032", "definition": "Auditory Verbal Learning Test Version A - The number of words correct on recognition test.", "preferredTerm": "AVL01-List A Recognition Total", "submissionValue": "ADNI AVLT Test Name", "synonyms": ["ADNI AVLT - List A Recognition Total"]}, {"conceptId": "C102014", "definition": "Auditory Verbal Learning Test Version A - The number of intrusions while recalling List B.", "preferredTerm": "AVL01-List B Intrusions", "submissionValue": "ADNI AVLT Test Name", "synonyms": ["ADNI AVLT - List B Intrusions"]}, {"conceptId": "C102013", "definition": "Auditory Verbal Learning Test Version A - The number of words recalled from List B.", "preferredTerm": "AVL01-List B Recall Total", "submissionValue": "ADNI AVLT Test Name", "synonyms": ["ADNI AVLT - List B Recall Total"]}, {"conceptId": "C101998", "definition": "Auditory Verbal Learning Test Version A - List B, Word 1.", "preferredTerm": "AVL01-List B Recall Word 1", "submissionValue": "ADNI AVLT Test Name", "synonyms": ["ADNI AVLT - List B Recall Word 1"]}, {"conceptId": "C102007", "definition": "Auditory Verbal Learning Test Version A - List B, Word 10.", "preferredTerm": "AVL01-List B Recall Word 10", "submissionValue": "ADNI AVLT Test Name", "synonyms": ["ADNI AVLT - List B Recall Word 10"]}, {"conceptId": "C102008", "definition": "Auditory Verbal Learning Test Version A - List B, Word 11.", "preferredTerm": "AVL01-List B Recall Word 11", "submissionValue": "ADNI AVLT Test Name", "synonyms": ["ADNI AVLT - List B Recall Word 11"]}, {"conceptId": "C102009", "definition": "Auditory Verbal Learning Test Version A - List B, Word 12.", "preferredTerm": "AVL01-List B Recall Word 12", "submissionValue": "ADNI AVLT Test Name", "synonyms": ["ADNI AVLT - List B Recall Word 12"]}, {"conceptId": "C102010", "definition": "Auditory Verbal Learning Test Version A - List B, Word 13.", "preferredTerm": "AVL01-List B Recall Word 13", "submissionValue": "ADNI AVLT Test Name", "synonyms": ["ADNI AVLT - List B Recall Word 13"]}, {"conceptId": "C102011", "definition": "Auditory Verbal Learning Test Version A - List B, Word 14.", "preferredTerm": "AVL01-List B Recall Word 14", "submissionValue": "ADNI AVLT Test Name", "synonyms": ["ADNI AVLT - List B Recall Word 14"]}, {"conceptId": "C102012", "definition": "Auditory Verbal Learning Test Version A - List B, Word 15.", "preferredTerm": "AVL01-List B Recall Word 15", "submissionValue": "ADNI AVLT Test Name", "synonyms": ["ADNI AVLT - List B Recall Word 15"]}, {"conceptId": "C101999", "definition": "Auditory Verbal Learning Test Version A - List B, Word 2.", "preferredTerm": "AVL01-List B Recall Word 2", "submissionValue": "ADNI AVLT Test Name", "synonyms": ["ADNI AVLT - List B Recall Word 2"]}, {"conceptId": "C102000", "definition": "Auditory Verbal Learning Test Version A - List B, Word 3.", "preferredTerm": "AVL01-List B Recall Word 3", "submissionValue": "ADNI AVLT Test Name", "synonyms": ["ADNI AVLT - List B Recall Word 3"]}, {"conceptId": "C102001", "definition": "Auditory Verbal Learning Test Version A - List B, Word 4.", "preferredTerm": "AVL01-List B Recall Word 4", "submissionValue": "ADNI AVLT Test Name", "synonyms": ["ADNI AVLT - List B Recall Word 4"]}, {"conceptId": "C102002", "definition": "Auditory Verbal Learning Test Version A - List B, Word 5.", "preferredTerm": "AVL01-List B Recall Word 5", "submissionValue": "ADNI AVLT Test Name", "synonyms": ["ADNI AVLT - List B Recall Word 5"]}, {"conceptId": "C102003", "definition": "Auditory Verbal Learning Test Version A - List B, Word 6.", "preferredTerm": "AVL01-List B Recall Word 6", "submissionValue": "ADNI AVLT Test Name", "synonyms": ["ADNI AVLT - List B Recall Word 6"]}, {"conceptId": "C102004", "definition": "Auditory Verbal Learning Test Version A - List B, Word 7.", "preferredTerm": "AVL01-List B Recall Word 7", "submissionValue": "ADNI AVLT Test Name", "synonyms": ["ADNI AVLT - List B Recall Word 7"]}, {"conceptId": "C102005", "definition": "Auditory Verbal Learning Test Version A - List B, Word 8.", "preferredTerm": "AVL01-List B Recall Word 8", "submissionValue": "ADNI AVLT Test Name", "synonyms": ["ADNI AVLT - List B Recall Word 8"]}, {"conceptId": "C102006", "definition": "Auditory Verbal Learning Test Version A - List B, Word 9.", "preferredTerm": "AVL01-List B Recall Word 9", "submissionValue": "ADNI AVLT Test Name", "synonyms": ["ADNI AVLT - List B Recall Word 9"]}]}, {"conceptId": "", "definition": "Airway Questionnaire 20 test code.", "extensible": "No", "name": "Airway Questionnaire 20 Test Code", "preferredTerm": "Airway Questionnaire 20 Test Code", "submissionValue": "Airway Questionnaire 20 Test Code", "synonyms": ["CDISC Questionnaire AQ20 Test Code Terminology"], "terms": [{"conceptId": "C112529", "definition": "Airway Questionnaire 20 - Do you cough often during the day?", "preferredTerm": "AQ01-Cough Often During Day", "submissionValue": "Airway Questionnaire 20 Test Code", "synonyms": ["AQ20 - Cough Often During the Day"]}, {"conceptId": "C112530", "definition": "Airway Questionnaire 20 - Does your chest trouble often make you feel restless?", "preferredTerm": "AQ01-Feel Restless Due to Chest Trouble", "submissionValue": "Airway Questionnaire 20 Test Code", "synonyms": ["AQ20 - Chest Trouble Make You Feel Restless"]}, {"conceptId": "C112531", "definition": "Airway Questionnaire 20 - Does gardening make you breathless?", "preferredTerm": "AQ01-Gardening Make You Breathless", "submissionValue": "Airway Questionnaire 20 Test Code", "synonyms": ["AQ20 - Gardening Make You Breathless"]}, {"conceptId": "C112532", "definition": "Airway Questionnaire 20 - Do you worry when going to a friend's house that there might be something there that will upset your chest?", "preferredTerm": "AQ01-Chest Upset at Friend House", "submissionValue": "Airway Questionnaire 20 Test Code", "synonyms": ["AQ20 - Worry When Going to Friend House Something Will Upset Your Chest"]}, {"conceptId": "C112533", "definition": "Airway Questionnaire 20 - Do you get chest problems when you come into contact with strong smells, exhaust fumes, cigarette smoke, perfume etc?", "preferredTerm": "AQ01-Chest Prob Smell/Fume/Smoke/Perfume", "submissionValue": "Airway Questionnaire 20 Test Code", "synonyms": ["AQ20 - Get Chest Problems When Contact With Strong Smells"]}, {"conceptId": "C112534", "definition": "Airway Questionnaire 20 - Does your partner find your chest trouble upsetting?", "preferredTerm": "AQ01-Partner Upset by Your Chest Trouble", "submissionValue": "Airway Questionnaire 20 Test Code", "synonyms": ["AQ20 - Partner Find Your Chest Trouble Upsetting"]}, {"conceptId": "C112535", "definition": "Airway Questionnaire 20 - Do you feel breathless when trying to sleep?", "preferredTerm": "AQ01-Breathless When Trying to Sleep", "submissionValue": "Airway Questionnaire 20 Test Code", "synonyms": ["AQ20 - Feel Breathless When Trying to Sleep"]}, {"conceptId": "C112536", "definition": "Airway Questionnaire 20 - Do you worry about the long term effects of the drugs you take for your chest trouble?", "preferredTerm": "AQ01-Long Term Effects of Drugs", "submissionValue": "Airway Questionnaire 20 Test Code", "synonyms": ["AQ20 - Worry About Long Term Effects of Drugs for Chest Trouble"]}, {"conceptId": "C112537", "definition": "Airway Questionnaire 20 - Does getting emotionally upset make your chest trouble worse?", "preferredTerm": "AQ01-Emotional Upset Worse Chest Trouble", "submissionValue": "Airway Questionnaire 20 Test Code", "synonyms": ["AQ20 - Getting Emotionally Upset Make Chest Trouble Worse"]}, {"conceptId": "C112538", "definition": "Airway Questionnaire 20 - Are there times when you have difficulty getting around the house because of your chest trouble?", "preferredTerm": "AQ01-Difficulty Getting Around the House", "submissionValue": "Airway Questionnaire 20 Test Code", "synonyms": ["AQ20 - Difficulty Getting Around the House Because of Chest Trouble"]}, {"conceptId": "C112539", "definition": "Airway Questionnaire 20 - Does your chest problem make you breathless when you do things at work? (paid employment).", "preferredTerm": "AQ01-Breathless Carry out Work Activity", "submissionValue": "Airway Questionnaire 20 Test Code", "synonyms": ["AQ20 - Chest Problem Make You Breathless at Work"]}, {"conceptId": "C112540", "definition": "Airway Questionnaire 20 - Does walking upstairs make you breathless?", "preferredTerm": "AQ01-Breathless Walking Upstairs", "submissionValue": "Airway Questionnaire 20 Test Code", "synonyms": ["AQ20 - Walking Upstairs Make You Breathless"]}, {"conceptId": "C112541", "definition": "Airway Questionnaire 20 - Do you get breathless doing housework?", "preferredTerm": "AQ01-Get Breathless Doing Housework", "submissionValue": "Airway Questionnaire 20 Test Code", "synonyms": ["AQ20 - Get Breathless Doing Housework"]}, {"conceptId": "C112542", "definition": "Airway Questionnaire 20 - Does your chest trouble make you go home sooner than others after a night out?", "preferredTerm": "AQ01-Go Home Sooner Than Others", "submissionValue": "Airway Questionnaire 20 Test Code", "synonyms": ["AQ20 - Chest Trouble Make You Go Home Sooner Than Others"]}, {"conceptId": "C112543", "definition": "Airway Questionnaire 20 - Do you suffer from breathlessness when you laugh?", "preferredTerm": "AQ01-Breathlessness When Laugh", "submissionValue": "Airway Questionnaire 20 Test Code", "synonyms": ["AQ20 - Suffer From Breathlessness When Laugh"]}, {"conceptId": "C112544", "definition": "Airway Questionnaire 20 - Does your chest trouble often make you feel impatient?", "preferredTerm": "AQ01-Impatient Due to Chest Trouble", "submissionValue": "Airway Questionnaire 20 Test Code", "synonyms": ["AQ20 - Chest Trouble Make You Feel Impatient"]}, {"conceptId": "C112545", "definition": "Airway Questionnaire 20 - Do you think the fullness of your life is limited by your chest trouble?", "preferredTerm": "AQ01-Full Life Limited by Chest Trouble", "submissionValue": "Airway Questionnaire 20 Test Code", "synonyms": ["AQ20 - Fullness of Life is Limited by Chest Trouble"]}, {"conceptId": "C112546", "definition": "Airway Questionnaire 20 - Do you feel drained after a cold because of your chest trouble?", "preferredTerm": "AQ01-Drained After a Cold", "submissionValue": "Airway Questionnaire 20 Test Code", "synonyms": ["AQ20 - Feel Drained After a Cold Because of Chest Trouble"]}, {"conceptId": "C112547", "definition": "Airway Questionnaire 20 - Do you have a feeling of chest heaviness?", "preferredTerm": "AQ01-Feeling of Chest Heaviness", "submissionValue": "Airway Questionnaire 20 Test Code", "synonyms": ["AQ20 - Feeling of Chest Heaviness"]}, {"conceptId": "C112548", "definition": "Airway Questionnaire 20 - Do you worry a lot about your chest trouble?", "preferredTerm": "AQ01-Worry About Chest Trouble", "submissionValue": "Airway Questionnaire 20 Test Code", "synonyms": ["AQ20 - Worry a Lot About Chest Trouble"]}]}, {"conceptId": "", "definition": "Airway Questionnaire 20 test name.", "extensible": "No", "name": "Airway Questionnaire 20 Test Name", "preferredTerm": "Airway Questionnaire 20 Test Name", "submissionValue": "Airway Questionnaire 20 Test Name", "synonyms": ["CDISC Questionnaire AQ20 Test Name Terminology"], "terms": [{"conceptId": "C112539", "definition": "Airway Questionnaire 20 - Does your chest problem make you breathless when you do things at work? (paid employment).", "preferredTerm": "AQ01-Breathless Carry out Work Activity", "submissionValue": "Airway Questionnaire 20 Test Name", "synonyms": ["AQ20 - Chest Problem Make You Breathless at Work"]}, {"conceptId": "C112540", "definition": "Airway Questionnaire 20 - Does walking upstairs make you breathless?", "preferredTerm": "AQ01-Breathless Walking Upstairs", "submissionValue": "Airway Questionnaire 20 Test Name", "synonyms": ["AQ20 - Walking Upstairs Make You Breathless"]}, {"conceptId": "C112535", "definition": "Airway Questionnaire 20 - Do you feel breathless when trying to sleep?", "preferredTerm": "AQ01-Breathless When Trying to Sleep", "submissionValue": "Airway Questionnaire 20 Test Name", "synonyms": ["AQ20 - Feel Breathless When Trying to Sleep"]}, {"conceptId": "C112543", "definition": "Airway Questionnaire 20 - Do you suffer from breathlessness when you laugh?", "preferredTerm": "AQ01-Breathlessness When Laugh", "submissionValue": "Airway Questionnaire 20 Test Name", "synonyms": ["AQ20 - Suffer From Breathlessness When Laugh"]}, {"conceptId": "C112533", "definition": "Airway Questionnaire 20 - Do you get chest problems when you come into contact with strong smells, exhaust fumes, cigarette smoke, perfume etc?", "preferredTerm": "AQ01-Chest Prob Smell/Fume/Smoke/Perfume", "submissionValue": "Airway Questionnaire 20 Test Name", "synonyms": ["AQ20 - Get Chest Problems When Contact With Strong Smells"]}, {"conceptId": "C112532", "definition": "Airway Questionnaire 20 - Do you worry when going to a friend's house that there might be something there that will upset your chest?", "preferredTerm": "AQ01-Chest Upset at Friend House", "submissionValue": "Airway Questionnaire 20 Test Name", "synonyms": ["AQ20 - Worry When Going to Friend House Something Will Upset Your Chest"]}, {"conceptId": "C112529", "definition": "Airway Questionnaire 20 - Do you cough often during the day?", "preferredTerm": "AQ01-Cough Often During Day", "submissionValue": "Airway Questionnaire 20 Test Name", "synonyms": ["AQ20 - Cough Often During the Day"]}, {"conceptId": "C112538", "definition": "Airway Questionnaire 20 - Are there times when you have difficulty getting around the house because of your chest trouble?", "preferredTerm": "AQ01-Difficulty Getting Around the House", "submissionValue": "Airway Questionnaire 20 Test Name", "synonyms": ["AQ20 - Difficulty Getting Around the House Because of Chest Trouble"]}, {"conceptId": "C112546", "definition": "Airway Questionnaire 20 - Do you feel drained after a cold because of your chest trouble?", "preferredTerm": "AQ01-Drained After a Cold", "submissionValue": "Airway Questionnaire 20 Test Name", "synonyms": ["AQ20 - Feel Drained After a Cold Because of Chest Trouble"]}, {"conceptId": "C112537", "definition": "Airway Questionnaire 20 - Does getting emotionally upset make your chest trouble worse?", "preferredTerm": "AQ01-Emotional Upset Worse Chest Trouble", "submissionValue": "Airway Questionnaire 20 Test Name", "synonyms": ["AQ20 - Getting Emotionally Upset Make Chest Trouble Worse"]}, {"conceptId": "C112530", "definition": "Airway Questionnaire 20 - Does your chest trouble often make you feel restless?", "preferredTerm": "AQ01-Feel Restless Due to Chest Trouble", "submissionValue": "Airway Questionnaire 20 Test Name", "synonyms": ["AQ20 - Chest Trouble Make You Feel Restless"]}, {"conceptId": "C112547", "definition": "Airway Questionnaire 20 - Do you have a feeling of chest heaviness?", "preferredTerm": "AQ01-Feeling of Chest Heaviness", "submissionValue": "Airway Questionnaire 20 Test Name", "synonyms": ["AQ20 - Feeling of Chest Heaviness"]}, {"conceptId": "C112545", "definition": "Airway Questionnaire 20 - Do you think the fullness of your life is limited by your chest trouble?", "preferredTerm": "AQ01-Full Life Limited by Chest Trouble", "submissionValue": "Airway Questionnaire 20 Test Name", "synonyms": ["AQ20 - Fullness of Life is Limited by Chest Trouble"]}, {"conceptId": "C112531", "definition": "Airway Questionnaire 20 - Does gardening make you breathless?", "preferredTerm": "AQ01-Gardening Make You Breathless", "submissionValue": "Airway Questionnaire 20 Test Name", "synonyms": ["AQ20 - Gardening Make You Breathless"]}, {"conceptId": "C112541", "definition": "Airway Questionnaire 20 - Do you get breathless doing housework?", "preferredTerm": "AQ01-Get Breathless Doing Housework", "submissionValue": "Airway Questionnaire 20 Test Name", "synonyms": ["AQ20 - Get Breathless Doing Housework"]}, {"conceptId": "C112542", "definition": "Airway Questionnaire 20 - Does your chest trouble make you go home sooner than others after a night out?", "preferredTerm": "AQ01-Go Home Sooner Than Others", "submissionValue": "Airway Questionnaire 20 Test Name", "synonyms": ["AQ20 - Chest Trouble Make You Go Home Sooner Than Others"]}, {"conceptId": "C112544", "definition": "Airway Questionnaire 20 - Does your chest trouble often make you feel impatient?", "preferredTerm": "AQ01-Impatient Due to Chest Trouble", "submissionValue": "Airway Questionnaire 20 Test Name", "synonyms": ["AQ20 - Chest Trouble Make You Feel Impatient"]}, {"conceptId": "C112536", "definition": "Airway Questionnaire 20 - Do you worry about the long term effects of the drugs you take for your chest trouble?", "preferredTerm": "AQ01-Long Term Effects of Drugs", "submissionValue": "Airway Questionnaire 20 Test Name", "synonyms": ["AQ20 - Worry About Long Term Effects of Drugs for Chest Trouble"]}, {"conceptId": "C112534", "definition": "Airway Questionnaire 20 - Does your partner find your chest trouble upsetting?", "preferredTerm": "AQ01-Partner Upset by Your Chest Trouble", "submissionValue": "Airway Questionnaire 20 Test Name", "synonyms": ["AQ20 - Partner Find Your Chest Trouble Upsetting"]}, {"conceptId": "C112548", "definition": "Airway Questionnaire 20 - Do you worry a lot about your chest trouble?", "preferredTerm": "AQ01-Worry About Chest Trouble", "submissionValue": "Airway Questionnaire 20 Test Name", "synonyms": ["AQ20 - Worry a Lot About Chest Trouble"]}]}, {"conceptId": "", "definition": "ADAS-Cog CDISC Version test code.", "extensible": "No", "name": "Alzheimer's Disease Assessment Scale - Cognitive CDISC Version Test Code", "preferredTerm": "Alzheimer's Disease Assessment Scale - Cognitive CDISC Version Test Code", "submissionValue": "Alzheimer's Disease Assessment Scale - Cognitive CDISC Version Test Code", "synonyms": ["CDISC Questionnaire ADAS-Cog CDISC Version Test Code Terminology"], "terms": [{"conceptId": "C100209", "definition": "Alzheimer's Disease Assessment Scale-Cognitive CDISC Version - Summary score for commands.", "preferredTerm": "Commands", "submissionValue": "Alzheimer's Disease Assessment Scale - Cognitive CDISC Version Test Code", "synonyms": ["CDISC ADAS-Cog - Commands Summary Score"]}, {"conceptId": "C100210", "definition": "Alzheimer's Disease Assessment Scale-Cognitive CDISC Version - Commands task for making a fist.", "preferredTerm": "Commands: Fist", "submissionValue": "Alzheimer's Disease Assessment Scale - Cognitive CDISC Version Test Code", "synonyms": ["CDISC ADAS-Cog - Commands: Fist"]}, {"conceptId": "C100211", "definition": "Alzheimer's Disease Assessment Scale-Cognitive CDISC Version - Commands task for pointing to the ceiling then to the floor.", "preferredTerm": "Commands: Ceiling", "submissionValue": "Alzheimer's Disease Assessment Scale - Cognitive CDISC Version Test Code", "synonyms": ["CDISC ADAS-Cog - Commands: Ceiling"]}, {"conceptId": "C100212", "definition": "Alzheimer's Disease Assessment Scale-Cognitive CDISC Version - Commands task for put the pencil on top of the card and then put it back.", "preferredTerm": "Commands: Pencil", "submissionValue": "Alzheimer's Disease Assessment Scale - Cognitive CDISC Version Test Code", "synonyms": ["CDISC ADAS-Cog - Commands: Pencil"]}, {"conceptId": "C100213", "definition": "Alzheimer's Disease Assessment Scale-Cognitive CDISC Version - Commands task for put the watch on the other side of the pencil and then turn over the card.", "preferredTerm": "Commands: Watch", "submissionValue": "Alzheimer's Disease Assessment Scale - Cognitive CDISC Version Test Code", "synonyms": ["CDISC ADAS-Cog - Commands: Watch"]}, {"conceptId": "C100214", "definition": "Alzheimer's Disease Assessment Scale-Cognitive CDISC Version - Commands task for tap each shoulder twice with two fingers keeping your eyes shut.", "preferredTerm": "Commands: Shoulder", "submissionValue": "Alzheimer's Disease Assessment Scale - Cognitive CDISC Version Test Code", "synonyms": ["CDISC ADAS-Cog - Commands: Shoulder"]}, {"conceptId": "C100278", "definition": "Alzheimer's Disease Assessment Scale-Cognitive CDISC Version - Ability to comprehend speech.", "preferredTerm": "Comprehension", "submissionValue": "Alzheimer's Disease Assessment Scale - Cognitive CDISC Version Test Code", "synonyms": ["CDISC ADAS-Cog - Comprehension"]}, {"conceptId": "C100279", "definition": "Alzheimer's Disease Assessment Scale-Cognitive CDISC Version - Ability to concentrate or easily be distracted.", "preferredTerm": "Concentration/Distractibility", "submissionValue": "Alzheimer's Disease Assessment Scale - Cognitive CDISC Version Test Code", "synonyms": ["CDISC ADAS-Cog - Concentration/Distractibility"]}, {"conceptId": "C100226", "definition": "Alzheimer's Disease Assessment Scale-Cognitive CDISC Version - Summary score for constructional praxis.", "preferredTerm": "Constructional Praxis", "submissionValue": "Alzheimer's Disease Assessment Scale - Cognitive CDISC Version Test Code", "synonyms": ["CDISC ADAS-Cog - Constructional Praxis Summary Score"]}, {"conceptId": "C100227", "definition": "Alzheimer's Disease Assessment Scale-Cognitive CDISC Version - Constructional praxis task for copying a circle.", "preferredTerm": "Constructional Praxis: Circle", "submissionValue": "Alzheimer's Disease Assessment Scale - Cognitive CDISC Version Test Code", "synonyms": ["CDISC ADAS-Cog - Constructional Praxis: Circle"]}, {"conceptId": "C100228", "definition": "Alzheimer's Disease Assessment Scale-Cognitive CDISC Version - Constructional praxis task for copying two overlapping rectangles.", "preferredTerm": "Constructional Praxis: 2 Rectangles", "submissionValue": "Alzheimer's Disease Assessment Scale - Cognitive CDISC Version Test Code", "synonyms": ["CDISC ADAS-Cog - Constructional Praxis: 2 Rectangles"]}, {"conceptId": "C100229", "definition": "Alzheimer's Disease Assessment Scale-Cognitive CDISC Version - Constructional praxis task for copying a diamond.", "preferredTerm": "Constructional Praxis: Diamond", "submissionValue": "Alzheimer's Disease Assessment Scale - Cognitive CDISC Version Test Code", "synonyms": ["CDISC ADAS-Cog - Constructional Praxis: Diamond"]}, {"conceptId": "C100230", "definition": "Alzheimer's Disease Assessment Scale-Cognitive CDISC Version - Constructional praxis task for copying a cube.", "preferredTerm": "Constructional Praxis: Cube", "submissionValue": "Alzheimer's Disease Assessment Scale - Cognitive CDISC Version Test Code", "synonyms": ["CDISC ADAS-Cog - Constructional Praxis: Cube"]}, {"conceptId": "C100231", "definition": "Alzheimer's Disease Assessment Scale-Cognitive CDISC Version - Constructional praxis attempted to draw, but drew no forms correctly.", "preferredTerm": "Attempt to Draw", "submissionValue": "Alzheimer's Disease Assessment Scale - Cognitive CDISC Version Test Code", "synonyms": ["CDISC ADAS-Cog - Attempt to Draw"]}, {"conceptId": "C100277", "definition": "Alzheimer's Disease Assessment Scale-Cognitive CDISC Version - Difficulty finding the desired word in spontaneous speech.", "preferredTerm": "Word Finding Difficulty in Spont Speech", "submissionValue": "Alzheimer's Disease Assessment Scale - Cognitive CDISC Version Test Code", "synonyms": ["CDISC ADAS-Cog - Word Difficulty in Spontaneous Speech"]}, {"conceptId": "C100215", "definition": "Alzheimer's Disease Assessment Scale-Cognitive CDISC Version - Summary score for delayed word recall.", "preferredTerm": "Delayed Word Recall", "submissionValue": "Alzheimer's Disease Assessment Scale - Cognitive CDISC Version Test Code", "synonyms": ["CDISC ADAS-Cog - Delayed Word Recall Summary Score"]}, {"conceptId": "C100216", "definition": "Alzheimer's Disease Assessment Scale-Cognitive CDISC Version - Delayed word recall task for word 1.", "preferredTerm": "Delayed Word Recall: Word [1]", "submissionValue": "Alzheimer's Disease Assessment Scale - Cognitive CDISC Version Test Code", "synonyms": ["CDISC ADAS-Cog - Delayed Word Recall: Word 1"]}, {"conceptId": "C100217", "definition": "Alzheimer's Disease Assessment Scale-Cognitive CDISC Version - Delayed word recall task for word 2.", "preferredTerm": "Delayed Word Recall: Word [2]", "submissionValue": "Alzheimer's Disease Assessment Scale - Cognitive CDISC Version Test Code", "synonyms": ["CDISC ADAS-Cog - Delayed Word Recall: Word 2"]}, {"conceptId": "C100218", "definition": "Alzheimer's Disease Assessment Scale-Cognitive CDISC Version - Delayed word recall task for word 3.", "preferredTerm": "Delayed Word Recall: Word [3]", "submissionValue": "Alzheimer's Disease Assessment Scale - Cognitive CDISC Version Test Code", "synonyms": ["CDISC ADAS-Cog - Delayed Word Recall: Word 3"]}, {"conceptId": "C100219", "definition": "Alzheimer's Disease Assessment Scale-Cognitive CDISC Version - Delayed word recall task for word 4.", "preferredTerm": "Delayed Word Recall: Word [4]", "submissionValue": "Alzheimer's Disease Assessment Scale - Cognitive CDISC Version Test Code", "synonyms": ["CDISC ADAS-Cog - Delayed Word Recall: Word 4"]}, {"conceptId": "C100220", "definition": "Alzheimer's Disease Assessment Scale-Cognitive CDISC Version - Delayed word recall task for word 5.", "preferredTerm": "Delayed Word Recall: Word [5]", "submissionValue": "Alzheimer's Disease Assessment Scale - Cognitive CDISC Version Test Code", "synonyms": ["CDISC ADAS-Cog - Delayed Word Recall: Word 5"]}, {"conceptId": "C100221", "definition": "Alzheimer's Disease Assessment Scale-Cognitive CDISC Version - Delayed word recall task for word 6.", "preferredTerm": "Delayed Word Recall: Word [6]", "submissionValue": "Alzheimer's Disease Assessment Scale - Cognitive CDISC Version Test Code", "synonyms": ["CDISC ADAS-Cog - Delayed Word Recall: Word 6"]}, {"conceptId": "C100222", "definition": "Alzheimer's Disease Assessment Scale-Cognitive CDISC Version - Delayed word recall task for word 7.", "preferredTerm": "Delayed Word Recall: Word [7]", "submissionValue": "Alzheimer's Disease Assessment Scale - Cognitive CDISC Version Test Code", "synonyms": ["CDISC ADAS-Cog - Delayed Word Recall: Word 7"]}, {"conceptId": "C100223", "definition": "Alzheimer's Disease Assessment Scale-Cognitive CDISC Version - Delayed word recall task for word 8.", "preferredTerm": "Delayed Word Recall: Word [8]", "submissionValue": "Alzheimer's Disease Assessment Scale - Cognitive CDISC Version Test Code", "synonyms": ["CDISC ADAS-Cog - Delayed Word Recall: Word 8"]}, {"conceptId": "C100224", "definition": "Alzheimer's Disease Assessment Scale-Cognitive CDISC Version - Delayed word recall task for word 9.", "preferredTerm": "Delayed Word Recall: Word [9]", "submissionValue": "Alzheimer's Disease Assessment Scale - Cognitive CDISC Version Test Code", "synonyms": ["CDISC ADAS-Cog - Delayed Word Recall: Word 9"]}, {"conceptId": "C100225", "definition": "Alzheimer's Disease Assessment Scale-Cognitive CDISC Version - Delayed word recall task for word 10.", "preferredTerm": "Delayed Word Recall: Word [10]", "submissionValue": "Alzheimer's Disease Assessment Scale - Cognitive CDISC Version Test Code", "synonyms": ["CDISC ADAS-Cog - Delayed Word Recall: Word 10"]}, {"conceptId": "C100232", "definition": "Alzheimer's Disease Assessment Scale-Cognitive CDISC Version - Summary score for ideational praxis.", "preferredTerm": "Ideational Praxis", "submissionValue": "Alzheimer's Disease Assessment Scale - Cognitive CDISC Version Test Code", "synonyms": ["CDISC ADAS-Cog - Ideational Praxis Summary Score"]}, {"conceptId": "C100233", "definition": "Alzheimer's Disease Assessment Scale-Cognitive CDISC Version - Ideational praxis task for folding the paper.", "preferredTerm": "Ideational Praxis: Fold", "submissionValue": "Alzheimer's Disease Assessment Scale - Cognitive CDISC Version Test Code", "synonyms": ["CDISC ADAS-Cog - Ideational Praxis: Fold"]}, {"conceptId": "C100234", "definition": "Alzheimer's Disease Assessment Scale-Cognitive CDISC Version - Ideational praxis task for put the paper in the envelop.", "preferredTerm": "Ideational Praxis: Insert", "submissionValue": "Alzheimer's Disease Assessment Scale - Cognitive CDISC Version Test Code", "synonyms": ["CDISC ADAS-Cog - Ideational Praxis: Insert"]}, {"conceptId": "C100235", "definition": "Alzheimer's Disease Assessment Scale-Cognitive CDISC Version - Ideational praxis task for seal the envelop.", "preferredTerm": "Ideational Praxis: Seal", "submissionValue": "Alzheimer's Disease Assessment Scale - Cognitive CDISC Version Test Code", "synonyms": ["CDISC ADAS-Cog - Ideational Praxis: Seal"]}, {"conceptId": "C100236", "definition": "Alzheimer's Disease Assessment Scale-Cognitive CDISC Version - Ideational praxis task for address the envelop to yourself.", "preferredTerm": "Ideational Praxis: Address", "submissionValue": "Alzheimer's Disease Assessment Scale - Cognitive CDISC Version Test Code", "synonyms": ["CDISC ADAS-Cog - Ideational Praxis: Address"]}, {"conceptId": "C100237", "definition": "Alzheimer's Disease Assessment Scale-Cognitive CDISC Version - Ideational praxis task for showing where the stamp goes.", "preferredTerm": "Ideational Praxis: Stamp", "submissionValue": "Alzheimer's Disease Assessment Scale - Cognitive CDISC Version Test Code", "synonyms": ["CDISC ADAS-Cog - Ideational Praxis: Stamp"]}, {"conceptId": "C100284", "definition": "Alzheimer's Disease Assessment Scale-Cognitive CDISC Version - Summary score for the executive function maze tasks.", "preferredTerm": "Executive Function Maze", "submissionValue": "Alzheimer's Disease Assessment Scale - Cognitive CDISC Version Test Code", "synonyms": ["CDISC ADAS-Cog - Executive Function Maze Summary Score"]}, {"conceptId": "C100285", "definition": "Alzheimer's Disease Assessment Scale-Cognitive CDISC Version - Number of errors during the executive function maze task.", "preferredTerm": "Executive Function Maze: Errors", "submissionValue": "Alzheimer's Disease Assessment Scale - Cognitive CDISC Version Test Code", "synonyms": ["CDISC ADAS-Cog - Executive Function Maze: Errors"]}, {"conceptId": "C100286", "definition": "Alzheimer's Disease Assessment Scale-Cognitive CDISC Version - The time in seconds stored in ISO 8601 time for the executive function maze task.", "preferredTerm": "Executive Function Maze: Time", "submissionValue": "Alzheimer's Disease Assessment Scale - Cognitive CDISC Version Test Code", "synonyms": ["CDISC ADAS-Cog - Executive Function Maze: Time"]}, {"conceptId": "C100280", "definition": "Alzheimer's Disease Assessment Scale-Cognitive CDISC Version - Summary score for the number cancellation tasks.", "preferredTerm": "Number Cancellation", "submissionValue": "Alzheimer's Disease Assessment Scale - Cognitive CDISC Version Test Code", "synonyms": ["CDISC ADAS-Cog - Number Cancellation Summary Score"]}, {"conceptId": "C100281", "definition": "Alzheimer's Disease Assessment Scale-Cognitive CDISC Version - Number of targets hit during the number cancellation task.", "preferredTerm": "Number Cancellation: Correct", "submissionValue": "Alzheimer's Disease Assessment Scale - Cognitive CDISC Version Test Code", "synonyms": ["CDISC ADAS-Cog - Number Cancellation: Correct"]}, {"conceptId": "C100282", "definition": "Alzheimer's Disease Assessment Scale-Cognitive CDISC Version - Number of errors during the number cancellation task.", "preferredTerm": "Number Cancellation: Errors", "submissionValue": "Alzheimer's Disease Assessment Scale - Cognitive CDISC Version Test Code", "synonyms": ["CDISC ADAS-Cog - Number Cancellation: Errors"]}, {"conceptId": "C100283", "definition": "Alzheimer's Disease Assessment Scale-Cognitive CDISC Version - Number of times reminded for the number cancellation task.", "preferredTerm": "Number Cancellation: Remind", "submissionValue": "Alzheimer's Disease Assessment Scale - Cognitive CDISC Version Test Code", "synonyms": ["CDISC ADAS-Cog - Number Cancellation: Remind"]}, {"conceptId": "C100191", "definition": "Alzheimer's Disease Assessment Scale-Cognitive CDISC Version - Naming task summary score for object and fingers.", "preferredTerm": "Naming Objects and Fingers", "submissionValue": "Alzheimer's Disease Assessment Scale - Cognitive CDISC Version Test Code", "synonyms": ["CDISC ADAS-Cog - Naming Objects and Fingers Summary Score"]}, {"conceptId": "C100204", "definition": "Alzheimer's Disease Assessment Scale-Cognitive CDISC Version - Naming task for fingers of the dominant hand, thumb.", "preferredTerm": "Naming Objects and Fingers: Thumb", "submissionValue": "Alzheimer's Disease Assessment Scale - Cognitive CDISC Version Test Code", "synonyms": ["CDISC ADAS-Cog - Naming Objects and Fingers: Thumb"]}, {"conceptId": "C100205", "definition": "Alzheimer's Disease Assessment Scale-Cognitive CDISC Version - Naming task for fingers of the dominant hand, index, or pointer finger.", "preferredTerm": "Naming Objects and Fingers: Pointer", "submissionValue": "Alzheimer's Disease Assessment Scale - Cognitive CDISC Version Test Code", "synonyms": ["CDISC ADAS-Cog - Naming Objects and Fingers: Pointer"]}, {"conceptId": "C100206", "definition": "Alzheimer's Disease Assessment Scale-Cognitive CDISC Version - Naming task for fingers of the dominant hand, middle finger.", "preferredTerm": "Naming Objects and Fingers: Middle", "submissionValue": "Alzheimer's Disease Assessment Scale - Cognitive CDISC Version Test Code", "synonyms": ["CDISC ADAS-Cog - Naming Objects and Fingers: Middle"]}, {"conceptId": "C100207", "definition": "Alzheimer's Disease Assessment Scale-Cognitive CDISC Version - Naming task for fingers of the dominant hand, ring finger.", "preferredTerm": "Naming Objects and Fingers: Ring", "submissionValue": "Alzheimer's Disease Assessment Scale - Cognitive CDISC Version Test Code", "synonyms": ["CDISC ADAS-Cog - Naming Objects and Fingers: Ring"]}, {"conceptId": "C100208", "definition": "Alzheimer's Disease Assessment Scale-Cognitive CDISC Version - Naming task for fingers of the dominant hand, little finger or pinky.", "preferredTerm": "Naming Objects and Fingers: Pinky", "submissionValue": "Alzheimer's Disease Assessment Scale - Cognitive CDISC Version Test Code", "synonyms": ["CDISC ADAS-Cog - Naming Objects and Fingers: Pinky"]}, {"conceptId": "C100192", "definition": "Alzheimer's Disease Assessment Scale-Cognitive CDISC Version - Naming task for object 1.", "preferredTerm": "Naming Objects and Fingers: 1", "submissionValue": "Alzheimer's Disease Assessment Scale - Cognitive CDISC Version Test Code", "synonyms": ["CDISC ADAS-Cog - Naming Objects and Fingers: 1"]}, {"conceptId": "C100193", "definition": "Alzheimer's Disease Assessment Scale-Cognitive CDISC Version - Naming task for object 2.", "preferredTerm": "Naming Objects and Fingers: 2", "submissionValue": "Alzheimer's Disease Assessment Scale - Cognitive CDISC Version Test Code", "synonyms": ["CDISC ADAS-Cog - Naming Objects and Fingers: 2"]}, {"conceptId": "C100194", "definition": "Alzheimer's Disease Assessment Scale-Cognitive CDISC Version - Naming task for object 3.", "preferredTerm": "Naming Objects and Fingers: 3", "submissionValue": "Alzheimer's Disease Assessment Scale - Cognitive CDISC Version Test Code", "synonyms": ["CDISC ADAS-Cog - Naming Objects and Fingers: 3"]}, {"conceptId": "C100195", "definition": "Alzheimer's Disease Assessment Scale-Cognitive CDISC Version - Naming task for object 4.", "preferredTerm": "Naming Objects and Fingers: 4", "submissionValue": "Alzheimer's Disease Assessment Scale - Cognitive CDISC Version Test Code", "synonyms": ["CDISC ADAS-Cog - Naming Objects and Fingers: 4"]}, {"conceptId": "C100196", "definition": "Alzheimer's Disease Assessment Scale-Cognitive CDISC Version - Naming task for object 5.", "preferredTerm": "Naming Objects and Fingers: 5", "submissionValue": "Alzheimer's Disease Assessment Scale - Cognitive CDISC Version Test Code", "synonyms": ["CDISC ADAS-Cog - Naming Objects and Fingers: 5"]}, {"conceptId": "C100197", "definition": "Alzheimer's Disease Assessment Scale-Cognitive CDISC Version - Naming task for object 6.", "preferredTerm": "Naming Objects and Fingers: 6", "submissionValue": "Alzheimer's Disease Assessment Scale - Cognitive CDISC Version Test Code", "synonyms": ["CDISC ADAS-Cog - Naming Objects and Fingers: 6"]}, {"conceptId": "C100198", "definition": "Alzheimer's Disease Assessment Scale-Cognitive CDISC Version - Naming task for object 7.", "preferredTerm": "Naming Objects and Fingers: 7", "submissionValue": "Alzheimer's Disease Assessment Scale - Cognitive CDISC Version Test Code", "synonyms": ["CDISC ADAS-Cog - Naming Objects and Fingers: 7"]}, {"conceptId": "C100199", "definition": "Alzheimer's Disease Assessment Scale-Cognitive CDISC Version - Naming task for object 8.", "preferredTerm": "Naming Objects and Fingers: 8", "submissionValue": "Alzheimer's Disease Assessment Scale - Cognitive CDISC Version Test Code", "synonyms": ["CDISC ADAS-Cog - Naming Objects and Fingers: 8"]}, {"conceptId": "C100200", "definition": "Alzheimer's Disease Assessment Scale-Cognitive CDISC Version - Naming task for object 9.", "preferredTerm": "Naming Objects and Fingers: 9", "submissionValue": "Alzheimer's Disease Assessment Scale - Cognitive CDISC Version Test Code", "synonyms": ["CDISC ADAS-Cog - Naming Objects and Fingers: 9"]}, {"conceptId": "C100201", "definition": "Alzheimer's Disease Assessment Scale-Cognitive CDISC Version - Naming task for object 10.", "preferredTerm": "Naming Objects and Fingers: 10", "submissionValue": "Alzheimer's Disease Assessment Scale - Cognitive CDISC Version Test Code", "synonyms": ["CDISC ADAS-Cog - Naming Objects and Fingers: 10"]}, {"conceptId": "C100202", "definition": "Alzheimer's Disease Assessment Scale-Cognitive CDISC Version - Naming task for object 11.", "preferredTerm": "Naming Objects and Fingers: 11", "submissionValue": "Alzheimer's Disease Assessment Scale - Cognitive CDISC Version Test Code", "synonyms": ["CDISC ADAS-Cog - Naming Objects and Fingers: 11"]}, {"conceptId": "C100203", "definition": "Alzheimer's Disease Assessment Scale-Cognitive CDISC Version - Naming task for object 12.", "preferredTerm": "Naming Objects and Fingers: 12", "submissionValue": "Alzheimer's Disease Assessment Scale - Cognitive CDISC Version Test Code", "synonyms": ["CDISC ADAS-Cog - Naming Objects and Fingers: 12"]}, {"conceptId": "C100238", "definition": "Alzheimer's Disease Assessment Scale-Cognitive CDISC Version - Summary score for orientation.", "preferredTerm": "Orientation", "submissionValue": "Alzheimer's Disease Assessment Scale - Cognitive CDISC Version Test Code", "synonyms": ["CDISC ADAS-Cog - Orientation Summary Score"]}, {"conceptId": "C100239", "definition": "Alzheimer's Disease Assessment Scale-Cognitive CDISC Version - Orientation task for knowing one's own full name.", "preferredTerm": "Orientation: Full Name", "submissionValue": "Alzheimer's Disease Assessment Scale - Cognitive CDISC Version Test Code", "synonyms": ["CDISC ADAS-Cog - Orientation: Full Name"]}, {"conceptId": "C100240", "definition": "Alzheimer's Disease Assessment Scale-Cognitive CDISC Version - Orientation task for knowing the current month.", "preferredTerm": "Orientation: Month", "submissionValue": "Alzheimer's Disease Assessment Scale - Cognitive CDISC Version Test Code", "synonyms": ["CDISC ADAS-Cog - Orientation: Month"]}, {"conceptId": "C100241", "definition": "Alzheimer's Disease Assessment Scale-Cognitive CDISC Version - Orientation task for knowing the current day.", "preferredTerm": "Orientation: Date", "submissionValue": "Alzheimer's Disease Assessment Scale - Cognitive CDISC Version Test Code", "synonyms": ["CDISC ADAS-Cog - Orientation: Date"]}, {"conceptId": "C100242", "definition": "Alzheimer's Disease Assessment Scale-Cognitive CDISC Version - Orientation task for knowing the current year.", "preferredTerm": "Orientation: Year", "submissionValue": "Alzheimer's Disease Assessment Scale - Cognitive CDISC Version Test Code", "synonyms": ["CDISC ADAS-Cog - Orientation: Year"]}, {"conceptId": "C100243", "definition": "Alzheimer's Disease Assessment Scale-Cognitive CDISC Version - Orientation task for knowing the current day of the week.", "preferredTerm": "Orientation: Day of Week", "submissionValue": "Alzheimer's Disease Assessment Scale - Cognitive CDISC Version Test Code", "synonyms": ["CDISC ADAS-Cog - Orientation: Day of Week"]}, {"conceptId": "C100244", "definition": "Alzheimer's Disease Assessment Scale-Cognitive CDISC Version - Orientation task for knowing the current season.", "preferredTerm": "Orientation: Season", "submissionValue": "Alzheimer's Disease Assessment Scale - Cognitive CDISC Version Test Code", "synonyms": ["CDISC ADAS-Cog - Orientation: Season"]}, {"conceptId": "C100245", "definition": "Alzheimer's Disease Assessment Scale-Cognitive CDISC Version - Orientation task for knowing the current place.", "preferredTerm": "Orientation: Place", "submissionValue": "Alzheimer's Disease Assessment Scale - Cognitive CDISC Version Test Code", "synonyms": ["CDISC ADAS-Cog - Orientation: Place"]}, {"conceptId": "C100246", "definition": "Alzheimer's Disease Assessment Scale-Cognitive CDISC Version - Orientation task for knowing the approximate current clock time.", "preferredTerm": "Orientation: Time", "submissionValue": "Alzheimer's Disease Assessment Scale - Cognitive CDISC Version Test Code", "synonyms": ["CDISC ADAS-Cog - Orientation: Time"]}, {"conceptId": "C100247", "definition": "Alzheimer's Disease Assessment Scale-Cognitive CDISC Version - Summary score for word recognition across trials 1-3.", "preferredTerm": "Word Recognition", "submissionValue": "Alzheimer's Disease Assessment Scale - Cognitive CDISC Version Test Code", "synonyms": ["CDISC ADAS-Cog - Word Recognition Summary Score"]}, {"conceptId": "C100248", "definition": "Alzheimer's Disease Assessment Scale-Cognitive CDISC Version - Sub-score for word recognition trial 1.", "preferredTerm": "Word Recognition Trial 1", "submissionValue": "Alzheimer's Disease Assessment Scale - Cognitive CDISC Version Test Code", "synonyms": ["CDISC ADAS-Cog - Word Recognition Trial 1 Summary Score"]}, {"conceptId": "C100249", "definition": "Alzheimer's Disease Assessment Scale-Cognitive CDISC Version - Sub-score for word recognition trial 2.", "preferredTerm": "Word Recognition Trial 2", "submissionValue": "Alzheimer's Disease Assessment Scale - Cognitive CDISC Version Test Code", "synonyms": ["CDISC ADAS-Cog - Word Recognition Trial 2 Summary Score"]}, {"conceptId": "C100250", "definition": "Alzheimer's Disease Assessment Scale-Cognitive CDISC Version - Sub-score for word recognition trial 3.", "preferredTerm": "Word Recognition Trial 3", "submissionValue": "Alzheimer's Disease Assessment Scale - Cognitive CDISC Version Test Code", "synonyms": ["CDISC ADAS-Cog - Word Recognition Trial 3 Summary Score"]}, {"conceptId": "C100251", "definition": "Alzheimer's Disease Assessment Scale-Cognitive CDISC Version - Word recognition task for word 1 Trials 1, 2, 3.", "preferredTerm": "Word Recognition: Word [1]", "submissionValue": "Alzheimer's Disease Assessment Scale - Cognitive CDISC Version Test Code", "synonyms": ["CDISC ADAS-Cog - Word Recognition: Word 1"]}, {"conceptId": "C100252", "definition": "Alzheimer's Disease Assessment Scale-Cognitive CDISC Version - Word recognition task for word 2 Trials 1, 2, 3.", "preferredTerm": "Word Recognition: Word [2]", "submissionValue": "Alzheimer's Disease Assessment Scale - Cognitive CDISC Version Test Code", "synonyms": ["CDISC ADAS-Cog - Word Recognition: Word 2"]}, {"conceptId": "C100253", "definition": "Alzheimer's Disease Assessment Scale-Cognitive CDISC Version - Word recognition task for word 3 Trials 1, 2, 3.", "preferredTerm": "Word Recognition: Word [3]", "submissionValue": "Alzheimer's Disease Assessment Scale - Cognitive CDISC Version Test Code", "synonyms": ["CDISC ADAS-Cog - Word Recognition: Word 3"]}, {"conceptId": "C100254", "definition": "Alzheimer's Disease Assessment Scale-Cognitive CDISC Version - Word recognition task for word 4 Trials 1, 2, 3.", "preferredTerm": "Word Recognition: Word [4]", "submissionValue": "Alzheimer's Disease Assessment Scale - Cognitive CDISC Version Test Code", "synonyms": ["CDISC ADAS-Cog - Word Recognition: Word 4"]}, {"conceptId": "C100255", "definition": "Alzheimer's Disease Assessment Scale-Cognitive CDISC Version - Word recognition task for word 5 Trials 1, 2, 3.", "preferredTerm": "Word Recognition: Word [5]", "submissionValue": "Alzheimer's Disease Assessment Scale - Cognitive CDISC Version Test Code", "synonyms": ["CDISC ADAS-Cog - Word Recognition: Word 5"]}, {"conceptId": "C100256", "definition": "Alzheimer's Disease Assessment Scale-Cognitive CDISC Version - Word recognition task for word 6 Trials 1, 2, 3.", "preferredTerm": "Word Recognition: Word [6]", "submissionValue": "Alzheimer's Disease Assessment Scale - Cognitive CDISC Version Test Code", "synonyms": ["CDISC ADAS-Cog - Word Recognition: Word 6"]}, {"conceptId": "C100257", "definition": "Alzheimer's Disease Assessment Scale-Cognitive CDISC Version - Word recognition task for word 7 Trials 1, 2, 3.", "preferredTerm": "Word Recognition: Word [7]", "submissionValue": "Alzheimer's Disease Assessment Scale - Cognitive CDISC Version Test Code", "synonyms": ["CDISC ADAS-Cog - Word Recognition: Word 7"]}, {"conceptId": "C100258", "definition": "Alzheimer's Disease Assessment Scale-Cognitive CDISC Version - Word recognition task for word 8 Trials 1, 2, 3.", "preferredTerm": "Word Recognition: Word [8]", "submissionValue": "Alzheimer's Disease Assessment Scale - Cognitive CDISC Version Test Code", "synonyms": ["CDISC ADAS-Cog - Word Recognition: Word 8"]}, {"conceptId": "C100259", "definition": "Alzheimer's Disease Assessment Scale-Cognitive CDISC Version - Word recognition task for word 9 Trials 1, 2, 3.", "preferredTerm": "Word Recognition: Word [9]", "submissionValue": "Alzheimer's Disease Assessment Scale - Cognitive CDISC Version Test Code", "synonyms": ["CDISC ADAS-Cog - Word Recognition: Word 9"]}, {"conceptId": "C100260", "definition": "Alzheimer's Disease Assessment Scale-Cognitive CDISC Version - Word recognition task for word 10 Trials 1, 2, 3.", "preferredTerm": "Word Recognition: Word [10]", "submissionValue": "Alzheimer's Disease Assessment Scale - Cognitive CDISC Version Test Code", "synonyms": ["CDISC ADAS-Cog - Word Recognition: Word 10"]}, {"conceptId": "C100261", "definition": "Alzheimer's Disease Assessment Scale-Cognitive CDISC Version - Word recognition task for word 11 Trials 1, 2, 3.", "preferredTerm": "Word Recognition: Word [11]", "submissionValue": "Alzheimer's Disease Assessment Scale - Cognitive CDISC Version Test Code", "synonyms": ["CDISC ADAS-Cog - Word Recognition: Word 11"]}, {"conceptId": "C100262", "definition": "Alzheimer's Disease Assessment Scale-Cognitive CDISC Version - Word recognition task for word 12 Trials 1, 2, 3.", "preferredTerm": "Word Recognition: Word [12]", "submissionValue": "Alzheimer's Disease Assessment Scale - Cognitive CDISC Version Test Code", "synonyms": ["CDISC ADAS-Cog - Word Recognition: Word 12"]}, {"conceptId": "C100263", "definition": "Alzheimer's Disease Assessment Scale-Cognitive CDISC Version - Word recognition task for word 13 Trials 1, 2, 3.", "preferredTerm": "Word Recognition: Word [13]", "submissionValue": "Alzheimer's Disease Assessment Scale - Cognitive CDISC Version Test Code", "synonyms": ["CDISC ADAS-Cog - Word Recognition: Word 13"]}, {"conceptId": "C100264", "definition": "Alzheimer's Disease Assessment Scale-Cognitive CDISC Version - Word recognition task for word 14 Trials 1, 2, 3.", "preferredTerm": "Word Recognition: Word [14]", "submissionValue": "Alzheimer's Disease Assessment Scale - Cognitive CDISC Version Test Code", "synonyms": ["CDISC ADAS-Cog - Word Recognition: Word 14"]}, {"conceptId": "C100265", "definition": "Alzheimer's Disease Assessment Scale-Cognitive CDISC Version - Word recognition task for word 15 Trials 1, 2, 3.", "preferredTerm": "Word Recognition: Word [15]", "submissionValue": "Alzheimer's Disease Assessment Scale - Cognitive CDISC Version Test Code", "synonyms": ["CDISC ADAS-Cog - Word Recognition: Word 15"]}, {"conceptId": "C100266", "definition": "Alzheimer's Disease Assessment Scale-Cognitive CDISC Version - Word recognition task for word 16 Trials 1, 2, 3.", "preferredTerm": "Word Recognition: Word [16]", "submissionValue": "Alzheimer's Disease Assessment Scale - Cognitive CDISC Version Test Code", "synonyms": ["CDISC ADAS-Cog - Word Recognition: Word 16"]}, {"conceptId": "C100267", "definition": "Alzheimer's Disease Assessment Scale-Cognitive CDISC Version - Word recognition task for word 17 Trials 1, 2, 3.", "preferredTerm": "Word Recognition: Word [17]", "submissionValue": "Alzheimer's Disease Assessment Scale - Cognitive CDISC Version Test Code", "synonyms": ["CDISC ADAS-Cog - Word Recognition: Word 17"]}, {"conceptId": "C100268", "definition": "Alzheimer's Disease Assessment Scale-Cognitive CDISC Version - Word recognition task for word 18 Trials 1, 2, 3.", "preferredTerm": "Word Recognition: Word [18]", "submissionValue": "Alzheimer's Disease Assessment Scale - Cognitive CDISC Version Test Code", "synonyms": ["CDISC ADAS-Cog - Word Recognition: Word 18"]}, {"conceptId": "C100269", "definition": "Alzheimer's Disease Assessment Scale-Cognitive CDISC Version - Word recognition task for word 19 Trials 1, 2, 3.", "preferredTerm": "Word Recognition: Word [19]", "submissionValue": "Alzheimer's Disease Assessment Scale - Cognitive CDISC Version Test Code", "synonyms": ["CDISC ADAS-Cog - Word Recognition: Word 19"]}, {"conceptId": "C100270", "definition": "Alzheimer's Disease Assessment Scale-Cognitive CDISC Version - Word recognition task for word 20 Trials 1, 2, 3.", "preferredTerm": "Word Recognition: Word [20]", "submissionValue": "Alzheimer's Disease Assessment Scale - Cognitive CDISC Version Test Code", "synonyms": ["CDISC ADAS-Cog - Word Recognition: Word 20"]}, {"conceptId": "C100271", "definition": "Alzheimer's Disease Assessment Scale-Cognitive CDISC Version - Word recognition task for word 21 Trials 1, 2, 3.", "preferredTerm": "Word Recognition: Word [21]", "submissionValue": "Alzheimer's Disease Assessment Scale - Cognitive CDISC Version Test Code", "synonyms": ["CDISC ADAS-Cog - Word Recognition: Word 21"]}, {"conceptId": "C100272", "definition": "Alzheimer's Disease Assessment Scale-Cognitive CDISC Version - Word recognition task for word 22 Trials 1, 2, 3.", "preferredTerm": "Word Recognition: Word [22]", "submissionValue": "Alzheimer's Disease Assessment Scale - Cognitive CDISC Version Test Code", "synonyms": ["CDISC ADAS-Cog - Word Recognition: Word 22"]}, {"conceptId": "C100273", "definition": "Alzheimer's Disease Assessment Scale-Cognitive CDISC Version - Word recognition task for word 23 Trials 1, 2, 3.", "preferredTerm": "Word Recognition: Word [23]", "submissionValue": "Alzheimer's Disease Assessment Scale - Cognitive CDISC Version Test Code", "synonyms": ["CDISC ADAS-Cog - Word Recognition: Word 23"]}, {"conceptId": "C100274", "definition": "Alzheimer's Disease Assessment Scale-Cognitive CDISC Version - Word recognition task for word 24 Trials 1, 2, 3.", "preferredTerm": "Word Recognition: Word [24]", "submissionValue": "Alzheimer's Disease Assessment Scale - Cognitive CDISC Version Test Code", "synonyms": ["CDISC ADAS-Cog - Word Recognition: Word 24"]}, {"conceptId": "C100275", "definition": "Alzheimer's Disease Assessment Scale-Cognitive CDISC Version - Remembering test instructions.", "preferredTerm": "Remembering Test Instructions", "submissionValue": "Alzheimer's Disease Assessment Scale - Cognitive CDISC Version Test Code", "synonyms": ["CDISC ADAS-Cog - Remembering Test Instructions"]}, {"conceptId": "C100177", "definition": "Alzheimer's Disease Assessment Scale-Cognitive CDISC Version - Word recall task word average score of trials 1, 2, 3.", "preferredTerm": "Word Recall", "submissionValue": "Alzheimer's Disease Assessment Scale - Cognitive CDISC Version Test Code", "synonyms": ["CDISC ADAS-Cog - Word Recall Average Score"]}, {"conceptId": "C100178", "definition": "Alzheimer's Disease Assessment Scale-Cognitive CDISC Version - Sub-score for word recall task trial 1.", "preferredTerm": "Word Recall Trial 1", "submissionValue": "Alzheimer's Disease Assessment Scale - Cognitive CDISC Version Test Code", "synonyms": ["CDISC ADAS-Cog - Word Recall Trial 1 Subscore"]}, {"conceptId": "C100179", "definition": "Alzheimer's Disease Assessment Scale-Cognitive CDISC Version - Sub-score for word recall task trial 2.", "preferredTerm": "Word Recall Trial 2", "submissionValue": "Alzheimer's Disease Assessment Scale - Cognitive CDISC Version Test Code", "synonyms": ["CDISC ADAS-Cog - Word Recall Trial 2 Subscore"]}, {"conceptId": "C100180", "definition": "Alzheimer's Disease Assessment Scale-Cognitive CDISC Version - Sub-score for word recall task trial 3.", "preferredTerm": "Word Recall Trial 3", "submissionValue": "Alzheimer's Disease Assessment Scale - Cognitive CDISC Version Test Code", "synonyms": ["CDISC ADAS-Cog - Word Recall Trial 3 Subscore"]}, {"conceptId": "C100181", "definition": "Alzheimer's Disease Assessment Scale-Cognitive CDISC Version - Word recall task word 1 for trial 1, 2, 3.", "preferredTerm": "Word Recall: Word [1]", "submissionValue": "Alzheimer's Disease Assessment Scale - Cognitive CDISC Version Test Code", "synonyms": ["CDISC ADAS-Cog - Word Recall: Word 1"]}, {"conceptId": "C100182", "definition": "Alzheimer's Disease Assessment Scale-Cognitive CDISC Version - Word recall task word 2 for trial 1, 2, 3.", "preferredTerm": "Word Recall: Word [2]", "submissionValue": "Alzheimer's Disease Assessment Scale - Cognitive CDISC Version Test Code", "synonyms": ["CDISC ADAS-Cog - Word Recall: Word 2"]}, {"conceptId": "C100183", "definition": "Alzheimer's Disease Assessment Scale-Cognitive CDISC Version - Word recall task word 3 for trial 1, 2, 3.", "preferredTerm": "Word Recall: Word [3]", "submissionValue": "Alzheimer's Disease Assessment Scale - Cognitive CDISC Version Test Code", "synonyms": ["CDISC ADAS-Cog - Word Recall: Word 3"]}, {"conceptId": "C100184", "definition": "Alzheimer's Disease Assessment Scale-Cognitive CDISC Version - Word recall task word 4 for trial 1, 2, 3.", "preferredTerm": "Word Recall: Word [4]", "submissionValue": "Alzheimer's Disease Assessment Scale - Cognitive CDISC Version Test Code", "synonyms": ["CDISC ADAS-Cog - Word Recall: Word 4"]}, {"conceptId": "C100185", "definition": "Alzheimer's Disease Assessment Scale-Cognitive CDISC Version - Word recall task word 5 for trial 1, 2, 3.", "preferredTerm": "Word Recall: Word [5]", "submissionValue": "Alzheimer's Disease Assessment Scale - Cognitive CDISC Version Test Code", "synonyms": ["CDISC ADAS-Cog - Word Recall: Word 5"]}, {"conceptId": "C100186", "definition": "Alzheimer's Disease Assessment Scale-Cognitive CDISC Version - Word recall task word 6 for trial 1, 2, 3.", "preferredTerm": "Word Recall: Word [6]", "submissionValue": "Alzheimer's Disease Assessment Scale - Cognitive CDISC Version Test Code", "synonyms": ["CDISC ADAS-Cog - Word Recall: Word 6"]}, {"conceptId": "C100187", "definition": "Alzheimer's Disease Assessment Scale-Cognitive CDISC Version - Word recall task word 7 for trial 1, 2, 3.", "preferredTerm": "Word Recall: Word [7]", "submissionValue": "Alzheimer's Disease Assessment Scale - Cognitive CDISC Version Test Code", "synonyms": ["CDISC ADAS-Cog - Word Recall: Word 7"]}, {"conceptId": "C100188", "definition": "Alzheimer's Disease Assessment Scale-Cognitive CDISC Version - Word recall task word 8 for trial 1, 2, 3.", "preferredTerm": "Word Recall: Word [8]", "submissionValue": "Alzheimer's Disease Assessment Scale - Cognitive CDISC Version Test Code", "synonyms": ["CDISC ADAS-Cog - Word Recall: Word 8"]}, {"conceptId": "C100189", "definition": "Alzheimer's Disease Assessment Scale-Cognitive CDISC Version - Word recall task word 9 for trial 1, 2, 3.", "preferredTerm": "Word Recall: Word [9]", "submissionValue": "Alzheimer's Disease Assessment Scale - Cognitive CDISC Version Test Code", "synonyms": ["CDISC ADAS-Cog - Word Recall: Word 9"]}, {"conceptId": "C100190", "definition": "Alzheimer's Disease Assessment Scale-Cognitive CDISC Version - Word recall task word 10 for trial 1, 2, 3.", "preferredTerm": "Word Recall: Word [10]", "submissionValue": "Alzheimer's Disease Assessment Scale - Cognitive CDISC Version Test Code", "synonyms": ["CDISC ADAS-Cog - Word Recall: Word 10"]}, {"conceptId": "C100276", "definition": "Alzheimer's Disease Assessment Scale-Cognitive CDISC Version - Global rating of the quality of speech, or difficulty in making oneself understood.", "preferredTerm": "Spoken Language Ability", "submissionValue": "Alzheimer's Disease Assessment Scale - Cognitive CDISC Version Test Code", "synonyms": ["CDISC ADAS-Cog - Spoken Language Ability"]}]}, {"conceptId": "", "definition": "ADAS-Cog CDISC Version test name.", "extensible": "No", "name": "Alzheimer's Disease Assessment Scale - Cognitive CDISC Version Test Name", "preferredTerm": "Alzheimer's Disease Assessment Scale - Cognitive CDISC Version Test Name", "submissionValue": "Alzheimer's Disease Assessment Scale - Cognitive CDISC Version Test Name", "synonyms": ["CDISC Questionnaire ADAS-Cog CDISC Version Test Name Terminology"], "terms": [{"conceptId": "C100231", "definition": "Alzheimer's Disease Assessment Scale-Cognitive CDISC Version - Constructional praxis attempted to draw, but drew no forms correctly.", "preferredTerm": "Attempt to Draw", "submissionValue": "Alzheimer's Disease Assessment Scale - Cognitive CDISC Version Test Name", "synonyms": ["CDISC ADAS-Cog - Attempt to Draw"]}, {"conceptId": "C100209", "definition": "Alzheimer's Disease Assessment Scale-Cognitive CDISC Version - Summary score for commands.", "preferredTerm": "Commands", "submissionValue": "Alzheimer's Disease Assessment Scale - Cognitive CDISC Version Test Name", "synonyms": ["CDISC ADAS-Cog - Commands Summary Score"]}, {"conceptId": "C100211", "definition": "Alzheimer's Disease Assessment Scale-Cognitive CDISC Version - Commands task for pointing to the ceiling then to the floor.", "preferredTerm": "Commands: Ceiling", "submissionValue": "Alzheimer's Disease Assessment Scale - Cognitive CDISC Version Test Name", "synonyms": ["CDISC ADAS-Cog - Commands: Ceiling"]}, {"conceptId": "C100210", "definition": "Alzheimer's Disease Assessment Scale-Cognitive CDISC Version - Commands task for making a fist.", "preferredTerm": "Commands: Fist", "submissionValue": "Alzheimer's Disease Assessment Scale - Cognitive CDISC Version Test Name", "synonyms": ["CDISC ADAS-Cog - Commands: Fist"]}, {"conceptId": "C100212", "definition": "Alzheimer's Disease Assessment Scale-Cognitive CDISC Version - Commands task for put the pencil on top of the card and then put it back.", "preferredTerm": "Commands: Pencil", "submissionValue": "Alzheimer's Disease Assessment Scale - Cognitive CDISC Version Test Name", "synonyms": ["CDISC ADAS-Cog - Commands: Pencil"]}, {"conceptId": "C100214", "definition": "Alzheimer's Disease Assessment Scale-Cognitive CDISC Version - Commands task for tap each shoulder twice with two fingers keeping your eyes shut.", "preferredTerm": "Commands: Shoulder", "submissionValue": "Alzheimer's Disease Assessment Scale - Cognitive CDISC Version Test Name", "synonyms": ["CDISC ADAS-Cog - Commands: Shoulder"]}, {"conceptId": "C100213", "definition": "Alzheimer's Disease Assessment Scale-Cognitive CDISC Version - Commands task for put the watch on the other side of the pencil and then turn over the card.", "preferredTerm": "Commands: Watch", "submissionValue": "Alzheimer's Disease Assessment Scale - Cognitive CDISC Version Test Name", "synonyms": ["CDISC ADAS-Cog - Commands: Watch"]}, {"conceptId": "C100278", "definition": "Alzheimer's Disease Assessment Scale-Cognitive CDISC Version - Ability to comprehend speech.", "preferredTerm": "Comprehension", "submissionValue": "Alzheimer's Disease Assessment Scale - Cognitive CDISC Version Test Name", "synonyms": ["CDISC ADAS-Cog - Comprehension"]}, {"conceptId": "C100279", "definition": "Alzheimer's Disease Assessment Scale-Cognitive CDISC Version - Ability to concentrate or easily be distracted.", "preferredTerm": "Concentration/Distractibility", "submissionValue": "Alzheimer's Disease Assessment Scale - Cognitive CDISC Version Test Name", "synonyms": ["CDISC ADAS-Cog - Concentration/Distractibility"]}, {"conceptId": "C100226", "definition": "Alzheimer's Disease Assessment Scale-Cognitive CDISC Version - Summary score for constructional praxis.", "preferredTerm": "Constructional Praxis", "submissionValue": "Alzheimer's Disease Assessment Scale - Cognitive CDISC Version Test Name", "synonyms": ["CDISC ADAS-Cog - Constructional Praxis Summary Score"]}, {"conceptId": "C100228", "definition": "Alzheimer's Disease Assessment Scale-Cognitive CDISC Version - Constructional praxis task for copying two overlapping rectangles.", "preferredTerm": "Constructional Praxis: 2 Rectangles", "submissionValue": "Alzheimer's Disease Assessment Scale - Cognitive CDISC Version Test Name", "synonyms": ["CDISC ADAS-Cog - Constructional Praxis: 2 Rectangles"]}, {"conceptId": "C100227", "definition": "Alzheimer's Disease Assessment Scale-Cognitive CDISC Version - Constructional praxis task for copying a circle.", "preferredTerm": "Constructional Praxis: Circle", "submissionValue": "Alzheimer's Disease Assessment Scale - Cognitive CDISC Version Test Name", "synonyms": ["CDISC ADAS-Cog - Constructional Praxis: Circle"]}, {"conceptId": "C100230", "definition": "Alzheimer's Disease Assessment Scale-Cognitive CDISC Version - Constructional praxis task for copying a cube.", "preferredTerm": "Constructional Praxis: Cube", "submissionValue": "Alzheimer's Disease Assessment Scale - Cognitive CDISC Version Test Name", "synonyms": ["CDISC ADAS-Cog - Constructional Praxis: Cube"]}, {"conceptId": "C100229", "definition": "Alzheimer's Disease Assessment Scale-Cognitive CDISC Version - Constructional praxis task for copying a diamond.", "preferredTerm": "Constructional Praxis: Diamond", "submissionValue": "Alzheimer's Disease Assessment Scale - Cognitive CDISC Version Test Name", "synonyms": ["CDISC ADAS-Cog - Constructional Praxis: Diamond"]}, {"conceptId": "C100215", "definition": "Alzheimer's Disease Assessment Scale-Cognitive CDISC Version - Summary score for delayed word recall.", "preferredTerm": "Delayed Word Recall", "submissionValue": "Alzheimer's Disease Assessment Scale - Cognitive CDISC Version Test Name", "synonyms": ["CDISC ADAS-Cog - Delayed Word Recall Summary Score"]}, {"conceptId": "C100216", "definition": "Alzheimer's Disease Assessment Scale-Cognitive CDISC Version - Delayed word recall task for word 1.", "preferredTerm": "Delayed Word Recall: Word [1]", "submissionValue": "Alzheimer's Disease Assessment Scale - Cognitive CDISC Version Test Name", "synonyms": ["CDISC ADAS-Cog - Delayed Word Recall: Word 1"]}, {"conceptId": "C100225", "definition": "Alzheimer's Disease Assessment Scale-Cognitive CDISC Version - Delayed word recall task for word 10.", "preferredTerm": "Delayed Word Recall: Word [10]", "submissionValue": "Alzheimer's Disease Assessment Scale - Cognitive CDISC Version Test Name", "synonyms": ["CDISC ADAS-Cog - Delayed Word Recall: Word 10"]}, {"conceptId": "C100217", "definition": "Alzheimer's Disease Assessment Scale-Cognitive CDISC Version - Delayed word recall task for word 2.", "preferredTerm": "Delayed Word Recall: Word [2]", "submissionValue": "Alzheimer's Disease Assessment Scale - Cognitive CDISC Version Test Name", "synonyms": ["CDISC ADAS-Cog - Delayed Word Recall: Word 2"]}, {"conceptId": "C100218", "definition": "Alzheimer's Disease Assessment Scale-Cognitive CDISC Version - Delayed word recall task for word 3.", "preferredTerm": "Delayed Word Recall: Word [3]", "submissionValue": "Alzheimer's Disease Assessment Scale - Cognitive CDISC Version Test Name", "synonyms": ["CDISC ADAS-Cog - Delayed Word Recall: Word 3"]}, {"conceptId": "C100219", "definition": "Alzheimer's Disease Assessment Scale-Cognitive CDISC Version - Delayed word recall task for word 4.", "preferredTerm": "Delayed Word Recall: Word [4]", "submissionValue": "Alzheimer's Disease Assessment Scale - Cognitive CDISC Version Test Name", "synonyms": ["CDISC ADAS-Cog - Delayed Word Recall: Word 4"]}, {"conceptId": "C100220", "definition": "Alzheimer's Disease Assessment Scale-Cognitive CDISC Version - Delayed word recall task for word 5.", "preferredTerm": "Delayed Word Recall: Word [5]", "submissionValue": "Alzheimer's Disease Assessment Scale - Cognitive CDISC Version Test Name", "synonyms": ["CDISC ADAS-Cog - Delayed Word Recall: Word 5"]}, {"conceptId": "C100221", "definition": "Alzheimer's Disease Assessment Scale-Cognitive CDISC Version - Delayed word recall task for word 6.", "preferredTerm": "Delayed Word Recall: Word [6]", "submissionValue": "Alzheimer's Disease Assessment Scale - Cognitive CDISC Version Test Name", "synonyms": ["CDISC ADAS-Cog - Delayed Word Recall: Word 6"]}, {"conceptId": "C100222", "definition": "Alzheimer's Disease Assessment Scale-Cognitive CDISC Version - Delayed word recall task for word 7.", "preferredTerm": "Delayed Word Recall: Word [7]", "submissionValue": "Alzheimer's Disease Assessment Scale - Cognitive CDISC Version Test Name", "synonyms": ["CDISC ADAS-Cog - Delayed Word Recall: Word 7"]}, {"conceptId": "C100223", "definition": "Alzheimer's Disease Assessment Scale-Cognitive CDISC Version - Delayed word recall task for word 8.", "preferredTerm": "Delayed Word Recall: Word [8]", "submissionValue": "Alzheimer's Disease Assessment Scale - Cognitive CDISC Version Test Name", "synonyms": ["CDISC ADAS-Cog - Delayed Word Recall: Word 8"]}, {"conceptId": "C100224", "definition": "Alzheimer's Disease Assessment Scale-Cognitive CDISC Version - Delayed word recall task for word 9.", "preferredTerm": "Delayed Word Recall: Word [9]", "submissionValue": "Alzheimer's Disease Assessment Scale - Cognitive CDISC Version Test Name", "synonyms": ["CDISC ADAS-Cog - Delayed Word Recall: Word 9"]}, {"conceptId": "C100284", "definition": "Alzheimer's Disease Assessment Scale-Cognitive CDISC Version - Summary score for the executive function maze tasks.", "preferredTerm": "Executive Function Maze", "submissionValue": "Alzheimer's Disease Assessment Scale - Cognitive CDISC Version Test Name", "synonyms": ["CDISC ADAS-Cog - Executive Function Maze Summary Score"]}, {"conceptId": "C100285", "definition": "Alzheimer's Disease Assessment Scale-Cognitive CDISC Version - Number of errors during the executive function maze task.", "preferredTerm": "Executive Function Maze: Errors", "submissionValue": "Alzheimer's Disease Assessment Scale - Cognitive CDISC Version Test Name", "synonyms": ["CDISC ADAS-Cog - Executive Function Maze: Errors"]}, {"conceptId": "C100286", "definition": "Alzheimer's Disease Assessment Scale-Cognitive CDISC Version - The time in seconds stored in ISO 8601 time for the executive function maze task.", "preferredTerm": "Executive Function Maze: Time", "submissionValue": "Alzheimer's Disease Assessment Scale - Cognitive CDISC Version Test Name", "synonyms": ["CDISC ADAS-Cog - Executive Function Maze: Time"]}, {"conceptId": "C100232", "definition": "Alzheimer's Disease Assessment Scale-Cognitive CDISC Version - Summary score for ideational praxis.", "preferredTerm": "Ideational Praxis", "submissionValue": "Alzheimer's Disease Assessment Scale - Cognitive CDISC Version Test Name", "synonyms": ["CDISC ADAS-Cog - Ideational Praxis Summary Score"]}, {"conceptId": "C100236", "definition": "Alzheimer's Disease Assessment Scale-Cognitive CDISC Version - Ideational praxis task for address the envelop to yourself.", "preferredTerm": "Ideational Praxis: Address", "submissionValue": "Alzheimer's Disease Assessment Scale - Cognitive CDISC Version Test Name", "synonyms": ["CDISC ADAS-Cog - Ideational Praxis: Address"]}, {"conceptId": "C100233", "definition": "Alzheimer's Disease Assessment Scale-Cognitive CDISC Version - Ideational praxis task for folding the paper.", "preferredTerm": "Ideational Praxis: Fold", "submissionValue": "Alzheimer's Disease Assessment Scale - Cognitive CDISC Version Test Name", "synonyms": ["CDISC ADAS-Cog - Ideational Praxis: Fold"]}, {"conceptId": "C100234", "definition": "Alzheimer's Disease Assessment Scale-Cognitive CDISC Version - Ideational praxis task for put the paper in the envelop.", "preferredTerm": "Ideational Praxis: Insert", "submissionValue": "Alzheimer's Disease Assessment Scale - Cognitive CDISC Version Test Name", "synonyms": ["CDISC ADAS-Cog - Ideational Praxis: Insert"]}, {"conceptId": "C100235", "definition": "Alzheimer's Disease Assessment Scale-Cognitive CDISC Version - Ideational praxis task for seal the envelop.", "preferredTerm": "Ideational Praxis: Seal", "submissionValue": "Alzheimer's Disease Assessment Scale - Cognitive CDISC Version Test Name", "synonyms": ["CDISC ADAS-Cog - Ideational Praxis: Seal"]}, {"conceptId": "C100237", "definition": "Alzheimer's Disease Assessment Scale-Cognitive CDISC Version - Ideational praxis task for showing where the stamp goes.", "preferredTerm": "Ideational Praxis: Stamp", "submissionValue": "Alzheimer's Disease Assessment Scale - Cognitive CDISC Version Test Name", "synonyms": ["CDISC ADAS-Cog - Ideational Praxis: Stamp"]}, {"conceptId": "C100191", "definition": "Alzheimer's Disease Assessment Scale-Cognitive CDISC Version - Naming task summary score for object and fingers.", "preferredTerm": "Naming Objects and Fingers", "submissionValue": "Alzheimer's Disease Assessment Scale - Cognitive CDISC Version Test Name", "synonyms": ["CDISC ADAS-Cog - Naming Objects and Fingers Summary Score"]}, {"conceptId": "C100192", "definition": "Alzheimer's Disease Assessment Scale-Cognitive CDISC Version - Naming task for object 1.", "preferredTerm": "Naming Objects and Fingers: 1", "submissionValue": "Alzheimer's Disease Assessment Scale - Cognitive CDISC Version Test Name", "synonyms": ["CDISC ADAS-Cog - Naming Objects and Fingers: 1"]}, {"conceptId": "C100201", "definition": "Alzheimer's Disease Assessment Scale-Cognitive CDISC Version - Naming task for object 10.", "preferredTerm": "Naming Objects and Fingers: 10", "submissionValue": "Alzheimer's Disease Assessment Scale - Cognitive CDISC Version Test Name", "synonyms": ["CDISC ADAS-Cog - Naming Objects and Fingers: 10"]}, {"conceptId": "C100202", "definition": "Alzheimer's Disease Assessment Scale-Cognitive CDISC Version - Naming task for object 11.", "preferredTerm": "Naming Objects and Fingers: 11", "submissionValue": "Alzheimer's Disease Assessment Scale - Cognitive CDISC Version Test Name", "synonyms": ["CDISC ADAS-Cog - Naming Objects and Fingers: 11"]}, {"conceptId": "C100203", "definition": "Alzheimer's Disease Assessment Scale-Cognitive CDISC Version - Naming task for object 12.", "preferredTerm": "Naming Objects and Fingers: 12", "submissionValue": "Alzheimer's Disease Assessment Scale - Cognitive CDISC Version Test Name", "synonyms": ["CDISC ADAS-Cog - Naming Objects and Fingers: 12"]}, {"conceptId": "C100193", "definition": "Alzheimer's Disease Assessment Scale-Cognitive CDISC Version - Naming task for object 2.", "preferredTerm": "Naming Objects and Fingers: 2", "submissionValue": "Alzheimer's Disease Assessment Scale - Cognitive CDISC Version Test Name", "synonyms": ["CDISC ADAS-Cog - Naming Objects and Fingers: 2"]}, {"conceptId": "C100194", "definition": "Alzheimer's Disease Assessment Scale-Cognitive CDISC Version - Naming task for object 3.", "preferredTerm": "Naming Objects and Fingers: 3", "submissionValue": "Alzheimer's Disease Assessment Scale - Cognitive CDISC Version Test Name", "synonyms": ["CDISC ADAS-Cog - Naming Objects and Fingers: 3"]}, {"conceptId": "C100195", "definition": "Alzheimer's Disease Assessment Scale-Cognitive CDISC Version - Naming task for object 4.", "preferredTerm": "Naming Objects and Fingers: 4", "submissionValue": "Alzheimer's Disease Assessment Scale - Cognitive CDISC Version Test Name", "synonyms": ["CDISC ADAS-Cog - Naming Objects and Fingers: 4"]}, {"conceptId": "C100196", "definition": "Alzheimer's Disease Assessment Scale-Cognitive CDISC Version - Naming task for object 5.", "preferredTerm": "Naming Objects and Fingers: 5", "submissionValue": "Alzheimer's Disease Assessment Scale - Cognitive CDISC Version Test Name", "synonyms": ["CDISC ADAS-Cog - Naming Objects and Fingers: 5"]}, {"conceptId": "C100197", "definition": "Alzheimer's Disease Assessment Scale-Cognitive CDISC Version - Naming task for object 6.", "preferredTerm": "Naming Objects and Fingers: 6", "submissionValue": "Alzheimer's Disease Assessment Scale - Cognitive CDISC Version Test Name", "synonyms": ["CDISC ADAS-Cog - Naming Objects and Fingers: 6"]}, {"conceptId": "C100198", "definition": "Alzheimer's Disease Assessment Scale-Cognitive CDISC Version - Naming task for object 7.", "preferredTerm": "Naming Objects and Fingers: 7", "submissionValue": "Alzheimer's Disease Assessment Scale - Cognitive CDISC Version Test Name", "synonyms": ["CDISC ADAS-Cog - Naming Objects and Fingers: 7"]}, {"conceptId": "C100199", "definition": "Alzheimer's Disease Assessment Scale-Cognitive CDISC Version - Naming task for object 8.", "preferredTerm": "Naming Objects and Fingers: 8", "submissionValue": "Alzheimer's Disease Assessment Scale - Cognitive CDISC Version Test Name", "synonyms": ["CDISC ADAS-Cog - Naming Objects and Fingers: 8"]}, {"conceptId": "C100200", "definition": "Alzheimer's Disease Assessment Scale-Cognitive CDISC Version - Naming task for object 9.", "preferredTerm": "Naming Objects and Fingers: 9", "submissionValue": "Alzheimer's Disease Assessment Scale - Cognitive CDISC Version Test Name", "synonyms": ["CDISC ADAS-Cog - Naming Objects and Fingers: 9"]}, {"conceptId": "C100206", "definition": "Alzheimer's Disease Assessment Scale-Cognitive CDISC Version - Naming task for fingers of the dominant hand, middle finger.", "preferredTerm": "Naming Objects and Fingers: Middle", "submissionValue": "Alzheimer's Disease Assessment Scale - Cognitive CDISC Version Test Name", "synonyms": ["CDISC ADAS-Cog - Naming Objects and Fingers: Middle"]}, {"conceptId": "C100208", "definition": "Alzheimer's Disease Assessment Scale-Cognitive CDISC Version - Naming task for fingers of the dominant hand, little finger or pinky.", "preferredTerm": "Naming Objects and Fingers: Pinky", "submissionValue": "Alzheimer's Disease Assessment Scale - Cognitive CDISC Version Test Name", "synonyms": ["CDISC ADAS-Cog - Naming Objects and Fingers: Pinky"]}, {"conceptId": "C100205", "definition": "Alzheimer's Disease Assessment Scale-Cognitive CDISC Version - Naming task for fingers of the dominant hand, index, or pointer finger.", "preferredTerm": "Naming Objects and Fingers: Pointer", "submissionValue": "Alzheimer's Disease Assessment Scale - Cognitive CDISC Version Test Name", "synonyms": ["CDISC ADAS-Cog - Naming Objects and Fingers: Pointer"]}, {"conceptId": "C100207", "definition": "Alzheimer's Disease Assessment Scale-Cognitive CDISC Version - Naming task for fingers of the dominant hand, ring finger.", "preferredTerm": "Naming Objects and Fingers: Ring", "submissionValue": "Alzheimer's Disease Assessment Scale - Cognitive CDISC Version Test Name", "synonyms": ["CDISC ADAS-Cog - Naming Objects and Fingers: Ring"]}, {"conceptId": "C100204", "definition": "Alzheimer's Disease Assessment Scale-Cognitive CDISC Version - Naming task for fingers of the dominant hand, thumb.", "preferredTerm": "Naming Objects and Fingers: Thumb", "submissionValue": "Alzheimer's Disease Assessment Scale - Cognitive CDISC Version Test Name", "synonyms": ["CDISC ADAS-Cog - Naming Objects and Fingers: Thumb"]}, {"conceptId": "C100280", "definition": "Alzheimer's Disease Assessment Scale-Cognitive CDISC Version - Summary score for the number cancellation tasks.", "preferredTerm": "Number Cancellation", "submissionValue": "Alzheimer's Disease Assessment Scale - Cognitive CDISC Version Test Name", "synonyms": ["CDISC ADAS-Cog - Number Cancellation Summary Score"]}, {"conceptId": "C100281", "definition": "Alzheimer's Disease Assessment Scale-Cognitive CDISC Version - Number of targets hit during the number cancellation task.", "preferredTerm": "Number Cancellation: Correct", "submissionValue": "Alzheimer's Disease Assessment Scale - Cognitive CDISC Version Test Name", "synonyms": ["CDISC ADAS-Cog - Number Cancellation: Correct"]}, {"conceptId": "C100282", "definition": "Alzheimer's Disease Assessment Scale-Cognitive CDISC Version - Number of errors during the number cancellation task.", "preferredTerm": "Number Cancellation: Errors", "submissionValue": "Alzheimer's Disease Assessment Scale - Cognitive CDISC Version Test Name", "synonyms": ["CDISC ADAS-Cog - Number Cancellation: Errors"]}, {"conceptId": "C100283", "definition": "Alzheimer's Disease Assessment Scale-Cognitive CDISC Version - Number of times reminded for the number cancellation task.", "preferredTerm": "Number Cancellation: Remind", "submissionValue": "Alzheimer's Disease Assessment Scale - Cognitive CDISC Version Test Name", "synonyms": ["CDISC ADAS-Cog - Number Cancellation: Remind"]}, {"conceptId": "C100238", "definition": "Alzheimer's Disease Assessment Scale-Cognitive CDISC Version - Summary score for orientation.", "preferredTerm": "Orientation", "submissionValue": "Alzheimer's Disease Assessment Scale - Cognitive CDISC Version Test Name", "synonyms": ["CDISC ADAS-Cog - Orientation Summary Score"]}, {"conceptId": "C100241", "definition": "Alzheimer's Disease Assessment Scale-Cognitive CDISC Version - Orientation task for knowing the current day.", "preferredTerm": "Orientation: Date", "submissionValue": "Alzheimer's Disease Assessment Scale - Cognitive CDISC Version Test Name", "synonyms": ["CDISC ADAS-Cog - Orientation: Date"]}, {"conceptId": "C100243", "definition": "Alzheimer's Disease Assessment Scale-Cognitive CDISC Version - Orientation task for knowing the current day of the week.", "preferredTerm": "Orientation: Day of Week", "submissionValue": "Alzheimer's Disease Assessment Scale - Cognitive CDISC Version Test Name", "synonyms": ["CDISC ADAS-Cog - Orientation: Day of Week"]}, {"conceptId": "C100239", "definition": "Alzheimer's Disease Assessment Scale-Cognitive CDISC Version - Orientation task for knowing one's own full name.", "preferredTerm": "Orientation: Full Name", "submissionValue": "Alzheimer's Disease Assessment Scale - Cognitive CDISC Version Test Name", "synonyms": ["CDISC ADAS-Cog - Orientation: Full Name"]}, {"conceptId": "C100240", "definition": "Alzheimer's Disease Assessment Scale-Cognitive CDISC Version - Orientation task for knowing the current month.", "preferredTerm": "Orientation: Month", "submissionValue": "Alzheimer's Disease Assessment Scale - Cognitive CDISC Version Test Name", "synonyms": ["CDISC ADAS-Cog - Orientation: Month"]}, {"conceptId": "C100245", "definition": "Alzheimer's Disease Assessment Scale-Cognitive CDISC Version - Orientation task for knowing the current place.", "preferredTerm": "Orientation: Place", "submissionValue": "Alzheimer's Disease Assessment Scale - Cognitive CDISC Version Test Name", "synonyms": ["CDISC ADAS-Cog - Orientation: Place"]}, {"conceptId": "C100244", "definition": "Alzheimer's Disease Assessment Scale-Cognitive CDISC Version - Orientation task for knowing the current season.", "preferredTerm": "Orientation: Season", "submissionValue": "Alzheimer's Disease Assessment Scale - Cognitive CDISC Version Test Name", "synonyms": ["CDISC ADAS-Cog - Orientation: Season"]}, {"conceptId": "C100246", "definition": "Alzheimer's Disease Assessment Scale-Cognitive CDISC Version - Orientation task for knowing the approximate current clock time.", "preferredTerm": "Orientation: Time", "submissionValue": "Alzheimer's Disease Assessment Scale - Cognitive CDISC Version Test Name", "synonyms": ["CDISC ADAS-Cog - Orientation: Time"]}, {"conceptId": "C100242", "definition": "Alzheimer's Disease Assessment Scale-Cognitive CDISC Version - Orientation task for knowing the current year.", "preferredTerm": "Orientation: Year", "submissionValue": "Alzheimer's Disease Assessment Scale - Cognitive CDISC Version Test Name", "synonyms": ["CDISC ADAS-Cog - Orientation: Year"]}, {"conceptId": "C100275", "definition": "Alzheimer's Disease Assessment Scale-Cognitive CDISC Version - Remembering test instructions.", "preferredTerm": "Remembering Test Instructions", "submissionValue": "Alzheimer's Disease Assessment Scale - Cognitive CDISC Version Test Name", "synonyms": ["CDISC ADAS-Cog - Remembering Test Instructions"]}, {"conceptId": "C100276", "definition": "Alzheimer's Disease Assessment Scale-Cognitive CDISC Version - Global rating of the quality of speech, or difficulty in making oneself understood.", "preferredTerm": "Spoken Language Ability", "submissionValue": "Alzheimer's Disease Assessment Scale - Cognitive CDISC Version Test Name", "synonyms": ["CDISC ADAS-Cog - Spoken Language Ability"]}, {"conceptId": "C100277", "definition": "Alzheimer's Disease Assessment Scale-Cognitive CDISC Version - Difficulty finding the desired word in spontaneous speech.", "preferredTerm": "Word Finding Difficulty in Spont Speech", "submissionValue": "Alzheimer's Disease Assessment Scale - Cognitive CDISC Version Test Name", "synonyms": ["CDISC ADAS-Cog - Word Difficulty in Spontaneous Speech"]}, {"conceptId": "C100177", "definition": "Alzheimer's Disease Assessment Scale-Cognitive CDISC Version - Word recall task word average score of trials 1, 2, 3.", "preferredTerm": "Word Recall", "submissionValue": "Alzheimer's Disease Assessment Scale - Cognitive CDISC Version Test Name", "synonyms": ["CDISC ADAS-Cog - Word Recall Average Score"]}, {"conceptId": "C100178", "definition": "Alzheimer's Disease Assessment Scale-Cognitive CDISC Version - Sub-score for word recall task trial 1.", "preferredTerm": "Word Recall Trial 1", "submissionValue": "Alzheimer's Disease Assessment Scale - Cognitive CDISC Version Test Name", "synonyms": ["CDISC ADAS-Cog - Word Recall Trial 1 Subscore"]}, {"conceptId": "C100179", "definition": "Alzheimer's Disease Assessment Scale-Cognitive CDISC Version - Sub-score for word recall task trial 2.", "preferredTerm": "Word Recall Trial 2", "submissionValue": "Alzheimer's Disease Assessment Scale - Cognitive CDISC Version Test Name", "synonyms": ["CDISC ADAS-Cog - Word Recall Trial 2 Subscore"]}, {"conceptId": "C100180", "definition": "Alzheimer's Disease Assessment Scale-Cognitive CDISC Version - Sub-score for word recall task trial 3.", "preferredTerm": "Word Recall Trial 3", "submissionValue": "Alzheimer's Disease Assessment Scale - Cognitive CDISC Version Test Name", "synonyms": ["CDISC ADAS-Cog - Word Recall Trial 3 Subscore"]}, {"conceptId": "C100181", "definition": "Alzheimer's Disease Assessment Scale-Cognitive CDISC Version - Word recall task word 1 for trial 1, 2, 3.", "preferredTerm": "Word Recall: Word [1]", "submissionValue": "Alzheimer's Disease Assessment Scale - Cognitive CDISC Version Test Name", "synonyms": ["CDISC ADAS-Cog - Word Recall: Word 1"]}, {"conceptId": "C100190", "definition": "Alzheimer's Disease Assessment Scale-Cognitive CDISC Version - Word recall task word 10 for trial 1, 2, 3.", "preferredTerm": "Word Recall: Word [10]", "submissionValue": "Alzheimer's Disease Assessment Scale - Cognitive CDISC Version Test Name", "synonyms": ["CDISC ADAS-Cog - Word Recall: Word 10"]}, {"conceptId": "C100182", "definition": "Alzheimer's Disease Assessment Scale-Cognitive CDISC Version - Word recall task word 2 for trial 1, 2, 3.", "preferredTerm": "Word Recall: Word [2]", "submissionValue": "Alzheimer's Disease Assessment Scale - Cognitive CDISC Version Test Name", "synonyms": ["CDISC ADAS-Cog - Word Recall: Word 2"]}, {"conceptId": "C100183", "definition": "Alzheimer's Disease Assessment Scale-Cognitive CDISC Version - Word recall task word 3 for trial 1, 2, 3.", "preferredTerm": "Word Recall: Word [3]", "submissionValue": "Alzheimer's Disease Assessment Scale - Cognitive CDISC Version Test Name", "synonyms": ["CDISC ADAS-Cog - Word Recall: Word 3"]}, {"conceptId": "C100184", "definition": "Alzheimer's Disease Assessment Scale-Cognitive CDISC Version - Word recall task word 4 for trial 1, 2, 3.", "preferredTerm": "Word Recall: Word [4]", "submissionValue": "Alzheimer's Disease Assessment Scale - Cognitive CDISC Version Test Name", "synonyms": ["CDISC ADAS-Cog - Word Recall: Word 4"]}, {"conceptId": "C100185", "definition": "Alzheimer's Disease Assessment Scale-Cognitive CDISC Version - Word recall task word 5 for trial 1, 2, 3.", "preferredTerm": "Word Recall: Word [5]", "submissionValue": "Alzheimer's Disease Assessment Scale - Cognitive CDISC Version Test Name", "synonyms": ["CDISC ADAS-Cog - Word Recall: Word 5"]}, {"conceptId": "C100186", "definition": "Alzheimer's Disease Assessment Scale-Cognitive CDISC Version - Word recall task word 6 for trial 1, 2, 3.", "preferredTerm": "Word Recall: Word [6]", "submissionValue": "Alzheimer's Disease Assessment Scale - Cognitive CDISC Version Test Name", "synonyms": ["CDISC ADAS-Cog - Word Recall: Word 6"]}, {"conceptId": "C100187", "definition": "Alzheimer's Disease Assessment Scale-Cognitive CDISC Version - Word recall task word 7 for trial 1, 2, 3.", "preferredTerm": "Word Recall: Word [7]", "submissionValue": "Alzheimer's Disease Assessment Scale - Cognitive CDISC Version Test Name", "synonyms": ["CDISC ADAS-Cog - Word Recall: Word 7"]}, {"conceptId": "C100188", "definition": "Alzheimer's Disease Assessment Scale-Cognitive CDISC Version - Word recall task word 8 for trial 1, 2, 3.", "preferredTerm": "Word Recall: Word [8]", "submissionValue": "Alzheimer's Disease Assessment Scale - Cognitive CDISC Version Test Name", "synonyms": ["CDISC ADAS-Cog - Word Recall: Word 8"]}, {"conceptId": "C100189", "definition": "Alzheimer's Disease Assessment Scale-Cognitive CDISC Version - Word recall task word 9 for trial 1, 2, 3.", "preferredTerm": "Word Recall: Word [9]", "submissionValue": "Alzheimer's Disease Assessment Scale - Cognitive CDISC Version Test Name", "synonyms": ["CDISC ADAS-Cog - Word Recall: Word 9"]}, {"conceptId": "C100247", "definition": "Alzheimer's Disease Assessment Scale-Cognitive CDISC Version - Summary score for word recognition across trials 1-3.", "preferredTerm": "Word Recognition", "submissionValue": "Alzheimer's Disease Assessment Scale - Cognitive CDISC Version Test Name", "synonyms": ["CDISC ADAS-Cog - Word Recognition Summary Score"]}, {"conceptId": "C100248", "definition": "Alzheimer's Disease Assessment Scale-Cognitive CDISC Version - Sub-score for word recognition trial 1.", "preferredTerm": "Word Recognition Trial 1", "submissionValue": "Alzheimer's Disease Assessment Scale - Cognitive CDISC Version Test Name", "synonyms": ["CDISC ADAS-Cog - Word Recognition Trial 1 Summary Score"]}, {"conceptId": "C100249", "definition": "Alzheimer's Disease Assessment Scale-Cognitive CDISC Version - Sub-score for word recognition trial 2.", "preferredTerm": "Word Recognition Trial 2", "submissionValue": "Alzheimer's Disease Assessment Scale - Cognitive CDISC Version Test Name", "synonyms": ["CDISC ADAS-Cog - Word Recognition Trial 2 Summary Score"]}, {"conceptId": "C100250", "definition": "Alzheimer's Disease Assessment Scale-Cognitive CDISC Version - Sub-score for word recognition trial 3.", "preferredTerm": "Word Recognition Trial 3", "submissionValue": "Alzheimer's Disease Assessment Scale - Cognitive CDISC Version Test Name", "synonyms": ["CDISC ADAS-Cog - Word Recognition Trial 3 Summary Score"]}, {"conceptId": "C100251", "definition": "Alzheimer's Disease Assessment Scale-Cognitive CDISC Version - Word recognition task for word 1 Trials 1, 2, 3.", "preferredTerm": "Word Recognition: Word [1]", "submissionValue": "Alzheimer's Disease Assessment Scale - Cognitive CDISC Version Test Name", "synonyms": ["CDISC ADAS-Cog - Word Recognition: Word 1"]}, {"conceptId": "C100260", "definition": "Alzheimer's Disease Assessment Scale-Cognitive CDISC Version - Word recognition task for word 10 Trials 1, 2, 3.", "preferredTerm": "Word Recognition: Word [10]", "submissionValue": "Alzheimer's Disease Assessment Scale - Cognitive CDISC Version Test Name", "synonyms": ["CDISC ADAS-Cog - Word Recognition: Word 10"]}, {"conceptId": "C100261", "definition": "Alzheimer's Disease Assessment Scale-Cognitive CDISC Version - Word recognition task for word 11 Trials 1, 2, 3.", "preferredTerm": "Word Recognition: Word [11]", "submissionValue": "Alzheimer's Disease Assessment Scale - Cognitive CDISC Version Test Name", "synonyms": ["CDISC ADAS-Cog - Word Recognition: Word 11"]}, {"conceptId": "C100262", "definition": "Alzheimer's Disease Assessment Scale-Cognitive CDISC Version - Word recognition task for word 12 Trials 1, 2, 3.", "preferredTerm": "Word Recognition: Word [12]", "submissionValue": "Alzheimer's Disease Assessment Scale - Cognitive CDISC Version Test Name", "synonyms": ["CDISC ADAS-Cog - Word Recognition: Word 12"]}, {"conceptId": "C100263", "definition": "Alzheimer's Disease Assessment Scale-Cognitive CDISC Version - Word recognition task for word 13 Trials 1, 2, 3.", "preferredTerm": "Word Recognition: Word [13]", "submissionValue": "Alzheimer's Disease Assessment Scale - Cognitive CDISC Version Test Name", "synonyms": ["CDISC ADAS-Cog - Word Recognition: Word 13"]}, {"conceptId": "C100264", "definition": "Alzheimer's Disease Assessment Scale-Cognitive CDISC Version - Word recognition task for word 14 Trials 1, 2, 3.", "preferredTerm": "Word Recognition: Word [14]", "submissionValue": "Alzheimer's Disease Assessment Scale - Cognitive CDISC Version Test Name", "synonyms": ["CDISC ADAS-Cog - Word Recognition: Word 14"]}, {"conceptId": "C100265", "definition": "Alzheimer's Disease Assessment Scale-Cognitive CDISC Version - Word recognition task for word 15 Trials 1, 2, 3.", "preferredTerm": "Word Recognition: Word [15]", "submissionValue": "Alzheimer's Disease Assessment Scale - Cognitive CDISC Version Test Name", "synonyms": ["CDISC ADAS-Cog - Word Recognition: Word 15"]}, {"conceptId": "C100266", "definition": "Alzheimer's Disease Assessment Scale-Cognitive CDISC Version - Word recognition task for word 16 Trials 1, 2, 3.", "preferredTerm": "Word Recognition: Word [16]", "submissionValue": "Alzheimer's Disease Assessment Scale - Cognitive CDISC Version Test Name", "synonyms": ["CDISC ADAS-Cog - Word Recognition: Word 16"]}, {"conceptId": "C100267", "definition": "Alzheimer's Disease Assessment Scale-Cognitive CDISC Version - Word recognition task for word 17 Trials 1, 2, 3.", "preferredTerm": "Word Recognition: Word [17]", "submissionValue": "Alzheimer's Disease Assessment Scale - Cognitive CDISC Version Test Name", "synonyms": ["CDISC ADAS-Cog - Word Recognition: Word 17"]}, {"conceptId": "C100268", "definition": "Alzheimer's Disease Assessment Scale-Cognitive CDISC Version - Word recognition task for word 18 Trials 1, 2, 3.", "preferredTerm": "Word Recognition: Word [18]", "submissionValue": "Alzheimer's Disease Assessment Scale - Cognitive CDISC Version Test Name", "synonyms": ["CDISC ADAS-Cog - Word Recognition: Word 18"]}, {"conceptId": "C100269", "definition": "Alzheimer's Disease Assessment Scale-Cognitive CDISC Version - Word recognition task for word 19 Trials 1, 2, 3.", "preferredTerm": "Word Recognition: Word [19]", "submissionValue": "Alzheimer's Disease Assessment Scale - Cognitive CDISC Version Test Name", "synonyms": ["CDISC ADAS-Cog - Word Recognition: Word 19"]}, {"conceptId": "C100252", "definition": "Alzheimer's Disease Assessment Scale-Cognitive CDISC Version - Word recognition task for word 2 Trials 1, 2, 3.", "preferredTerm": "Word Recognition: Word [2]", "submissionValue": "Alzheimer's Disease Assessment Scale - Cognitive CDISC Version Test Name", "synonyms": ["CDISC ADAS-Cog - Word Recognition: Word 2"]}, {"conceptId": "C100270", "definition": "Alzheimer's Disease Assessment Scale-Cognitive CDISC Version - Word recognition task for word 20 Trials 1, 2, 3.", "preferredTerm": "Word Recognition: Word [20]", "submissionValue": "Alzheimer's Disease Assessment Scale - Cognitive CDISC Version Test Name", "synonyms": ["CDISC ADAS-Cog - Word Recognition: Word 20"]}, {"conceptId": "C100271", "definition": "Alzheimer's Disease Assessment Scale-Cognitive CDISC Version - Word recognition task for word 21 Trials 1, 2, 3.", "preferredTerm": "Word Recognition: Word [21]", "submissionValue": "Alzheimer's Disease Assessment Scale - Cognitive CDISC Version Test Name", "synonyms": ["CDISC ADAS-Cog - Word Recognition: Word 21"]}, {"conceptId": "C100272", "definition": "Alzheimer's Disease Assessment Scale-Cognitive CDISC Version - Word recognition task for word 22 Trials 1, 2, 3.", "preferredTerm": "Word Recognition: Word [22]", "submissionValue": "Alzheimer's Disease Assessment Scale - Cognitive CDISC Version Test Name", "synonyms": ["CDISC ADAS-Cog - Word Recognition: Word 22"]}, {"conceptId": "C100273", "definition": "Alzheimer's Disease Assessment Scale-Cognitive CDISC Version - Word recognition task for word 23 Trials 1, 2, 3.", "preferredTerm": "Word Recognition: Word [23]", "submissionValue": "Alzheimer's Disease Assessment Scale - Cognitive CDISC Version Test Name", "synonyms": ["CDISC ADAS-Cog - Word Recognition: Word 23"]}, {"conceptId": "C100274", "definition": "Alzheimer's Disease Assessment Scale-Cognitive CDISC Version - Word recognition task for word 24 Trials 1, 2, 3.", "preferredTerm": "Word Recognition: Word [24]", "submissionValue": "Alzheimer's Disease Assessment Scale - Cognitive CDISC Version Test Name", "synonyms": ["CDISC ADAS-Cog - Word Recognition: Word 24"]}, {"conceptId": "C100253", "definition": "Alzheimer's Disease Assessment Scale-Cognitive CDISC Version - Word recognition task for word 3 Trials 1, 2, 3.", "preferredTerm": "Word Recognition: Word [3]", "submissionValue": "Alzheimer's Disease Assessment Scale - Cognitive CDISC Version Test Name", "synonyms": ["CDISC ADAS-Cog - Word Recognition: Word 3"]}, {"conceptId": "C100254", "definition": "Alzheimer's Disease Assessment Scale-Cognitive CDISC Version - Word recognition task for word 4 Trials 1, 2, 3.", "preferredTerm": "Word Recognition: Word [4]", "submissionValue": "Alzheimer's Disease Assessment Scale - Cognitive CDISC Version Test Name", "synonyms": ["CDISC ADAS-Cog - Word Recognition: Word 4"]}, {"conceptId": "C100255", "definition": "Alzheimer's Disease Assessment Scale-Cognitive CDISC Version - Word recognition task for word 5 Trials 1, 2, 3.", "preferredTerm": "Word Recognition: Word [5]", "submissionValue": "Alzheimer's Disease Assessment Scale - Cognitive CDISC Version Test Name", "synonyms": ["CDISC ADAS-Cog - Word Recognition: Word 5"]}, {"conceptId": "C100256", "definition": "Alzheimer's Disease Assessment Scale-Cognitive CDISC Version - Word recognition task for word 6 Trials 1, 2, 3.", "preferredTerm": "Word Recognition: Word [6]", "submissionValue": "Alzheimer's Disease Assessment Scale - Cognitive CDISC Version Test Name", "synonyms": ["CDISC ADAS-Cog - Word Recognition: Word 6"]}, {"conceptId": "C100257", "definition": "Alzheimer's Disease Assessment Scale-Cognitive CDISC Version - Word recognition task for word 7 Trials 1, 2, 3.", "preferredTerm": "Word Recognition: Word [7]", "submissionValue": "Alzheimer's Disease Assessment Scale - Cognitive CDISC Version Test Name", "synonyms": ["CDISC ADAS-Cog - Word Recognition: Word 7"]}, {"conceptId": "C100258", "definition": "Alzheimer's Disease Assessment Scale-Cognitive CDISC Version - Word recognition task for word 8 Trials 1, 2, 3.", "preferredTerm": "Word Recognition: Word [8]", "submissionValue": "Alzheimer's Disease Assessment Scale - Cognitive CDISC Version Test Name", "synonyms": ["CDISC ADAS-Cog - Word Recognition: Word 8"]}, {"conceptId": "C100259", "definition": "Alzheimer's Disease Assessment Scale-Cognitive CDISC Version - Word recognition task for word 9 Trials 1, 2, 3.", "preferredTerm": "Word Recognition: Word [9]", "submissionValue": "Alzheimer's Disease Assessment Scale - Cognitive CDISC Version Test Name", "synonyms": ["CDISC ADAS-Cog - Word Recognition: Word 9"]}]}, {"conceptId": "", "definition": "Alzheimer's Disease Cooperative Study-Activities of Daily Living Inventory MCI Version test code.", "extensible": "No", "name": "Alzheimer's Disease Cooperative Study-Activities of Daily Living Inventory MCI Version Questionnaire Test Code", "preferredTerm": "Alzheimer's Disease Cooperative Study-Activities of Daily Living Inventory MCI Version Questionnaire Test Code", "submissionValue": "Alzheimer's Disease Cooperative Study-Activities of Daily Living Inventory MCI Version Questionnaire Test Code", "synonyms": ["CDISC Questionnaire ADCS-ADL MCI Test Code Terminology"], "terms": [{"conceptId": "C106891", "definition": "Alzheimer's Disease Cooperative Study-Activities of Daily Living Inventory, MCI Version - In the past 4 weeks, did {S} usually manage to find his/her personal belongings at home?", "preferredTerm": "ADL03-Find Personal Belongings", "submissionValue": "Alzheimer's Disease Cooperative Study-Activities of Daily Living Inventory MCI Version Questionnaire Test Code", "synonyms": ["ADCS-ADL MCI - Find Personal Belongings"]}, {"conceptId": "C106892", "definition": "Alzheimer's Disease Cooperative Study-Activities of Daily Living Inventory, MCI Version - If yes, which best describes how he /she usually performed.", "preferredTerm": "ADL03-Find Belongings Usual Performance", "submissionValue": "Alzheimer's Disease Cooperative Study-Activities of Daily Living Inventory MCI Version Questionnaire Test Code", "synonyms": ["ADCS-ADL MCI - Description of Usual Performance of Finding Belongings"]}, {"conceptId": "C106893", "definition": "Alzheimer's Disease Cooperative Study-Activities of Daily Living Inventory, MCI Version - In the past 4 weeks, did {S} select his/her first set of clothes for the day?", "preferredTerm": "ADL03-Select First Clothes for the Day", "submissionValue": "Alzheimer's Disease Cooperative Study-Activities of Daily Living Inventory MCI Version Questionnaire Test Code", "synonyms": ["ADCS-ADL MCI - Select First Clothes for the Day"]}, {"conceptId": "C106894", "definition": "Alzheimer's Disease Cooperative Study-Activities of Daily Living Inventory, MCI Version - If yes, which best describes his/her usual performance.", "preferredTerm": "ADL03-Usual Dressing Performance", "submissionValue": "Alzheimer's Disease Cooperative Study-Activities of Daily Living Inventory MCI Version Questionnaire Test Code", "synonyms": ["ADCS-ADL MCI - Description of Usual Performance of Selecting First Clothes for the Day"]}, {"conceptId": "C106895", "definition": "Alzheimer's Disease Cooperative Study-Activities of Daily Living Inventory, MCI Version - Regarding physically getting dressed, which best describes his/her usual performance in the past 4 weeks.", "preferredTerm": "ADL03-Usual Physically Dressing Perform", "submissionValue": "Alzheimer's Disease Cooperative Study-Activities of Daily Living Inventory MCI Version Questionnaire Test Code", "synonyms": ["ADCS-ADL MCI - Description of Usual Performance of Physically Getting Dressed"]}, {"conceptId": "C106896", "definition": "Alzheimer's Disease Cooperative Study-Activities of Daily Living Inventory, MCI Version - In the past 4 weeks, did {S} clean a living-, sitting-, or family room?", "preferredTerm": "ADL03-Clean Room", "submissionValue": "Alzheimer's Disease Cooperative Study-Activities of Daily Living Inventory MCI Version Questionnaire Test Code", "synonyms": ["ADCS-ADL MCI - Clean Room"]}, {"conceptId": "C106897", "definition": "Alzheimer's Disease Cooperative Study-Activities of Daily Living Inventory, MCI Version - If yes, which best describes how he/she usually performed.", "preferredTerm": "ADL03-Clean Room Performance", "submissionValue": "Alzheimer's Disease Cooperative Study-Activities of Daily Living Inventory MCI Version Questionnaire Test Code", "synonyms": ["ADCS-ADL MCI - Description of Usual Performance of Cleaning Room"]}, {"conceptId": "C106898", "definition": "Alzheimer's Disease Cooperative Study-Activities of Daily Living Inventory, MCI Version - In the past 4 weeks, did {S} balance his/her checkbook or credit card statement?", "preferredTerm": "ADL03-Balance Checkbook", "submissionValue": "Alzheimer's Disease Cooperative Study-Activities of Daily Living Inventory MCI Version Questionnaire Test Code", "synonyms": ["ADCS-ADL MCI - Balance Checkbook"]}, {"conceptId": "C106899", "definition": "Alzheimer's Disease Cooperative Study-Activities of Daily Living Inventory, MCI Version - If yes, which best describes how he/she usually performed.", "preferredTerm": "ADL03-Balance Checkbook Performance", "submissionValue": "Alzheimer's Disease Cooperative Study-Activities of Daily Living Inventory MCI Version Questionnaire Test Code", "synonyms": ["ADCS-ADL MCI - Description of Usual Performance of Balancing Checkbook"]}, {"conceptId": "C106900", "definition": "Alzheimer's Disease Cooperative Study-Activities of Daily Living Inventory, MCI Version - In the past 4 weeks, did {S} ever write things down?", "preferredTerm": "ADL03-Write Things Down", "submissionValue": "Alzheimer's Disease Cooperative Study-Activities of Daily Living Inventory MCI Version Questionnaire Test Code", "synonyms": ["ADCS-ADL MCI - Write Things Down"]}, {"conceptId": "C106901", "definition": "Alzheimer's Disease Cooperative Study-Activities of Daily Living Inventory, MCI Version - If yes, which best describes the most complicated things that he/she wrote.", "preferredTerm": "ADL03-Most Complicated Writings", "submissionValue": "Alzheimer's Disease Cooperative Study-Activities of Daily Living Inventory MCI Version Questionnaire Test Code", "synonyms": ["ADCS-ADL MCI - Description of Usual Performance of Most Complicated Things Written"]}, {"conceptId": "C106902", "definition": "Alzheimer's Disease Cooperative Study-Activities of Daily Living Inventory, MCI Version - In the past 4 weeks, did {S} clean a load of laundry?", "preferredTerm": "ADL03-Clean Laundry", "submissionValue": "Alzheimer's Disease Cooperative Study-Activities of Daily Living Inventory MCI Version Questionnaire Test Code", "synonyms": ["ADCS-ADL MCI - Clean Laundry"]}, {"conceptId": "C106903", "definition": "Alzheimer's Disease Cooperative Study-Activities of Daily Living Inventory, MCI Version - If yes, which best describes how he/she usually performed.", "preferredTerm": "ADL03-Laundry Cleaning Performance", "submissionValue": "Alzheimer's Disease Cooperative Study-Activities of Daily Living Inventory MCI Version Questionnaire Test Code", "synonyms": ["ADCS-ADL MCI - Description of Usual Performance of Clean Laundry"]}, {"conceptId": "C106904", "definition": "Alzheimer's Disease Cooperative Study-Activities of Daily Living Inventory, MCI Version - In the past 4 weeks, did {S} keep appointments or meetings with other people, such as relatives, a doctor, the hairdresser, etc.?", "preferredTerm": "ADL03-Keep Appointments", "submissionValue": "Alzheimer's Disease Cooperative Study-Activities of Daily Living Inventory MCI Version Questionnaire Test Code", "synonyms": ["ADCS-ADL MCI - Keep Appointments"]}, {"conceptId": "C106905", "definition": "Alzheimer's Disease Cooperative Study-Activities of Daily Living Inventory, MCI Version - If yes, which best describes his/her awareness of the meeting ahead of time.", "preferredTerm": "ADL03-Aware of Appointment Ahead of Time", "submissionValue": "Alzheimer's Disease Cooperative Study-Activities of Daily Living Inventory MCI Version Questionnaire Test Code", "synonyms": ["ADCS-ADL MCI - Description of Awareness of the Meeting Ahead of Time"]}, {"conceptId": "C106906", "definition": "Alzheimer's Disease Cooperative Study-Activities of Daily Living Inventory, MCI Version - In the past 4 weeks, did {S} use a telephone?", "preferredTerm": "ADL03-Use a Telephone", "submissionValue": "Alzheimer's Disease Cooperative Study-Activities of Daily Living Inventory MCI Version Questionnaire Test Code", "synonyms": ["ADCS-ADL MCI - Use a Telephone"]}, {"conceptId": "C106907", "definition": "Alzheimer's Disease Cooperative Study-Activities of Daily Living Inventory, MCI Version - If yes, which best describes his/her highest level of performance.", "preferredTerm": "ADL03-Highest Telephone Use Performance", "submissionValue": "Alzheimer's Disease Cooperative Study-Activities of Daily Living Inventory MCI Version Questionnaire Test Code", "synonyms": ["ADCS-ADL MCI - Description of Highest Level of Performance of Telephone Use"]}, {"conceptId": "C106908", "definition": "Alzheimer's Disease Cooperative Study-Activities of Daily Living Inventory, MCI Version - In the past 4 weeks, did {S} make him/herself a meal or snack at home?", "preferredTerm": "ADL03-Make a Meal", "submissionValue": "Alzheimer's Disease Cooperative Study-Activities of Daily Living Inventory MCI Version Questionnaire Test Code", "synonyms": ["ADCS-ADL MCI - Make a Meal or Snack"]}, {"conceptId": "C106909", "definition": "Alzheimer's Disease Cooperative Study-Activities of Daily Living Inventory, MCI Version - If yes, which best describes his/her highest level of food preparation.", "preferredTerm": "ADL03-Highest Level of Food Preparation", "submissionValue": "Alzheimer's Disease Cooperative Study-Activities of Daily Living Inventory MCI Version Questionnaire Test Code", "synonyms": ["ADCS-ADL MCI - Description of Highest Level of Food Preparation"]}, {"conceptId": "C106910", "definition": "Alzheimer's Disease Cooperative Study-Activities of Daily Living Inventory, MCI Version - In the past 4 weeks, did {S} get around (or travel) outside of his/her home?", "preferredTerm": "ADL03-Get Around Outside Home", "submissionValue": "Alzheimer's Disease Cooperative Study-Activities of Daily Living Inventory MCI Version Questionnaire Test Code", "synonyms": ["ADCS-ADL MCI - Travel Outside Home"]}, {"conceptId": "C106911", "definition": "Alzheimer's Disease Cooperative Study-Activities of Daily Living Inventory, MCI Version - If yes, which best describes his/her optimal performance.", "preferredTerm": "ADL03-Get Around Optimal Performance", "submissionValue": "Alzheimer's Disease Cooperative Study-Activities of Daily Living Inventory MCI Version Questionnaire Test Code", "synonyms": ["ADCS-ADL MCI - Description of Optimal Performance of Travelling Outside Home"]}, {"conceptId": "C106912", "definition": "Alzheimer's Disease Cooperative Study-Activities of Daily Living Inventory, MCI Version - In the past 4 weeks, did {S} talk about current events?", "preferredTerm": "ADL03-Talk About Current Events", "submissionValue": "Alzheimer's Disease Cooperative Study-Activities of Daily Living Inventory MCI Version Questionnaire Test Code", "synonyms": ["ADCS-ADL MCI - Talk About Current Events"]}, {"conceptId": "C106913", "definition": "Alzheimer's Disease Cooperative Study-Activities of Daily Living Inventory, MCI Version - If yes, did {S} talk about regional, national or international events?", "preferredTerm": "ADL03-Regional, National, International", "submissionValue": "Alzheimer's Disease Cooperative Study-Activities of Daily Living Inventory MCI Version Questionnaire Test Code", "synonyms": ["ADCS-ADL MCI - Talk About Regional, National or International Events"]}, {"conceptId": "C106914", "definition": "Alzheimer's Disease Cooperative Study-Activities of Daily Living Inventory, MCI Version - Did {S} talk about events outside home involving family, friends, or neighbors?", "preferredTerm": "ADL03-Talk About Outside Events", "submissionValue": "Alzheimer's Disease Cooperative Study-Activities of Daily Living Inventory MCI Version Questionnaire Test Code", "synonyms": ["ADCS-ADL MCI - Talk About Outside Home Events"]}, {"conceptId": "C106915", "definition": "Alzheimer's Disease Cooperative Study-Activities of Daily Living Inventory, MCI Version - Did {S} talk about events that occurred at home that he/she took part in or watched?", "preferredTerm": "ADL03-Talk About at Home Events", "submissionValue": "Alzheimer's Disease Cooperative Study-Activities of Daily Living Inventory MCI Version Questionnaire Test Code", "synonyms": ["ADCS-ADL MCI - Talk About at Home Events"]}, {"conceptId": "C106916", "definition": "Alzheimer's Disease Cooperative Study-Activities of Daily Living Inventory, MCI Version - Did {S} converse without repeating him/herself, or asking the same questions repeatedly?", "preferredTerm": "ADL03-Talk Without Repeating", "submissionValue": "Alzheimer's Disease Cooperative Study-Activities of Daily Living Inventory MCI Version Questionnaire Test Code", "synonyms": ["ADCS-ADL MCI - Converse Without Repeating"]}, {"conceptId": "C106917", "definition": "Alzheimer's Disease Cooperative Study-Activities of Daily Living Inventory, MCI Version - In the past 4 weeks, did {S} read a magazine, newspaper or book for more than 5 minutes at a time?", "preferredTerm": "ADL03-Read More Than 5 Minutes", "submissionValue": "Alzheimer's Disease Cooperative Study-Activities of Daily Living Inventory MCI Version Questionnaire Test Code", "synonyms": ["ADCS-ADL MCI - Read More Than 5 Minutes"]}, {"conceptId": "C106918", "definition": "Alzheimer's Disease Cooperative Study-Activities of Daily Living Inventory, MCI Version - Did {S} usually select or ask for something to read?", "preferredTerm": "ADL03-Select/Ask for Something to Read", "submissionValue": "Alzheimer's Disease Cooperative Study-Activities of Daily Living Inventory MCI Version Questionnaire Test Code", "synonyms": ["ADCS-ADL MCI - Select or Ask for Something to Read"]}, {"conceptId": "C106919", "definition": "Alzheimer's Disease Cooperative Study-Activities of Daily Living Inventory, MCI Version - Did {S} usually talk about what he/she read while or shortly after reading (less than 1 hour)?", "preferredTerm": "ADL03-Talk Within 1 Hour After Reading", "submissionValue": "Alzheimer's Disease Cooperative Study-Activities of Daily Living Inventory MCI Version Questionnaire Test Code", "synonyms": ["ADCS-ADL MCI - Talk Within 1 Hour After Reading"]}, {"conceptId": "C106920", "definition": "Alzheimer's Disease Cooperative Study-Activities of Daily Living Inventory, MCI Version - Did {S} usually talk about what he/she read 1-24 hours after reading?", "preferredTerm": "ADL03-Talk Within 1 Day After Reading", "submissionValue": "Alzheimer's Disease Cooperative Study-Activities of Daily Living Inventory MCI Version Questionnaire Test Code", "synonyms": ["ADCS-ADL MCI - Talk Within 24 Hours After Reading"]}, {"conceptId": "C106921", "definition": "Alzheimer's Disease Cooperative Study-Activities of Daily Living Inventory, MCI Version - In the past 4 weeks, did {S} watch television?", "preferredTerm": "ADL03-Watch Television", "submissionValue": "Alzheimer's Disease Cooperative Study-Activities of Daily Living Inventory MCI Version Questionnaire Test Code", "synonyms": ["ADCS-ADL MCI - Watch Television"]}, {"conceptId": "C106922", "definition": "Alzheimer's Disease Cooperative Study-Activities of Daily Living Inventory, MCI Version - Did {S} usually select or ask for different programs or his/her favorite show?", "preferredTerm": "ADL03-Select Television Program", "submissionValue": "Alzheimer's Disease Cooperative Study-Activities of Daily Living Inventory MCI Version Questionnaire Test Code", "synonyms": ["ADCS-ADL MCI - Select or Ask for Programs or Show"]}, {"conceptId": "C106923", "definition": "Alzheimer's Disease Cooperative Study-Activities of Daily Living Inventory, MCI Version - Did {S} usually talk about the content of a program while watching it?", "preferredTerm": "ADL03-Talk About TV Content While Watch", "submissionValue": "Alzheimer's Disease Cooperative Study-Activities of Daily Living Inventory MCI Version Questionnaire Test Code", "synonyms": ["ADCS-ADL MCI - Talk About Content of Program While Watching"]}, {"conceptId": "C106924", "definition": "Alzheimer's Disease Cooperative Study-Activities of Daily Living Inventory, MCI Version - Did {S} talk about the content of a program within a day (24 hours) after watching it?", "preferredTerm": "ADL03-Talk About TV Content Within a Day", "submissionValue": "Alzheimer's Disease Cooperative Study-Activities of Daily Living Inventory MCI Version Questionnaire Test Code", "synonyms": ["ADCS-ADL MCI - Talk About Content of Program After Watching Within a Day"]}, {"conceptId": "C106925", "definition": "Alzheimer's Disease Cooperative Study-Activities of Daily Living Inventory, MCI Version - In the past 4 weeks, did {S} ever go shopping at a store?", "preferredTerm": "ADL03-Go Shopping", "submissionValue": "Alzheimer's Disease Cooperative Study-Activities of Daily Living Inventory MCI Version Questionnaire Test Code", "synonyms": ["ADCS-ADL MCI - Go Shopping At a Store"]}, {"conceptId": "C106926", "definition": "Alzheimer's Disease Cooperative Study-Activities of Daily Living Inventory, MCI Version - Did {S} usually select correct items without supervision or help?", "preferredTerm": "ADL03-Select items Without Help", "submissionValue": "Alzheimer's Disease Cooperative Study-Activities of Daily Living Inventory MCI Version Questionnaire Test Code", "synonyms": ["ADCS-ADL MCI - Select Correct Items Without Help"]}, {"conceptId": "C106927", "definition": "Alzheimer's Disease Cooperative Study-Activities of Daily Living Inventory, MCI Version - Did {S} usually pay for items on his/her own?", "preferredTerm": "ADL03-Pay Items On His/Her Own", "submissionValue": "Alzheimer's Disease Cooperative Study-Activities of Daily Living Inventory MCI Version Questionnaire Test Code", "synonyms": ["ADCS-ADL MCI - Pay for Items on His or Her Own"]}, {"conceptId": "C106928", "definition": "Alzheimer's Disease Cooperative Study-Activities of Daily Living Inventory, MCI Version - In the past 4 weeks, was {S} ever left on his/her own?", "preferredTerm": "ADL03-Left On His/Her Own", "submissionValue": "Alzheimer's Disease Cooperative Study-Activities of Daily Living Inventory MCI Version Questionnaire Test Code", "synonyms": ["ADCS-ADL MCI - Left on His or Her Own"]}, {"conceptId": "C106929", "definition": "Alzheimer's Disease Cooperative Study-Activities of Daily Living Inventory, MCI Version - Was {S} left away from home, for 15 minutes or longer, during the day?", "preferredTerm": "ADL03-Left Away From Home", "submissionValue": "Alzheimer's Disease Cooperative Study-Activities of Daily Living Inventory MCI Version Questionnaire Test Code", "synonyms": ["ADCS-ADL MCI - Left Away From Home Longer Than 15 Minutes"]}, {"conceptId": "C106930", "definition": "Alzheimer's Disease Cooperative Study-Activities of Daily Living Inventory, MCI Version - Was {S} left at home, for an hour or longer, during the day?", "preferredTerm": "ADL03-Left at Home for 1 Hour or Longer", "submissionValue": "Alzheimer's Disease Cooperative Study-Activities of Daily Living Inventory MCI Version Questionnaire Test Code", "synonyms": ["ADCS-ADL MCI - Left at Home Longer Than an Hour"]}, {"conceptId": "C106931", "definition": "Alzheimer's Disease Cooperative Study-Activities of Daily Living Inventory, MCI Version - Was {S} left at home, for less than 1 hour, during the day?", "preferredTerm": "ADL03-Left at Home for Less Than 1 Hour", "submissionValue": "Alzheimer's Disease Cooperative Study-Activities of Daily Living Inventory MCI Version Questionnaire Test Code", "synonyms": ["ADCS-ADL MCI - Left at Home Less Than an Hour"]}, {"conceptId": "C106932", "definition": "Alzheimer's Disease Cooperative Study-Activities of Daily Living Inventory, MCI Version - In the past 4 weeks, did {S} use a household appliance to do chores?", "preferredTerm": "ADL03-Use Household Appliance", "submissionValue": "Alzheimer's Disease Cooperative Study-Activities of Daily Living Inventory MCI Version Questionnaire Test Code", "synonyms": ["ADCS-ADL MCI - Use Household Appliance"]}, {"conceptId": "C107089", "definition": "Alzheimer's Disease Cooperative Study-Activities of Daily Living Inventory, MCI Version - Check all that were used: washer.", "preferredTerm": "ADL03-Appliance: Washer", "submissionValue": "Alzheimer's Disease Cooperative Study-Activities of Daily Living Inventory MCI Version Questionnaire Test Code", "synonyms": ["ADCS-ADL MCI - Use Household Appliance: Washer"]}, {"conceptId": "C107090", "definition": "Alzheimer's Disease Cooperative Study-Activities of Daily Living Inventory, MCI Version - Check all that were used: dryer.", "preferredTerm": "ADL03-Appliance: Dryer", "submissionValue": "Alzheimer's Disease Cooperative Study-Activities of Daily Living Inventory MCI Version Questionnaire Test Code", "synonyms": ["ADCS-ADL MCI - Use Household Appliance: Dryer"]}, {"conceptId": "C107091", "definition": "Alzheimer's Disease Cooperative Study-Activities of Daily Living Inventory, MCI Version - Check all that were used: vacuum.", "preferredTerm": "ADL03-Appliance: Vacuum", "submissionValue": "Alzheimer's Disease Cooperative Study-Activities of Daily Living Inventory MCI Version Questionnaire Test Code", "synonyms": ["ADCS-ADL MCI - Use Household Appliance: Vacuum"]}, {"conceptId": "C106933", "definition": "Alzheimer's Disease Cooperative Study-Activities of Daily Living Inventory, MCI Version - Check all that were used: dishwasher.", "preferredTerm": "ADL03-Appliance: Dishwasher", "submissionValue": "Alzheimer's Disease Cooperative Study-Activities of Daily Living Inventory MCI Version Questionnaire Test Code", "synonyms": ["ADCS-ADL MCI - Use Household Appliance: Dishwasher"]}, {"conceptId": "C106934", "definition": "Alzheimer's Disease Cooperative Study-Activities of Daily Living Inventory, MCI Version - Check all that were used: power tool (s).", "preferredTerm": "ADL03-Appliance: Power Tools", "submissionValue": "Alzheimer's Disease Cooperative Study-Activities of Daily Living Inventory MCI Version Questionnaire Test Code", "synonyms": ["ADCS-ADL MCI - Use Household Appliance: Power Tools"]}, {"conceptId": "C106935", "definition": "Alzheimer's Disease Cooperative Study-Activities of Daily Living Inventory, MCI Version - Check all that were used: toaster oven.", "preferredTerm": "ADL03-Appliance: Toaster Oven", "submissionValue": "Alzheimer's Disease Cooperative Study-Activities of Daily Living Inventory MCI Version Questionnaire Test Code", "synonyms": ["ADCS-ADL MCI - Use Household Appliance: Toaster Oven"]}, {"conceptId": "C106936", "definition": "Alzheimer's Disease Cooperative Study-Activities of Daily Living Inventory, MCI Version - Check all that were used: range.", "preferredTerm": "ADL03-Appliance: Range", "submissionValue": "Alzheimer's Disease Cooperative Study-Activities of Daily Living Inventory MCI Version Questionnaire Test Code", "synonyms": ["ADCS-ADL MCI - Use Household Appliance: Range"]}, {"conceptId": "C106937", "definition": "Alzheimer's Disease Cooperative Study-Activities of Daily Living Inventory, MCI Version - Check all that were used: microwave.", "preferredTerm": "ADL03-Appliance: Microwave", "submissionValue": "Alzheimer's Disease Cooperative Study-Activities of Daily Living Inventory MCI Version Questionnaire Test Code", "synonyms": ["ADCS-ADL MCI - Use Household Appliance: Microwave"]}, {"conceptId": "C106938", "definition": "Alzheimer's Disease Cooperative Study-Activities of Daily Living Inventory, MCI Version - Check all that were used: food processor.", "preferredTerm": "ADL03-Appliance: Food Processor", "submissionValue": "Alzheimer's Disease Cooperative Study-Activities of Daily Living Inventory MCI Version Questionnaire Test Code", "synonyms": ["ADCS-ADL MCI - Use Household Appliance: Food Processor"]}, {"conceptId": "C106939", "definition": "Alzheimer's Disease Cooperative Study-Activities of Daily Living Inventory, MCI Version - Check all that were used: other.", "preferredTerm": "ADL03-Appliance: Other", "submissionValue": "Alzheimer's Disease Cooperative Study-Activities of Daily Living Inventory MCI Version Questionnaire Test Code", "synonyms": ["ADCS-ADL MCI - Use Household Appliance: Other"]}, {"conceptId": "C106940", "definition": "Alzheimer's Disease Cooperative Study-Activities of Daily Living Inventory, MCI Version - Check all that were used: other specify.", "preferredTerm": "ADL03-Appliance: Other Specify", "submissionValue": "Alzheimer's Disease Cooperative Study-Activities of Daily Living Inventory MCI Version Questionnaire Test Code", "synonyms": ["ADCS-ADL MCI - Use Household Appliance: Other Specify"]}, {"conceptId": "C106941", "definition": "Alzheimer's Disease Cooperative Study-Activities of Daily Living Inventory, MCI Version - For the 1 or 2 most commonly used appliances, which best de