{"codelists": [{"conceptId": "", "definition": "A grouping of observations within the Questionnaire domain.", "extensible": "Yes", "name": "Questionnaire Category", "preferredTerm": "Questionnaire Category", "submissionValue": "Questionnaire Category", "synonyms": ["CDISC Questionnaire Category Terminology"], "terms": [{"conceptId": "C100762", "definition": "The CDISC version of the Alzheimer's Disease Assessment Scale-Cognitive (ADAS-Cog CDISC Version) containing 15 summary-level tests. This version is based on combining the total pool of ADAS-Cog tests that were observed during a review of multiple case report forms administered in clinical trials of Alzheimer's disease, as well as the CRF administered in the Alzheimer's Disease Neuroimaging Initiative (ADNI) observational study. (Modified from Mohs RC, Rosen WG, Davis KL. The Alzheimer's disease assessment scale: an instrument for assessing treatment efficacy. Psychopharmacol Bull 1983;19(3):448-450. Rosen WG, Mohs RC, Davis KL. A new rating scale for Alzheimer's disease. Am J Psychiatry 1984;141(11):1356-1364. Mohs RC, Knopman D, Petersen RC et al. Development of cognitive instruments for use in clinical trials of antidementia drugs: additions to the Alzheimer's Disease Assessment Scale that broaden its scope. The Alzheimer's Disease Cooperative Study. Alzheimer Dis Assoc Disord 1997;11 Suppl 2:S13-S21. Wouters H, van Gool WA, Schmand B, Lindeboom R. Revising the ADAS-cog for a more accurate assessment of cognitive impairment. Alzheimer Dis Assoc Disord 2008;22(3):236-244.).", "preferredTerm": "ADC", "submissionValue": "Questionnaire Category", "synonyms": ["Alzheimer's Disease Assessment Scale-Cognitive CDISC Version Questionnaire"]}, {"conceptId": "C100759", "definition": "Brief Pain Inventory (BPI) (copyright 1991 Charles S. Cleeland, PhD, Pain Research Group, All Right Reserved).", "preferredTerm": "BPI1", "submissionValue": "Questionnaire Category", "synonyms": ["Brief Pain Inventory Questionnaire"]}, {"conceptId": "C100760", "definition": "Brief Pain Inventory Short Form (BPI2) (copyright 1991 Charles S. Cleeland, PhD, Pain Research Group, All Right Reserved).", "preferredTerm": "BPI2", "submissionValue": "Questionnaire Category", "synonyms": ["Brief Pain Inventory Short Form Questionnaire"]}, {"conceptId": "C100761", "definition": "Brief Psychiatric Rating Scale - Anchored (BPRS-A) (Woerner MB, Mannuzza S, and Kane JM. Anchoring the BPRS: An Aid to Improved Reliability. Psychopharmacology Bulletin 1988; 24(1):112-117).", "preferredTerm": "BPR01", "submissionValue": "Questionnaire Category", "synonyms": ["Brief Psychiatric Rating Scale A Questionnaire"]}, {"conceptId": "C100763", "definition": "Clinical Global Impression (CGI) (Guy W: ECDEU Assessment Manual for Psychopharmacology. Rockville, MD: U.S. Department of Health, Education, and Welfare; 1976).", "preferredTerm": "CGI01", "submissionValue": "Questionnaire Category", "synonyms": ["Clinical Global Impression Questionnaire"]}, {"conceptId": "C100765", "definition": "Columbia-Suicidality Severity Rating Scale (C-SSRS) Baseline Version 2009-01-14 (Posner, K.; Brent, D.; Lucas, C.; Gould, M.; Stanley, B.; Brown, G.; Fisher, P.; Zelazny, J.; Burke, A.; Oquendo, M.; Mann, J.; copyright 2008 The Research Foundation for Mental Hygiene, Inc.).", "preferredTerm": "CSS01", "submissionValue": "Questionnaire Category", "synonyms": ["Columbia-Suicidality Severity Rating Scale Baseline Questionnaire"]}, {"conceptId": "C100764", "definition": "Current Opioid Misuse Measure (COMM) (copyright 2010 Inflexxion, Inc., All rights reserved).", "preferredTerm": "COMM01", "submissionValue": "Questionnaire Category", "synonyms": ["Current Opioid Misuse Measure Questionnaire"]}, {"conceptId": "C100766", "definition": "Faces Pain Scale - Revised (FPS-R) (Hicks CL, von Baeyer CL, van Korlaar I, Goodenough B. Faces Pain Scale-Revised: Toward a Common Metric in Pediatric Pain Measurement. Pain 2001; 93:173-183).", "preferredTerm": "FPSR1", "submissionValue": "Questionnaire Category", "synonyms": ["Faces Pain Scale Revised Questionnaire"]}, {"conceptId": "C100767", "definition": "The Hamilton Depression Rating Scale 17-Item (HAMD 17) (Hamilton M. Development of a rating scale for primary depressive illness. Br J Soc Clin Psychol 1967; 6(4):278-96).", "preferredTerm": "HAMD1", "submissionValue": "Questionnaire Category", "synonyms": ["Hamilton Depression Rating Scale 17 Item Questionnaire"]}, {"conceptId": "C100768", "definition": "The Karnofsky Performance Status Scale (KPSS) (Karnofsky DA, Burchenal JH. (1949). \"The Clinical Evaluation of Chemotherapeutic Agents in Cancer.\" In: MacLeod CM (Ed), Evaluation of Chemotherapeutic Agents. Columbia Univ Press. Page 196).", "preferredTerm": "KPSS", "submissionValue": "Questionnaire Category", "synonyms": ["Karnofsky Performance Status Scale Questionnaire"]}, {"conceptId": "C100771", "definition": "Michigan Neuropathy Screening Instrument (MNSI) (copyright University of Michigan, 2000, All rights reserved).", "preferredTerm": "MNSI1", "submissionValue": "Questionnaire Category", "synonyms": ["Michigan Neuropathy Screening Instrument Questionnaire"]}, {"conceptId": "C100769", "definition": "The Movement Disorder Society version of the Unified Parkinson's Disease Rating Scale (MDS-UPDRS) (copyright 2008 Movement Disorder Society. All Rights Reserved).", "preferredTerm": "UPD2", "submissionValue": "Questionnaire Category", "synonyms": ["Movement Disorder Society Unified Parkinson's Disease Rating Scale Questionnaire"]}, {"conceptId": "C100772", "definition": "Neuropsychiatric Inventory (NPI) (copyright JL Cummings, 1994, all rights reserved; permission for commercial use required; npiTEST.net).", "preferredTerm": "NPI1", "submissionValue": "Questionnaire Category", "synonyms": ["Neuropsychiatric Inventory Questionnaire"]}, {"conceptId": "C100773", "definition": "Parkinson's Disease Quality of Life Scale (PDQUALIF) (Welsh M, McDermott MP, Holloway RG, Plumb S, Pfeiffer R, Hubble J, and The Parkinson Study Group. Development and Testing of the Parkinson's Disease Quality of Life Scale. Movement Disorders, 2003, Vol. 18; 637-645).", "preferredTerm": "PDQ01", "submissionValue": "Questionnaire Category", "synonyms": ["Parkinson's Disease Quality of Life Scale Questionnaire"]}, {"conceptId": "C100774", "definition": "Roland Morris Disability Questionnaire (RDQ) (Roland MO, Morris RW. A study of the natural history of back pain. Part 1: Development of a reliable and sensitive measure of disability in low back pain. Spine 1983;8:141-144).", "preferredTerm": "RDQ01", "submissionValue": "Questionnaire Category", "synonyms": ["Roland Morris Disability Questionnaire"]}, {"conceptId": "C100777", "definition": "Screener and Opioid Assessment for Patients with Pain Revised (SOAPP-R) (copyright 2007 Inflexxion, Inc., All rights reserved).", "preferredTerm": "SOAPR1", "submissionValue": "Questionnaire Category", "synonyms": ["Screener and Opioid Assessment for Patients with Pain Revised Questionnaire"]}, {"conceptId": "C100776", "definition": "Short-Form McGill Pain Questionnaire-2 (SF-MPQ-2) (Copyright R. Melzack and the Initiative on Methods, Measurement, and Pain Assessment in Clinical Trials (IMMPACT), 2009, All Rights Reserved).", "preferredTerm": "SFMP2", "submissionValue": "Questionnaire Category", "synonyms": ["Short-Form McGill Pain Questionnaire-2"]}, {"conceptId": "C100779", "definition": "The Work Productivity and Activity Impairment - Specific Health Problems Questionnaire Version 2.0 (WPAI01) (http://www.reillyassociates.net/WPAI_SHP.html).", "preferredTerm": "WPAI01", "submissionValue": "Questionnaire Category", "synonyms": ["Work Productivity and Activity Impairment Specific Health Problems Version 2.0 Questionnaire"]}, {"conceptId": "C102111", "definition": "Abnormal Involuntary Movement Scale (AIMS) (Guy W. Ed. ECDEU Assessment Manual for Psychopharmacology. Rockville MD: US Dept of Health, Education and Welfare. 1976, Publication No. (ADM) 76-338).", "preferredTerm": "AIMS01", "submissionValue": "Questionnaire Category", "synonyms": ["Abnormal Involuntary Movement Scale Questionnaire"]}, {"conceptId": "C102112", "definition": "The Alzheimer's Disease Neuroimaging Initiative's (ADNI) version of the Auditory Verbal Learning Test (AVLT Version A) modified from Rey A. L'examen clinique en psychologie [Clinical tests in psychology]. Paris: Presses Universitaires de France; 1964.", "preferredTerm": "AVL01", "submissionValue": "Questionnaire Category", "synonyms": ["Alzheimer's Disease Neuroimaging Initiative Auditory Verbal Learning Test Questionnaire"]}, {"conceptId": "C102113", "definition": "Barnes Akathisia Rating Scale (BARS) (Barnes TR: A Rating Scale for Drug-Induced Akathisia. British Journal of Psychiatry 154:672-676, 1989).", "preferredTerm": "BARS01", "submissionValue": "Questionnaire Category", "synonyms": ["Barnes Akathisia Rating Scale Questionnaire"]}, {"conceptId": "C102114", "definition": "Clinical Dementia Rating (CDR) (Morris, JC. Clinical Dementia Rating: A reliable and valid diagnostic and staging measure for dementia of the Alzheimer type. International Psychogeriatrics 1997: 9, Suppl. 1, 173-176).", "preferredTerm": "CDR01", "submissionValue": "Questionnaire Category", "synonyms": ["Clinical Dementia Rating Questionnaire"]}, {"conceptId": "C102115", "definition": "The Clinical Opiate Withdrawal Scale (COWS) (Wesson DR and Ling W. The Clinical Opiate Withdrawal Scale (COWS). J Psychoactive Drugs 2003;35(2):253-259).", "preferredTerm": "COWS1", "submissionValue": "Questionnaire Category", "synonyms": ["Clinical Opiate Withdrawal Scale Questionnaire"]}, {"conceptId": "C102116", "definition": "Eastern Cooperative Oncology Group (ECOG) Performance Status (Oken MM, Creech RH, Tormey DC, Horton J, Davis TE, McFadden ET, Carbone PP. Toxicity and response criteria of the Eastern Cooperative Oncology Group. Am J Clin Oncol. 1982 Dec;5(6):649-55).", "preferredTerm": "ECOG1", "submissionValue": "Questionnaire Category", "synonyms": ["Eastern Cooperative Oncology Group Performance Status Questionnaire"]}, {"conceptId": "C102118", "definition": "The Hamilton Anxiety Rating Scale (HAM-A) (Hamilton M. The assessment of anxiety states by rating. Br J Med Psychol 1959; 32:50-55).", "preferredTerm": "HAMA1", "submissionValue": "Questionnaire Category", "synonyms": ["Hamilton Anxiety Rating Scale Questionnaire"]}, {"conceptId": "C102119", "definition": "The Hamilton Depression Rating Scale 21-Item (HAMD 21) (Hedlund and Vieweg, The Hamilton rating scale for depression. Journal of Operational Psychiatry, 1979;10(2):149-165).", "preferredTerm": "HAMD2", "submissionValue": "Questionnaire Category", "synonyms": ["Hamilton Depression Rating Scale 21-Item Questionnaire"]}, {"conceptId": "C102123", "definition": "The Subjective Opiate Withdrawal Scale (SOWS) (Handelsman, L., Cochrane, K. J., Aronson, M. J. Ness, R., Rubinstein K.J., Kanof, P.D. (1987) Two New Rating Scales for Opiate Withdrawal. American Journal of Alcohol Abuse, 13, 293-308).", "preferredTerm": "SOWSA1", "submissionValue": "Questionnaire Category", "synonyms": ["Subjective Opiate Withdrawal Scale Questionnaire"]}, {"conceptId": "C100778", "definition": "Unified Parkinson's Disease Rating Scale (UPDRS) (Fahn S, Marsden CD, Calne DB, Goldstein M, eds. Recent Developments in Parkinson's Disease, Vol 2. Florham Park, NJ. Macmillan Health Care Information 1987, pp 153-163, 293-304).", "preferredTerm": "UPD1", "submissionValue": "Questionnaire Category", "synonyms": ["Unified Parkinson's Disease Rating Scale Questionnaire"]}, {"conceptId": "C102124", "definition": "Young Mania Rating Scale (YMRS) (Young RC, Biggs JT, Ziegler VE et al: A rating scale for mania: reliability, validity and sensitivity. Br J Psychiatry 133: 429-435, 1978).", "preferredTerm": "YMRS01", "submissionValue": "Questionnaire Category", "synonyms": ["Young Mania Rating Scale Questionnaire"]}, {"conceptId": "C103515", "definition": "Alzheimer's Disease Cooperative Study-Clinical Global Impression of Change (ADCS-CGIC) (Schneider LS, Olin JT, Doody RS, Clark CM, Morris JC, Reisberg B, Schmitt FA, Grundman M, Thomas RG, Ferris SH, and the Alzheimer's Disease Cooperative Study. Validity and Reliability of the Alzheimer's Disease Cooperative Study-Clinical Global Impression of Change. Alzheimer Disease and Associated Disorders. 1997; 11(2):S22-S32).", "preferredTerm": "ACGC01", "submissionValue": "Questionnaire Category", "synonyms": ["Alzheimer's Disease Cooperative Study-Clinical Global Impression of Change Questionnaire"]}, {"conceptId": "C103516", "definition": "Columbia-Suicidality Severity Rating Scale (C-SSRS) Since Last Visit Version 1/14/2009 (Posner, K.; Brent, D.; Lucas, C.; Gould, M.; Stanley, B.; Brown, G.; Fisher, P.; Zelazny, J.; Burke, A.; Oquendo, M.; Mann, J.; copyright 2008 The Research Foundation for Mental Hygiene, Inc.).", "preferredTerm": "CSS02", "submissionValue": "Questionnaire Category", "synonyms": ["Columbia-Suicidality Severity Rating Scale Since Last Visit Questionnaire"]}, {"conceptId": "C103517", "definition": "Epworth Sleepiness Scale (ESS) (copyright Murray W. Johns, 1990-1997. All rights reserved.).", "preferredTerm": "ESS01", "submissionValue": "Questionnaire Category", "synonyms": ["Epworth Sleepiness Scale Questionnaire"]}, {"conceptId": "C103518", "definition": "Revised Fibromyalgia Impact Questionnaire (FIQR) (copyright 2009 Bennett RM and Friend. All Rights Reserved.).", "preferredTerm": "FIQR01", "submissionValue": "Questionnaire Category", "synonyms": ["Revised Fibromyalgia Impact Questionnaire"]}, {"conceptId": "C103519", "definition": "Generalized Anxiety Disorder - 7 (GAD-7) (Spitzer RL, Kroenke K, Williams JBW, Lowe B. A brief measure for assessing generalized anxiety disorder: The GAD-7. Arch Intern Med 2006; 166:1092-1097).", "preferredTerm": "GAD01", "submissionValue": "Questionnaire Category", "synonyms": ["Generalized Anxiety Disorder - 7 Questionnaire"]}, {"conceptId": "C103520", "definition": "Hospital Anxiety and Depression Scale (HADS) (copyright 1983, 1992, 1994 by R.P. Snaith and A.S. Zigmond. All rights reserved.).", "preferredTerm": "HADS01", "submissionValue": "Questionnaire Category", "synonyms": ["Hospital Anxiety and Depression Scale Questionnaire"]}, {"conceptId": "C103521", "definition": "International Index of Erectile Function (IIEF) (Rosen RC, Riley A, Wagner G, Osterloh IH, Kirkpatrick J, and Mishra A. The international index of erectile function (IIEF): a multidimensional scale for assessment of erectile dysfunction. Urology. 1997 49(6): 822-830).", "preferredTerm": "IIEF01", "submissionValue": "Questionnaire Category", "synonyms": ["International Index of Erectile Function Questionnaire"]}, {"conceptId": "C103522", "definition": "Neuropathic Pain Scale (NPS) (copyright Brad Galer and Mark Jensen. All rights reserved.).", "preferredTerm": "NPS01", "submissionValue": "Questionnaire Category", "synonyms": ["Neuropathic Pain Scale Questionnaire"]}, {"conceptId": "C103523", "definition": "The Overactive Bladder Questionnaire (OAB-q) (Coyne K, Revicki D, Hunt T, et al. Psychometric validation of an overactive bladder symptom and health-related quality of life questionnaire: the OAB-q. Qual Life Res. Sep 2002; 11(6):563-574).", "preferredTerm": "OABQ01", "submissionValue": "Questionnaire Category", "synonyms": ["The Overactive Bladder Questionnaire"]}, {"conceptId": "C103524", "definition": "The Overactive Bladder Questionnaire Short Form (OAB-q Short Form) (Coyne KS, Lai JS, Zyczynski T, Kopp Z, Avery K, Abrams P. An overactive bladder symptom and quality-of-life short form: development of the Overactive Bladder Questionnaire (OAB-q) short form (SF). Presented at the Joint Meeting of the International Continence Society and the International Urogynecological Association; August 23-27, 2004; Paris, France).", "preferredTerm": "OABQ02", "submissionValue": "Questionnaire Category", "synonyms": ["The Overactive Bladder Questionnaire Short Form"]}, {"conceptId": "C103525", "definition": "The Oswestry Disability Index Version 2.1a (ODI v2.1A) (copyright 1980 Jeremy Fairbank. All Rights Reserved.).", "preferredTerm": "ODI01", "submissionValue": "Questionnaire Category", "synonyms": ["The Oswestry Disability Index Version 2.1a Questionnaire"]}, {"conceptId": "C103527", "definition": "Patient Health Questionnaire - 15 (PHQ-15) (Kroenke K, Spitzer RL, Williams JBW. The PHQ-15: Validity of a new measure for evaluating the severity of somatic symptoms. Psychosom Med 2002; 64:258-266).", "preferredTerm": "PHQ02", "submissionValue": "Questionnaire Category", "synonyms": ["Patient Health Questionnaire - 15 Item"]}, {"conceptId": "C103526", "definition": "Patient Health Questionnaire - 9 (PHQ-9) (Kroenke K, Spitzer RL, Williams JBW. The PHQ-9: Validity of a brief depression severity measure. J Gen Intern Med 2001; 16:606-613).", "preferredTerm": "PHQ01", "submissionValue": "Questionnaire Category", "synonyms": ["Patient Health Questionnaire - 9 Item"]}, {"conceptId": "C103528", "definition": "Symptom Impact Questionnaire (SIQR) (copyright 2009 Bennett RM and Friend. All Rights Reserved.).", "preferredTerm": "SIQR01", "submissionValue": "Questionnaire Category", "synonyms": ["Symptom Impact Questionnaire"]}, {"conceptId": "C103529", "definition": "Short Opiate Withdrawal Scale (SOWS SHORT) (Gossop, M. The development of a short opiate withdrawal scale. Addictive Behaviors 1990; 15:487-490).", "preferredTerm": "SOWSB1", "submissionValue": "Questionnaire Category", "synonyms": ["Short Opiate Withdrawal Scale Questionnaire"]}, {"conceptId": "C103530", "definition": "Urgency Perception Scale (UPS) (copyright Pfizer. All rights reserved.).", "preferredTerm": "UPS01", "submissionValue": "Questionnaire Category", "synonyms": ["Urgency Perception Scale Questionnaire"]}, {"conceptId": "C105164", "definition": "Columbia-Suicidality Severity Rating Scale (C-SSRS) Baseline/Screening Version Phase 1 Study Version 1/14/2009 (Posner, K.; Brent, D.; Lucas, C.; Gould, M.; Stanley, B.; Brown, G.; Fisher, P.; Zelazny, J.; Burke, A.; Oquendo, M.; Mann, J.; copyright 2008 The Research Foundation for Mental Hygiene, Inc.).", "preferredTerm": "CSS03", "submissionValue": "Questionnaire Category", "synonyms": ["Columbia-Suicidality Severity Rating Scale Baseline/Screening Version Phase 1 Study 1/14/09 Questionnaire"]}, {"conceptId": "C105165", "definition": "Disability Assessment for Dementia (DAD) (copyright 1994 by L. Gauthier I. Gelinas. All rights reserved.).", "preferredTerm": "DAD01", "submissionValue": "Questionnaire Category", "synonyms": ["Disability Assessment for Dementia Questionnaire"]}, {"conceptId": "C105166", "definition": "Alzheimer's Disease Cooperative Study-Activities of Daily Living Inventory (ADCS-ADL), Standard Version (Galasko, D., Bennett, D., Sano, M., Ernesto, C., Thomas, R., Grundman, M., Ferris, S., and the ADCS. \"An Inventory to Assess Activities of Daily Living for Clinical Trials in Alzheimer's Disease.\" Alzheimer's Disease and Associated Disorders, 1997. Volume 11(2): S33-S39).", "preferredTerm": "ADL01", "submissionValue": "Questionnaire Category", "synonyms": ["Alzheimer's Disease Cooperative Study Activities of Daily Living Inventory Standard Version Questionnaire"]}, {"conceptId": "C105167", "definition": "The Pain Intensity (PI) questions were created by STANDARDS (Standardized Analgesic Database for Research, Discovery, and Submissions) and sponsored by ACTTION (Analgesic Clinical Trial Translations, Innovations, Opportunities, and Networks) www.acttion.org; 2012-08-07 v1.\n", "preferredTerm": "PI01", "submissionValue": "Questionnaire Category", "synonyms": ["STANDARDS Pain Intensity Questionnaire"]}, {"conceptId": "C105168", "definition": "The Pain Relief (PR) questions were created by STANDARDS (Standardized Analgesic Database for Research, Discovery, and Submissions) and sponsored by ACTTION (Analgesic Clinical Trial Translations, Innovations, Opportunities, and Networks) www.acttion.org; 2012-08-07 v1.\n", "preferredTerm": "PR01", "submissionValue": "Questionnaire Category", "synonyms": ["STANDARDS Pain Relief Questionnaire"]}, {"conceptId": "C105169", "definition": "The General Clinical Global Impressions (GCGI v1) questions were created by STANDARDS (Standardized Analgesic Database for Research, Discovery, and Submissions) and sponsored by ACTTION (Analgesic Clinical Trial Translations, Innovations, Opportunities, and Networks) www.acttion.org; 2012-08-07 v1.\n", "preferredTerm": "GCGI01", "submissionValue": "Questionnaire Category", "synonyms": ["STANDARDS General Clinical Global Impressions Questionnaire"]}]}, {"conceptId": "", "definition": "ADAS-Cog CDISC Version test code.", "extensible": "No", "name": "Alzheimer's Disease Assessment Scale - Cognitive CDISC Version Test Code", "preferredTerm": "Alzheimer's Disease Assessment Scale - Cognitive CDISC Version Test Code", "submissionValue": "Alzheimer's Disease Assessment Scale - Cognitive CDISC Version Test Code", "synonyms": ["CDISC Questionnaire ADAS-Cog CDISC Version Test Code Terminology"], "terms": [{"conceptId": "C100177", "definition": "Alzheimer's Disease Assessment Scale-Cognitive CDISC Version - Word recall task word average score of trials 1, 2, 3.", "preferredTerm": "Word Recall", "submissionValue": "Alzheimer's Disease Assessment Scale - Cognitive CDISC Version Test Code", "synonyms": ["CDISC ADAS-Cog - Word Recall Average Score"]}, {"conceptId": "C100178", "definition": "Alzheimer's Disease Assessment Scale-Cognitive CDISC Version - Sub-score for word recall task trial 1.", "preferredTerm": "Word Recall Trial 1", "submissionValue": "Alzheimer's Disease Assessment Scale - Cognitive CDISC Version Test Code", "synonyms": ["CDISC ADAS-Cog - Word Recall Trial 1 Subscore"]}, {"conceptId": "C100179", "definition": "Alzheimer's Disease Assessment Scale-Cognitive CDISC Version - Sub-score for word recall task trial 2.", "preferredTerm": "Word Recall Trial 2", "submissionValue": "Alzheimer's Disease Assessment Scale - Cognitive CDISC Version Test Code", "synonyms": ["CDISC ADAS-Cog - Word Recall Trial 2 Subscore"]}, {"conceptId": "C100180", "definition": "Alzheimer's Disease Assessment Scale-Cognitive CDISC Version - Sub-score for word recall task trial 3.", "preferredTerm": "Word Recall Trial 3", "submissionValue": "Alzheimer's Disease Assessment Scale - Cognitive CDISC Version Test Code", "synonyms": ["CDISC ADAS-Cog - Word Recall Trial 3 Subscore"]}, {"conceptId": "C100181", "definition": "Alzheimer's Disease Assessment Scale-Cognitive CDISC Version - Word recall task word 1 for trial 1, 2, 3.", "preferredTerm": "Word Recall: Word [1]", "submissionValue": "Alzheimer's Disease Assessment Scale - Cognitive CDISC Version Test Code", "synonyms": ["CDISC ADAS-Cog - Word Recall: Word 1"]}, {"conceptId": "C100182", "definition": "Alzheimer's Disease Assessment Scale-Cognitive CDISC Version - Word recall task word 2 for trial 1, 2, 3.", "preferredTerm": "Word Recall: Word [2]", "submissionValue": "Alzheimer's Disease Assessment Scale - Cognitive CDISC Version Test Code", "synonyms": ["CDISC ADAS-Cog - Word Recall: Word 2"]}, {"conceptId": "C100183", "definition": "Alzheimer's Disease Assessment Scale-Cognitive CDISC Version - Word recall task word 3 for trial 1, 2, 3.", "preferredTerm": "Word Recall: Word [3]", "submissionValue": "Alzheimer's Disease Assessment Scale - Cognitive CDISC Version Test Code", "synonyms": ["CDISC ADAS-Cog - Word Recall: Word 3"]}, {"conceptId": "C100184", "definition": "Alzheimer's Disease Assessment Scale-Cognitive CDISC Version - Word recall task word 4 for trial 1, 2, 3.", "preferredTerm": "Word Recall: Word [4]", "submissionValue": "Alzheimer's Disease Assessment Scale - Cognitive CDISC Version Test Code", "synonyms": ["CDISC ADAS-Cog - Word Recall: Word 4"]}, {"conceptId": "C100185", "definition": "Alzheimer's Disease Assessment Scale-Cognitive CDISC Version - Word recall task word 5 for trial 1, 2, 3.", "preferredTerm": "Word Recall: Word [5]", "submissionValue": "Alzheimer's Disease Assessment Scale - Cognitive CDISC Version Test Code", "synonyms": ["CDISC ADAS-Cog - Word Recall: Word 5"]}, {"conceptId": "C100186", "definition": "Alzheimer's Disease Assessment Scale-Cognitive CDISC Version - Word recall task word 6 for trial 1, 2, 3.", "preferredTerm": "Word Recall: Word [6]", "submissionValue": "Alzheimer's Disease Assessment Scale - Cognitive CDISC Version Test Code", "synonyms": ["CDISC ADAS-Cog - Word Recall: Word 6"]}, {"conceptId": "C100187", "definition": "Alzheimer's Disease Assessment Scale-Cognitive CDISC Version - Word recall task word 7 for trial 1, 2, 3.", "preferredTerm": "Word Recall: Word [7]", "submissionValue": "Alzheimer's Disease Assessment Scale - Cognitive CDISC Version Test Code", "synonyms": ["CDISC ADAS-Cog - Word Recall: Word 7"]}, {"conceptId": "C100188", "definition": "Alzheimer's Disease Assessment Scale-Cognitive CDISC Version - Word recall task word 8 for trial 1, 2, 3.", "preferredTerm": "Word Recall: Word [8]", "submissionValue": "Alzheimer's Disease Assessment Scale - Cognitive CDISC Version Test Code", "synonyms": ["CDISC ADAS-Cog - Word Recall: Word 8"]}, {"conceptId": "C100189", "definition": "Alzheimer's Disease Assessment Scale-Cognitive CDISC Version - Word recall task word 9 for trial 1, 2, 3.", "preferredTerm": "Word Recall: Word [9]", "submissionValue": "Alzheimer's Disease Assessment Scale - Cognitive CDISC Version Test Code", "synonyms": ["CDISC ADAS-Cog - Word Recall: Word 9"]}, {"conceptId": "C100190", "definition": "Alzheimer's Disease Assessment Scale-Cognitive CDISC Version - Word recall task word 10 for trial 1, 2, 3.", "preferredTerm": "Word Recall: Word [10]", "submissionValue": "Alzheimer's Disease Assessment Scale - Cognitive CDISC Version Test Code", "synonyms": ["CDISC ADAS-Cog - Word Recall: Word 10"]}, {"conceptId": "C100191", "definition": "Alzheimer's Disease Assessment Scale-Cognitive CDISC Version - Naming task summary score for object and fingers.", "preferredTerm": "Naming Objects and Fingers", "submissionValue": "Alzheimer's Disease Assessment Scale - Cognitive CDISC Version Test Code", "synonyms": ["CDISC ADAS-Cog - Naming Objects and Fingers Summary Score"]}, {"conceptId": "C100192", "definition": "Alzheimer's Disease Assessment Scale-Cognitive CDISC Version - Naming task for object 1.", "preferredTerm": "Naming Objects and Fingers: 1", "submissionValue": "Alzheimer's Disease Assessment Scale - Cognitive CDISC Version Test Code", "synonyms": ["CDISC ADAS-Cog - Naming Objects and Fingers: 1"]}, {"conceptId": "C100193", "definition": "Alzheimer's Disease Assessment Scale-Cognitive CDISC Version - Naming task for object 2.", "preferredTerm": "Naming Objects and Fingers: 2", "submissionValue": "Alzheimer's Disease Assessment Scale - Cognitive CDISC Version Test Code", "synonyms": ["CDISC ADAS-Cog - Naming Objects and Fingers: 2"]}, {"conceptId": "C100194", "definition": "Alzheimer's Disease Assessment Scale-Cognitive CDISC Version - Naming task for object 3.", "preferredTerm": "Naming Objects and Fingers: 3", "submissionValue": "Alzheimer's Disease Assessment Scale - Cognitive CDISC Version Test Code", "synonyms": ["CDISC ADAS-Cog - Naming Objects and Fingers: 3"]}, {"conceptId": "C100195", "definition": "Alzheimer's Disease Assessment Scale-Cognitive CDISC Version - Naming task for object 4.", "preferredTerm": "Naming Objects and Fingers: 4", "submissionValue": "Alzheimer's Disease Assessment Scale - Cognitive CDISC Version Test Code", "synonyms": ["CDISC ADAS-Cog - Naming Objects and Fingers: 4"]}, {"conceptId": "C100196", "definition": "Alzheimer's Disease Assessment Scale-Cognitive CDISC Version - Naming task for object 5.", "preferredTerm": "Naming Objects and Fingers: 5", "submissionValue": "Alzheimer's Disease Assessment Scale - Cognitive CDISC Version Test Code", "synonyms": ["CDISC ADAS-Cog - Naming Objects and Fingers: 5"]}, {"conceptId": "C100197", "definition": "Alzheimer's Disease Assessment Scale-Cognitive CDISC Version - Naming task for object 6.", "preferredTerm": "Naming Objects and Fingers: 6", "submissionValue": "Alzheimer's Disease Assessment Scale - Cognitive CDISC Version Test Code", "synonyms": ["CDISC ADAS-Cog - Naming Objects and Fingers: 6"]}, {"conceptId": "C100198", "definition": "Alzheimer's Disease Assessment Scale-Cognitive CDISC Version - Naming task for object 7.", "preferredTerm": "Naming Objects and Fingers: 7", "submissionValue": "Alzheimer's Disease Assessment Scale - Cognitive CDISC Version Test Code", "synonyms": ["CDISC ADAS-Cog - Naming Objects and Fingers: 7"]}, {"conceptId": "C100199", "definition": "Alzheimer's Disease Assessment Scale-Cognitive CDISC Version - Naming task for object 8.", "preferredTerm": "Naming Objects and Fingers: 8", "submissionValue": "Alzheimer's Disease Assessment Scale - Cognitive CDISC Version Test Code", "synonyms": ["CDISC ADAS-Cog - Naming Objects and Fingers: 8"]}, {"conceptId": "C100200", "definition": "Alzheimer's Disease Assessment Scale-Cognitive CDISC Version - Naming task for object 9.", "preferredTerm": "Naming Objects and Fingers: 9", "submissionValue": "Alzheimer's Disease Assessment Scale - Cognitive CDISC Version Test Code", "synonyms": ["CDISC ADAS-Cog - Naming Objects and Fingers: 9"]}, {"conceptId": "C100201", "definition": "Alzheimer's Disease Assessment Scale-Cognitive CDISC Version - Naming task for object 10.", "preferredTerm": "Naming Objects and Fingers: 10", "submissionValue": "Alzheimer's Disease Assessment Scale - Cognitive CDISC Version Test Code", "synonyms": ["CDISC ADAS-Cog - Naming Objects and Fingers: 10"]}, {"conceptId": "C100202", "definition": "Alzheimer's Disease Assessment Scale-Cognitive CDISC Version - Naming task for object 11.", "preferredTerm": "Naming Objects and Fingers: 11", "submissionValue": "Alzheimer's Disease Assessment Scale - Cognitive CDISC Version Test Code", "synonyms": ["CDISC ADAS-Cog - Naming Objects and Fingers: 11"]}, {"conceptId": "C100203", "definition": "Alzheimer's Disease Assessment Scale-Cognitive CDISC Version - Naming task for object 12.", "preferredTerm": "Naming Objects and Fingers: 12", "submissionValue": "Alzheimer's Disease Assessment Scale - Cognitive CDISC Version Test Code", "synonyms": ["CDISC ADAS-Cog - Naming Objects and Fingers: 12"]}, {"conceptId": "C100204", "definition": "Alzheimer's Disease Assessment Scale-Cognitive CDISC Version - Naming task for fingers of the dominant hand, thumb.", "preferredTerm": "Naming Objects and Fingers: Thumb", "submissionValue": "Alzheimer's Disease Assessment Scale - Cognitive CDISC Version Test Code", "synonyms": ["CDISC ADAS-Cog - Naming Objects and Fingers: Thumb"]}, {"conceptId": "C100205", "definition": "Alzheimer's Disease Assessment Scale-Cognitive CDISC Version - Naming task for fingers of the dominant hand, index, or pointer finger.", "preferredTerm": "Naming Objects and Fingers: Pointer", "submissionValue": "Alzheimer's Disease Assessment Scale - Cognitive CDISC Version Test Code", "synonyms": ["CDISC ADAS-Cog - Naming Objects and Fingers: Pointer"]}, {"conceptId": "C100206", "definition": "Alzheimer's Disease Assessment Scale-Cognitive CDISC Version - Naming task for fingers of the dominant hand, middle finger.", "preferredTerm": "Naming Objects and Fingers: Middle", "submissionValue": "Alzheimer's Disease Assessment Scale - Cognitive CDISC Version Test Code", "synonyms": ["CDISC ADAS-Cog - Naming Objects and Fingers: Middle"]}, {"conceptId": "C100207", "definition": "Alzheimer's Disease Assessment Scale-Cognitive CDISC Version - Naming task for fingers of the dominant hand, ring finger.", "preferredTerm": "Naming Objects and Fingers: Ring", "submissionValue": "Alzheimer's Disease Assessment Scale - Cognitive CDISC Version Test Code", "synonyms": ["CDISC ADAS-Cog - Naming Objects and Fingers: Ring"]}, {"conceptId": "C100208", "definition": "Alzheimer's Disease Assessment Scale-Cognitive CDISC Version - Naming task for fingers of the dominant hand, little finger or pinky.", "preferredTerm": "Naming Objects and Fingers: Pinky", "submissionValue": "Alzheimer's Disease Assessment Scale - Cognitive CDISC Version Test Code", "synonyms": ["CDISC ADAS-Cog - Naming Objects and Fingers: Pinky"]}, {"conceptId": "C100209", "definition": "Alzheimer's Disease Assessment Scale-Cognitive CDISC Version - Summary score for commands.", "preferredTerm": "Commands", "submissionValue": "Alzheimer's Disease Assessment Scale - Cognitive CDISC Version Test Code", "synonyms": ["CDISC ADAS-Cog - Commands Summary Score"]}, {"conceptId": "C100210", "definition": "Alzheimer's Disease Assessment Scale-Cognitive CDISC Version - Commands task for making a fist.", "preferredTerm": "Commands: Fist", "submissionValue": "Alzheimer's Disease Assessment Scale - Cognitive CDISC Version Test Code", "synonyms": ["CDISC ADAS-Cog - Commands: Fist"]}, {"conceptId": "C100211", "definition": "Alzheimer's Disease Assessment Scale-Cognitive CDISC Version - Commands task for pointing to the ceiling then to the floor.", "preferredTerm": "Commands: Ceiling", "submissionValue": "Alzheimer's Disease Assessment Scale - Cognitive CDISC Version Test Code", "synonyms": ["CDISC ADAS-Cog - Commands: Ceiling"]}, {"conceptId": "C100212", "definition": "Alzheimer's Disease Assessment Scale-Cognitive CDISC Version - Commands task for put the pencil on top of the card and then put it back.", "preferredTerm": "Commands: Pencil", "submissionValue": "Alzheimer's Disease Assessment Scale - Cognitive CDISC Version Test Code", "synonyms": ["CDISC ADAS-Cog - Commands: Pencil"]}, {"conceptId": "C100213", "definition": "Alzheimer's Disease Assessment Scale-Cognitive CDISC Version - Commands task for put the watch on the other side of the pencil and then turn over the card.", "preferredTerm": "Commands: Watch", "submissionValue": "Alzheimer's Disease Assessment Scale - Cognitive CDISC Version Test Code", "synonyms": ["CDISC ADAS-Cog - Commands: Watch"]}, {"conceptId": "C100214", "definition": "Alzheimer's Disease Assessment Scale-Cognitive CDISC Version - Commands task for tap each shoulder twice with two fingers keeping your eyes shut.", "preferredTerm": "Commands: Shoulder", "submissionValue": "Alzheimer's Disease Assessment Scale - Cognitive CDISC Version Test Code", "synonyms": ["CDISC ADAS-Cog - Commands: Shoulder"]}, {"conceptId": "C100215", "definition": "Alzheimer's Disease Assessment Scale-Cognitive CDISC Version - Summary score for delayed word recall.", "preferredTerm": "Delayed Word Recall", "submissionValue": "Alzheimer's Disease Assessment Scale - Cognitive CDISC Version Test Code", "synonyms": ["CDISC ADAS-Cog - Delayed Word Recall Summary Score"]}, {"conceptId": "C100216", "definition": "Alzheimer's Disease Assessment Scale-Cognitive CDISC Version - Delayed word recall task for word 1.", "preferredTerm": "Delayed Word Recall: Word [1]", "submissionValue": "Alzheimer's Disease Assessment Scale - Cognitive CDISC Version Test Code", "synonyms": ["CDISC ADAS-Cog - Delayed Word Recall: Word 1"]}, {"conceptId": "C100217", "definition": "Alzheimer's Disease Assessment Scale-Cognitive CDISC Version - Delayed word recall task for word 2.", "preferredTerm": "Delayed Word Recall: Word [2]", "submissionValue": "Alzheimer's Disease Assessment Scale - Cognitive CDISC Version Test Code", "synonyms": ["CDISC ADAS-Cog - Delayed Word Recall: Word 2"]}, {"conceptId": "C100218", "definition": "Alzheimer's Disease Assessment Scale-Cognitive CDISC Version - Delayed word recall task for word 3.", "preferredTerm": "Delayed Word Recall: Word [3]", "submissionValue": "Alzheimer's Disease Assessment Scale - Cognitive CDISC Version Test Code", "synonyms": ["CDISC ADAS-Cog - Delayed Word Recall: Word 3"]}, {"conceptId": "C100219", "definition": "Alzheimer's Disease Assessment Scale-Cognitive CDISC Version - Delayed word recall task for word 4.", "preferredTerm": "Delayed Word Recall: Word [4]", "submissionValue": "Alzheimer's Disease Assessment Scale - Cognitive CDISC Version Test Code", "synonyms": ["CDISC ADAS-Cog - Delayed Word Recall: Word 4"]}, {"conceptId": "C100220", "definition": "Alzheimer's Disease Assessment Scale-Cognitive CDISC Version - Delayed word recall task for word 5.", "preferredTerm": "Delayed Word Recall: Word [5]", "submissionValue": "Alzheimer's Disease Assessment Scale - Cognitive CDISC Version Test Code", "synonyms": ["CDISC ADAS-Cog - Delayed Word Recall: Word 5"]}, {"conceptId": "C100221", "definition": "Alzheimer's Disease Assessment Scale-Cognitive CDISC Version - Delayed word recall task for word 6.", "preferredTerm": "Delayed Word Recall: Word [6]", "submissionValue": "Alzheimer's Disease Assessment Scale - Cognitive CDISC Version Test Code", "synonyms": ["CDISC ADAS-Cog - Delayed Word Recall: Word 6"]}, {"conceptId": "C100222", "definition": "Alzheimer's Disease Assessment Scale-Cognitive CDISC Version - Delayed word recall task for word 7.", "preferredTerm": "Delayed Word Recall: Word [7]", "submissionValue": "Alzheimer's Disease Assessment Scale - Cognitive CDISC Version Test Code", "synonyms": ["CDISC ADAS-Cog - Delayed Word Recall: Word 7"]}, {"conceptId": "C100223", "definition": "Alzheimer's Disease Assessment Scale-Cognitive CDISC Version - Delayed word recall task for word 8.", "preferredTerm": "Delayed Word Recall: Word [8]", "submissionValue": "Alzheimer's Disease Assessment Scale - Cognitive CDISC Version Test Code", "synonyms": ["CDISC ADAS-Cog - Delayed Word Recall: Word 8"]}, {"conceptId": "C100224", "definition": "Alzheimer's Disease Assessment Scale-Cognitive CDISC Version - Delayed word recall task for word 9.", "preferredTerm": "Delayed Word Recall: Word [9]", "submissionValue": "Alzheimer's Disease Assessment Scale - Cognitive CDISC Version Test Code", "synonyms": ["CDISC ADAS-Cog - Delayed Word Recall: Word 9"]}, {"conceptId": "C100225", "definition": "Alzheimer's Disease Assessment Scale-Cognitive CDISC Version - Delayed word recall task for word 10.", "preferredTerm": "Delayed Word Recall: Word [10]", "submissionValue": "Alzheimer's Disease Assessment Scale - Cognitive CDISC Version Test Code", "synonyms": ["CDISC ADAS-Cog - Delayed Word Recall: Word 10"]}, {"conceptId": "C100226", "definition": "Alzheimer's Disease Assessment Scale-Cognitive CDISC Version - Summary score for constructional praxis.", "preferredTerm": "Constructional Praxis", "submissionValue": "Alzheimer's Disease Assessment Scale - Cognitive CDISC Version Test Code", "synonyms": ["CDISC ADAS-Cog - Constructional Praxis Summary Score"]}, {"conceptId": "C100227", "definition": "Alzheimer's Disease Assessment Scale-Cognitive CDISC Version - Constructional praxis task for copying a circle.", "preferredTerm": "Constructional Praxis: Circle", "submissionValue": "Alzheimer's Disease Assessment Scale - Cognitive CDISC Version Test Code", "synonyms": ["CDISC ADAS-Cog - Constructional Praxis: Circle"]}, {"conceptId": "C100228", "definition": "Alzheimer's Disease Assessment Scale-Cognitive CDISC Version - Constructional praxis task for copying two overlapping rectangles.", "preferredTerm": "Constructional Praxis: 2 Rectangles", "submissionValue": "Alzheimer's Disease Assessment Scale - Cognitive CDISC Version Test Code", "synonyms": ["CDISC ADAS-Cog - Constructional Praxis: 2 Rectangles"]}, {"conceptId": "C100229", "definition": "Alzheimer's Disease Assessment Scale-Cognitive CDISC Version - Constructional praxis task for copying a diamond.", "preferredTerm": "Constructional Praxis: Diamond", "submissionValue": "Alzheimer's Disease Assessment Scale - Cognitive CDISC Version Test Code", "synonyms": ["CDISC ADAS-Cog - Constructional Praxis: Diamond"]}, {"conceptId": "C100230", "definition": "Alzheimer's Disease Assessment Scale-Cognitive CDISC Version - Constructional praxis task for copying a cube.", "preferredTerm": "Constructional Praxis: Cube", "submissionValue": "Alzheimer's Disease Assessment Scale - Cognitive CDISC Version Test Code", "synonyms": ["CDISC ADAS-Cog - Constructional Praxis: Cube"]}, {"conceptId": "C100231", "definition": "Alzheimer's Disease Assessment Scale-Cognitive CDISC Version - Constructional praxis attempted to draw, but drew no forms correctly.", "preferredTerm": "Attempt to Draw", "submissionValue": "Alzheimer's Disease Assessment Scale - Cognitive CDISC Version Test Code", "synonyms": ["CDISC ADAS-Cog - Attempt to Draw"]}, {"conceptId": "C100232", "definition": "Alzheimer's Disease Assessment Scale-Cognitive CDISC Version - Summary score for ideational praxis.", "preferredTerm": "Ideational Praxis", "submissionValue": "Alzheimer's Disease Assessment Scale - Cognitive CDISC Version Test Code", "synonyms": ["CDISC ADAS-Cog - Ideational Praxis Summary Score"]}, {"conceptId": "C100233", "definition": "Alzheimer's Disease Assessment Scale-Cognitive CDISC Version - Ideational praxis task for folding the paper.", "preferredTerm": "Ideational Praxis: Fold", "submissionValue": "Alzheimer's Disease Assessment Scale - Cognitive CDISC Version Test Code", "synonyms": ["CDISC ADAS-Cog - Ideational Praxis: Fold"]}, {"conceptId": "C100234", "definition": "Alzheimer's Disease Assessment Scale-Cognitive CDISC Version - Ideational praxis task for put the paper in the envelop.", "preferredTerm": "Ideational Praxis: Insert", "submissionValue": "Alzheimer's Disease Assessment Scale - Cognitive CDISC Version Test Code", "synonyms": ["CDISC ADAS-Cog - Ideational Praxis: Insert"]}, {"conceptId": "C100235", "definition": "Alzheimer's Disease Assessment Scale-Cognitive CDISC Version - Ideational praxis task for seal the envelop.", "preferredTerm": "Ideational Praxis: Seal", "submissionValue": "Alzheimer's Disease Assessment Scale - Cognitive CDISC Version Test Code", "synonyms": ["CDISC ADAS-Cog - Ideational Praxis: Seal"]}, {"conceptId": "C100236", "definition": "Alzheimer's Disease Assessment Scale-Cognitive CDISC Version - Ideational praxis task for address the envelop to yourself.", "preferredTerm": "Ideational Praxis: Address", "submissionValue": "Alzheimer's Disease Assessment Scale - Cognitive CDISC Version Test Code", "synonyms": ["CDISC ADAS-Cog - Ideational Praxis: Address"]}, {"conceptId": "C100237", "definition": "Alzheimer's Disease Assessment Scale-Cognitive CDISC Version - Ideational praxis task for showing where the stamp goes.", "preferredTerm": "Ideational Praxis: Stamp", "submissionValue": "Alzheimer's Disease Assessment Scale - Cognitive CDISC Version Test Code", "synonyms": ["CDISC ADAS-Cog - Ideational Praxis: Stamp"]}, {"conceptId": "C100238", "definition": "Alzheimer's Disease Assessment Scale-Cognitive CDISC Version - Summary score for orientation.", "preferredTerm": "Orientation", "submissionValue": "Alzheimer's Disease Assessment Scale - Cognitive CDISC Version Test Code", "synonyms": ["CDISC ADAS-Cog - Orientation Summary Score"]}, {"conceptId": "C100239", "definition": "Alzheimer's Disease Assessment Scale-Cognitive CDISC Version - Orientation task for knowing one's own full name.", "preferredTerm": "Orientation: Full Name", "submissionValue": "Alzheimer's Disease Assessment Scale - Cognitive CDISC Version Test Code", "synonyms": ["CDISC ADAS-Cog - Orientation: Full Name"]}, {"conceptId": "C100240", "definition": "Alzheimer's Disease Assessment Scale-Cognitive CDISC Version - Orientation task for knowing the current month.", "preferredTerm": "Orientation: Month", "submissionValue": "Alzheimer's Disease Assessment Scale - Cognitive CDISC Version Test Code", "synonyms": ["CDISC ADAS-Cog - Orientation: Month"]}, {"conceptId": "C100241", "definition": "Alzheimer's Disease Assessment Scale-Cognitive CDISC Version - Orientation task for knowing the current day.", "preferredTerm": "Orientation: Date", "submissionValue": "Alzheimer's Disease Assessment Scale - Cognitive CDISC Version Test Code", "synonyms": ["CDISC ADAS-Cog - Orientation: Date"]}, {"conceptId": "C100242", "definition": "Alzheimer's Disease Assessment Scale-Cognitive CDISC Version - Orientation task for knowing the current year.", "preferredTerm": "Orientation: Year", "submissionValue": "Alzheimer's Disease Assessment Scale - Cognitive CDISC Version Test Code", "synonyms": ["CDISC ADAS-Cog - Orientation: Year"]}, {"conceptId": "C100243", "definition": "Alzheimer's Disease Assessment Scale-Cognitive CDISC Version - Orientation task for knowing the current day of the week.", "preferredTerm": "Orientation: Day of Week", "submissionValue": "Alzheimer's Disease Assessment Scale - Cognitive CDISC Version Test Code", "synonyms": ["CDISC ADAS-Cog - Orientation: Day of Week"]}, {"conceptId": "C100244", "definition": "Alzheimer's Disease Assessment Scale-Cognitive CDISC Version - Orientation task for knowing the current season.", "preferredTerm": "Orientation: Season", "submissionValue": "Alzheimer's Disease Assessment Scale - Cognitive CDISC Version Test Code", "synonyms": ["CDISC ADAS-Cog - Orientation: Season"]}, {"conceptId": "C100245", "definition": "Alzheimer's Disease Assessment Scale-Cognitive CDISC Version - Orientation task for knowing the current place.", "preferredTerm": "Orientation: Place", "submissionValue": "Alzheimer's Disease Assessment Scale - Cognitive CDISC Version Test Code", "synonyms": ["CDISC ADAS-Cog - Orientation: Place"]}, {"conceptId": "C100246", "definition": "Alzheimer's Disease Assessment Scale-Cognitive CDISC Version - Orientation task for knowing the approximate current clock time.", "preferredTerm": "Orientation: Time", "submissionValue": "Alzheimer's Disease Assessment Scale - Cognitive CDISC Version Test Code", "synonyms": ["CDISC ADAS-Cog - Orientation: Time"]}, {"conceptId": "C100247", "definition": "Alzheimer's Disease Assessment Scale-Cognitive CDISC Version - Summary score for word recognition across trials 1-3.", "preferredTerm": "Word Recognition", "submissionValue": "Alzheimer's Disease Assessment Scale - Cognitive CDISC Version Test Code", "synonyms": ["CDISC ADAS-Cog - Word Recognition Summary Score"]}, {"conceptId": "C100248", "definition": "Alzheimer's Disease Assessment Scale-Cognitive CDISC Version - Sub-score for word recognition trial 1.", "preferredTerm": "Word Recognition Trial 1", "submissionValue": "Alzheimer's Disease Assessment Scale - Cognitive CDISC Version Test Code", "synonyms": ["CDISC ADAS-Cog - Word Recognition Trial 1 Summary Score"]}, {"conceptId": "C100249", "definition": "Alzheimer's Disease Assessment Scale-Cognitive CDISC Version - Sub-score for word recognition trial 2.", "preferredTerm": "Word Recognition Trial 2", "submissionValue": "Alzheimer's Disease Assessment Scale - Cognitive CDISC Version Test Code", "synonyms": ["CDISC ADAS-Cog - Word Recognition Trial 2 Summary Score"]}, {"conceptId": "C100250", "definition": "Alzheimer's Disease Assessment Scale-Cognitive CDISC Version - Sub-score for word recognition trial 3.", "preferredTerm": "Word Recognition Trial 3", "submissionValue": "Alzheimer's Disease Assessment Scale - Cognitive CDISC Version Test Code", "synonyms": ["CDISC ADAS-Cog - Word Recognition Trial 3 Summary Score"]}, {"conceptId": "C100251", "definition": "Alzheimer's Disease Assessment Scale-Cognitive CDISC Version - Word recognition task for word 1 Trials 1, 2, 3.", "preferredTerm": "Word Recognition: Word [1]", "submissionValue": "Alzheimer's Disease Assessment Scale - Cognitive CDISC Version Test Code", "synonyms": ["CDISC ADAS-Cog - Word Recognition: Word 1"]}, {"conceptId": "C100252", "definition": "Alzheimer's Disease Assessment Scale-Cognitive CDISC Version - Word recognition task for word 2 Trials 1, 2, 3.", "preferredTerm": "Word Recognition: Word [2]", "submissionValue": "Alzheimer's Disease Assessment Scale - Cognitive CDISC Version Test Code", "synonyms": ["CDISC ADAS-Cog - Word Recognition: Word 2"]}, {"conceptId": "C100253", "definition": "Alzheimer's Disease Assessment Scale-Cognitive CDISC Version - Word recognition task for word 3 Trials 1, 2, 3.", "preferredTerm": "Word Recognition: Word [3]", "submissionValue": "Alzheimer's Disease Assessment Scale - Cognitive CDISC Version Test Code", "synonyms": ["CDISC ADAS-Cog - Word Recognition: Word 3"]}, {"conceptId": "C100254", "definition": "Alzheimer's Disease Assessment Scale-Cognitive CDISC Version - Word recognition task for word 4 Trials 1, 2, 3.", "preferredTerm": "Word Recognition: Word [4]", "submissionValue": "Alzheimer's Disease Assessment Scale - Cognitive CDISC Version Test Code", "synonyms": ["CDISC ADAS-Cog - Word Recognition: Word 4"]}, {"conceptId": "C100255", "definition": "Alzheimer's Disease Assessment Scale-Cognitive CDISC Version - Word recognition task for word 5 Trials 1, 2, 3.", "preferredTerm": "Word Recognition: Word [5]", "submissionValue": "Alzheimer's Disease Assessment Scale - Cognitive CDISC Version Test Code", "synonyms": ["CDISC ADAS-Cog - Word Recognition: Word 5"]}, {"conceptId": "C100256", "definition": "Alzheimer's Disease Assessment Scale-Cognitive CDISC Version - Word recognition task for word 6 Trials 1, 2, 3.", "preferredTerm": "Word Recognition: Word [6]", "submissionValue": "Alzheimer's Disease Assessment Scale - Cognitive CDISC Version Test Code", "synonyms": ["CDISC ADAS-Cog - Word Recognition: Word 6"]}, {"conceptId": "C100257", "definition": "Alzheimer's Disease Assessment Scale-Cognitive CDISC Version - Word recognition task for word 7 Trials 1, 2, 3.", "preferredTerm": "Word Recognition: Word [7]", "submissionValue": "Alzheimer's Disease Assessment Scale - Cognitive CDISC Version Test Code", "synonyms": ["CDISC ADAS-Cog - Word Recognition: Word 7"]}, {"conceptId": "C100258", "definition": "Alzheimer's Disease Assessment Scale-Cognitive CDISC Version - Word recognition task for word 8 Trials 1, 2, 3.", "preferredTerm": "Word Recognition: Word [8]", "submissionValue": "Alzheimer's Disease Assessment Scale - Cognitive CDISC Version Test Code", "synonyms": ["CDISC ADAS-Cog - Word Recognition: Word 8"]}, {"conceptId": "C100259", "definition": "Alzheimer's Disease Assessment Scale-Cognitive CDISC Version - Word recognition task for word 9 Trials 1, 2, 3.", "preferredTerm": "Word Recognition: Word [9]", "submissionValue": "Alzheimer's Disease Assessment Scale - Cognitive CDISC Version Test Code", "synonyms": ["CDISC ADAS-Cog - Word Recognition: Word 9"]}, {"conceptId": "C100260", "definition": "Alzheimer's Disease Assessment Scale-Cognitive CDISC Version - Word recognition task for word 10 Trials 1, 2, 3.", "preferredTerm": "Word Recognition: Word [10]", "submissionValue": "Alzheimer's Disease Assessment Scale - Cognitive CDISC Version Test Code", "synonyms": ["CDISC ADAS-Cog - Word Recognition: Word 10"]}, {"conceptId": "C100261", "definition": "Alzheimer's Disease Assessment Scale-Cognitive CDISC Version - Word recognition task for word 11 Trials 1, 2, 3.", "preferredTerm": "Word Recognition: Word [11]", "submissionValue": "Alzheimer's Disease Assessment Scale - Cognitive CDISC Version Test Code", "synonyms": ["CDISC ADAS-Cog - Word Recognition: Word 11"]}, {"conceptId": "C100262", "definition": "Alzheimer's Disease Assessment Scale-Cognitive CDISC Version - Word recognition task for word 12 Trials 1, 2, 3.", "preferredTerm": "Word Recognition: Word [12]", "submissionValue": "Alzheimer's Disease Assessment Scale - Cognitive CDISC Version Test Code", "synonyms": ["CDISC ADAS-Cog - Word Recognition: Word 12"]}, {"conceptId": "C100263", "definition": "Alzheimer's Disease Assessment Scale-Cognitive CDISC Version - Word recognition task for word 13 Trials 1, 2, 3.", "preferredTerm": "Word Recognition: Word [13]", "submissionValue": "Alzheimer's Disease Assessment Scale - Cognitive CDISC Version Test Code", "synonyms": ["CDISC ADAS-Cog - Word Recognition: Word 13"]}, {"conceptId": "C100264", "definition": "Alzheimer's Disease Assessment Scale-Cognitive CDISC Version - Word recognition task for word 14 Trials 1, 2, 3.", "preferredTerm": "Word Recognition: Word [14]", "submissionValue": "Alzheimer's Disease Assessment Scale - Cognitive CDISC Version Test Code", "synonyms": ["CDISC ADAS-Cog - Word Recognition: Word 14"]}, {"conceptId": "C100265", "definition": "Alzheimer's Disease Assessment Scale-Cognitive CDISC Version - Word recognition task for word 15 Trials 1, 2, 3.", "preferredTerm": "Word Recognition: Word [15]", "submissionValue": "Alzheimer's Disease Assessment Scale - Cognitive CDISC Version Test Code", "synonyms": ["CDISC ADAS-Cog - Word Recognition: Word 15"]}, {"conceptId": "C100266", "definition": "Alzheimer's Disease Assessment Scale-Cognitive CDISC Version - Word recognition task for word 16 Trials 1, 2, 3.", "preferredTerm": "Word Recognition: Word [16]", "submissionValue": "Alzheimer's Disease Assessment Scale - Cognitive CDISC Version Test Code", "synonyms": ["CDISC ADAS-Cog - Word Recognition: Word 16"]}, {"conceptId": "C100267", "definition": "Alzheimer's Disease Assessment Scale-Cognitive CDISC Version - Word recognition task for word 17 Trials 1, 2, 3.", "preferredTerm": "Word Recognition: Word [17]", "submissionValue": "Alzheimer's Disease Assessment Scale - Cognitive CDISC Version Test Code", "synonyms": ["CDISC ADAS-Cog - Word Recognition: Word 17"]}, {"conceptId": "C100268", "definition": "Alzheimer's Disease Assessment Scale-Cognitive CDISC Version - Word recognition task for word 18 Trials 1, 2, 3.", "preferredTerm": "Word Recognition: Word [18]", "submissionValue": "Alzheimer's Disease Assessment Scale - Cognitive CDISC Version Test Code", "synonyms": ["CDISC ADAS-Cog - Word Recognition: Word 18"]}, {"conceptId": "C100269", "definition": "Alzheimer's Disease Assessment Scale-Cognitive CDISC Version - Word recognition task for word 19 Trials 1, 2, 3.", "preferredTerm": "Word Recognition: Word [19]", "submissionValue": "Alzheimer's Disease Assessment Scale - Cognitive CDISC Version Test Code", "synonyms": ["CDISC ADAS-Cog - Word Recognition: Word 19"]}, {"conceptId": "C100270", "definition": "Alzheimer's Disease Assessment Scale-Cognitive CDISC Version - Word recognition task for word 20 Trials 1, 2, 3.", "preferredTerm": "Word Recognition: Word [20]", "submissionValue": "Alzheimer's Disease Assessment Scale - Cognitive CDISC Version Test Code", "synonyms": ["CDISC ADAS-Cog - Word Recognition: Word 20"]}, {"conceptId": "C100271", "definition": "Alzheimer's Disease Assessment Scale-Cognitive CDISC Version - Word recognition task for word 21 Trials 1, 2, 3.", "preferredTerm": "Word Recognition: Word [21]", "submissionValue": "Alzheimer's Disease Assessment Scale - Cognitive CDISC Version Test Code", "synonyms": ["CDISC ADAS-Cog - Word Recognition: Word 21"]}, {"conceptId": "C100272", "definition": "Alzheimer's Disease Assessment Scale-Cognitive CDISC Version - Word recognition task for word 22 Trials 1, 2, 3.", "preferredTerm": "Word Recognition: Word [22]", "submissionValue": "Alzheimer's Disease Assessment Scale - Cognitive CDISC Version Test Code", "synonyms": ["CDISC ADAS-Cog - Word Recognition: Word 22"]}, {"conceptId": "C100273", "definition": "Alzheimer's Disease Assessment Scale-Cognitive CDISC Version - Word recognition task for word 23 Trials 1, 2, 3.", "preferredTerm": "Word Recognition: Word [23]", "submissionValue": "Alzheimer's Disease Assessment Scale - Cognitive CDISC Version Test Code", "synonyms": ["CDISC ADAS-Cog - Word Recognition: Word 23"]}, {"conceptId": "C100274", "definition": "Alzheimer's Disease Assessment Scale-Cognitive CDISC Version - Word recognition task for word 24 Trials 1, 2, 3.", "preferredTerm": "Word Recognition: Word [24]", "submissionValue": "Alzheimer's Disease Assessment Scale - Cognitive CDISC Version Test Code", "synonyms": ["CDISC ADAS-Cog - Word Recognition: Word 24"]}, {"conceptId": "C100275", "definition": "Alzheimer's Disease Assessment Scale-Cognitive CDISC Version - Remembering test instructions.", "preferredTerm": "Remembering Test Instructions", "submissionValue": "Alzheimer's Disease Assessment Scale - Cognitive CDISC Version Test Code", "synonyms": ["CDISC ADAS-Cog - Remembering Test Instructions"]}, {"conceptId": "C100276", "definition": "Alzheimer's Disease Assessment Scale-Cognitive CDISC Version - Global rating of the quality of speech, or difficulty in making oneself understood.", "preferredTerm": "Spoken Language Ability", "submissionValue": "Alzheimer's Disease Assessment Scale - Cognitive CDISC Version Test Code", "synonyms": ["CDISC ADAS-Cog - Spoken Language Ability"]}, {"conceptId": "C100277", "definition": "Alzheimer's Disease Assessment Scale-Cognitive CDISC Version - Difficulty finding the desired word in spontaneous speech.", "preferredTerm": "Word Finding Difficulty in Spont Speech", "submissionValue": "Alzheimer's Disease Assessment Scale - Cognitive CDISC Version Test Code", "synonyms": ["CDISC ADAS-Cog - Word Difficulty in Spontaneous Speech"]}, {"conceptId": "C100278", "definition": "Alzheimer's Disease Assessment Scale-Cognitive CDISC Version - Ability to comprehend speech.", "preferredTerm": "Comprehension", "submissionValue": "Alzheimer's Disease Assessment Scale - Cognitive CDISC Version Test Code", "synonyms": ["CDISC ADAS-Cog - Comprehension"]}, {"conceptId": "C100279", "definition": "Alzheimer's Disease Assessment Scale-Cognitive CDISC Version - Ability to concentrate or easily be distracted.", "preferredTerm": "Concentration/Distractibility", "submissionValue": "Alzheimer's Disease Assessment Scale - Cognitive CDISC Version Test Code", "synonyms": ["CDISC ADAS-Cog - Concentration/Distractibility"]}, {"conceptId": "C100280", "definition": "Alzheimer's Disease Assessment Scale-Cognitive CDISC Version - Summary score for the number cancellation tasks.", "preferredTerm": "Number Cancellation", "submissionValue": "Alzheimer's Disease Assessment Scale - Cognitive CDISC Version Test Code", "synonyms": ["CDISC ADAS-Cog - Number Cancellation Summary Score"]}, {"conceptId": "C100281", "definition": "Alzheimer's Disease Assessment Scale-Cognitive CDISC Version - Number of targets hit during the number cancellation task.", "preferredTerm": "Number Cancellation: Correct", "submissionValue": "Alzheimer's Disease Assessment Scale - Cognitive CDISC Version Test Code", "synonyms": ["CDISC ADAS-Cog - Number Cancellation: Correct"]}, {"conceptId": "C100282", "definition": "Alzheimer's Disease Assessment Scale-Cognitive CDISC Version - Number of errors during the number cancellation task.", "preferredTerm": "Number Cancellation: Errors", "submissionValue": "Alzheimer's Disease Assessment Scale - Cognitive CDISC Version Test Code", "synonyms": ["CDISC ADAS-Cog - Number Cancellation: Errors"]}, {"conceptId": "C100283", "definition": "Alzheimer's Disease Assessment Scale-Cognitive CDISC Version - Number of times reminded for the number cancellation task.", "preferredTerm": "Number Cancellation: Remind", "submissionValue": "Alzheimer's Disease Assessment Scale - Cognitive CDISC Version Test Code", "synonyms": ["CDISC ADAS-Cog - Number Cancellation: Remind"]}, {"conceptId": "C100284", "definition": "Alzheimer's Disease Assessment Scale-Cognitive CDISC Version - Summary score for the executive function maze tasks.", "preferredTerm": "Executive Function Maze", "submissionValue": "Alzheimer's Disease Assessment Scale - Cognitive CDISC Version Test Code", "synonyms": ["CDISC ADAS-Cog - Executive Function Maze Summary Score"]}, {"conceptId": "C100285", "definition": "Alzheimer's Disease Assessment Scale-Cognitive CDISC Version - Number of errors during the executive function maze task.", "preferredTerm": "Executive Function Maze: Errors", "submissionValue": "Alzheimer's Disease Assessment Scale - Cognitive CDISC Version Test Code", "synonyms": ["CDISC ADAS-Cog - Executive Function Maze: Errors"]}, {"conceptId": "C100286", "definition": "Alzheimer's Disease Assessment Scale-Cognitive CDISC Version - The time in seconds stored in ISO 8601 time for the executive function maze task.", "preferredTerm": "Executive Function Maze: Time", "submissionValue": "Alzheimer's Disease Assessment Scale - Cognitive CDISC Version Test Code", "synonyms": ["CDISC ADAS-Cog - Executive Function Maze: Time"]}]}, {"conceptId": "", "definition": "ADAS-Cog CDISC Version test name.", "extensible": "No", "name": "Alzheimer's Disease Assessment Scale - Cognitive CDISC Version Test Name", "preferredTerm": "Alzheimer's Disease Assessment Scale - Cognitive CDISC Version Test Name", "submissionValue": "Alzheimer's Disease Assessment Scale - Cognitive CDISC Version Test Name", "synonyms": ["CDISC Questionnaire ADAS-Cog CDISC Version Test Name Terminology"], "terms": [{"conceptId": "C100177", "definition": "Alzheimer's Disease Assessment Scale-Cognitive CDISC Version - Word recall task word average score of trials 1, 2, 3.", "preferredTerm": "Word Recall", "submissionValue": "Alzheimer's Disease Assessment Scale - Cognitive CDISC Version Test Name", "synonyms": ["CDISC ADAS-Cog - Word Recall Average Score"]}, {"conceptId": "C100178", "definition": "Alzheimer's Disease Assessment Scale-Cognitive CDISC Version - Sub-score for word recall task trial 1.", "preferredTerm": "Word Recall Trial 1", "submissionValue": "Alzheimer's Disease Assessment Scale - Cognitive CDISC Version Test Name", "synonyms": ["CDISC ADAS-Cog - Word Recall Trial 1 Subscore"]}, {"conceptId": "C100179", "definition": "Alzheimer's Disease Assessment Scale-Cognitive CDISC Version - Sub-score for word recall task trial 2.", "preferredTerm": "Word Recall Trial 2", "submissionValue": "Alzheimer's Disease Assessment Scale - Cognitive CDISC Version Test Name", "synonyms": ["CDISC ADAS-Cog - Word Recall Trial 2 Subscore"]}, {"conceptId": "C100180", "definition": "Alzheimer's Disease Assessment Scale-Cognitive CDISC Version - Sub-score for word recall task trial 3.", "preferredTerm": "Word Recall Trial 3", "submissionValue": "Alzheimer's Disease Assessment Scale - Cognitive CDISC Version Test Name", "synonyms": ["CDISC ADAS-Cog - Word Recall Trial 3 Subscore"]}, {"conceptId": "C100181", "definition": "Alzheimer's Disease Assessment Scale-Cognitive CDISC Version - Word recall task word 1 for trial 1, 2, 3.", "preferredTerm": "Word Recall: Word [1]", "submissionValue": "Alzheimer's Disease Assessment Scale - Cognitive CDISC Version Test Name", "synonyms": ["CDISC ADAS-Cog - Word Recall: Word 1"]}, {"conceptId": "C100182", "definition": "Alzheimer's Disease Assessment Scale-Cognitive CDISC Version - Word recall task word 2 for trial 1, 2, 3.", "preferredTerm": "Word Recall: Word [2]", "submissionValue": "Alzheimer's Disease Assessment Scale - Cognitive CDISC Version Test Name", "synonyms": ["CDISC ADAS-Cog - Word Recall: Word 2"]}, {"conceptId": "C100183", "definition": "Alzheimer's Disease Assessment Scale-Cognitive CDISC Version - Word recall task word 3 for trial 1, 2, 3.", "preferredTerm": "Word Recall: Word [3]", "submissionValue": "Alzheimer's Disease Assessment Scale - Cognitive CDISC Version Test Name", "synonyms": ["CDISC ADAS-Cog - Word Recall: Word 3"]}, {"conceptId": "C100184", "definition": "Alzheimer's Disease Assessment Scale-Cognitive CDISC Version - Word recall task word 4 for trial 1, 2, 3.", "preferredTerm": "Word Recall: Word [4]", "submissionValue": "Alzheimer's Disease Assessment Scale - Cognitive CDISC Version Test Name", "synonyms": ["CDISC ADAS-Cog - Word Recall: Word 4"]}, {"conceptId": "C100185", "definition": "Alzheimer's Disease Assessment Scale-Cognitive CDISC Version - Word recall task word 5 for trial 1, 2, 3.", "preferredTerm": "Word Recall: Word [5]", "submissionValue": "Alzheimer's Disease Assessment Scale - Cognitive CDISC Version Test Name", "synonyms": ["CDISC ADAS-Cog - Word Recall: Word 5"]}, {"conceptId": "C100186", "definition": "Alzheimer's Disease Assessment Scale-Cognitive CDISC Version - Word recall task word 6 for trial 1, 2, 3.", "preferredTerm": "Word Recall: Word [6]", "submissionValue": "Alzheimer's Disease Assessment Scale - Cognitive CDISC Version Test Name", "synonyms": ["CDISC ADAS-Cog - Word Recall: Word 6"]}, {"conceptId": "C100187", "definition": "Alzheimer's Disease Assessment Scale-Cognitive CDISC Version - Word recall task word 7 for trial 1, 2, 3.", "preferredTerm": "Word Recall: Word [7]", "submissionValue": "Alzheimer's Disease Assessment Scale - Cognitive CDISC Version Test Name", "synonyms": ["CDISC ADAS-Cog - Word Recall: Word 7"]}, {"conceptId": "C100188", "definition": "Alzheimer's Disease Assessment Scale-Cognitive CDISC Version - Word recall task word 8 for trial 1, 2, 3.", "preferredTerm": "Word Recall: Word [8]", "submissionValue": "Alzheimer's Disease Assessment Scale - Cognitive CDISC Version Test Name", "synonyms": ["CDISC ADAS-Cog - Word Recall: Word 8"]}, {"conceptId": "C100189", "definition": "Alzheimer's Disease Assessment Scale-Cognitive CDISC Version - Word recall task word 9 for trial 1, 2, 3.", "preferredTerm": "Word Recall: Word [9]", "submissionValue": "Alzheimer's Disease Assessment Scale - Cognitive CDISC Version Test Name", "synonyms": ["CDISC ADAS-Cog - Word Recall: Word 9"]}, {"conceptId": "C100190", "definition": "Alzheimer's Disease Assessment Scale-Cognitive CDISC Version - Word recall task word 10 for trial 1, 2, 3.", "preferredTerm": "Word Recall: Word [10]", "submissionValue": "Alzheimer's Disease Assessment Scale - Cognitive CDISC Version Test Name", "synonyms": ["CDISC ADAS-Cog - Word Recall: Word 10"]}, {"conceptId": "C100191", "definition": "Alzheimer's Disease Assessment Scale-Cognitive CDISC Version - Naming task summary score for object and fingers.", "preferredTerm": "Naming Objects and Fingers", "submissionValue": "Alzheimer's Disease Assessment Scale - Cognitive CDISC Version Test Name", "synonyms": ["CDISC ADAS-Cog - Naming Objects and Fingers Summary Score"]}, {"conceptId": "C100192", "definition": "Alzheimer's Disease Assessment Scale-Cognitive CDISC Version - Naming task for object 1.", "preferredTerm": "Naming Objects and Fingers: 1", "submissionValue": "Alzheimer's Disease Assessment Scale - Cognitive CDISC Version Test Name", "synonyms": ["CDISC ADAS-Cog - Naming Objects and Fingers: 1"]}, {"conceptId": "C100193", "definition": "Alzheimer's Disease Assessment Scale-Cognitive CDISC Version - Naming task for object 2.", "preferredTerm": "Naming Objects and Fingers: 2", "submissionValue": "Alzheimer's Disease Assessment Scale - Cognitive CDISC Version Test Name", "synonyms": ["CDISC ADAS-Cog - Naming Objects and Fingers: 2"]}, {"conceptId": "C100194", "definition": "Alzheimer's Disease Assessment Scale-Cognitive CDISC Version - Naming task for object 3.", "preferredTerm": "Naming Objects and Fingers: 3", "submissionValue": "Alzheimer's Disease Assessment Scale - Cognitive CDISC Version Test Name", "synonyms": ["CDISC ADAS-Cog - Naming Objects and Fingers: 3"]}, {"conceptId": "C100195", "definition": "Alzheimer's Disease Assessment Scale-Cognitive CDISC Version - Naming task for object 4.", "preferredTerm": "Naming Objects and Fingers: 4", "submissionValue": "Alzheimer's Disease Assessment Scale - Cognitive CDISC Version Test Name", "synonyms": ["CDISC ADAS-Cog - Naming Objects and Fingers: 4"]}, {"conceptId": "C100196", "definition": "Alzheimer's Disease Assessment Scale-Cognitive CDISC Version - Naming task for object 5.", "preferredTerm": "Naming Objects and Fingers: 5", "submissionValue": "Alzheimer's Disease Assessment Scale - Cognitive CDISC Version Test Name", "synonyms": ["CDISC ADAS-Cog - Naming Objects and Fingers: 5"]}, {"conceptId": "C100197", "definition": "Alzheimer's Disease Assessment Scale-Cognitive CDISC Version - Naming task for object 6.", "preferredTerm": "Naming Objects and Fingers: 6", "submissionValue": "Alzheimer's Disease Assessment Scale - Cognitive CDISC Version Test Name", "synonyms": ["CDISC ADAS-Cog - Naming Objects and Fingers: 6"]}, {"conceptId": "C100198", "definition": "Alzheimer's Disease Assessment Scale-Cognitive CDISC Version - Naming task for object 7.", "preferredTerm": "Naming Objects and Fingers: 7", "submissionValue": "Alzheimer's Disease Assessment Scale - Cognitive CDISC Version Test Name", "synonyms": ["CDISC ADAS-Cog - Naming Objects and Fingers: 7"]}, {"conceptId": "C100199", "definition": "Alzheimer's Disease Assessment Scale-Cognitive CDISC Version - Naming task for object 8.", "preferredTerm": "Naming Objects and Fingers: 8", "submissionValue": "Alzheimer's Disease Assessment Scale - Cognitive CDISC Version Test Name", "synonyms": ["CDISC ADAS-Cog - Naming Objects and Fingers: 8"]}, {"conceptId": "C100200", "definition": "Alzheimer's Disease Assessment Scale-Cognitive CDISC Version - Naming task for object 9.", "preferredTerm": "Naming Objects and Fingers: 9", "submissionValue": "Alzheimer's Disease Assessment Scale - Cognitive CDISC Version Test Name", "synonyms": ["CDISC ADAS-Cog - Naming Objects and Fingers: 9"]}, {"conceptId": "C100201", "definition": "Alzheimer's Disease Assessment Scale-Cognitive CDISC Version - Naming task for object 10.", "preferredTerm": "Naming Objects and Fingers: 10", "submissionValue": "Alzheimer's Disease Assessment Scale - Cognitive CDISC Version Test Name", "synonyms": ["CDISC ADAS-Cog - Naming Objects and Fingers: 10"]}, {"conceptId": "C100202", "definition": "Alzheimer's Disease Assessment Scale-Cognitive CDISC Version - Naming task for object 11.", "preferredTerm": "Naming Objects and Fingers: 11", "submissionValue": "Alzheimer's Disease Assessment Scale - Cognitive CDISC Version Test Name", "synonyms": ["CDISC ADAS-Cog - Naming Objects and Fingers: 11"]}, {"conceptId": "C100203", "definition": "Alzheimer's Disease Assessment Scale-Cognitive CDISC Version - Naming task for object 12.", "preferredTerm": "Naming Objects and Fingers: 12", "submissionValue": "Alzheimer's Disease Assessment Scale - Cognitive CDISC Version Test Name", "synonyms": ["CDISC ADAS-Cog - Naming Objects and Fingers: 12"]}, {"conceptId": "C100204", "definition": "Alzheimer's Disease Assessment Scale-Cognitive CDISC Version - Naming task for fingers of the dominant hand, thumb.", "preferredTerm": "Naming Objects and Fingers: Thumb", "submissionValue": "Alzheimer's Disease Assessment Scale - Cognitive CDISC Version Test Name", "synonyms": ["CDISC ADAS-Cog - Naming Objects and Fingers: Thumb"]}, {"conceptId": "C100205", "definition": "Alzheimer's Disease Assessment Scale-Cognitive CDISC Version - Naming task for fingers of the dominant hand, index, or pointer finger.", "preferredTerm": "Naming Objects and Fingers: Pointer", "submissionValue": "Alzheimer's Disease Assessment Scale - Cognitive CDISC Version Test Name", "synonyms": ["CDISC ADAS-Cog - Naming Objects and Fingers: Pointer"]}, {"conceptId": "C100206", "definition": "Alzheimer's Disease Assessment Scale-Cognitive CDISC Version - Naming task for fingers of the dominant hand, middle finger.", "preferredTerm": "Naming Objects and Fingers: Middle", "submissionValue": "Alzheimer's Disease Assessment Scale - Cognitive CDISC Version Test Name", "synonyms": ["CDISC ADAS-Cog - Naming Objects and Fingers: Middle"]}, {"conceptId": "C100207", "definition": "Alzheimer's Disease Assessment Scale-Cognitive CDISC Version - Naming task for fingers of the dominant hand, ring finger.", "preferredTerm": "Naming Objects and Fingers: Ring", "submissionValue": "Alzheimer's Disease Assessment Scale - Cognitive CDISC Version Test Name", "synonyms": ["CDISC ADAS-Cog - Naming Objects and Fingers: Ring"]}, {"conceptId": "C100208", "definition": "Alzheimer's Disease Assessment Scale-Cognitive CDISC Version - Naming task for fingers of the dominant hand, little finger or pinky.", "preferredTerm": "Naming Objects and Fingers: Pinky", "submissionValue": "Alzheimer's Disease Assessment Scale - Cognitive CDISC Version Test Name", "synonyms": ["CDISC ADAS-Cog - Naming Objects and Fingers: Pinky"]}, {"conceptId": "C100209", "definition": "Alzheimer's Disease Assessment Scale-Cognitive CDISC Version - Summary score for commands.", "preferredTerm": "Commands", "submissionValue": "Alzheimer's Disease Assessment Scale - Cognitive CDISC Version Test Name", "synonyms": ["CDISC ADAS-Cog - Commands Summary Score"]}, {"conceptId": "C100210", "definition": "Alzheimer's Disease Assessment Scale-Cognitive CDISC Version - Commands task for making a fist.", "preferredTerm": "Commands: Fist", "submissionValue": "Alzheimer's Disease Assessment Scale - Cognitive CDISC Version Test Name", "synonyms": ["CDISC ADAS-Cog - Commands: Fist"]}, {"conceptId": "C100211", "definition": "Alzheimer's Disease Assessment Scale-Cognitive CDISC Version - Commands task for pointing to the ceiling then to the floor.", "preferredTerm": "Commands: Ceiling", "submissionValue": "Alzheimer's Disease Assessment Scale - Cognitive CDISC Version Test Name", "synonyms": ["CDISC ADAS-Cog - Commands: Ceiling"]}, {"conceptId": "C100212", "definition": "Alzheimer's Disease Assessment Scale-Cognitive CDISC Version - Commands task for put the pencil on top of the card and then put it back.", "preferredTerm": "Commands: Pencil", "submissionValue": "Alzheimer's Disease Assessment Scale - Cognitive CDISC Version Test Name", "synonyms": ["CDISC ADAS-Cog - Commands: Pencil"]}, {"conceptId": "C100213", "definition": "Alzheimer's Disease Assessment Scale-Cognitive CDISC Version - Commands task for put the watch on the other side of the pencil and then turn over the card.", "preferredTerm": "Commands: Watch", "submissionValue": "Alzheimer's Disease Assessment Scale - Cognitive CDISC Version Test Name", "synonyms": ["CDISC ADAS-Cog - Commands: Watch"]}, {"conceptId": "C100214", "definition": "Alzheimer's Disease Assessment Scale-Cognitive CDISC Version - Commands task for tap each shoulder twice with two fingers keeping your eyes shut.", "preferredTerm": "Commands: Shoulder", "submissionValue": "Alzheimer's Disease Assessment Scale - Cognitive CDISC Version Test Name", "synonyms": ["CDISC ADAS-Cog - Commands: Shoulder"]}, {"conceptId": "C100215", "definition": "Alzheimer's Disease Assessment Scale-Cognitive CDISC Version - Summary score for delayed word recall.", "preferredTerm": "Delayed Word Recall", "submissionValue": "Alzheimer's Disease Assessment Scale - Cognitive CDISC Version Test Name", "synonyms": ["CDISC ADAS-Cog - Delayed Word Recall Summary Score"]}, {"conceptId": "C100216", "definition": "Alzheimer's Disease Assessment Scale-Cognitive CDISC Version - Delayed word recall task for word 1.", "preferredTerm": "Delayed Word Recall: Word [1]", "submissionValue": "Alzheimer's Disease Assessment Scale - Cognitive CDISC Version Test Name", "synonyms": ["CDISC ADAS-Cog - Delayed Word Recall: Word 1"]}, {"conceptId": "C100217", "definition": "Alzheimer's Disease Assessment Scale-Cognitive CDISC Version - Delayed word recall task for word 2.", "preferredTerm": "Delayed Word Recall: Word [2]", "submissionValue": "Alzheimer's Disease Assessment Scale - Cognitive CDISC Version Test Name", "synonyms": ["CDISC ADAS-Cog - Delayed Word Recall: Word 2"]}, {"conceptId": "C100218", "definition": "Alzheimer's Disease Assessment Scale-Cognitive CDISC Version - Delayed word recall task for word 3.", "preferredTerm": "Delayed Word Recall: Word [3]", "submissionValue": "Alzheimer's Disease Assessment Scale - Cognitive CDISC Version Test Name", "synonyms": ["CDISC ADAS-Cog - Delayed Word Recall: Word 3"]}, {"conceptId": "C100219", "definition": "Alzheimer's Disease Assessment Scale-Cognitive CDISC Version - Delayed word recall task for word 4.", "preferredTerm": "Delayed Word Recall: Word [4]", "submissionValue": "Alzheimer's Disease Assessment Scale - Cognitive CDISC Version Test Name", "synonyms": ["CDISC ADAS-Cog - Delayed Word Recall: Word 4"]}, {"conceptId": "C100220", "definition": "Alzheimer's Disease Assessment Scale-Cognitive CDISC Version - Delayed word recall task for word 5.", "preferredTerm": "Delayed Word Recall: Word [5]", "submissionValue": "Alzheimer's Disease Assessment Scale - Cognitive CDISC Version Test Name", "synonyms": ["CDISC ADAS-Cog - Delayed Word Recall: Word 5"]}, {"conceptId": "C100221", "definition": "Alzheimer's Disease Assessment Scale-Cognitive CDISC Version - Delayed word recall task for word 6.", "preferredTerm": "Delayed Word Recall: Word [6]", "submissionValue": "Alzheimer's Disease Assessment Scale - Cognitive CDISC Version Test Name", "synonyms": ["CDISC ADAS-Cog - Delayed Word Recall: Word 6"]}, {"conceptId": "C100222", "definition": "Alzheimer's Disease Assessment Scale-Cognitive CDISC Version - Delayed word recall task for word 7.", "preferredTerm": "Delayed Word Recall: Word [7]", "submissionValue": "Alzheimer's Disease Assessment Scale - Cognitive CDISC Version Test Name", "synonyms": ["CDISC ADAS-Cog - Delayed Word Recall: Word 7"]}, {"conceptId": "C100223", "definition": "Alzheimer's Disease Assessment Scale-Cognitive CDISC Version - Delayed word recall task for word 8.", "preferredTerm": "Delayed Word Recall: Word [8]", "submissionValue": "Alzheimer's Disease Assessment Scale - Cognitive CDISC Version Test Name", "synonyms": ["CDISC ADAS-Cog - Delayed Word Recall: Word 8"]}, {"conceptId": "C100224", "definition": "Alzheimer's Disease Assessment Scale-Cognitive CDISC Version - Delayed word recall task for word 9.", "preferredTerm": "Delayed Word Recall: Word [9]", "submissionValue": "Alzheimer's Disease Assessment Scale - Cognitive CDISC Version Test Name", "synonyms": ["CDISC ADAS-Cog - Delayed Word Recall: Word 9"]}, {"conceptId": "C100225", "definition": "Alzheimer's Disease Assessment Scale-Cognitive CDISC Version - Delayed word recall task for word 10.", "preferredTerm": "Delayed Word Recall: Word [10]", "submissionValue": "Alzheimer's Disease Assessment Scale - Cognitive CDISC Version Test Name", "synonyms": ["CDISC ADAS-Cog - Delayed Word Recall: Word 10"]}, {"conceptId": "C100226", "definition": "Alzheimer's Disease Assessment Scale-Cognitive CDISC Version - Summary score for constructional praxis.", "preferredTerm": "Constructional Praxis", "submissionValue": "Alzheimer's Disease Assessment Scale - Cognitive CDISC Version Test Name", "synonyms": ["CDISC ADAS-Cog - Constructional Praxis Summary Score"]}, {"conceptId": "C100227", "definition": "Alzheimer's Disease Assessment Scale-Cognitive CDISC Version - Constructional praxis task for copying a circle.", "preferredTerm": "Constructional Praxis: Circle", "submissionValue": "Alzheimer's Disease Assessment Scale - Cognitive CDISC Version Test Name", "synonyms": ["CDISC ADAS-Cog - Constructional Praxis: Circle"]}, {"conceptId": "C100228", "definition": "Alzheimer's Disease Assessment Scale-Cognitive CDISC Version - Constructional praxis task for copying two overlapping rectangles.", "preferredTerm": "Constructional Praxis: 2 Rectangles", "submissionValue": "Alzheimer's Disease Assessment Scale - Cognitive CDISC Version Test Name", "synonyms": ["CDISC ADAS-Cog - Constructional Praxis: 2 Rectangles"]}, {"conceptId": "C100229", "definition": "Alzheimer's Disease Assessment Scale-Cognitive CDISC Version - Constructional praxis task for copying a diamond.", "preferredTerm": "Constructional Praxis: Diamond", "submissionValue": "Alzheimer's Disease Assessment Scale - Cognitive CDISC Version Test Name", "synonyms": ["CDISC ADAS-Cog - Constructional Praxis: Diamond"]}, {"conceptId": "C100230", "definition": "Alzheimer's Disease Assessment Scale-Cognitive CDISC Version - Constructional praxis task for copying a cube.", "preferredTerm": "Constructional Praxis: Cube", "submissionValue": "Alzheimer's Disease Assessment Scale - Cognitive CDISC Version Test Name", "synonyms": ["CDISC ADAS-Cog - Constructional Praxis: Cube"]}, {"conceptId": "C100231", "definition": "Alzheimer's Disease Assessment Scale-Cognitive CDISC Version - Constructional praxis attempted to draw, but drew no forms correctly.", "preferredTerm": "Attempt to Draw", "submissionValue": "Alzheimer's Disease Assessment Scale - Cognitive CDISC Version Test Name", "synonyms": ["CDISC ADAS-Cog - Attempt to Draw"]}, {"conceptId": "C100232", "definition": "Alzheimer's Disease Assessment Scale-Cognitive CDISC Version - Summary score for ideational praxis.", "preferredTerm": "Ideational Praxis", "submissionValue": "Alzheimer's Disease Assessment Scale - Cognitive CDISC Version Test Name", "synonyms": ["CDISC ADAS-Cog - Ideational Praxis Summary Score"]}, {"conceptId": "C100233", "definition": "Alzheimer's Disease Assessment Scale-Cognitive CDISC Version - Ideational praxis task for folding the paper.", "preferredTerm": "Ideational Praxis: Fold", "submissionValue": "Alzheimer's Disease Assessment Scale - Cognitive CDISC Version Test Name", "synonyms": ["CDISC ADAS-Cog - Ideational Praxis: Fold"]}, {"conceptId": "C100234", "definition": "Alzheimer's Disease Assessment Scale-Cognitive CDISC Version - Ideational praxis task for put the paper in the envelop.", "preferredTerm": "Ideational Praxis: Insert", "submissionValue": "Alzheimer's Disease Assessment Scale - Cognitive CDISC Version Test Name", "synonyms": ["CDISC ADAS-Cog - Ideational Praxis: Insert"]}, {"conceptId": "C100235", "definition": "Alzheimer's Disease Assessment Scale-Cognitive CDISC Version - Ideational praxis task for seal the envelop.", "preferredTerm": "Ideational Praxis: Seal", "submissionValue": "Alzheimer's Disease Assessment Scale - Cognitive CDISC Version Test Name", "synonyms": ["CDISC ADAS-Cog - Ideational Praxis: Seal"]}, {"conceptId": "C100236", "definition": "Alzheimer's Disease Assessment Scale-Cognitive CDISC Version - Ideational praxis task for address the envelop to yourself.", "preferredTerm": "Ideational Praxis: Address", "submissionValue": "Alzheimer's Disease Assessment Scale - Cognitive CDISC Version Test Name", "synonyms": ["CDISC ADAS-Cog - Ideational Praxis: Address"]}, {"conceptId": "C100237", "definition": "Alzheimer's Disease Assessment Scale-Cognitive CDISC Version - Ideational praxis task for showing where the stamp goes.", "preferredTerm": "Ideational Praxis: Stamp", "submissionValue": "Alzheimer's Disease Assessment Scale - Cognitive CDISC Version Test Name", "synonyms": ["CDISC ADAS-Cog - Ideational Praxis: Stamp"]}, {"conceptId": "C100238", "definition": "Alzheimer's Disease Assessment Scale-Cognitive CDISC Version - Summary score for orientation.", "preferredTerm": "Orientation", "submissionValue": "Alzheimer's Disease Assessment Scale - Cognitive CDISC Version Test Name", "synonyms": ["CDISC ADAS-Cog - Orientation Summary Score"]}, {"conceptId": "C100239", "definition": "Alzheimer's Disease Assessment Scale-Cognitive CDISC Version - Orientation task for knowing one's own full name.", "preferredTerm": "Orientation: Full Name", "submissionValue": "Alzheimer's Disease Assessment Scale - Cognitive CDISC Version Test Name", "synonyms": ["CDISC ADAS-Cog - Orientation: Full Name"]}, {"conceptId": "C100240", "definition": "Alzheimer's Disease Assessment Scale-Cognitive CDISC Version - Orientation task for knowing the current month.", "preferredTerm": "Orientation: Month", "submissionValue": "Alzheimer's Disease Assessment Scale - Cognitive CDISC Version Test Name", "synonyms": ["CDISC ADAS-Cog - Orientation: Month"]}, {"conceptId": "C100241", "definition": "Alzheimer's Disease Assessment Scale-Cognitive CDISC Version - Orientation task for knowing the current day.", "preferredTerm": "Orientation: Date", "submissionValue": "Alzheimer's Disease Assessment Scale - Cognitive CDISC Version Test Name", "synonyms": ["CDISC ADAS-Cog - Orientation: Date"]}, {"conceptId": "C100242", "definition": "Alzheimer's Disease Assessment Scale-Cognitive CDISC Version - Orientation task for knowing the current year.", "preferredTerm": "Orientation: Year", "submissionValue": "Alzheimer's Disease Assessment Scale - Cognitive CDISC Version Test Name", "synonyms": ["CDISC ADAS-Cog - Orientation: Year"]}, {"conceptId": "C100243", "definition": "Alzheimer's Disease Assessment Scale-Cognitive CDISC Version - Orientation task for knowing the current day of the week.", "preferredTerm": "Orientation: Day of Week", "submissionValue": "Alzheimer's Disease Assessment Scale - Cognitive CDISC Version Test Name", "synonyms": ["CDISC ADAS-Cog - Orientation: Day of Week"]}, {"conceptId": "C100244", "definition": "Alzheimer's Disease Assessment Scale-Cognitive CDISC Version - Orientation task for knowing the current season.", "preferredTerm": "Orientation: Season", "submissionValue": "Alzheimer's Disease Assessment Scale - Cognitive CDISC Version Test Name", "synonyms": ["CDISC ADAS-Cog - Orientation: Season"]}, {"conceptId": "C100245", "definition": "Alzheimer's Disease Assessment Scale-Cognitive CDISC Version - Orientation task for knowing the current place.", "preferredTerm": "Orientation: Place", "submissionValue": "Alzheimer's Disease Assessment Scale - Cognitive CDISC Version Test Name", "synonyms": ["CDISC ADAS-Cog - Orientation: Place"]}, {"conceptId": "C100246", "definition": "Alzheimer's Disease Assessment Scale-Cognitive CDISC Version - Orientation task for knowing the approximate current clock time.", "preferredTerm": "Orientation: Time", "submissionValue": "Alzheimer's Disease Assessment Scale - Cognitive CDISC Version Test Name", "synonyms": ["CDISC ADAS-Cog - Orientation: Time"]}, {"conceptId": "C100247", "definition": "Alzheimer's Disease Assessment Scale-Cognitive CDISC Version - Summary score for word recognition across trials 1-3.", "preferredTerm": "Word Recognition", "submissionValue": "Alzheimer's Disease Assessment Scale - Cognitive CDISC Version Test Name", "synonyms": ["CDISC ADAS-Cog - Word Recognition Summary Score"]}, {"conceptId": "C100248", "definition": "Alzheimer's Disease Assessment Scale-Cognitive CDISC Version - Sub-score for word recognition trial 1.", "preferredTerm": "Word Recognition Trial 1", "submissionValue": "Alzheimer's Disease Assessment Scale - Cognitive CDISC Version Test Name", "synonyms": ["CDISC ADAS-Cog - Word Recognition Trial 1 Summary Score"]}, {"conceptId": "C100249", "definition": "Alzheimer's Disease Assessment Scale-Cognitive CDISC Version - Sub-score for word recognition trial 2.", "preferredTerm": "Word Recognition Trial 2", "submissionValue": "Alzheimer's Disease Assessment Scale - Cognitive CDISC Version Test Name", "synonyms": ["CDISC ADAS-Cog - Word Recognition Trial 2 Summary Score"]}, {"conceptId": "C100250", "definition": "Alzheimer's Disease Assessment Scale-Cognitive CDISC Version - Sub-score for word recognition trial 3.", "preferredTerm": "Word Recognition Trial 3", "submissionValue": "Alzheimer's Disease Assessment Scale - Cognitive CDISC Version Test Name", "synonyms": ["CDISC ADAS-Cog - Word Recognition Trial 3 Summary Score"]}, {"conceptId": "C100251", "definition": "Alzheimer's Disease Assessment Scale-Cognitive CDISC Version - Word recognition task for word 1 Trials 1, 2, 3.", "preferredTerm": "Word Recognition: Word [1]", "submissionValue": "Alzheimer's Disease Assessment Scale - Cognitive CDISC Version Test Name", "synonyms": ["CDISC ADAS-Cog - Word Recognition: Word 1"]}, {"conceptId": "C100252", "definition": "Alzheimer's Disease Assessment Scale-Cognitive CDISC Version - Word recognition task for word 2 Trials 1, 2, 3.", "preferredTerm": "Word Recognition: Word [2]", "submissionValue": "Alzheimer's Disease Assessment Scale - Cognitive CDISC Version Test Name", "synonyms": ["CDISC ADAS-Cog - Word Recognition: Word 2"]}, {"conceptId": "C100253", "definition": "Alzheimer's Disease Assessment Scale-Cognitive CDISC Version - Word recognition task for word 3 Trials 1, 2, 3.", "preferredTerm": "Word Recognition: Word [3]", "submissionValue": "Alzheimer's Disease Assessment Scale - Cognitive CDISC Version Test Name", "synonyms": ["CDISC ADAS-Cog - Word Recognition: Word 3"]}, {"conceptId": "C100254", "definition": "Alzheimer's Disease Assessment Scale-Cognitive CDISC Version - Word recognition task for word 4 Trials 1, 2, 3.", "preferredTerm": "Word Recognition: Word [4]", "submissionValue": "Alzheimer's Disease Assessment Scale - Cognitive CDISC Version Test Name", "synonyms": ["CDISC ADAS-Cog - Word Recognition: Word 4"]}, {"conceptId": "C100255", "definition": "Alzheimer's Disease Assessment Scale-Cognitive CDISC Version - Word recognition task for word 5 Trials 1, 2, 3.", "preferredTerm": "Word Recognition: Word [5]", "submissionValue": "Alzheimer's Disease Assessment Scale - Cognitive CDISC Version Test Name", "synonyms": ["CDISC ADAS-Cog - Word Recognition: Word 5"]}, {"conceptId": "C100256", "definition": "Alzheimer's Disease Assessment Scale-Cognitive CDISC Version - Word recognition task for word 6 Trials 1, 2, 3.", "preferredTerm": "Word Recognition: Word [6]", "submissionValue": "Alzheimer's Disease Assessment Scale - Cognitive CDISC Version Test Name", "synonyms": ["CDISC ADAS-Cog - Word Recognition: Word 6"]}, {"conceptId": "C100257", "definition": "Alzheimer's Disease Assessment Scale-Cognitive CDISC Version - Word recognition task for word 7 Trials 1, 2, 3.", "preferredTerm": "Word Recognition: Word [7]", "submissionValue": "Alzheimer's Disease Assessment Scale - Cognitive CDISC Version Test Name", "synonyms": ["CDISC ADAS-Cog - Word Recognition: Word 7"]}, {"conceptId": "C100258", "definition": "Alzheimer's Disease Assessment Scale-Cognitive CDISC Version - Word recognition task for word 8 Trials 1, 2, 3.", "preferredTerm": "Word Recognition: Word [8]", "submissionValue": "Alzheimer's Disease Assessment Scale - Cognitive CDISC Version Test Name", "synonyms": ["CDISC ADAS-Cog - Word Recognition: Word 8"]}, {"conceptId": "C100259", "definition": "Alzheimer's Disease Assessment Scale-Cognitive CDISC Version - Word recognition task for word 9 Trials 1, 2, 3.", "preferredTerm": "Word Recognition: Word [9]", "submissionValue": "Alzheimer's Disease Assessment Scale - Cognitive CDISC Version Test Name", "synonyms": ["CDISC ADAS-Cog - Word Recognition: Word 9"]}, {"conceptId": "C100260", "definition": "Alzheimer's Disease Assessment Scale-Cognitive CDISC Version - Word recognition task for word 10 Trials 1, 2, 3.", "preferredTerm": "Word Recognition: Word [10]", "submissionValue": "Alzheimer's Disease Assessment Scale - Cognitive CDISC Version Test Name", "synonyms": ["CDISC ADAS-Cog - Word Recognition: Word 10"]}, {"conceptId": "C100261", "definition": "Alzheimer's Disease Assessment Scale-Cognitive CDISC Version - Word recognition task for word 11 Trials 1, 2, 3.", "preferredTerm": "Word Recognition: Word [11]", "submissionValue": "Alzheimer's Disease Assessment Scale - Cognitive CDISC Version Test Name", "synonyms": ["CDISC ADAS-Cog - Word Recognition: Word 11"]}, {"conceptId": "C100262", "definition": "Alzheimer's Disease Assessment Scale-Cognitive CDISC Version - Word recognition task for word 12 Trials 1, 2, 3.", "preferredTerm": "Word Recognition: Word [12]", "submissionValue": "Alzheimer's Disease Assessment Scale - Cognitive CDISC Version Test Name", "synonyms": ["CDISC ADAS-Cog - Word Recognition: Word 12"]}, {"conceptId": "C100263", "definition": "Alzheimer's Disease Assessment Scale-Cognitive CDISC Version - Word recognition task for word 13 Trials 1, 2, 3.", "preferredTerm": "Word Recognition: Word [13]", "submissionValue": "Alzheimer's Disease Assessment Scale - Cognitive CDISC Version Test Name", "synonyms": ["CDISC ADAS-Cog - Word Recognition: Word 13"]}, {"conceptId": "C100264", "definition": "Alzheimer's Disease Assessment Scale-Cognitive CDISC Version - Word recognition task for word 14 Trials 1, 2, 3.", "preferredTerm": "Word Recognition: Word [14]", "submissionValue": "Alzheimer's Disease Assessment Scale - Cognitive CDISC Version Test Name", "synonyms": ["CDISC ADAS-Cog - Word Recognition: Word 14"]}, {"conceptId": "C100265", "definition": "Alzheimer's Disease Assessment Scale-Cognitive CDISC Version - Word recognition task for word 15 Trials 1, 2, 3.", "preferredTerm": "Word Recognition: Word [15]", "submissionValue": "Alzheimer's Disease Assessment Scale - Cognitive CDISC Version Test Name", "synonyms": ["CDISC ADAS-Cog - Word Recognition: Word 15"]}, {"conceptId": "C100266", "definition": "Alzheimer's Disease Assessment Scale-Cognitive CDISC Version - Word recognition task for word 16 Trials 1, 2, 3.", "preferredTerm": "Word Recognition: Word [16]", "submissionValue": "Alzheimer's Disease Assessment Scale - Cognitive CDISC Version Test Name", "synonyms": ["CDISC ADAS-Cog - Word Recognition: Word 16"]}, {"conceptId": "C100267", "definition": "Alzheimer's Disease Assessment Scale-Cognitive CDISC Version - Word recognition task for word 17 Trials 1, 2, 3.", "preferredTerm": "Word Recognition: Word [17]", "submissionValue": "Alzheimer's Disease Assessment Scale - Cognitive CDISC Version Test Name", "synonyms": ["CDISC ADAS-Cog - Word Recognition: Word 17"]}, {"conceptId": "C100268", "definition": "Alzheimer's Disease Assessment Scale-Cognitive CDISC Version - Word recognition task for word 18 Trials 1, 2, 3.", "preferredTerm": "Word Recognition: Word [18]", "submissionValue": "Alzheimer's Disease Assessment Scale - Cognitive CDISC Version Test Name", "synonyms": ["CDISC ADAS-Cog - Word Recognition: Word 18"]}, {"conceptId": "C100269", "definition": "Alzheimer's Disease Assessment Scale-Cognitive CDISC Version - Word recognition task for word 19 Trials 1, 2, 3.", "preferredTerm": "Word Recognition: Word [19]", "submissionValue": "Alzheimer's Disease Assessment Scale - Cognitive CDISC Version Test Name", "synonyms": ["CDISC ADAS-Cog - Word Recognition: Word 19"]}, {"conceptId": "C100270", "definition": "Alzheimer's Disease Assessment Scale-Cognitive CDISC Version - Word recognition task for word 20 Trials 1, 2, 3.", "preferredTerm": "Word Recognition: Word [20]", "submissionValue": "Alzheimer's Disease Assessment Scale - Cognitive CDISC Version Test Name", "synonyms": ["CDISC ADAS-Cog - Word Recognition: Word 20"]}, {"conceptId": "C100271", "definition": "Alzheimer's Disease Assessment Scale-Cognitive CDISC Version - Word recognition task for word 21 Trials 1, 2, 3.", "preferredTerm": "Word Recognition: Word [21]", "submissionValue": "Alzheimer's Disease Assessment Scale - Cognitive CDISC Version Test Name", "synonyms": ["CDISC ADAS-Cog - Word Recognition: Word 21"]}, {"conceptId": "C100272", "definition": "Alzheimer's Disease Assessment Scale-Cognitive CDISC Version - Word recognition task for word 22 Trials 1, 2, 3.", "preferredTerm": "Word Recognition: Word [22]", "submissionValue": "Alzheimer's Disease Assessment Scale - Cognitive CDISC Version Test Name", "synonyms": ["CDISC ADAS-Cog - Word Recognition: Word 22"]}, {"conceptId": "C100273", "definition": "Alzheimer's Disease Assessment Scale-Cognitive CDISC Version - Word recognition task for word 23 Trials 1, 2, 3.", "preferredTerm": "Word Recognition: Word [23]", "submissionValue": "Alzheimer's Disease Assessment Scale - Cognitive CDISC Version Test Name", "synonyms": ["CDISC ADAS-Cog - Word Recognition: Word 23"]}, {"conceptId": "C100274", "definition": "Alzheimer's Disease Assessment Scale-Cognitive CDISC Version - Word recognition task for word 24 Trials 1, 2, 3.", "preferredTerm": "Word Recognition: Word [24]", "submissionValue": "Alzheimer's Disease Assessment Scale - Cognitive CDISC Version Test Name", "synonyms": ["CDISC ADAS-Cog - Word Recognition: Word 24"]}, {"conceptId": "C100275", "definition": "Alzheimer's Disease Assessment Scale-Cognitive CDISC Version - Remembering test instructions.", "preferredTerm": "Remembering Test Instructions", "submissionValue": "Alzheimer's Disease Assessment Scale - Cognitive CDISC Version Test Name", "synonyms": ["CDISC ADAS-Cog - Remembering Test Instructions"]}, {"conceptId": "C100276", "definition": "Alzheimer's Disease Assessment Scale-Cognitive CDISC Version - Global rating of the quality of speech, or difficulty in making oneself understood.", "preferredTerm": "Spoken Language Ability", "submissionValue": "Alzheimer's Disease Assessment Scale - Cognitive CDISC Version Test Name", "synonyms": ["CDISC ADAS-Cog - Spoken Language Ability"]}, {"conceptId": "C100277", "definition": "Alzheimer's Disease Assessment Scale-Cognitive CDISC Version - Difficulty finding the desired word in spontaneous speech.", "preferredTerm": "Word Finding Difficulty in Spont Speech", "submissionValue": "Alzheimer's Disease Assessment Scale - Cognitive CDISC Version Test Name", "synonyms": ["CDISC ADAS-Cog - Word Difficulty in Spontaneous Speech"]}, {"conceptId": "C100278", "definition": "Alzheimer's Disease Assessment Scale-Cognitive CDISC Version - Ability to comprehend speech.", "preferredTerm": "Comprehension", "submissionValue": "Alzheimer's Disease Assessment Scale - Cognitive CDISC Version Test Name", "synonyms": ["CDISC ADAS-Cog - Comprehension"]}, {"conceptId": "C100279", "definition": "Alzheimer's Disease Assessment Scale-Cognitive CDISC Version - Ability to concentrate or easily be distracted.", "preferredTerm": "Concentration/Distractibility", "submissionValue": "Alzheimer's Disease Assessment Scale - Cognitive CDISC Version Test Name", "synonyms": ["CDISC ADAS-Cog - Concentration/Distractibility"]}, {"conceptId": "C100280", "definition": "Alzheimer's Disease Assessment Scale-Cognitive CDISC Version - Summary score for the number cancellation tasks.", "preferredTerm": "Number Cancellation", "submissionValue": "Alzheimer's Disease Assessment Scale - Cognitive CDISC Version Test Name", "synonyms": ["CDISC ADAS-Cog - Number Cancellation Summary Score"]}, {"conceptId": "C100281", "definition": "Alzheimer's Disease Assessment Scale-Cognitive CDISC Version - Number of targets hit during the number cancellation task.", "preferredTerm": "Number Cancellation: Correct", "submissionValue": "Alzheimer's Disease Assessment Scale - Cognitive CDISC Version Test Name", "synonyms": ["CDISC ADAS-Cog - Number Cancellation: Correct"]}, {"conceptId": "C100282", "definition": "Alzheimer's Disease Assessment Scale-Cognitive CDISC Version - Number of errors during the number cancellation task.", "preferredTerm": "Number Cancellation: Errors", "submissionValue": "Alzheimer's Disease Assessment Scale - Cognitive CDISC Version Test Name", "synonyms": ["CDISC ADAS-Cog - Number Cancellation: Errors"]}, {"conceptId": "C100283", "definition": "Alzheimer's Disease Assessment Scale-Cognitive CDISC Version - Number of times reminded for the number cancellation task.", "preferredTerm": "Number Cancellation: Remind", "submissionValue": "Alzheimer's Disease Assessment Scale - Cognitive CDISC Version Test Name", "synonyms": ["CDISC ADAS-Cog - Number Cancellation: Remind"]}, {"conceptId": "C100284", "definition": "Alzheimer's Disease Assessment Scale-Cognitive CDISC Version - Summary score for the executive function maze tasks.", "preferredTerm": "Executive Function Maze", "submissionValue": "Alzheimer's Disease Assessment Scale - Cognitive CDISC Version Test Name", "synonyms": ["CDISC ADAS-Cog - Executive Function Maze Summary Score"]}, {"conceptId": "C100285", "definition": "Alzheimer's Disease Assessment Scale-Cognitive CDISC Version - Number of errors during the executive function maze task.", "preferredTerm": "Executive Function Maze: Errors", "submissionValue": "Alzheimer's Disease Assessment Scale - Cognitive CDISC Version Test Name", "synonyms": ["CDISC ADAS-Cog - Executive Function Maze: Errors"]}, {"conceptId": "C100286", "definition": "Alzheimer's Disease Assessment Scale-Cognitive CDISC Version - The time in seconds stored in ISO 8601 time for the executive function maze task.", "preferredTerm": "Executive Function Maze: Time", "submissionValue": "Alzheimer's Disease Assessment Scale - Cognitive CDISC Version Test Name", "synonyms": ["CDISC ADAS-Cog - Executive Function Maze: Time"]}]}, {"conceptId": "", "definition": "The Brief Psychiatric Rating Scale-A test name.", "extensible": "No", "name": "Brief Psychiatric Rating Scale-A Test Name", "preferredTerm": "Brief Psychiatric Rating Scale-A Test Name", "submissionValue": "Brief Psychiatric Rating Scale-A Test Name", "synonyms": ["CDISC Questionnaire BPRS-A Test Name Terminology"], "terms": [{"conceptId": "C100372", "definition": "Brief Psychiatric Rating Scale-A - Somatic Concern.", "preferredTerm": "BPR01-Somatic Concern", "submissionValue": "Brief Psychiatric Rating Scale-A Test Name", "synonyms": ["BPRS-A - Somatic Concern"]}, {"conceptId": "C100373", "definition": "Brief Psychiatric Rating Scale-A - Anxiety.", "preferredTerm": "BPR01-Anxiety", "submissionValue": "Brief Psychiatric Rating Scale-A Test Name", "synonyms": ["BPRS-A - Anxiety"]}, {"conceptId": "C100374", "definition": "Brief Psychiatric Rating Scale-A - Emotional Withdrawal.", "preferredTerm": "BPR01-Emotional Withdrawal", "submissionValue": "Brief Psychiatric Rating Scale-A Test Name", "synonyms": ["BPRS-A - Emotional Withdrawal"]}, {"conceptId": "C100375", "definition": "Brief Psychiatric Rating Scale-A - Conceptual Disorganization.", "preferredTerm": "BPR01-Conceptual Disorganization", "submissionValue": "Brief Psychiatric Rating Scale-A Test Name", "synonyms": ["BPRS-A - Conceptual Disorganization"]}, {"conceptId": "C100376", "definition": "Brief Psychiatric Rating Scale-A - Guilt Feelings.", "preferredTerm": "BPR01-Guilt Feelings", "submissionValue": "Brief Psychiatric Rating Scale-A Test Name", "synonyms": ["BPRS-A - Guilt Feelings"]}, {"conceptId": "C100377", "definition": "Brief Psychiatric Rating Scale-A - Tension.", "preferredTerm": "BPR01-Tension", "submissionValue": "Brief Psychiatric Rating Scale-A Test Name", "synonyms": ["BPRS-A - Tension"]}, {"conceptId": "C100378", "definition": "Brief Psychiatric Rating Scale-A - Mannerisms and Posturing.", "preferredTerm": "BPR01-Mannerisms and Posturing", "submissionValue": "Brief Psychiatric Rating Scale-A Test Name", "synonyms": ["BPRS-A - Mannerisms and Posturing"]}, {"conceptId": "C100379", "definition": "Brief Psychiatric Rating Scale-A - Grandiosity.", "preferredTerm": "BPR01-Grandiosity", "submissionValue": "Brief Psychiatric Rating Scale-A Test Name", "synonyms": ["BPRS-A - Grandiosity"]}, {"conceptId": "C100380", "definition": "Brief Psychiatric Rating Scale-A - Depressive Mood.", "preferredTerm": "BPR01-Depressive Mood", "submissionValue": "Brief Psychiatric Rating Scale-A Test Name", "synonyms": ["BPRS-A - Depressive Mood"]}, {"conceptId": "C100381", "definition": "Brief Psychiatric Rating Scale-A - Hostility.", "preferredTerm": "BPR01-Hostility", "submissionValue": "Brief Psychiatric Rating Scale-A Test Name", "synonyms": ["BPRS-A - Hostility"]}, {"conceptId": "C100382", "definition": "Brief Psychiatric Rating Scale-A - Suspiciousness.", "preferredTerm": "BPR01-Suspiciousness", "submissionValue": "Brief Psychiatric Rating Scale-A Test Name", "synonyms": ["BPRS-A - Suspiciousness"]}, {"conceptId": "C100383", "definition": "Brief Psychiatric Rating Scale-A - Hallucinatory Behavior.", "preferredTerm": "BPR01-Hallucinatory Behavior", "submissionValue": "Brief Psychiatric Rating Scale-A Test Name", "synonyms": ["BPRS-A - Hallucinatory Behavior"]}, {"conceptId": "C100384", "definition": "Brief Psychiatric Rating Scale-A - Motor Retardation.", "preferredTerm": "BPR01-Motor Retardation", "submissionValue": "Brief Psychiatric Rating Scale-A Test Name", "synonyms": ["BPRS-A - Motor Retardation"]}, {"conceptId": "C100385", "definition": "Brief Psychiatric Rating Scale-A - Uncooperativeness.", "preferredTerm": "BPR01-Uncooperativeness", "submissionValue": "Brief Psychiatric Rating Scale-A Test Name", "synonyms": ["BPRS-A - Uncooperativeness"]}, {"conceptId": "C100386", "definition": "Brief Psychiatric Rating Scale-A - Unusual Thought Content.", "preferredTerm": "BPR01-Unusual Thought Content", "submissionValue": "Brief Psychiatric Rating Scale-A Test Name", "synonyms": ["BPRS-A - Unusual Thought Content"]}, {"conceptId": "C100387", "definition": "Brief Psychiatric Rating Scale-A - Blunted Affect.", "preferredTerm": "BPR01-Blunted Affect", "submissionValue": "Brief Psychiatric Rating Scale-A Test Name", "synonyms": ["BPRS-A - Blunted Affect"]}, {"conceptId": "C100388", "definition": "Brief Psychiatric Rating Scale-A - Excitement.", "preferredTerm": "BPR01-Excitement", "submissionValue": "Brief Psychiatric Rating Scale-A Test Name", "synonyms": ["BPRS-A - Excitement"]}, {"conceptId": "C100389", "definition": "Brief Psychiatric Rating Scale-A - Disorientation.", "preferredTerm": "BPR01-Disorientation", "submissionValue": "Brief Psychiatric Rating Scale-A Test Name", "synonyms": ["BPRS-A - Disorientation"]}]}, {"conceptId": "", "definition": "The Brief Psychiatric Rating Scale-A test code.", "extensible": "No", "name": "Brief Psychiatric Rating Scale-A Test Code", "preferredTerm": "Brief Psychiatric Rating Scale-A Test Code", "submissionValue": "Brief Psychiatric Rating Scale-A Test Code", "synonyms": ["CDISC Questionnaire BPRS-A Test Code Terminology"], "terms": [{"conceptId": "C100372", "definition": "Brief Psychiatric Rating Scale-A - Somatic Concern.", "preferredTerm": "BPR01-Somatic Concern", "submissionValue": "Brief Psychiatric Rating Scale-A Test Code", "synonyms": ["BPRS-A - Somatic Concern"]}, {"conceptId": "C100373", "definition": "Brief Psychiatric Rating Scale-A - Anxiety.", "preferredTerm": "BPR01-Anxiety", "submissionValue": "Brief Psychiatric Rating Scale-A Test Code", "synonyms": ["BPRS-A - Anxiety"]}, {"conceptId": "C100374", "definition": "Brief Psychiatric Rating Scale-A - Emotional Withdrawal.", "preferredTerm": "BPR01-Emotional Withdrawal", "submissionValue": "Brief Psychiatric Rating Scale-A Test Code", "synonyms": ["BPRS-A - Emotional Withdrawal"]}, {"conceptId": "C100375", "definition": "Brief Psychiatric Rating Scale-A - Conceptual Disorganization.", "preferredTerm": "BPR01-Conceptual Disorganization", "submissionValue": "Brief Psychiatric Rating Scale-A Test Code", "synonyms": ["BPRS-A - Conceptual Disorganization"]}, {"conceptId": "C100376", "definition": "Brief Psychiatric Rating Scale-A - Guilt Feelings.", "preferredTerm": "BPR01-Guilt Feelings", "submissionValue": "Brief Psychiatric Rating Scale-A Test Code", "synonyms": ["BPRS-A - Guilt Feelings"]}, {"conceptId": "C100377", "definition": "Brief Psychiatric Rating Scale-A - Tension.", "preferredTerm": "BPR01-Tension", "submissionValue": "Brief Psychiatric Rating Scale-A Test Code", "synonyms": ["BPRS-A - Tension"]}, {"conceptId": "C100378", "definition": "Brief Psychiatric Rating Scale-A - Mannerisms and Posturing.", "preferredTerm": "BPR01-Mannerisms and Posturing", "submissionValue": "Brief Psychiatric Rating Scale-A Test Code", "synonyms": ["BPRS-A - Mannerisms and Posturing"]}, {"conceptId": "C100379", "definition": "Brief Psychiatric Rating Scale-A - Grandiosity.", "preferredTerm": "BPR01-Grandiosity", "submissionValue": "Brief Psychiatric Rating Scale-A Test Code", "synonyms": ["BPRS-A - Grandiosity"]}, {"conceptId": "C100380", "definition": "Brief Psychiatric Rating Scale-A - Depressive Mood.", "preferredTerm": "BPR01-Depressive Mood", "submissionValue": "Brief Psychiatric Rating Scale-A Test Code", "synonyms": ["BPRS-A - Depressive Mood"]}, {"conceptId": "C100381", "definition": "Brief Psychiatric Rating Scale-A - Hostility.", "preferredTerm": "BPR01-Hostility", "submissionValue": "Brief Psychiatric Rating Scale-A Test Code", "synonyms": ["BPRS-A - Hostility"]}, {"conceptId": "C100382", "definition": "Brief Psychiatric Rating Scale-A - Suspiciousness.", "preferredTerm": "BPR01-Suspiciousness", "submissionValue": "Brief Psychiatric Rating Scale-A Test Code", "synonyms": ["BPRS-A - Suspiciousness"]}, {"conceptId": "C100383", "definition": "Brief Psychiatric Rating Scale-A - Hallucinatory Behavior.", "preferredTerm": "BPR01-Hallucinatory Behavior", "submissionValue": "Brief Psychiatric Rating Scale-A Test Code", "synonyms": ["BPRS-A - Hallucinatory Behavior"]}, {"conceptId": "C100384", "definition": "Brief Psychiatric Rating Scale-A - Motor Retardation.", "preferredTerm": "BPR01-Motor Retardation", "submissionValue": "Brief Psychiatric Rating Scale-A Test Code", "synonyms": ["BPRS-A - Motor Retardation"]}, {"conceptId": "C100385", "definition": "Brief Psychiatric Rating Scale-A - Uncooperativeness.", "preferredTerm": "BPR01-Uncooperativeness", "submissionValue": "Brief Psychiatric Rating Scale-A Test Code", "synonyms": ["BPRS-A - Uncooperativeness"]}, {"conceptId": "C100386", "definition": "Brief Psychiatric Rating Scale-A - Unusual Thought Content.", "preferredTerm": "BPR01-Unusual Thought Content", "submissionValue": "Brief Psychiatric Rating Scale-A Test Code", "synonyms": ["BPRS-A - Unusual Thought Content"]}, {"conceptId": "C100387", "definition": "Brief Psychiatric Rating Scale-A - Blunted Affect.", "preferredTerm": "BPR01-Blunted Affect", "submissionValue": "Brief Psychiatric Rating Scale-A Test Code", "synonyms": ["BPRS-A - Blunted Affect"]}, {"conceptId": "C100388", "definition": "Brief Psychiatric Rating Scale-A - Excitement.", "preferredTerm": "BPR01-Excitement", "submissionValue": "Brief Psychiatric Rating Scale-A Test Code", "synonyms": ["BPRS-A - Excitement"]}, {"conceptId": "C100389", "definition": "Brief Psychiatric Rating Scale-A - Disorientation.", "preferredTerm": "BPR01-Disorientation", "submissionValue": "Brief Psychiatric Rating Scale-A Test Code", "synonyms": ["BPRS-A - Disorientation"]}]}, {"conceptId": "", "definition": "The Hamilton Depression Rating Scale - 17 Item test name.", "extensible": "No", "name": "Hamilton Depression Rating Scale - 17 Item Test Name", "preferredTerm": "Hamilton Depression Rating Scale - 17 Item Test Name", "submissionValue": "Hamilton Depression Rating Scale - 17 Item Test Name", "synonyms": ["CDISC Questionnaire HAMD 17 Test Name Terminology"], "terms": [{"conceptId": "C100398", "definition": "Hamilton Depression Rating Scale 17 Item - Depressed mood: sadness, hopeless, helpless, worthless.", "preferredTerm": "HAMD1-Depressed Mood", "submissionValue": "Hamilton Depression Rating Scale - 17 Item Test Name", "synonyms": ["HAMD-17 - Depressed Mood"]}, {"conceptId": "C100399", "definition": "Hamilton Depression Rating Scale 17 Item - Feelings of guilt.", "preferredTerm": "HAMD1-Feelings of Guilt", "submissionValue": "Hamilton Depression Rating Scale - 17 Item Test Name", "synonyms": ["HAMD-17 - Feelings of Guilt"]}, {"conceptId": "C100400", "definition": "Hamilton Depression Rating Scale 17 Item - Suicide.", "preferredTerm": "HAMD1-Suicide", "submissionValue": "Hamilton Depression Rating Scale - 17 Item Test Name", "synonyms": ["HAMD-17 - Suicide"]}, {"conceptId": "C100401", "definition": "Hamilton Depression Rating Scale 17 Item - Insomnia: early in the night.", "preferredTerm": "HAMD1-Insomnia Early - Early Night", "submissionValue": "Hamilton Depression Rating Scale - 17 Item Test Name", "synonyms": ["HAMD-17 - Insomnia - Early Night"]}, {"conceptId": "C100402", "definition": "Hamilton Depression Rating Scale 17 Item - Insomnia: middle of the night.", "preferredTerm": "HAMD1-Insomnia Middle - Middle Night", "submissionValue": "Hamilton Depression Rating Scale - 17 Item Test Name", "synonyms": ["HAMD-17 - Insomnia - Middle Night"]}, {"conceptId": "C100403", "definition": "Hamilton Depression Rating Scale 17 Item - Insomnia: early hours of the morning.", "preferredTerm": "HAMD1-Insomnia Early Hours - Morning", "submissionValue": "Hamilton Depression Rating Scale - 17 Item Test Name", "synonyms": ["HAMD-17 - Insomnia - Early Morning"]}, {"conceptId": "C100404", "definition": "Hamilton Depression Rating Scale 17 Item - Work and activities.", "preferredTerm": "HAMD1-Work and Activities", "submissionValue": "Hamilton Depression Rating Scale - 17 Item Test Name", "synonyms": ["HAMD-17 - Work and Activities"]}, {"conceptId": "C100405", "definition": "Hamilton Depression Rating Scale 17 Item - Retardation.", "preferredTerm": "HAMD1-Retardation", "submissionValue": "Hamilton Depression Rating Scale - 17 Item Test Name", "synonyms": ["HAMD-17 - Retardation"]}, {"conceptId": "C100406", "definition": "Hamilton Depression Rating Scale 17 Item - Agitation.", "preferredTerm": "HAMD1-Agitation", "submissionValue": "Hamilton Depression Rating Scale - 17 Item Test Name", "synonyms": ["HAMD-17 - Agitation"]}, {"conceptId": "C100407", "definition": "Hamilton Depression Rating Scale 17 Item - Anxiety psychic.", "preferredTerm": "HAMD1-Anxiety Psychic", "submissionValue": "Hamilton Depression Rating Scale - 17 Item Test Name", "synonyms": ["HAMD-17 - Psychic Anxiety"]}, {"conceptId": "C100408", "definition": "Hamilton Depression Rating Scale 17 Item - Anxiety somatic: physiological concomitants of anxiety such as gastro-intestinal (dry mouth, wind, indigestion, diarrhea, cramps, belching), cardiovascular (palpitations, headaches), respiratory (hyperventilation, sighing), urinary frequency, sweating.", "preferredTerm": "HAMD1-Anxiety Somatic", "submissionValue": "Hamilton Depression Rating Scale - 17 Item Test Name", "synonyms": ["HAMD-17 - Somatic Anxiety"]}, {"conceptId": "C100409", "definition": "Hamilton Depression Rating Scale 17 Item - Somatic symptoms gastro-intestinal.", "preferredTerm": "HAMD1-Somatic Symptoms GI", "submissionValue": "Hamilton Depression Rating Scale - 17 Item Test Name", "synonyms": ["HAMD-17 - Gastrointestinal Somatic Symptoms"]}, {"conceptId": "C100410", "definition": "Hamilton Depression Rating Scale 17 Item - General somatic symptoms.", "preferredTerm": "HAMD1-General Somatic Symptoms", "submissionValue": "Hamilton Depression Rating Scale - 17 Item Test Name", "synonyms": ["HAMD-17 - General Somatic Symptoms"]}, {"conceptId": "C100411", "definition": "Hamilton Depression Rating Scale 17 Item - Genital symptoms: symptoms such as loss of libido, menstrual disturbances.", "preferredTerm": "HAMD1-Genital Symptoms", "submissionValue": "Hamilton Depression Rating Scale - 17 Item Test Name", "synonyms": ["HAMD-17 - Genital Symptoms"]}, {"conceptId": "C100412", "definition": "Hamilton Depression Rating Scale 17 Item - Hypochondriasis.", "preferredTerm": "HAMD1-Hypochondriasis", "submissionValue": "Hamilton Depression Rating Scale - 17 Item Test Name", "synonyms": ["HAMD-17 - Hypochondriasis"]}, {"conceptId": "C100413", "definition": "Hamilton Depression Rating Scale 17 Item - Loss of weight according to the patient.", "preferredTerm": "HAMD1-Loss of WT According to Patient", "submissionValue": "Hamilton Depression Rating Scale - 17 Item Test Name", "synonyms": ["HAMD-17 - Loss of Weight According to Patient"]}, {"conceptId": "C100414", "definition": "Hamilton Depression Rating Scale 17 Item - Loss of weight according to weekly measurements.", "preferredTerm": "HAMD1-Loss of WT According to WK Meas", "submissionValue": "Hamilton Depression Rating Scale - 17 Item Test Name", "synonyms": ["HAMD-17 - Loss of Weight According to Weekly Measurements"]}, {"conceptId": "C100415", "definition": "Hamilton Depression Rating Scale 17 Item - Insight.", "preferredTerm": "HAMD1-Insight", "submissionValue": "Hamilton Depression Rating Scale - 17 Item Test Name", "synonyms": ["HAMD-17 - Insight"]}, {"conceptId": "C100416", "definition": "Hamilton Depression Rating Scale 17 Item - Total Score.", "preferredTerm": "HAMD1-Total Score", "submissionValue": "Hamilton Depression Rating Scale - 17 Item Test Name", "synonyms": ["HAMD-17 - Total Score"]}]}, {"conceptId": "", "definition": "The Hamilton Depression Rating Scale - 17 Item test code.", "extensible": "No", "name": "Hamilton Depression Rating Scale - 17 Item Test Code", "preferredTerm": "Hamilton Depression Rating Scale - 17 Item Test Code", "submissionValue": "Hamilton Depression Rating Scale - 17 Item Test Code", "synonyms": ["CDISC Questionnaire HAMD 17 Test Code Terminology"], "terms": [{"conceptId": "C100398", "definition": "Hamilton Depression Rating Scale 17 Item - Depressed mood: sadness, hopeless, helpless, worthless.", "preferredTerm": "HAMD1-Depressed Mood", "submissionValue": "Hamilton Depression Rating Scale - 17 Item Test Code", "synonyms": ["HAMD-17 - Depressed Mood"]}, {"conceptId": "C100399", "definition": "Hamilton Depression Rating Scale 17 Item - Feelings of guilt.", "preferredTerm": "HAMD1-Feelings of Guilt", "submissionValue": "Hamilton Depression Rating Scale - 17 Item Test Code", "synonyms": ["HAMD-17 - Feelings of Guilt"]}, {"conceptId": "C100400", "definition": "Hamilton Depression Rating Scale 17 Item - Suicide.", "preferredTerm": "HAMD1-Suicide", "submissionValue": "Hamilton Depression Rating Scale - 17 Item Test Code", "synonyms": ["HAMD-17 - Suicide"]}, {"conceptId": "C100401", "definition": "Hamilton Depression Rating Scale 17 Item - Insomnia: early in the night.", "preferredTerm": "HAMD1-Insomnia Early - Early Night", "submissionValue": "Hamilton Depression Rating Scale - 17 Item Test Code", "synonyms": ["HAMD-17 - Insomnia - Early Night"]}, {"conceptId": "C100402", "definition": "Hamilton Depression Rating Scale 17 Item - Insomnia: middle of the night.", "preferredTerm": "HAMD1-Insomnia Middle - Middle Night", "submissionValue": "Hamilton Depression Rating Scale - 17 Item Test Code", "synonyms": ["HAMD-17 - Insomnia - Middle Night"]}, {"conceptId": "C100403", "definition": "Hamilton Depression Rating Scale 17 Item - Insomnia: early hours of the morning.", "preferredTerm": "HAMD1-Insomnia Early Hours - Morning", "submissionValue": "Hamilton Depression Rating Scale - 17 Item Test Code", "synonyms": ["HAMD-17 - Insomnia - Early Morning"]}, {"conceptId": "C100404", "definition": "Hamilton Depression Rating Scale 17 Item - Work and activities.", "preferredTerm": "HAMD1-Work and Activities", "submissionValue": "Hamilton Depression Rating Scale - 17 Item Test Code", "synonyms": ["HAMD-17 - Work and Activities"]}, {"conceptId": "C100405", "definition": "Hamilton Depression Rating Scale 17 Item - Retardation.", "preferredTerm": "HAMD1-Retardation", "submissionValue": "Hamilton Depression Rating Scale - 17 Item Test Code", "synonyms": ["HAMD-17 - Retardation"]}, {"conceptId": "C100406", "definition": "Hamilton Depression Rating Scale 17 Item - Agitation.", "preferredTerm": "HAMD1-Agitation", "submissionValue": "Hamilton Depression Rating Scale - 17 Item Test Code", "synonyms": ["HAMD-17 - Agitation"]}, {"conceptId": "C100407", "definition": "Hamilton Depression Rating Scale 17 Item - Anxiety psychic.", "preferredTerm": "HAMD1-Anxiety Psychic", "submissionValue": "Hamilton Depression Rating Scale - 17 Item Test Code", "synonyms": ["HAMD-17 - Psychic Anxiety"]}, {"conceptId": "C100408", "definition": "Hamilton Depression Rating Scale 17 Item - Anxiety somatic: physiological concomitants of anxiety such as gastro-intestinal (dry mouth, wind, indigestion, diarrhea, cramps, belching), cardiovascular (palpitations, headaches), respiratory (hyperventilation, sighing), urinary frequency, sweating.", "preferredTerm": "HAMD1-Anxiety Somatic", "submissionValue": "Hamilton Depression Rating Scale - 17 Item Test Code", "synonyms": ["HAMD-17 - Somatic Anxiety"]}, {"conceptId": "C100409", "definition": "Hamilton Depression Rating Scale 17 Item - Somatic symptoms gastro-intestinal.", "preferredTerm": "HAMD1-Somatic Symptoms GI", "submissionValue": "Hamilton Depression Rating Scale - 17 Item Test Code", "synonyms": ["HAMD-17 - Gastrointestinal Somatic Symptoms"]}, {"conceptId": "C100410", "definition": "Hamilton Depression Rating Scale 17 Item - General somatic symptoms.", "preferredTerm": "HAMD1-General Somatic Symptoms", "submissionValue": "Hamilton Depression Rating Scale - 17 Item Test Code", "synonyms": ["HAMD-17 - General Somatic Symptoms"]}, {"conceptId": "C100411", "definition": "Hamilton Depression Rating Scale 17 Item - Genital symptoms: symptoms such as loss of libido, menstrual disturbances.", "preferredTerm": "HAMD1-Genital Symptoms", "submissionValue": "Hamilton Depression Rating Scale - 17 Item Test Code", "synonyms": ["HAMD-17 - Genital Symptoms"]}, {"conceptId": "C100412", "definition": "Hamilton Depression Rating Scale 17 Item - Hypochondriasis.", "preferredTerm": "HAMD1-Hypochondriasis", "submissionValue": "Hamilton Depression Rating Scale - 17 Item Test Code", "synonyms": ["HAMD-17 - Hypochondriasis"]}, {"conceptId": "C100413", "definition": "Hamilton Depression Rating Scale 17 Item - Loss of weight according to the patient.", "preferredTerm": "HAMD1-Loss of WT According to Patient", "submissionValue": "Hamilton Depression Rating Scale - 17 Item Test Code", "synonyms": ["HAMD-17 - Loss of Weight According to Patient"]}, {"conceptId": "C100414", "definition": "Hamilton Depression Rating Scale 17 Item - Loss of weight according to weekly measurements.", "preferredTerm": "HAMD1-Loss of WT According to WK Meas", "submissionValue": "Hamilton Depression Rating Scale - 17 Item Test Code", "synonyms": ["HAMD-17 - Loss of Weight According to Weekly Measurements"]}, {"conceptId": "C100415", "definition": "Hamilton Depression Rating Scale 17 Item - Insight.", "preferredTerm": "HAMD1-Insight", "submissionValue": "Hamilton Depression Rating Scale - 17 Item Test Code", "synonyms": ["HAMD-17 - Insight"]}, {"conceptId": "C100416", "definition": "Hamilton Depression Rating Scale 17 Item - Total Score.", "preferredTerm": "HAMD1-Total Score", "submissionValue": "Hamilton Depression Rating Scale - 17 Item Test Code", "synonyms": ["HAMD-17 - Total Score"]}]}, {"conceptId": "", "definition": "The Movement Disorder Society version of the Unified Parkinson's Disease Rating Scale test name.", "extensible": "No", "name": "Movement Disorder Society UPDRS Test Name", "preferredTerm": "Movement Disorder Society UPDRS Test Name", "submissionValue": "Movement Disorder Society UPDRS Test Name", "synonyms": ["CDISC Questionnaire MDS-UPDRS Test Name Terminology"], "terms": [{"conceptId": "C101018", "definition": "The Movement Disorder Society version of the Unified Parkinson's Disease Rating Scale - Over the past week, have you usually had trouble getting out of bed, a car seat, or a deep chair?", "preferredTerm": "UPD2-Get Out of Bed/Car/Deep Chair", "submissionValue": "Movement Disorder Society UPDRS Test Name", "synonyms": ["MDS-UPDRS - Get Out of Bed, Car, or Deep Chair"]}, {"conceptId": "C100473", "definition": "The Movement Disorder Society version of the Unified Parkinson's Disease Rating Scale - Over the past week have you had problems remembering things, following conversations, paying attention, thinking clearly, or finding your way around the house or in town?", "preferredTerm": "UPD2-Cognitive Impairment", "submissionValue": "Movement Disorder Society UPDRS Test Name", "synonyms": ["MDS-UPDRS - Cognitive Impairment"]}, {"conceptId": "C100474", "definition": "The Movement Disorder Society version of the Unified Parkinson's Disease Rating Scale - Over the past week have you seen, heard, smelled or felt things that were not really there?", "preferredTerm": "UPD2-Hallucinations and Psychosis", "submissionValue": "Movement Disorder Society UPDRS Test Name", "synonyms": ["MDS-UPDRS - Hallucinations and Psychosis"]}, {"conceptId": "C100475", "definition": "The Movement Disorder Society version of the Unified Parkinson's Disease Rating Scale - Over the past week have you felt low, sad, hopeless or unable to enjoy things? If yes, was this feeling for longer than one day at a time? Did it make it difficult for you carry out your usual activities or to be with people?", "preferredTerm": "UPD2-Depressed Mood", "submissionValue": "Movement Disorder Society UPDRS Test Name", "synonyms": ["MDS-UPDRS - Depressed Mood"]}, {"conceptId": "C100476", "definition": "The Movement Disorder Society version of the Unified Parkinson's Disease Rating Scale - Over the past week have you felt nervous, worried or tense? If yes, was this feeling for longer than one day at a time? Did it make it difficult for you to follow your usual activities or to be with other people?", "preferredTerm": "UPD2-Anxious Mood", "submissionValue": "Movement Disorder Society UPDRS Test Name", "synonyms": ["MDS-UPDRS - Anxious Mood"]}, {"conceptId": "C100477", "definition": "The Movement Disorder Society version of the Unified Parkinson's Disease Rating Scale - Over the past week, have you felt indifferent to doing activities or being with people?", "preferredTerm": "UPD2-Apathy", "submissionValue": "Movement Disorder Society UPDRS Test Name", "synonyms": ["MDS-UPDRS - Apathy"]}, {"conceptId": "C100478", "definition": "The Movement Disorder Society version of the Unified Parkinson's Disease Rating Scale - Over the past week, have you had unusually strong urges that are hard to control? Do you feel driven to do or think about something and find it hard to stop?", "preferredTerm": "UPD2-Ftrs Dopa Dysregulation Synd", "submissionValue": "Movement Disorder Society UPDRS Test Name", "synonyms": ["MDS-UPDRS - Features of Dopamine Dysregulation Syndrome"]}, {"conceptId": "C100479", "definition": "The Movement Disorder Society version of the Unified Parkinson's Disease Rating Scale - Over the past week, have you had trouble going to sleep at night or staying asleep through the night?", "preferredTerm": "UPD2-Sleep Problems", "submissionValue": "Movement Disorder Society UPDRS Test Name", "synonyms": ["MDS-UPDRS - Sleep Problems"]}, {"conceptId": "C100480", "definition": "The Movement Disorder Society version of the Unified Parkinson's Disease Rating Scale - Over the past week, have you had trouble staying awake during the daytime?", "preferredTerm": "UPD2-Daytime Sleepiness", "submissionValue": "Movement Disorder Society UPDRS Test Name", "synonyms": ["MDS-UPDRS - Daytime Sleepiness"]}, {"conceptId": "C100481", "definition": "The Movement Disorder Society version of the Unified Parkinson's Disease Rating Scale - Over the past week, have you had uncomfortable feelings in your body like pain, aches tingling or cramps?", "preferredTerm": "UPD2-Pain and other Sensations", "submissionValue": "Movement Disorder Society UPDRS Test Name", "synonyms": ["MDS-UPDRS - Pain and Other Sensations"]}, {"conceptId": "C100482", "definition": "The Movement Disorder Society version of the Unified Parkinson's Disease Rating Scale - Over the past week, have you had trouble with urine control?", "preferredTerm": "UPD2-Urinary Problems", "submissionValue": "Movement Disorder Society UPDRS Test Name", "synonyms": ["MDS-UPDRS - Urinary Problems"]}, {"conceptId": "C100483", "definition": "The Movement Disorder Society version of the Unified Parkinson's Disease Rating Scale - Over the past week have you had constipation troubles that cause you difficulty moving your bowels?", "preferredTerm": "UPD2-Constipation Problems", "submissionValue": "Movement Disorder Society UPDRS Test Name", "synonyms": ["MDS-UPDRS - Constipation Problems"]}, {"conceptId": "C100484", "definition": "The Movement Disorder Society version of the Unified Parkinson's Disease Rating Scale - Over the past week, have you felt faint, dizzy or foggy when you stand up after sitting or lying down?", "preferredTerm": "UPD2-Lightheadedness on Standing", "submissionValue": "Movement Disorder Society UPDRS Test Name", "synonyms": ["MDS-UPDRS - Lightheadedness on Standing"]}, {"conceptId": "C100485", "definition": "The Movement Disorder Society version of the Unified Parkinson's Disease Rating Scale - Over the past week, have you usually felt fatigued?", "preferredTerm": "UPD2-Fatigue", "submissionValue": "Movement Disorder Society UPDRS Test Name", "synonyms": ["MDS-UPDRS - Fatigue"]}, {"conceptId": "C100486", "definition": "The Movement Disorder Society version of the Unified Parkinson's Disease Rating Scale - Over the past week, have you had problems with your speech?", "preferredTerm": "UPD2-Speech", "submissionValue": "Movement Disorder Society UPDRS Test Name", "synonyms": ["MDS-UPDRS - Speech"]}, {"conceptId": "C100487", "definition": "The Movement Disorder Society version of the Unified Parkinson's Disease Rating Scale - Over the past week, have you usually had too much saliva during when you are awake or when you sleep?", "preferredTerm": "UPD2-Saliva and Drooling", "submissionValue": "Movement Disorder Society UPDRS Test Name", "synonyms": ["MDS-UPDRS - Saliva and Drooling"]}, {"conceptId": "C100488", "definition": "The Movement Disorder Society version of the Unified Parkinson's Disease Rating Scale - Over the past week, have you usually had problems swallowing pills or eating meals?", "preferredTerm": "UPD2-Chewing and Swallowing", "submissionValue": "Movement Disorder Society UPDRS Test Name", "synonyms": ["MDS-UPDRS - Chewing and Swallowing"]}, {"conceptId": "C100489", "definition": "The Movement Disorder Society version of the Unified Parkinson's Disease Rating Scale - Over the past week, have you usually had troubles handling your food and using eating utensils?", "preferredTerm": "UPD2-Eating Tasks", "submissionValue": "Movement Disorder Society UPDRS Test Name", "synonyms": ["MDS-UPDRS - Eating Tasks"]}, {"conceptId": "C100490", "definition": "The Movement Disorder Society version of the Unified Parkinson's Disease Rating Scale - Over the past week, have you usually had problems dressing?", "preferredTerm": "UPD2-Dressing", "submissionValue": "Movement Disorder Society UPDRS Test Name", "synonyms": ["MDS-UPDRS - Dressing"]}, {"conceptId": "C100491", "definition": "The Movement Disorder Society version of the Unified Parkinson's Disease Rating Scale - Over the past week, have you usually been slow or do you need help with washing, bathing, shaving, brushing teeth, combing your hair or with other personal hygiene?", "preferredTerm": "UPD2-Hygiene", "submissionValue": "Movement Disorder Society UPDRS Test Name", "synonyms": ["MDS-UPDRS - Hygiene"]}, {"conceptId": "C100492", "definition": "The Movement Disorder Society version of the Unified Parkinson's Disease Rating Scale - Over the past week, have people usually had trouble reading your handwriting?", "preferredTerm": "UPD2-Handwriting", "submissionValue": "Movement Disorder Society UPDRS Test Name", "synonyms": ["MDS-UPDRS - Handwriting"]}, {"conceptId": "C100493", "definition": "The Movement Disorder Society version of the Unified Parkinson's Disease Rating Scale - Over the past week, have you usually had trouble doing your hobbies or other things that you like to do?", "preferredTerm": "UPD2-Doing Hobbies/Other Activities", "submissionValue": "Movement Disorder Society UPDRS Test Name", "synonyms": ["MDS-UPDRS - Doing Hobbies and Other Activities"]}, {"conceptId": "C100494", "definition": "The Movement Disorder Society version of the Unified Parkinson's Disease Rating Scale - Over the past week, do you usually have trouble turning over in bed?", "preferredTerm": "UPD2-Turning in Bed", "submissionValue": "Movement Disorder Society UPDRS Test Name", "synonyms": ["MDS-UPDRS - Turning in Bed"]}, {"conceptId": "C100495", "definition": "The Movement Disorder Society version of the Unified Parkinson's Disease Rating Scale - Over the past week, have you usually had shaking or tremor?", "preferredTerm": "UPD2-Tremor", "submissionValue": "Movement Disorder Society UPDRS Test Name", "synonyms": ["MDS-UPDRS - Tremor"]}, {"conceptId": "C100496", "definition": "The Movement Disorder Society version of the Unified Parkinson's Disease Rating Scale - Over the past week, have you usually had problems with balance and walking?", "preferredTerm": "UPD2-Walking and Balance", "submissionValue": "Movement Disorder Society UPDRS Test Name", "synonyms": ["MDS-UPDRS - Walking and Balance"]}, {"conceptId": "C100497", "definition": "The Movement Disorder Society version of the Unified Parkinson's Disease Rating Scale - Over the past week, on your usual day when walking, do you suddenly stop or freeze as if your feet are stuck to the floor?", "preferredTerm": "UPD2-Freezing", "submissionValue": "Movement Disorder Society UPDRS Test Name", "synonyms": ["MDS-UPDRS - Freezing"]}, {"conceptId": "C100498", "definition": "The Movement Disorder Society version of the Unified Parkinson's Disease Rating Scale - Is the patient on medication for treating the symptoms of Parkinson's Disease?", "preferredTerm": "UPD2-Medication for PD", "submissionValue": "Movement Disorder Society UPDRS Test Name", "synonyms": ["MDS-UPDRS - Medication for Parkinson's Disease"]}, {"conceptId": "C100499", "definition": "The Movement Disorder Society version of the Unified Parkinson's Disease Rating Scale - If the patient is receiving medication for treating the symptoms of Parkinson's Disease, mark the patient's clinical state.", "preferredTerm": "UPD2-Clinical State on Meds", "submissionValue": "Movement Disorder Society UPDRS Test Name", "synonyms": ["MDS-UPDRS - Clinical State on Medication"]}, {"conceptId": "C100500", "definition": "The Movement Disorder Society version of the Unified Parkinson's Disease Rating Scale - Is the patient on Levodopa?", "preferredTerm": "UPD2-Taking Levodopa", "submissionValue": "Movement Disorder Society UPDRS Test Name", "synonyms": ["MDS-UPDRS - Taking Levodopa"]}, {"conceptId": "C100501", "definition": "The Movement Disorder Society version of the Unified Parkinson's Disease Rating Scale - Minutes since last Levodopa dose.", "preferredTerm": "UPD2-Minutes Since Levodopa Dose", "submissionValue": "Movement Disorder Society UPDRS Test Name", "synonyms": ["MDS-UPDRS - Minutes Since Levodopa Dose"]}, {"conceptId": "C100502", "definition": "The Movement Disorder Society version of the Unified Parkinson's Disease Rating Scale - Speech Problems.", "preferredTerm": "UPD2-Speech Problems", "submissionValue": "Movement Disorder Society UPDRS Test Name", "synonyms": ["MDS-UPDRS - Speech Problems"]}, {"conceptId": "C100503", "definition": "The Movement Disorder Society version of the Unified Parkinson's Disease Rating Scale - Facial Expression.", "preferredTerm": "UPD2-Facial Expression", "submissionValue": "Movement Disorder Society UPDRS Test Name", "synonyms": ["MDS-UPDRS - Facial Expression"]}, {"conceptId": "C100504", "definition": "The Movement Disorder Society version of the Unified Parkinson's Disease Rating Scale - Rigidity Neck.", "preferredTerm": "UPD2-Rigidity Neck", "submissionValue": "Movement Disorder Society UPDRS Test Name", "synonyms": ["MDS-UPDRS - Rigidity Neck"]}, {"conceptId": "C100505", "definition": "The Movement Disorder Society version of the Unified Parkinson's Disease Rating Scale - Rigidity Right Upper Extremity.", "preferredTerm": "UPD2-Rigidity RT Upper Extremity", "submissionValue": "Movement Disorder Society UPDRS Test Name", "synonyms": ["MDS-UPDRS - Rigidity Right Upper Extremity"]}, {"conceptId": "C100506", "definition": "The Movement Disorder Society version of the Unified Parkinson's Disease Rating Scale - Rigidity Left Upper Extremity.", "preferredTerm": "UPD2-Rigidity Left Upper Extremity", "submissionValue": "Movement Disorder Society UPDRS Test Name", "synonyms": ["MDS-UPDRS - Rigidity Left Upper Extremity"]}, {"conceptId": "C100507", "definition": "The Movement Disorder Society version of the Unified Parkinson's Disease Rating Scale - Rigidity Right Lower Extremity.", "preferredTerm": "UPD2-Rigidity RT Lower Extremity", "submissionValue": "Movement Disorder Society UPDRS Test Name", "synonyms": ["MDS-UPDRS - Rigidity Right Lower Extremity"]}, {"conceptId": "C100508", "definition": "The Movement Disorder Society version of the Unified Parkinson's Disease Rating Scale - Rigidity Left Lower Extremity.", "preferredTerm": "UPD2-Rigidity Left Lower Extremity", "submissionValue": "Movement Disorder Society UPDRS Test Name", "synonyms": ["MDS-UPDRS - Rigidity Left Lower Extremity"]}, {"conceptId": "C100509", "definition": "The Movement Disorder Society version of the Unified Parkinson's Disease Rating Scale - Right Finger Tapping.", "preferredTerm": "UPD2-Right Finger Tapping", "submissionValue": "Movement Disorder Society UPDRS Test Name", "synonyms": ["MDS-UPDRS - Right Finger Tapping"]}, {"conceptId": "C100510", "definition": "The Movement Disorder Society version of the Unified Parkinson's Disease Rating Scale - Left Finger Tapping.", "preferredTerm": "UPD2-Left Finger Tapping", "submissionValue": "Movement Disorder Society UPDRS Test Name", "synonyms": ["MDS-UPDRS - Left Finger Tapping"]}, {"conceptId": "C100511", "definition": "The Movement Disorder Society version of the Unified Parkinson's Disease Rating Scale - Right Hand Movements.", "preferredTerm": "UPD2-Right Hand Movements", "submissionValue": "Movement Disorder Society UPDRS Test Name", "synonyms": ["MDS-UPDRS - Right Hand Movements"]}, {"conceptId": "C100512", "definition": "The Movement Disorder Society version of the Unified Parkinson's Disease Rating Scale - Left Hand Movements.", "preferredTerm": "UPD2-Left Hand Movements", "submissionValue": "Movement Disorder Society UPDRS Test Name", "synonyms": ["MDS-UPDRS - Left Hand Movements"]}, {"conceptId": "C100513", "definition": "The Movement Disorder Society version of the Unified Parkinson's Disease Rating Scale - Pronation-Supination Movements of Right Hand.", "preferredTerm": "UPD2-Pron/Sup Movement of RT Hand", "submissionValue": "Movement Disorder Society UPDRS Test Name", "synonyms": ["MDS-UPDRS - Pronanation-Supination Movement of Right Hand"]}, {"conceptId": "C100514", "definition": "The Movement Disorder Society version of the Unified Parkinson's Disease Rating Scale - Pronation-Supination Movements of Left Hand.", "preferredTerm": "UPD2-Pron/Sup Movement of Left Hand", "submissionValue": "Movement Disorder Society UPDRS Test Name", "synonyms": ["MDS-UPDRS - Pronanation-Supination Movement of Left Hand"]}, {"conceptId": "C100515", "definition": "The Movement Disorder Society version of the Unified Parkinson's Disease Rating Scale - Right Toe Tapping.", "preferredTerm": "UPD2-Right Toe Tapping", "submissionValue": "Movement Disorder Society UPDRS Test Name", "synonyms": ["MDS-UPDRS - Right Toe Tapping"]}, {"conceptId": "C100516", "definition": "The Movement Disorder Society version of the Unified Parkinson's Disease Rating Scale - Left Toe Tapping.", "preferredTerm": "UPD2-Left Toe Tapping", "submissionValue": "Movement Disorder Society UPDRS Test Name", "synonyms": ["MDS-UPDRS - Left Toe Tapping"]}, {"conceptId": "C100517", "definition": "The Movement Disorder Society version of the Unified Parkinson's Disease Rating Scale - Right Leg Agility.", "preferredTerm": "UPD2-Right Leg Agility", "submissionValue": "Movement Disorder Society UPDRS Test Name", "synonyms": ["MDS-UPDRS - Right Leg Agility"]}, {"conceptId": "C100518", "definition": "The Movement Disorder Society version of the Unified Parkinson's Disease Rating Scale - Left Leg Agility.", "preferredTerm": "UPD2-Left Leg Agility", "submissionValue": "Movement Disorder Society UPDRS Test Name", "synonyms": ["MDS-UPDRS - Left Leg Agility"]}, {"conceptId": "C100519", "definition": "The Movement Disorder Society version of the Unified Parkinson's Disease Rating Scale - Arising from Chair.", "preferredTerm": "UPD2-Arising from Chair", "submissionValue": "Movement Disorder Society UPDRS Test Name", "synonyms": ["MDS-UPDRS - Arising from Chair"]}, {"conceptId": "C100520", "definition": "The Movement Disorder Society version of the Unified Parkinson's Disease Rating Scale - Gait.", "preferredTerm": "UPD2-Gait", "submissionValue": "Movement Disorder Society UPDRS Test Name", "synonyms": ["MDS-UPDRS - Gait"]}, {"conceptId": "C100521", "definition": "The Movement Disorder Society version of the Unified Parkinson's Disease Rating Scale - Freezing of Gait.", "preferredTerm": "UPD2-Freezing of Gait", "submissionValue": "Movement Disorder Society UPDRS Test Name", "synonyms": ["MDS-UPDRS - Freezing of Gait"]}, {"conceptId": "C100522", "definition": "The Movement Disorder Society version of the Unified Parkinson's Disease Rating Scale - Postural Stability.", "preferredTerm": "UPD2-Postural Stability", "submissionValue": "Movement Disorder Society UPDRS Test Name", "synonyms": ["MDS-UPDRS - Postural Stability"]}, {"conceptId": "C100523", "definition": "The Movement Disorder Society version of the Unified Parkinson's Disease Rating Scale - Posture.", "preferredTerm": "UPD2-Posture", "submissionValue": "Movement Disorder Society UPDRS Test Name", "synonyms": ["MDS-UPDRS - Posture"]}, {"conceptId": "C100524", "definition": "The Movement Disorder Society version of the Unified Parkinson's Disease Rating Scale - Global Spontaneity of Movement (Body Bradykinesia).", "preferredTerm": "UPD2-Body Bradykinesia", "submissionValue": "Movement Disorder Society UPDRS Test Name", "synonyms": ["MDS-UPDRS - Body Bradykinesia"]}, {"conceptId": "C100525", "definition": "The Movement Disorder Society version of the Unified Parkinson's Disease Rating Scale - Postural Tremor of the Right Hand.", "preferredTerm": "UPD2-Postural Tremor of Right Hand", "submissionValue": "Movement Disorder Society UPDRS Test Name", "synonyms": ["MDS-UPDRS - Postural Tremor of Right Hand"]}, {"conceptId": "C100526", "definition": "The Movement Disorder Society version of the Unified Parkinson's Disease Rating Scale - Kinetic Tremor of the Left Hand.", "preferredTerm": "UPD2-Kinetic Tremor of Left Hand", "submissionValue": "Movement Disorder Society UPDRS Test Name", "synonyms": ["MDS-UPDRS - Kinetic Tremor of Left Hand"]}, {"conceptId": "C100527", "definition": "The Movement Disorder Society version of the Unified Parkinson's Disease Rating Scale - Rest Tremor Amplitude Right Upper Extremity.", "preferredTerm": "UPD2-Rest Tremor Amplitude RUE", "submissionValue": "Movement Disorder Society UPDRS Test Name", "synonyms": ["MDS-UPDRS - Rest Tremor Amplitude Right Upper Extremity"]}, {"conceptId": "C100528", "definition": "The Movement Disorder Society version of the Unified Parkinson's Disease Rating Scale - Rest Tremor Amplitude Left Upper Extremity.", "preferredTerm": "UPD2-Rest Tremor Amplitude LUE", "submissionValue": "Movement Disorder Society UPDRS Test Name", "synonyms": ["MDS-UPDRS - Rest Tremor Amplitude Left Upper Extremity"]}, {"conceptId": "C100529", "definition": "The Movement Disorder Society version of the Unified Parkinson's Disease Rating Scale - Rest Tremor Amplitude Right Lower Extremity.", "preferredTerm": "UPD2-Rest Tremor Amplitude RLE", "submissionValue": "Movement Disorder Society UPDRS Test Name", "synonyms": ["MDS-UPDRS - Rest Tremor Amplitude Right Lower Extremity"]}, {"conceptId": "C100530", "definition": "The Movement Disorder Society version of the Unified Parkinson's Disease Rating Scale - Rest Tremor Amplitude Left Lower Extremity.", "preferredTerm": "UPD2-Rest Tremor Amplitude LLE", "submissionValue": "Movement Disorder Society UPDRS Test Name", "synonyms": ["MDS-UPDRS - Rest Tremor Amplitude Left Lower Extremity"]}, {"conceptId": "C100531", "definition": "The Movement Disorder Society version of the Unified Parkinson's Disease Rating Scale - Rest Tremor Amplitude Lip/Jaw.", "preferredTerm": "UPD2-Rest Tremor Amplitude Lip/Jaw", "submissionValue": "Movement Disorder Society UPDRS Test Name", "synonyms": ["MDS-UPDRS - Rest Tremor Amplitude Lip or Jaw"]}, {"conceptId": "C100532", "definition": "The Movement Disorder Society version of the Unified Parkinson's Disease Rating Scale - Consistency of Rest Tremor.", "preferredTerm": "UPD2-Consistency of Rest Tremor", "submissionValue": "Movement Disorder Society UPDRS Test Name", "synonyms": ["MDS-UPDRS - Consistency of Rest Tremor"]}, {"conceptId": "C100533", "definition": "The Movement Disorder Society version of the Unified Parkinson's Disease Rating Scale - Were dyskinesias (chorea or dystonia) present during examination?", "preferredTerm": "UPD2-Dyskinesias During Exam", "submissionValue": "Movement Disorder Society UPDRS Test Name", "synonyms": ["MDS-UPDRS - Dyskinesias During Exam"]}, {"conceptId": "C100534", "definition": "The Movement Disorder Society version of the Unified Parkinson's Disease Rating Scale - If yes, did these movements interfere with your ratings?", "preferredTerm": "UPD2-Movements Interfere Ratings", "submissionValue": "Movement Disorder Society UPDRS Test Name", "synonyms": ["MDS-UPDRS - Movements Interfere with Ratings"]}, {"conceptId": "C100535", "definition": "The Movement Disorder Society version of the Unified Parkinson's Disease Rating Scale - Hoehn and Yahr Stage.", "preferredTerm": "UPD2-Hoehn and Yahr Stage", "submissionValue": "Movement Disorder Society UPDRS Test Name", "synonyms": ["MDS-UPDRS - Hoehn and Yahr Stage"]}, {"conceptId": "C100536", "definition": "The Movement Disorder Society version of the Unified Parkinson's Disease Rating Scale - Time Spent with Dyskinesias.", "preferredTerm": "UPD2-Time Spent with Dyskinesias", "submissionValue": "Movement Disorder Society UPDRS Test Name", "synonyms": ["MDS-UPDRS - Time Spent with Dyskinesias"]}, {"conceptId": "C100537", "definition": "The Movement Disorder Society version of the Unified Parkinson's Disease Rating Scale - Functional Impact of Dyskinesias.", "preferredTerm": "UPD2-Functional Impact Dyskinesias", "submissionValue": "Movement Disorder Society UPDRS Test Name", "synonyms": ["MDS-UPDRS - Functional Impact of Dyskinesias"]}, {"conceptId": "C100538", "definition": "The Movement Disorder Society version of the Unified Parkinson's Disease Rating Scale - Time Spent in the Off State.", "preferredTerm": "UPD2-Time Spent in the Off State", "submissionValue": "Movement Disorder Society UPDRS Test Name", "synonyms": ["MDS-UPDRS - Time Spent in the Off State"]}, {"conceptId": "C100539", "definition": "The Movement Disorder Society version of the Unified Parkinson's Disease Rating Scale - Functional Impact of Fluctuations.", "preferredTerm": "UPD2-Functional Impact Fluctuations", "submissionValue": "Movement Disorder Society UPDRS Test Name", "synonyms": ["MDS-UPDRS - Functional Impact of Fluctuations"]}, {"conceptId": "C100540", "definition": "The Movement Disorder Society version of the Unified Parkinson's Disease Rating Scale - Complexity of Motor Fluctuations.", "preferredTerm": "UPD2-Complexity Motor Fluctuations", "submissionValue": "Movement Disorder Society UPDRS Test Name", "synonyms": ["MDS-UPDRS - Complexity of Motor Fluctuations"]}, {"conceptId": "C100541", "definition": "The Movement Disorder Society version of the Unified Parkinson's Disease Rating Scale - Painful Off-state Dystonia.", "preferredTerm": "UPD2-Painful Off-state Dystonia", "submissionValue": "Movement Disorder Society UPDRS Test Name", "synonyms": ["MDS-UPDRS - Painful Off-state Dystonia"]}]}, {"conceptId": "", "definition": "The Movement Disorder Society version of the Unified Parkinson's Disease Rating Scale test code.", "extensible": "No", "name": "Movement Disorder Society UPDRS Test Code", "preferredTerm": "Movement Disorder Society UPDRS Test Code", "submissionValue": "Movement Disorder Society UPDRS Test Code", "synonyms": ["CDISC Questionnaire MDS-UPDRS Test Code Terminology"], "terms": [{"conceptId": "C101018", "definition": "The Movement Disorder Society version of the Unified Parkinson's Disease Rating Scale - Over the past week, have you usually had trouble getting out of bed, a car seat, or a deep chair?", "preferredTerm": "UPD2-Get Out of Bed/Car/Deep Chair", "submissionValue": "Movement Disorder Society UPDRS Test Code", "synonyms": ["MDS-UPDRS - Get Out of Bed, Car, or Deep Chair"]}, {"conceptId": "C100473", "definition": "The Movement Disorder Society version of the Unified Parkinson's Disease Rating Scale - Over the past week have you had problems remembering things, following conversations, paying attention, thinking clearly, or finding your way around the house or in town?", "preferredTerm": "UPD2-Cognitive Impairment", "submissionValue": "Movement Disorder Society UPDRS Test Code", "synonyms": ["MDS-UPDRS - Cognitive Impairment"]}, {"conceptId": "C100474", "definition": "The Movement Disorder Society version of the Unified Parkinson's Disease Rating Scale - Over the past week have you seen, heard, smelled or felt things that were not really there?", "preferredTerm": "UPD2-Hallucinations and Psychosis", "submissionValue": "Movement Disorder Society UPDRS Test Code", "synonyms": ["MDS-UPDRS - Hallucinations and Psychosis"]}, {"conceptId": "C100475", "definition": "The Movement Disorder Society version of the Unified Parkinson's Disease Rating Scale - Over the past week have you felt low, sad, hopeless or unable to enjoy things? If yes, was this feeling for longer than one day at a time? Did it make it difficult for you carry out your usual activities or to be with people?", "preferredTerm": "UPD2-Depressed Mood", "submissionValue": "Movement Disorder Society UPDRS Test Code", "synonyms": ["MDS-UPDRS - Depressed Mood"]}, {"conceptId": "C100476", "definition": "The Movement Disorder Society version of the Unified Parkinson's Disease Rating Scale - Over the past week have you felt nervous, worried or tense? If yes, was this feeling for longer than one day at a time? Did it make it difficult for you to follow your usual activities or to be with other people?", "preferredTerm": "UPD2-Anxious Mood", "submissionValue": "Movement Disorder Society UPDRS Test Code", "synonyms": ["MDS-UPDRS - Anxious Mood"]}, {"conceptId": "C100477", "definition": "The Movement Disorder Society version of the Unified Parkinson's Disease Rating Scale - Over the past week, have you felt indifferent to doing activities or being with people?", "preferredTerm": "UPD2-Apathy", "submissionValue": "Movement Disorder Society UPDRS Test Code", "synonyms": ["MDS-UPDRS - Apathy"]}, {"conceptId": "C100478", "definition": "The Movement Disorder Society version of the Unified Parkinson's Disease Rating Scale - Over the past week, have you had unusually strong urges that are hard to control? Do you feel driven to do or think about something and find it hard to stop?", "preferredTerm": "UPD2-Ftrs Dopa Dysregulation Synd", "submissionValue": "Movement Disorder Society UPDRS Test Code", "synonyms": ["MDS-UPDRS - Features of Dopamine Dysregulation Syndrome"]}, {"conceptId": "C100479", "definition": "The Movement Disorder Society version of the Unified Parkinson's Disease Rating Scale - Over the past week, have you had trouble going to sleep at night or staying asleep through the night?", "preferredTerm": "UPD2-Sleep Problems", "submissionValue": "Movement Disorder Society UPDRS Test Code", "synonyms": ["MDS-UPDRS - Sleep Problems"]}, {"conceptId": "C100480", "definition": "The Movement Disorder Society version of the Unified Parkinson's Disease Rating Scale - Over the past week, have you had trouble staying awake during the daytime?", "preferredTerm": "UPD2-Daytime Sleepiness", "submissionValue": "Movement Disorder Society UPDRS Test Code", "synonyms": ["MDS-UPDRS - Daytime Sleepiness"]}, {"conceptId": "C100481", "definition": "The Movement Disorder Society version of the Unified Parkinson's Disease Rating Scale - Over the past week, have you had uncomfortable feelings in your body like pain, aches tingling or cramps?", "preferredTerm": "UPD2-Pain and other Sensations", "submissionValue": "Movement Disorder Society UPDRS Test Code", "synonyms": ["MDS-UPDRS - Pain and Other Sensations"]}, {"conceptId": "C100482", "definition": "The Movement Disorder Society version of the Unified Parkinson's Disease Rating Scale - Over the past week, have you had trouble with urine control?", "preferredTerm": "UPD2-Urinary Problems", "submissionValue": "Movement Disorder Society UPDRS Test Code", "synonyms": ["MDS-UPDRS - Urinary Problems"]}, {"conceptId": "C100483", "definition": "The Movement Disorder Society version of the Unified Parkinson's Disease Rating Scale - Over the past week have you had constipation troubles that cause you difficulty moving your bowels?", "preferredTerm": "UPD2-Constipation Problems", "submissionValue": "Movement Disorder Society UPDRS Test Code", "synonyms": ["MDS-UPDRS - Constipation Problems"]}, {"conceptId": "C100484", "definition": "The Movement Disorder Society version of the Unified Parkinson's Disease Rating Scale - Over the past week, have you felt faint, dizzy or foggy when you stand up after sitting or lying down?", "preferredTerm": "UPD2-Lightheadedness on Standing", "submissionValue": "Movement Disorder Society UPDRS Test Code", "synonyms": ["MDS-UPDRS - Lightheadedness on Standing"]}, {"conceptId": "C100485", "definition": "The Movement Disorder Society version of the Unified Parkinson's Disease Rating Scale - Over the past week, have you usually felt fatigued?", "preferredTerm": "UPD2-Fatigue", "submissionValue": "Movement Disorder Society UPDRS Test Code", "synonyms": ["MDS-UPDRS - Fatigue"]}, {"conceptId": "C100486", "definition": "The Movement Disorder Society version of the Unified Parkinson's Disease Rating Scale - Over the past week, have you had problems with your speech?", "preferredTerm": "UPD2-Speech", "submissionValue": "Movement Disorder Society UPDRS Test Code", "synonyms": ["MDS-UPDRS - Speech"]}, {"conceptId": "C100487", "definition": "The Movement Disorder Society version of the Unified Parkinson's Disease Rating Scale - Over the past week, have you usually had too much saliva during when you are awake or when you sleep?", "preferredTerm": "UPD2-Saliva and Drooling", "submissionValue": "Movement Disorder Society UPDRS Test Code", "synonyms": ["MDS-UPDRS - Saliva and Drooling"]}, {"conceptId": "C100488", "definition": "The Movement Disorder Society version of the Unified Parkinson's Disease Rating Scale - Over the past week, have you usually had problems swallowing pills or eating meals?", "preferredTerm": "UPD2-Chewing and Swallowing", "submissionValue": "Movement Disorder Society UPDRS Test Code", "synonyms": ["MDS-UPDRS - Chewing and Swallowing"]}, {"conceptId": "C100489", "definition": "The Movement Disorder Society version of the Unified Parkinson's Disease Rating Scale - Over the past week, have you usually had troubles handling your food and using eating utensils?", "preferredTerm": "UPD2-Eating Tasks", "submissionValue": "Movement Disorder Society UPDRS Test Code", "synonyms": ["MDS-UPDRS - Eating Tasks"]}, {"conceptId": "C100490", "definition": "The Movement Disorder Society version of the Unified Parkinson's Disease Rating Scale - Over the past week, have you usually had problems dressing?", "preferredTerm": "UPD2-Dressing", "submissionValue": "Movement Disorder Society UPDRS Test Code", "synonyms": ["MDS-UPDRS - Dressing"]}, {"conceptId": "C100491", "definition": "The Movement Disorder Society version of the Unified Parkinson's Disease Rating Scale - Over the past week, have you usually been slow or do you need help with washing, bathing, shaving, brushing teeth, combing your hair or with other personal hygiene?", "preferredTerm": "UPD2-Hygiene", "submissionValue": "Movement Disorder Society UPDRS Test Code", "synonyms": ["MDS-UPDRS - Hygiene"]}, {"conceptId": "C100492", "definition": "The Movement Disorder Society version of the Unified Parkinson's Disease Rating Scale - Over the past week, have people usually had trouble reading your handwriting?", "preferredTerm": "UPD2-Handwriting", "submissionValue": "Movement Disorder Society UPDRS Test Code", "synonyms": ["MDS-UPDRS - Handwriting"]}, {"conceptId": "C100493", "definition": "The Movement Disorder Society version of the Unified Parkinson's Disease Rating Scale - Over the past week, have you usually had trouble doing your hobbies or other things that you like to do?", "preferredTerm": "UPD2-Doing Hobbies/Other Activities", "submissionValue": "Movement Disorder Society UPDRS Test Code", "synonyms": ["MDS-UPDRS - Doing Hobbies and Other Activities"]}, {"conceptId": "C100494", "definition": "The Movement Disorder Society version of the Unified Parkinson's Disease Rating Scale - Over the past week, do you usually have trouble turning over in bed?", "preferredTerm": "UPD2-Turning in Bed", "submissionValue": "Movement Disorder Society UPDRS Test Code", "synonyms": ["MDS-UPDRS - Turning in Bed"]}, {"conceptId": "C100495", "definition": "The Movement Disorder Society version of the Unified Parkinson's Disease Rating Scale - Over the past week, have you usually had shaking or tremor?", "preferredTerm": "UPD2-Tremor", "submissionValue": "Movement Disorder Society UPDRS Test Code", "synonyms": ["MDS-UPDRS - Tremor"]}, {"conceptId": "C100496", "definition": "The Movement Disorder Society version of the Unified Parkinson's Disease Rating Scale - Over the past week, have you usually had problems with balance and walking?", "preferredTerm": "UPD2-Walking and Balance", "submissionValue": "Movement Disorder Society UPDRS Test Code", "synonyms": ["MDS-UPDRS - Walking and Balance"]}, {"conceptId": "C100497", "definition": "The Movement Disorder Society version of the Unified Parkinson's Disease Rating Scale - Over the past week, on your usual day when walking, do you suddenly stop or freeze as if your feet are stuck to the floor?", "preferredTerm": "UPD2-Freezing", "submissionValue": "Movement Disorder Society UPDRS Test Code", "synonyms": ["MDS-UPDRS - Freezing"]}, {"conceptId": "C100498", "definition": "The Movement Disorder Society version of the Unified Parkinson's Disease Rating Scale - Is the patient on medication for treating the symptoms of Parkinson's Disease?", "preferredTerm": "UPD2-Medication for PD", "submissionValue": "Movement Disorder Society UPDRS Test Code", "synonyms": ["MDS-UPDRS - Medication for Parkinson's Disease"]}, {"conceptId": "C100499", "definition": "The Movement Disorder Society version of the Unified Parkinson's Disease Rating Scale - If the patient is receiving medication for treating the symptoms of Parkinson's Disease, mark the patient's clinical state.", "preferredTerm": "UPD2-Clinical State on Meds", "submissionValue": "Movement Disorder Society UPDRS Test Code", "synonyms": ["MDS-UPDRS - Clinical State on Medication"]}, {"conceptId": "C100500", "definition": "The Movement Disorder Society version of the Unified Parkinson's Disease Rating Scale - Is the patient on Levodopa?", "preferredTerm": "UPD2-Taking Levodopa", "submissionValue": "Movement Disorder Society UPDRS Test Code", "synonyms": ["MDS-UPDRS - Taking Levodopa"]}, {"conceptId": "C100501", "definition": "The Movement Disorder Society version of the Unified Parkinson's Disease Rating Scale - Minutes since last Levodopa dose.", "preferredTerm": "UPD2-Minutes Since Levodopa Dose", "submissionValue": "Movement Disorder Society UPDRS Test Code", "synonyms": ["MDS-UPDRS - Minutes Since Levodopa Dose"]}, {"conceptId": "C100502", "definition": "The Movement Disorder Society version of the Unified Parkinson's Disease Rating Scale - Speech Problems.", "preferredTerm": "UPD2-Speech Problems", "submissionValue": "Movement Disorder Society UPDRS Test Code", "synonyms": ["MDS-UPDRS - Speech Problems"]}, {"conceptId": "C100503", "definition": "The Movement Disorder Society version of the Unified Parkinson's Disease Rating Scale - Facial Expression.", "preferredTerm": "UPD2-Facial Expression", "submissionValue": "Movement Disorder Society UPDRS Test Code", "synonyms": ["MDS-UPDRS - Facial Expression"]}, {"conceptId": "C100504", "definition": "The Movement Disorder Society version of the Unified Parkinson's Disease Rating Scale - Rigidity Neck.", "preferredTerm": "UPD2-Rigidity Neck", "submissionValue": "Movement Disorder Society UPDRS Test Code", "synonyms": ["MDS-UPDRS - Rigidity Neck"]}, {"conceptId": "C100505", "definition": "The Movement Disorder Society version of the Unified Parkinson's Disease Rating Scale - Rigidity Right Upper Extremity.", "preferredTerm": "UPD2-Rigidity RT Upper Extremity", "submissionValue": "Movement Disorder Society UPDRS Test Code", "synonyms": ["MDS-UPDRS - Rigidity Right Upper Extremity"]}, {"conceptId": "C100506", "definition": "The Movement Disorder Society version of the Unified Parkinson's Disease Rating Scale - Rigidity Left Upper Extremity.", "preferredTerm": "UPD2-Rigidity Left Upper Extremity", "submissionValue": "Movement Disorder Society UPDRS Test Code", "synonyms": ["MDS-UPDRS - Rigidity Left Upper Extremity"]}, {"conceptId": "C100507", "definition": "The Movement Disorder Society version of the Unified Parkinson's Disease Rating Scale - Rigidity Right Lower Extremity.", "preferredTerm": "UPD2-Rigidity RT Lower Extremity", "submissionValue": "Movement Disorder Society UPDRS Test Code", "synonyms": ["MDS-UPDRS - Rigidity Right Lower Extremity"]}, {"conceptId": "C100508", "definition": "The Movement Disorder Society version of the Unified Parkinson's Disease Rating Scale - Rigidity Left Lower Extremity.", "preferredTerm": "UPD2-Rigidity Left Lower Extremity", "submissionValue": "Movement Disorder Society UPDRS Test Code", "synonyms": ["MDS-UPDRS - Rigidity Left Lower Extremity"]}, {"conceptId": "C100509", "definition": "The Movement Disorder Society version of the Unified Parkinson's Disease Rating Scale - Right Finger Tapping.", "preferredTerm": "UPD2-Right Finger Tapping", "submissionValue": "Movement Disorder Society UPDRS Test Code", "synonyms": ["MDS-UPDRS - Right Finger Tapping"]}, {"conceptId": "C100510", "definition": "The Movement Disorder Society version of the Unified Parkinson's Disease Rating Scale - Left Finger Tapping.", "preferredTerm": "UPD2-Left Finger Tapping", "submissionValue": "Movement Disorder Society UPDRS Test Code", "synonyms": ["MDS-UPDRS - Left Finger Tapping"]}, {"conceptId": "C100511", "definition": "The Movement Disorder Society version of the Unified Parkinson's Disease Rating Scale - Right Hand Movements.", "preferredTerm": "UPD2-Right Hand Movements", "submissionValue": "Movement Disorder Society UPDRS Test Code", "synonyms": ["MDS-UPDRS - Right Hand Movements"]}, {"conceptId": "C100512", "definition": "The Movement Disorder Society version of the Unified Parkinson's Disease Rating Scale - Left Hand Movements.", "preferredTerm": "UPD2-Left Hand Movements", "submissionValue": "Movement Disorder Society UPDRS Test Code", "synonyms": ["MDS-UPDRS - Left Hand Movements"]}, {"conceptId": "C100513", "definition": "The Movement Disorder Society version of the Unified Parkinson's Disease Rating Scale - Pronation-Supination Movements of Right Hand.", "preferredTerm": "UPD2-Pron/Sup Movement of RT Hand", "submissionValue": "Movement Disorder Society UPDRS Test Code", "synonyms": ["MDS-UPDRS - Pronanation-Supination Movement of Right Hand"]}, {"conceptId": "C100514", "definition": "The Movement Disorder Society version of the Unified Parkinson's Disease Rating Scale - Pronation-Supination Movements of Left Hand.", "preferredTerm": "UPD2-Pron/Sup Movement of Left Hand", "submissionValue": "Movement Disorder Society UPDRS Test Code", "synonyms": ["MDS-UPDRS - Pronanation-Supination Movement of Left Hand"]}, {"conceptId": "C100515", "definition": "The Movement Disorder Society version of the Unified Parkinson's Disease Rating Scale - Right Toe Tapping.", "preferredTerm": "UPD2-Right Toe Tapping", "submissionValue": "Movement Disorder Society UPDRS Test Code", "synonyms": ["MDS-UPDRS - Right Toe Tapping"]}, {"conceptId": "C100516", "definition": "The Movement Disorder Society version of the Unified Parkinson's Disease Rating Scale - Left Toe Tapping.", "preferredTerm": "UPD2-Left Toe Tapping", "submissionValue": "Movement Disorder Society UPDRS Test Code", "synonyms": ["MDS-UPDRS - Left Toe Tapping"]}, {"conceptId": "C100517", "definition": "The Movement Disorder Society version of the Unified Parkinson's Disease Rating Scale - Right Leg Agility.", "preferredTerm": "UPD2-Right Leg Agility", "submissionValue": "Movement Disorder Society UPDRS Test Code", "synonyms": ["MDS-UPDRS - Right Leg Agility"]}, {"conceptId": "C100518", "definition": "The Movement Disorder Society version of the Unified Parkinson's Disease Rating Scale - Left Leg Agility.", "preferredTerm": "UPD2-Left Leg Agility", "submissionValue": "Movement Disorder Society UPDRS Test Code", "synonyms": ["MDS-UPDRS - Left Leg Agility"]}, {"conceptId": "C100519", "definition": "The Movement Disorder Society version of the Unified Parkinson's Disease Rating Scale - Arising from Chair.", "preferredTerm": "UPD2-Arising from Chair", "submissionValue": "Movement Disorder Society UPDRS Test Code", "synonyms": ["MDS-UPDRS - Arising from Chair"]}, {"conceptId": "C100520", "definition": "The Movement Disorder Society version of the Unified Parkinson's Disease Rating Scale - Gait.", "preferredTerm": "UPD2-Gait", "submissionValue": "Movement Disorder Society UPDRS Test Code", "synonyms": ["MDS-UPDRS - Gait"]}, {"conceptId": "C100521", "definition": "The Movement Disorder Society version of the Unified Parkinson's Disease Rating Scale - Freezing of Gait.", "preferredTerm": "UPD2-Freezing of Gait", "submissionValue": "Movement Disorder Society UPDRS Test Code", "synonyms": ["MDS-UPDRS - Freezing of Gait"]}, {"conceptId": "C100522", "definition": "The Movement Disorder Society version of the Unified Parkinson's Disease Rating Scale - Postural Stability.", "preferredTerm": "UPD2-Postural Stability", "submissionValue": "Movement Disorder Society UPDRS Test Code", "synonyms": ["MDS-UPDRS - Postural Stability"]}, {"conceptId": "C100523", "definition": "The Movement Disorder Society version of the Unified Parkinson's Disease Rating Scale - Posture.", "preferredTerm": "UPD2-Posture", "submissionValue": "Movement Disorder Society UPDRS Test Code", "synonyms": ["MDS-UPDRS - Posture"]}, {"conceptId": "C100524", "definition": "The Movement Disorder Society version of the Unified Parkinson's Disease Rating Scale - Global Spontaneity of Movement (Body Bradykinesia).", "preferredTerm": "UPD2-Body Bradykinesia", "submissionValue": "Movement Disorder Society UPDRS Test Code", "synonyms": ["MDS-UPDRS - Body Bradykinesia"]}, {"conceptId": "C100525", "definition": "The Movement Disorder Society version of the Unified Parkinson's Disease Rating Scale - Postural Tremor of the Right Hand.", "preferredTerm": "UPD2-Postural Tremor of Right Hand", "submissionValue": "Movement Disorder Society UPDRS Test Code", "synonyms": ["MDS-UPDRS - Postural Tremor of Right Hand"]}, {"conceptId": "C100526", "definition": "The Movement Disorder Society version of the Unified Parkinson's Disease Rating Scale - Kinetic Tremor of the Left Hand.", "preferredTerm": "UPD2-Kinetic Tremor of Left Hand", "submissionValue": "Movement Disorder Society UPDRS Test Code", "synonyms": ["MDS-UPDRS - Kinetic Tremor of Left Hand"]}, {"conceptId": "C100527", "definition": "The Movement Disorder Society version of the Unified Parkinson's Disease Rating Scale - Rest Tremor Amplitude Right Upper Extremity.", "preferredTerm": "UPD2-Rest Tremor Amplitude RUE", "submissionValue": "Movement Disorder Society UPDRS Test Code", "synonyms": ["MDS-UPDRS - Rest Tremor Amplitude Right Upper Extremity"]}, {"conceptId": "C100528", "definition": "The Movement Disorder Society version of the Unified Parkinson's Disease Rating Scale - Rest Tremor Amplitude Left Upper Extremity.", "preferredTerm": "UPD2-Rest Tremor Amplitude LUE", "submissionValue": "Movement Disorder Society UPDRS Test Code", "synonyms": ["MDS-UPDRS - Rest Tremor Amplitude Left Upper Extremity"]}, {"conceptId": "C100529", "definition": "The Movement Disorder Society version of the Unified Parkinson's Disease Rating Scale - Rest Tremor Amplitude Right Lower Extremity.", "preferredTerm": "UPD2-Rest Tremor Amplitude RLE", "submissionValue": "Movement Disorder Society UPDRS Test Code", "synonyms": ["MDS-UPDRS - Rest Tremor Amplitude Right Lower Extremity"]}, {"conceptId": "C100530", "definition": "The Movement Disorder Society version of the Unified Parkinson's Disease Rating Scale - Rest Tremor Amplitude Left Lower Extremity.", "preferredTerm": "UPD2-Rest Tremor Amplitude LLE", "submissionValue": "Movement Disorder Society UPDRS Test Code", "synonyms": ["MDS-UPDRS - Rest Tremor Amplitude Left Lower Extremity"]}, {"conceptId": "C100531", "definition": "The Movement Disorder Society version of the Unified Parkinson's Disease Rating Scale - Rest Tremor Amplitude Lip/Jaw.", "preferredTerm": "UPD2-Rest Tremor Amplitude Lip/Jaw", "submissionValue": "Movement Disorder Society UPDRS Test Code", "synonyms": ["MDS-UPDRS - Rest Tremor Amplitude Lip or Jaw"]}, {"conceptId": "C100532", "definition": "The Movement Disorder Society version of the Unified Parkinson's Disease Rating Scale - Consistency of Rest Tremor.", "preferredTerm": "UPD2-Consistency of Rest Tremor", "submissionValue": "Movement Disorder Society UPDRS Test Code", "synonyms": ["MDS-UPDRS - Consistency of Rest Tremor"]}, {"conceptId": "C100533", "definition": "The Movement Disorder Society version of the Unified Parkinson's Disease Rating Scale - Were dyskinesias (chorea or dystonia) present during examination?", "preferredTerm": "UPD2-Dyskinesias During Exam", "submissionValue": "Movement Disorder Society UPDRS Test Code", "synonyms": ["MDS-UPDRS - Dyskinesias During Exam"]}, {"conceptId": "C100534", "definition": "The Movement Disorder Society version of the Unified Parkinson's Disease Rating Scale - If yes, did these movements interfere with your ratings?", "preferredTerm": "UPD2-Movements Interfere Ratings", "submissionValue": "Movement Disorder Society UPDRS Test Code", "synonyms": ["MDS-UPDRS - Movements Interfere with Ratings"]}, {"conceptId": "C100535", "definition": "The Movement Disorder Society version of the Unified Parkinson's Disease Rating Scale - Hoehn and Yahr Stage.", "preferredTerm": "UPD2-Hoehn and Yahr Stage", "submissionValue": "Movement Disorder Society UPDRS Test Code", "synonyms": ["MDS-UPDRS - Hoehn and Yahr Stage"]}, {"conceptId": "C100536", "definition": "The Movement Disorder Society version of the Unified Parkinson's Disease Rating Scale - Time Spent with Dyskinesias.", "preferredTerm": "UPD2-Time Spent with Dyskinesias", "submissionValue": "Movement Disorder Society UPDRS Test Code", "synonyms": ["MDS-UPDRS - Time Spent with Dyskinesias"]}, {"conceptId": "C100537", "definition": "The Movement Disorder Society version of the Unified Parkinson's Disease Rating Scale - Functional Impact of Dyskinesias.", "preferredTerm": "UPD2-Functional Impact Dyskinesias", "submissionValue": "Movement Disorder Society UPDRS Test Code", "synonyms": ["MDS-UPDRS - Functional Impact of Dyskinesias"]}, {"conceptId": "C100538", "definition": "The Movement Disorder Society version of the Unified Parkinson's Disease Rating Scale - Time Spent in the Off State.", "preferredTerm": "UPD2-Time Spent in the Off State", "submissionValue": "Movement Disorder Society UPDRS Test Code", "synonyms": ["MDS-UPDRS - Time Spent in the Off State"]}, {"conceptId": "C100539", "definition": "The Movement Disorder Society version of the Unified Parkinson's Disease Rating Scale - Functional Impact of Fluctuations.", "preferredTerm": "UPD2-Functional Impact Fluctuations", "submissionValue": "Movement Disorder Society UPDRS Test Code", "synonyms": ["MDS-UPDRS - Functional Impact of Fluctuations"]}, {"conceptId": "C100540", "definition": "The Movement Disorder Society version of the Unified Parkinson's Disease Rating Scale - Complexity of Motor Fluctuations.", "preferredTerm": "UPD2-Complexity Motor Fluctuations", "submissionValue": "Movement Disorder Society UPDRS Test Code", "synonyms": ["MDS-UPDRS - Complexity of Motor Fluctuations"]}, {"conceptId": "C100541", "definition": "The Movement Disorder Society version of the Unified Parkinson's Disease Rating Scale - Painful Off-state Dystonia.", "preferredTerm": "UPD2-Painful Off-state Dystonia", "submissionValue": "Movement Disorder Society UPDRS Test Code", "synonyms": ["MDS-UPDRS - Painful Off-state Dystonia"]}]}, {"conceptId": "", "definition": "The Neuropsychiatric Inventory test name.", "extensible": "No", "name": "Neuropsychiatric Inventory Test Name", "preferredTerm": "Neuropsychiatric Inventory Test Name", "submissionValue": "Neuropsychiatric Inventory Test Name", "synonyms": ["CDISC Questionnaire NPI Test Name Terminology"], "terms": [{"conceptId": "C100622", "definition": "Neuropsychiatric Inventory - Does the patient have beliefs that you know are not true? (for example, insisting that people are trying to harm him/her or steal from him/her)? Has he/she said that family members are not who they say they are or that the house is not their home? I'm not asking about mere suspiciousness; I am interested if the patient is convinced that these things are happening to him/her.", "preferredTerm": "NPI1-Beliefs Untrue", "submissionValue": "Neuropsychiatric Inventory Test Name", "synonyms": ["NPI - Have Beliefs That You Know are Not True"]}, {"conceptId": "C100623", "definition": "Neuropsychiatric Inventory - Does the patient believe that he/she is in danger - that others are planning to hurt him/her?", "preferredTerm": "NPI1-In Danger", "submissionValue": "Neuropsychiatric Inventory Test Name", "synonyms": ["NPI - He/She is in Danger"]}, {"conceptId": "C100624", "definition": "Neuropsychiatric Inventory - Does the patient believe that others are stealing from him/her?", "preferredTerm": "NPI1-Others Are Stealing", "submissionValue": "Neuropsychiatric Inventory Test Name", "synonyms": ["NPI - Others are Stealing From Him/Her"]}, {"conceptId": "C100625", "definition": "Neuropsychiatric Inventory - Does the patient believe that his/her spouse is having an affair?", "preferredTerm": "NPI1-Spouse Having Affair", "submissionValue": "Neuropsychiatric Inventory Test Name", "synonyms": ["NPI - His/Her Spouse is Having an Affair"]}, {"conceptId": "C100626", "definition": "Neuropsychiatric Inventory - Does the patient believe that unwelcome guests are living in his/her house?", "preferredTerm": "NPI1-Unwelcome Guests in House", "submissionValue": "Neuropsychiatric Inventory Test Name", "synonyms": ["NPI - Unwelcome Guests are Living in His/Her House"]}, {"conceptId": "C100627", "definition": "Neuropsychiatric Inventory - Does the patient believe that his/her spouse or others are not who they claim to be?", "preferredTerm": "NPI1-People Not Who They Claim", "submissionValue": "Neuropsychiatric Inventory Test Name", "synonyms": ["NPI - His/Her Spouse or Others Are Not Who They Claim To Be"]}, {"conceptId": "C100628", "definition": "Neuropsychiatric Inventory - Does the patient believe that his/her house is not his/her home?", "preferredTerm": "NPI1-House Not Their Home", "submissionValue": "Neuropsychiatric Inventory Test Name", "synonyms": ["NPI - His/Her House Is Not His/Her Home"]}, {"conceptId": "C100629", "definition": "Neuropsychiatric Inventory - Does the patient believe that family members plan to abandon him/her?", "preferredTerm": "NPI1-Family Plans to Abandon", "submissionValue": "Neuropsychiatric Inventory Test Name", "synonyms": ["NPI - Family Members Plan to Abandon Him/Her"]}, {"conceptId": "C100630", "definition": "Neuropsychiatric Inventory - Does the patient believe that television or magazine figures are actually present in the home? (Does he/she try to talk or interact with them?)", "preferredTerm": "NPI1-TV/Magazine Figures Present", "submissionValue": "Neuropsychiatric Inventory Test Name", "synonyms": ["NPI - Television or Magazine Figures Are Actually Present In the Home"]}, {"conceptId": "C100631", "definition": "Neuropsychiatric Inventory - Does the patient believe any other unusual things that I haven't asked about?", "preferredTerm": "NPI1-Other Unusual Beliefs", "submissionValue": "Neuropsychiatric Inventory Test Name", "synonyms": ["NPI - Any Other Unusual Things That I Haven't Asked About"]}, {"conceptId": "C103602", "definition": "Neuropsychiatric Inventory - Frequency of the delusions.", "preferredTerm": "NPI1-Delusions Frequency", "submissionValue": "Neuropsychiatric Inventory Test Name", "synonyms": ["NPI - Delusions Frequency"]}, {"conceptId": "C103603", "definition": "Neuropsychiatric Inventory - Severity of the delusions.", "preferredTerm": "NPI1-Delusions Severity", "submissionValue": "Neuropsychiatric Inventory Test Name", "synonyms": ["NPI - Delusions Severity"]}, {"conceptId": "C103604", "definition": "Neuropsychiatric Inventory - How emotionally distressing do you find this behavior?", "preferredTerm": "NPI1-Delusions Distress", "submissionValue": "Neuropsychiatric Inventory Test Name", "synonyms": ["NPI - Delusions Distress"]}, {"conceptId": "C100632", "definition": "Neuropsychiatric Inventory - Does the patient have hallucinations such as seeing false visions or hearing false voices? Does he/she seem to see, hear or experience things that are not present? By this question we do not mean just mistaken beliefs such as stating that someone who has died is still alive; rather we are asking if the patient actually has abnormal experiences of sounds or visions.", "preferredTerm": "NPI1-False Visions or Voices", "submissionValue": "Neuropsychiatric Inventory Test Name", "synonyms": ["NPI - Hallucinations Such as Seeing False Visions or Hearing False Voices"]}, {"conceptId": "C100633", "definition": "Neuropsychiatric Inventory - Does the patient describe hearing voices or act as if he/she hears voices?", "preferredTerm": "NPI1-Hearing Voices", "submissionValue": "Neuropsychiatric Inventory Test Name", "synonyms": ["NPI - Describe Hearing Voices or Act as if He/She Hears Voices"]}, {"conceptId": "C100634", "definition": "Neuropsychiatric Inventory - Does the patient talk to people who are not there?", "preferredTerm": "NPI1-Talk to People Not There", "submissionValue": "Neuropsychiatric Inventory Test Name", "synonyms": ["NPI - Talk to People Who Are Not There"]}, {"conceptId": "C100635", "definition": "Neuropsychiatric Inventory - Does the patient describe seeing things not seen by others or behave as if he/she is seeing things not seen by others (people, animals, lights, etc.)?", "preferredTerm": "NPI1-See Things Not Seen by Others", "submissionValue": "Neuropsychiatric Inventory Test Name", "synonyms": ["NPI - Describe Seeing Things Not Seen by Others"]}, {"conceptId": "C100636", "definition": "Neuropsychiatric Inventory - Does the patient report smelling odors not smelled by others?", "preferredTerm": "NPI1-Smell Odors Others Do Not Smell", "submissionValue": "Neuropsychiatric Inventory Test Name", "synonyms": ["NPI - Report Smelling Odors Not Smelled by Others"]}, {"conceptId": "C100637", "definition": "Neuropsychiatric Inventory - Does the patient describe feeling things on his/her skin or otherwise appear to be feeling things crawling or touching him/her?", "preferredTerm": "NPI1-Feel Things on Skin", "submissionValue": "Neuropsychiatric Inventory Test Name", "synonyms": ["NPI - Describe Feeling Things on His/Her Skin"]}, {"conceptId": "C100638", "definition": "Neuropsychiatric Inventory - Does the patient describe tastes that are without any known cause?", "preferredTerm": "NPI1-Taste without Known Cause", "submissionValue": "Neuropsychiatric Inventory Test Name", "synonyms": ["NPI - Describe Tastes That Are Without Any Known Cause"]}, {"conceptId": "C100639", "definition": "Neuropsychiatric Inventory - Does the patient describe any other unusual sensory experiences?", "preferredTerm": "NPI1-Other Unusual Sensory Experience", "submissionValue": "Neuropsychiatric Inventory Test Name", "synonyms": ["NPI - Describe Any Other Unusual Sensory Experiences"]}, {"conceptId": "C103605", "definition": "Neuropsychiatric Inventory - Frequency of the hallucinations.", "preferredTerm": "NPI1-Hallucinations Frequency", "submissionValue": "Neuropsychiatric Inventory Test Name", "synonyms": ["NPI - Hallucinations Frequency"]}, {"conceptId": "C103606", "definition": "Neuropsychiatric Inventory - Severity of the hallucinations.", "preferredTerm": "NPI1-Hallucinations Severity", "submissionValue": "Neuropsychiatric Inventory Test Name", "synonyms": ["NPI - Hallucinations Severity"]}, {"conceptId": "C103607", "definition": "Neuropsychiatric Inventory - How emotionally distressing do you find this behavior?", "preferredTerm": "NPI1-Hallucinations Distress", "submissionValue": "Neuropsychiatric Inventory Test Name", "synonyms": ["NPI - Hallucinations Distress"]}, {"conceptId": "C100640", "definition": "Neuropsychiatric Inventory - Does the patient have periods when he/she refuses to cooperate or won't let people help him/her? Is he/she hard to handle?", "preferredTerm": "NPI1-Refuse to Cooperate", "submissionValue": "Neuropsychiatric Inventory Test Name", "synonyms": ["NPI - Periods When He/She Refuses to Cooperate"]}, {"conceptId": "C100641", "definition": "Neuropsychiatric Inventory - Does the patient get upset with those trying to care for him/her or resist activities such as bathing or changing clothes?", "preferredTerm": "NPI1-Get Upset with Caregiver", "submissionValue": "Neuropsychiatric Inventory Test Name", "synonyms": ["NPI - Get Upset with Those Trying to Care for Him/Her"]}, {"conceptId": "C100642", "definition": "Neuropsychiatric Inventory - Is the patient stubborn, having to have things his/her way?", "preferredTerm": "NPI1-Stubborn", "submissionValue": "Neuropsychiatric Inventory Test Name", "synonyms": ["NPI - Stubborn"]}, {"conceptId": "C100643", "definition": "Neuropsychiatric Inventory - Is the patient uncooperative, resistive to help from others?", "preferredTerm": "NPI1-Uncooperative", "submissionValue": "Neuropsychiatric Inventory Test Name", "synonyms": ["NPI - Uncooperative"]}, {"conceptId": "C100644", "definition": "Neuropsychiatric Inventory - Does the patient have any other behaviors that make him/her hard to handle?", "preferredTerm": "NPI1-Other Behaviors Hard to Handle", "submissionValue": "Neuropsychiatric Inventory Test Name", "synonyms": ["NPI - Any Other Behaviors That Make Him/Her Hard to Handle"]}, {"conceptId": "C100645", "definition": "Neuropsychiatric Inventory - Does the patient shout or curse angrily?", "preferredTerm": "NPI1-Shout or Curse Angrily", "submissionValue": "Neuropsychiatric Inventory Test Name", "synonyms": ["NPI - Shout or Curse Angrily"]}, {"conceptId": "C100646", "definition": "Neuropsychiatric Inventory - Does the patient slam doors, kick furniture, throw things?", "preferredTerm": "NPI1-Slam, Kick or Throw Things", "submissionValue": "Neuropsychiatric Inventory Test Name", "synonyms": ["NPI - Slam doors, Kick Furniture, Throw Things"]}, {"conceptId": "C100647", "definition": "Neuropsychiatric Inventory - Does the patient attempt to hurt or hit others?", "preferredTerm": "NPI1-Hurt or Hit Others", "submissionValue": "Neuropsychiatric Inventory Test Name", "synonyms": ["NPI - Attempt to Hurt or Hit Others"]}, {"conceptId": "C100648", "definition": "Neuropsychiatric Inventory - Does the patient have any other aggressive or agitated behaviors?", "preferredTerm": "NPI1-Other Aggressive Behavior", "submissionValue": "Neuropsychiatric Inventory Test Name", "synonyms": ["NPI - Any Other Aggressive or Agitated Behaviors"]}, {"conceptId": "C103608", "definition": "Neuropsychiatric Inventory - Frequency of the agitation/aggression.", "preferredTerm": "NPI1-Agitation/Aggression Frequency", "submissionValue": "Neuropsychiatric Inventory Test Name", "synonyms": ["NPI - Agitation/Aggression Frequency"]}, {"conceptId": "C103609", "definition": "Neuropsychiatric Inventory - Severity of the agitation/aggression.", "preferredTerm": "NPI1-Agitation/Aggression Severity", "submissionValue": "Neuropsychiatric Inventory Test Name", "synonyms": ["NPI - Agitation/Aggression Severity"]}, {"conceptId": "C103610", "definition": "Neuropsychiatric Inventory - How emotionally distressing do you find this behavior?", "preferredTerm": "NPI1-Agitation/Aggression Distress", "submissionValue": "Neuropsychiatric Inventory Test Name", "synonyms": ["NPI - Agitation/Aggression Distress"]}, {"conceptId": "C100649", "definition": "Neuropsychiatric Inventory - Does the patient seem sad or depressed? Does he/she say that he/she feels sad or depressed?", "preferredTerm": "NPI1-Sad or Depressed", "submissionValue": "Neuropsychiatric Inventory Test Name", "synonyms": ["NPI - Seem Sad or Depressed"]}, {"conceptId": "C100650", "definition": "Neuropsychiatric Inventory - Does the patient have periods of tearfulness or sobbing that seem to indicate sadness?", "preferredTerm": "NPI1-Tearfulness or Sobbing", "submissionValue": "Neuropsychiatric Inventory Test Name", "synonyms": ["NPI - Periods of Tearfulness or Sobbing"]}, {"conceptId": "C100651", "definition": "Neuropsychiatric Inventory - Does the patient say, or act as if he/she is sad or in low spirits?", "preferredTerm": "NPI1-Say or Act in Low Spirits", "submissionValue": "Neuropsychiatric Inventory Test Name", "synonyms": ["NPI - Say, or Act as if He/She is Sad or in Low Spirits"]}, {"conceptId": "C100652", "definition": "Neuropsychiatric Inventory - Does the patient put him/herself down or say that he/she feels like a failure?", "preferredTerm": "NPI1-Feel Like a Failure", "submissionValue": "Neuropsychiatric Inventory Test Name", "synonyms": ["NPI - Put Him/Herself Down or Say That He/She Feels Like a Failure"]}, {"conceptId": "C100653", "definition": "Neuropsychiatric Inventory - Does the patient say that he/she is a bad person or deserves to be punished?", "preferredTerm": "NPI1-Bad Person", "submissionValue": "Neuropsychiatric Inventory Test Name", "synonyms": ["NPI - Say That He/She is a Bad Person"]}, {"conceptId": "C100654", "definition": "Neuropsychiatric Inventory - Does the patient seem very discouraged or say that he/she has no future?", "preferredTerm": "NPI1-Discouraged", "submissionValue": "Neuropsychiatric Inventory Test Name", "synonyms": ["NPI - Seem Very Discouraged"]}, {"conceptId": "C100655", "definition": "Neuropsychiatric Inventory - Does the patient say he/she is a burden to the family or that the family would be better off without him/her?", "preferredTerm": "NPI1-Burden to Family", "submissionValue": "Neuropsychiatric Inventory Test Name", "synonyms": ["NPI - Say He/She is a Burden to the Family"]}, {"conceptId": "C100656", "definition": "Neuropsychiatric Inventory - Does the patient express a wish for death or talk about killing himself/herself?", "preferredTerm": "NPI1-Wish for Death", "submissionValue": "Neuropsychiatric Inventory Test Name", "synonyms": ["NPI - Express a Wish for Death"]}, {"conceptId": "C100657", "definition": "Neuropsychiatric Inventory - Does the patient show any other signs of depression or sadness?", "preferredTerm": "NPI1-Other Signs of Depression", "submissionValue": "Neuropsychiatric Inventory Test Name", "synonyms": ["NPI - Show Any Other Signs of Depression or Sadness"]}, {"conceptId": "C103611", "definition": "Neuropsychiatric Inventory - Frequency of the depression/dysphoria.", "preferredTerm": "NPI1-Depression/Dysphoria Frequency", "submissionValue": "Neuropsychiatric Inventory Test Name", "synonyms": ["NPI - Depression/Dysphoria Frequency"]}, {"conceptId": "C103612", "definition": "Neuropsychiatric Inventory - Severity of the depression/dysphoria.", "preferredTerm": "NPI1-Depression/Dysphoria Severity", "submissionValue": "Neuropsychiatric Inventory Test Name", "synonyms": ["NPI - Depression/Dysphoria Severity"]}, {"conceptId": "C103613", "definition": "Neuropsychiatric Inventory - How emotionally distressing do you find this behavior?", "preferredTerm": "NPI1-Depression/Dysphoria Distress", "submissionValue": "Neuropsychiatric Inventory Test Name", "synonyms": ["NPI - Depression/Dysphoria Distress"]}, {"conceptId": "C100658", "definition": "Neuropsychiatric Inventory - Is the patient very nervous, worried, or frightened for no apparent reason? Does he/she seem very tense or fidgety? Is the patient afraid to be apart from you?", "preferredTerm": "NPI1-Nervous or Worried", "submissionValue": "Neuropsychiatric Inventory Test Name", "synonyms": ["NPI - Very Nervous, Worried, or Frightened for No Apparent Reason"]}, {"conceptId": "C100659", "definition": "Neuropsychiatric Inventory - Does the patient say that he/she is worried about planned events?", "preferredTerm": "NPI1-Worried about Planned Event", "submissionValue": "Neuropsychiatric Inventory Test Name", "synonyms": ["NPI - Say That He/She is Worried About Planned Events"]}, {"conceptId": "C100660", "definition": "Neuropsychiatric Inventory - Does the patient have periods of feeling shaky, unable to relax, or feeling excessively tense?", "preferredTerm": "NPI1-Shaky or Unable to Relax", "submissionValue": "Neuropsychiatric Inventory Test Name", "synonyms": ["NPI - Periods of Feeling Shaky, Unable to Relax, or Feeling Excessively Tense"]}, {"conceptId": "C100661", "definition": "Neuropsychiatric Inventory - Does the patient have periods of (or complain of) shortness of breath, gasping, or sighing for no apparent reason other than nervousness?", "preferredTerm": "NPI1-Short of Breath, Gasp, Sigh", "submissionValue": "Neuropsychiatric Inventory Test Name", "synonyms": ["NPI - Periods of Shortness of Breath, Gasping, or Sighing for No Apparent Reason"]}, {"conceptId": "C100662", "definition": "Neuropsychiatric Inventory - Does the patient complain of butterflies in his/her stomach, or of racing or pounding of the heart in association with nervousness? (Symptoms not explained by ill health).", "preferredTerm": "NPI1-Butterfies or Racing Heart", "submissionValue": "Neuropsychiatric Inventory Test Name", "synonyms": ["NPI - Complain of Butterflies, Racing or Pounding Heart"]}, {"conceptId": "C100663", "definition": "Neuropsychiatric Inventory - Does the patient avoid certain places or situations that make him/her more nervous such as riding in the car, meeting with friends, or being in crowds?", "preferredTerm": "NPI1-Avoid Places or Situations", "submissionValue": "Neuropsychiatric Inventory Test Name", "synonyms": ["NPI - Avoid Certain Places or Situations That Make Him/Her More Nervous"]}, {"conceptId": "C100664", "definition": "Neuropsychiatric Inventory - Does the patient become nervous and upset when separated from you (or his/her caregiver)? (Does he/she cling to you to keep from being separated?).", "preferredTerm": "NPI1-Nervous when Separated", "submissionValue": "Neuropsychiatric Inventory Test Name", "synonyms": ["NPI - Become Nervous and Upset When Separated From You"]}, {"conceptId": "C100665", "definition": "Neuropsychiatric Inventory - Does the patient show any other signs of anxiety?", "preferredTerm": "NPI1-Other Signs of Anxiety", "submissionValue": "Neuropsychiatric Inventory Test Name", "synonyms": ["NPI - Show Any Other Signs of Anxiety"]}, {"conceptId": "C103614", "definition": "Neuropsychiatric Inventory - Frequency of the anxiety.", "preferredTerm": "NPI1-Anxiety Frequency", "submissionValue": "Neuropsychiatric Inventory Test Name", "synonyms": ["NPI - Anxiety Frequency"]}, {"conceptId": "C103615", "definition": "Neuropsychiatric Inventory - Severity of the anxiety.", "preferredTerm": "NPI1-Anxiety Severity", "submissionValue": "Neuropsychiatric Inventory Test Name", "synonyms": ["NPI - Anxiety Severity"]}, {"conceptId": "C103616", "definition": "Neuropsychiatric Inventory - How emotionally distressing do you find this behavior?", "preferredTerm": "NPI1-Anxiety Distress", "submissionValue": "Neuropsychiatric Inventory Test Name", "synonyms": ["NPI - Anxiety Distress"]}, {"conceptId": "C100666", "definition": "Neuropsychiatric Inventory - Does the patient seem too cheerful or too happy for no reason? I don't mean the normal happiness that comes from seeing friends, receiving presents, or spending time with family members. I am asking if the patient has a persistent and abnormally good mood or finds humor where others do not.", "preferredTerm": "NPI1-Too Cheerful or Happy", "submissionValue": "Neuropsychiatric Inventory Test Name", "synonyms": ["NPI - Seem Too Cheerful or Too Happy for No Reason"]}, {"conceptId": "C100667", "definition": "Neuropsychiatric Inventory - Does the patient appear to feel good or to be too happy, different from his/her usual self?", "preferredTerm": "NPI1-Feel Good or Too Happy", "submissionValue": "Neuropsychiatric Inventory Test Name", "synonyms": ["NPI - Appear to Feel Good or to Be Too Happy"]}, {"conceptId": "C100668", "definition": "Neuropsychiatric Inventory - Does the patient find humor and laugh at things that others do not find funny?", "preferredTerm": "NPI1-Humor Others Do Not Find Funny", "submissionValue": "Neuropsychiatric Inventory Test Name", "synonyms": ["NPI - Fine Humor and Laugh at Things That Others Do Not Find Funny"]}, {"conceptId": "C100669", "definition": "Neuropsychiatric Inventory - Does the patient seem to have a childish sense of humor with a tendency to giggle or laugh inappropriately (such as when something unfortunate happens to others)?", "preferredTerm": "NPI1-Childish Sense of Humor", "submissionValue": "Neuropsychiatric Inventory Test Name", "synonyms": ["NPI - Seem to Have a Childish Sense of Humor"]}, {"conceptId": "C100670", "definition": "Neuropsychiatric Inventory - Does the patient tell jokes or make remarks that are not funny to others but seem funny to him/her?", "preferredTerm": "NPI1-Jokes Others Do Not Find Funny", "submissionValue": "Neuropsychiatric Inventory Test Name", "synonyms": ["NPI - Tell Jokes or Make Remarks That are Not Funny to Others"]}, {"conceptId": "C100671", "definition": "Neuropsychiatric Inventory - Does he/she play childish pranks such as pinching or playing \"keep away\" for the fun of it?", "preferredTerm": "NPI1-Childish Pranks", "submissionValue": "Neuropsychiatric Inventory Test Name", "synonyms": ["NPI - Play Childish Pranks"]}, {"conceptId": "C100672", "definition": "Neuropsychiatric Inventory - Does the patient \"talk big\" or claim to have more abilities or wealth than is true?", "preferredTerm": "NPI1-Talk Big", "submissionValue": "Neuropsychiatric Inventory Test Name", "synonyms": ["NPI - Talk Big or Claim to Have More Abilities or Wealth Than is True"]}, {"conceptId": "C100673", "definition": "Neuropsychiatric Inventory - Does the patient show any other signs of feeling too good or being too happy?", "preferredTerm": "NPI1-Other Signs of Feeling Too Happy", "submissionValue": "Neuropsychiatric Inventory Test Name", "synonyms": ["NPI - Show Any Other Signs of Feeling Too Good or Being Too Happy"]}, {"conceptId": "C103617", "definition": "Neuropsychiatric Inventory - Frequency of the elation/euphoria.", "preferredTerm": "NPI1-Elation/Euphoria Frequency", "submissionValue": "Neuropsychiatric Inventory Test Name", "synonyms": ["NPI - Elation/Euphoria Frequency"]}, {"conceptId": "C103618", "definition": "Neuropsychiatric Inventory - Severity of the elation/euphoria.", "preferredTerm": "NPI1-Elation/Euphoria Severity", "submissionValue": "Neuropsychiatric Inventory Test Name", "synonyms": ["NPI - Elation/Euphoria Severity"]}, {"conceptId": "C103619", "definition": "Neuropsychiatric Inventory - How emotionally distressing do you find this behavior?", "preferredTerm": "NPI1-Elation/Euphoria Distress", "submissionValue": "Neuropsychiatric Inventory Test Name", "synonyms": ["NPI - Elation/Euphoria Distress"]}, {"conceptId": "C100674", "definition": "Neuropsychiatric Inventory - Has the patient lost interest in the world around him/her? Has he/she lost interest in doing things or does he/she lack motivation for starting new activities? Is he/she more difficult to engage in conversation or in doing chores? Is the patient apathetic or indifferent?", "preferredTerm": "NPI1-Lost Interest in World", "submissionValue": "Neuropsychiatric Inventory Test Name", "synonyms": ["NPI - Lost Interest in the World Around Him/Her"]}, {"conceptId": "C100675", "definition": "Neuropsychiatric Inventory - Does the patient seem less spontaneous and less active than usual?", "preferredTerm": "NPI1-Less Spontaneous or Active", "submissionValue": "Neuropsychiatric Inventory Test Name", "synonyms": ["NPI - Seem Less Spontaneous and Less Active Than Usual"]}, {"conceptId": "C100676", "definition": "Neuropsychiatric Inventory - Is the patient less likely to initiate a conversation?", "preferredTerm": "NPI1-Less Likely Initiate Conversation", "submissionValue": "Neuropsychiatric Inventory Test Name", "synonyms": ["NPI - Less Likely Initiate to Initiate a Conversation"]}, {"conceptId": "C100677", "definition": "Neuropsychiatric Inventory - Is the patient less affectionate or lacking in emotions when compared to his/her usual self?", "preferredTerm": "NPI1-Less Affectionate", "submissionValue": "Neuropsychiatric Inventory Test Name", "synonyms": ["NPI - Less Affectionate or Lacking in Emotions"]}, {"conceptId": "C100678", "definition": "Neuropsychiatric Inventory - Does the patient contribute less to household chores?", "preferredTerm": "NPI1-Contribute Less to Chores", "submissionValue": "Neuropsychiatric Inventory Test Name", "synonyms": ["NPI - Contribute Less to Household Chores"]}, {"conceptId": "C100679", "definition": "Neuropsychiatric Inventory - Does the patient seem less interested in the activities and plans of others?", "preferredTerm": "NPI1-Less Interest in Activities", "submissionValue": "Neuropsychiatric Inventory Test Name", "synonyms": ["NPI - Less Interested in the Activities and Plans of Others"]}, {"conceptId": "C100680", "definition": "Neuropsychiatric Inventory - Has the patient lost interest in friends and family members?", "preferredTerm": "NPI1-Lost Interest in Friends", "submissionValue": "Neuropsychiatric Inventory Test Name", "synonyms": ["NPI - Lost Interest in Friends and Family Members"]}, {"conceptId": "C100681", "definition": "Neuropsychiatric Inventory - Is the patient less enthusiastic about his/her usual interests?", "preferredTerm": "NPI1-Less Enthusiastic", "submissionValue": "Neuropsychiatric Inventory Test Name", "synonyms": ["NPI - Less Enthusiastic About His/Her Usual Interests"]}, {"conceptId": "C100682", "definition": "Neuropsychiatric Inventory - Does the patient show any other signs that he/she doesn't care about doing new things?", "preferredTerm": "NPI1-Other Signs of Not Caring", "submissionValue": "Neuropsychiatric Inventory Test Name", "synonyms": ["NPI - Show Any Other Signs That He/She Doesn't Care About Doing New Things"]}, {"conceptId": "C103620", "definition": "Neuropsychiatric Inventory - Frequency of the apathy/indifference.", "preferredTerm": "NPI1-Apathy/Indifference Frequency", "submissionValue": "Neuropsychiatric Inventory Test Name", "synonyms": ["NPI - Apathy/Indifference Frequency"]}, {"conceptId": "C103621", "definition": "Neuropsychiatric Inventory - Severity of the apathy/indifference.", "preferredTerm": "NPI1-Apathy/Indifference Severity", "submissionValue": "Neuropsychiatric Inventory Test Name", "synonyms": ["NPI - Apathy/Indifference Severity"]}, {"conceptId": "C103622", "definition": "Neuropsychiatric Inventory - How emotionally distressing do you find this behavior?", "preferredTerm": "NPI1-Apathy/Indifference Distress", "submissionValue": "Neuropsychiatric Inventory Test Name", "synonyms": ["NPI - Apathy/Indifference Distress"]}, {"conceptId": "C100683", "definition": "Neuropsychiatric Inventory - Does the patient seem to act impulsively without thinking? Does he/she do or say things that are not usually done or said in public? Does he/she do things that are embarrassing to you or others?", "preferredTerm": "NPI1-Act Impulsively", "submissionValue": "Neuropsychiatric Inventory Test Name", "synonyms": ["NPI - Seem to Act Impulsively Without Thinking"]}, {"conceptId": "C100684", "definition": "Neuropsychiatric Inventory - Does the patient act impulsively without appearing to consider the consequences?", "preferredTerm": "NPI1-Act Impulsively without Care", "submissionValue": "Neuropsychiatric Inventory Test Name", "synonyms": ["NPI - Act Impulsively without Appearing to Consider the Consequences"]}, {"conceptId": "C100685", "definition": "Neuropsychiatric Inventory - Does the patient talk to total strangers as if he/she knew them?", "preferredTerm": "NPI1-Talk to Strangers", "submissionValue": "Neuropsychiatric Inventory Test Name", "synonyms": ["NPI - Talk to Total Strangers as if He/She Knew Them"]}, {"conceptId": "C100686", "definition": "Neuropsychiatric Inventory - Does the patient say things to people that are insensitive or hurt their feelings?", "preferredTerm": "NPI1-Say Insensitiv