{"codelists": [{"conceptId": "", "definition": "A grouping of observations within the Questionnaire domain.", "extensible": "Yes", "name": "Questionnaire Category", "preferredTerm": "Questionnaire Category", "submissionValue": "Questionnaire Category", "synonyms": ["CDISC Questionnaire Category Terminology"], "terms": [{"conceptId": "C100762", "definition": "The CDISC version of the Alzheimer's Disease Assessment Scale-Cognitive (ADAS-Cog CDISC Version) containing 15 summary-level tests. This version is based on combining the total pool of ADAS-Cog tests that were observed during a review of multiple case report forms administered in clinical trials of Alzheimer's disease, as well as the CRF administered in the Alzheimer's Disease Neuroimaging Initiative (ADNI) observational study. (Modified from Mohs RC, Rosen WG, Davis KL. The Alzheimer's disease assessment scale: an instrument for assessing treatment efficacy. Psychopharmacol Bull 1983;19(3):448-450. Rosen WG, Mohs RC, Davis KL. A new rating scale for Alzheimer's disease. Am J Psychiatry 1984;141(11):1356-1364. Mohs RC, Knopman D, Petersen RC et al. Development of cognitive instruments for use in clinical trials of antidementia drugs: additions to the Alzheimer's Disease Assessment Scale that broaden its scope. The Alzheimer's Disease Cooperative Study. Alzheimer Dis Assoc Disord 1997;11 Suppl 2:S13-S21. Wouters H, van Gool WA, Schmand B, Lindeboom R. Revising the ADAS-cog for a more accurate assessment of cognitive impairment. Alzheimer Dis Assoc Disord 2008;22(3):236-244.).", "preferredTerm": "ADC", "submissionValue": "Questionnaire Category", "synonyms": ["Alzheimer's Disease Assessment Scale-Cognitive CDISC Version Questionnaire"]}, {"conceptId": "C100759", "definition": "Brief Pain Inventory (BPI) (copyright 1991 Charles S. Cleeland, PhD, Pain Research Group, All Right Reserved).", "preferredTerm": "BPI1", "submissionValue": "Questionnaire Category", "synonyms": ["Brief Pain Inventory Questionnaire"]}, {"conceptId": "C100760", "definition": "Brief Pain Inventory Short Form (BPI2) (copyright 1991 Charles S. Cleeland, PhD, Pain Research Group, All Right Reserved).", "preferredTerm": "BPI2", "submissionValue": "Questionnaire Category", "synonyms": ["Brief Pain Inventory Short Form Questionnaire"]}, {"conceptId": "C100761", "definition": "Brief Psychiatric Rating Scale (BPRS-A) (Overall JE, Gorham DR (1962). The brief psychiatric rating scale. Psychological Reports 1962 vol. 10, pp799-812).", "preferredTerm": "BPR01", "submissionValue": "Questionnaire Category", "synonyms": ["Brief Psychiatric Rating Scale A Questionnaire"]}, {"conceptId": "C100763", "definition": "Clinical Global Impression (CGI) (Guy W: ECDEU Assessment Manual for Psychopharmacology. Rockville, MD: U.S. Department of Health, Education, and Welfare; 1976).", "preferredTerm": "CGI01", "submissionValue": "Questionnaire Category", "synonyms": ["Clinical Global Impression Questionnaire"]}, {"conceptId": "C100765", "definition": "Columbia-Suicidality Severity Rating Scale (C-SSRS) Baseline Version 2009-01-14 (Posner, K.; Brent, D.; Lucas, C.; Gould, M.; Stanley, B.; Brown, G.; Fisher, P.; Zelazny, J.; Burke, A.; Oquendo, M.; Mann, J.; copyright 2008 The Research Foundation for Mental Hygiene, Inc.).", "preferredTerm": "CSS01", "submissionValue": "Questionnaire Category", "synonyms": ["Columbia-Suicidality Severity Rating Scale Questionnaire"]}, {"conceptId": "C100764", "definition": "Current Opioid Misuse Measure (COMM) (copyright 2010 Inflexxion, Inc., All rights reserved).", "preferredTerm": "COMM01", "submissionValue": "Questionnaire Category", "synonyms": ["Current Opioid Misuse Measure Questionnaire"]}, {"conceptId": "C66957", "definition": "The EuroQol (European Quality of Life) Five Dimension Three Level Scale (EQ-5D-3L) (copyright 1990 EuroQol Group EQ-5D. All Rights Reserved).", "preferredTerm": "EQ5D01", "submissionValue": "Questionnaire Category", "synonyms": ["EuroQOL Three Dimension Five Level Questionnaire"]}, {"conceptId": "C100766", "definition": "Faces Pain Scale - Revised (FPS-R) (Hicks CL, von Baeyer CL, van Korlaar I, Goodenough B. Faces Pain Scale-Revised: Toward a Common Metric in Pediatric Pain Measurement. Pain 2001; 93:173-183).", "preferredTerm": "FPSR1", "submissionValue": "Questionnaire Category", "synonyms": ["Faces Pain Scale Revised Questionnaire"]}, {"conceptId": "C100767", "definition": "The Hamilton Depression Rating Scale 17-Item (HAMD 17) (Hamilton M. Development of a rating scale for primary depressive illness. Br J Soc Clin Psychol 1967; 6(4):278-96).", "preferredTerm": "HAMD1", "submissionValue": "Questionnaire Category", "synonyms": ["Hamilton Depression Rating Scale 17 Item Questionnaire"]}, {"conceptId": "C100768", "definition": "The Karnofsky Performance Status Scale (KPSS) (Karnofsky DA, Burchenal JH. (1949). \"The Clinical Evaluation of Chemotherapeutic Agents in Cancer.\" In: MacLeod CM (Ed), Evaluation of Chemotherapeutic Agents. Columbia Univ Press. Page 196).", "preferredTerm": "KPSS", "submissionValue": "Questionnaire Category", "synonyms": ["Karnofsky Performance Status Scale Questionnaire"]}, {"conceptId": "C100771", "definition": "Michigan Neuropathy Screening Instrument (MNSI) (copyright University of Michigan, 2000, All rights reserved).", "preferredTerm": "MNSI1", "submissionValue": "Questionnaire Category", "synonyms": ["Michigan Neuropathy Screening Instrument Questionnaire"]}, {"conceptId": "C100770", "definition": "The Mini-Mental State Examination (MMSE) (Folstein MF, Folstein SE, McHugh PR. 'Mini-Mental State': A practical method for grading the cognitive state of patients for the clinician. J Psychiatr Res. 1975; 12(3):189-98).", "preferredTerm": "MMS1", "submissionValue": "Questionnaire Category", "synonyms": ["Mini-Mental State Examination Questionnaire"]}, {"conceptId": "C100769", "definition": "The Movement Disorder Society version of the Unified Parkinson's Disease Rating Scale (The Movement Disorder Society version of the Unified Parkinson's Disease Rating Scale) (copyright 2008 Movement Disorder Society. All Rights Reserved).", "preferredTerm": "UPD2", "submissionValue": "Questionnaire Category", "synonyms": ["Movement Disorder Society Unified Parkinson's Disease Rating Scale Questionnaire"]}, {"conceptId": "C100772", "definition": "Neuropsychiatric Inventory (NPI) (copyright JL Cummings, 1994, all rights reserved; permission for commercial use required; npiTEST.net).", "preferredTerm": "NPI1", "submissionValue": "Questionnaire Category", "synonyms": ["Neuropsychiatric Inventory Questionnaire"]}, {"conceptId": "C100773", "definition": "Parkinson's Disease Quality of Life Scale (PDQUALIF) (Welsh M, McDermott MP, Holloway RG, Plumb S, Pfeiffer R, Hubble J, and The Parkinson Study Group. Development and Testing of the Parkinson's Disease Quality of Life Scale. Movement Disorders, 2003, Vol. 18; 637-645).", "preferredTerm": "PDQ01", "submissionValue": "Questionnaire Category", "synonyms": ["Parkinson's Disease Quality of Life Scale Questionnaire"]}, {"conceptId": "C100774", "definition": "Roland Morris Disability Questionnaire (RDQ) (Roland MO, Morris RW. A study of the natural history of back pain. Part 1: Development of a reliable and sensitive measure of disability in low back pain. Spine 1983;8:141-144).", "preferredTerm": "RDQ01", "submissionValue": "Questionnaire Category", "synonyms": ["Roland Morris Disability Questionnaire"]}, {"conceptId": "C100777", "definition": "Screener and Opioid Assessment for Patients with Pain Revised (SOAPP-R) (copyright 2007 Inflexxion, Inc., All rights reserved).", "preferredTerm": "SOAPR1", "submissionValue": "Questionnaire Category", "synonyms": ["Screener and Opioid Assessment for Patients with Pain Revised Questionnaire"]}, {"conceptId": "C100775", "definition": "The Short Form 36Health Survey Standard, US Version 1.0 (SF36 v1.0 Standard) (copyright 1988, 2002 by Medical Outcomes Trust and Quality Metric Incorporated. All rights reserved).", "preferredTerm": "SF361", "submissionValue": "Questionnaire Category", "synonyms": ["Short Form 36 Health Survey Standard, US Version 1.0 Questionnaire"]}, {"conceptId": "C100776", "definition": "Short-Form McGill Pain Questionnaire-2 (SF-MPQ-2) (Copyright R. Melzack and the Initiative on Methods, Measurement, and Pain Assessment in Clinical Trials (IMMPACT), 2009, All Rights Reserved).", "preferredTerm": "SFMP2", "submissionValue": "Questionnaire Category", "synonyms": ["Short-Form McGill Pain Questionnaire-2"]}, {"conceptId": "C100779", "definition": "The Work Productivity and Activity Impairment - Specific Health Problems Questionnaire Version 2.0 (WPAI01) (http://www.reillyassociates.net/WPAI_SHP.html).", "preferredTerm": "WPAI01", "submissionValue": "Questionnaire Category", "synonyms": ["Work Productivity and Activity Impairment Specific Health Problems Version 2.0 Questionnaire"]}, {"conceptId": "C102111", "definition": "Abnormal Involuntary Movement Scale (AIMS) (Guy W. Ed. ECDEU Assessment Manual for Psychopharmacology. Rockville MD: US Dept of Health, Education and Welfare. 1976, Publication No. (ADM) 76-338).", "preferredTerm": "AIMS01", "submissionValue": "Questionnaire Category", "synonyms": ["Abnormal Involuntary Movement Scale Questionnaire"]}, {"conceptId": "C102112", "definition": "The Alzheimer's Disease Neuroimaging Initiative's (ADNI) version of the Auditory Verbal Learning Test (AVLT Version A) modified from Rey A. L'examen clinique en psychologie [Clinical tests in psychology]. Paris: Presses Universitaires de France; 1964.", "preferredTerm": "AVL01", "submissionValue": "Questionnaire Category", "synonyms": ["Alzheimer's Disease Neuroimaging Initiative Auditory Verbal Learning Test Questionnaire"]}, {"conceptId": "C102113", "definition": "Barnes Akathisia Rating Scale (BARS) (Barnes TR: A Rating Scale for Drug-Induced Akathisia. British Journal of Psychiatry 154:672-676, 1989).", "preferredTerm": "BARS01", "submissionValue": "Questionnaire Category", "synonyms": ["Barnes Akathisia Rating Scale Questionnaire"]}, {"conceptId": "C102114", "definition": "Clinical Dementia Rating (CDR) (Morris, JC. Clinical Dementia Rating: A reliable and valid diagnostic and staging measure for dementia of the Alzheimer type. International Psychogeriatrics 1997: 9, Suppl. 1, 173-176).", "preferredTerm": "CDR01", "submissionValue": "Questionnaire Category", "synonyms": ["Clinical Dementia Rating Questionnaire"]}, {"conceptId": "C102115", "definition": "The Clinical Opiate Withdrawal Scale (COWS) (Wesson DR and Ling W. The Clinical Opiate Withdrawal Scale (COWS). J Psychoactive Drugs 2003;35(2):253-259).", "preferredTerm": "COWS1", "submissionValue": "Questionnaire Category", "synonyms": ["Clinical Opiate Withdrawal Scale Questionnaire"]}, {"conceptId": "C102116", "definition": "Eastern Cooperative Oncology Group (ECOG) Performance Status (Oken MM, Creech RH, Tormey DC, Horton J, Davis TE, McFadden ET, Carbone PP. Toxicity and response criteria of the Eastern Cooperative Oncology Group. Am J Clin Oncol. 1982 Dec;5(6):649-55).", "preferredTerm": "ECOG1", "submissionValue": "Questionnaire Category", "synonyms": ["Eastern Cooperative Oncology Group Performance Status Questionnaire"]}, {"conceptId": "C102117", "definition": "The EuroQol (European Quality of Life) Five Dimension Five Level Scale (EQ-5D-5L) (copyright 2009 EuroQol Group EQ-5D. All Rights Reserved).", "preferredTerm": "EQ5D02", "submissionValue": "Questionnaire Category", "synonyms": ["European Quality of Life Five Dimension Five Level Scale Questionnaire"]}, {"conceptId": "C102118", "definition": "The Hamilton Anxiety Rating Scale (HAM-A) (Hamilton M. The assessment of anxiety states by rating. Br J Med Psychol 1959; 32:50-55).", "preferredTerm": "HAMA1", "submissionValue": "Questionnaire Category", "synonyms": ["Hamilton Anxiety Rating Scale Questionnaire"]}, {"conceptId": "C102119", "definition": "The Hamilton Depression Rating Scale 21-Item (HAMD 21) (Hedlund and Vieweg, The Hamilton rating scale for depression. Journal of Operational Psychiatry, 1979;10(2):149-165).", "preferredTerm": "HAMD2", "submissionValue": "Questionnaire Category", "synonyms": ["Hamilton Depression Rating Scale 21-Item Questionnaire"]}, {"conceptId": "C102120", "definition": "The Short Form 36 Health Survey Acute, US Version 1.0 (SF36 v1.0 Acute) (copyright 1988, 2002 by Medical Outcomes Trust and Quality Metric Incorporated. All rights reserved).", "preferredTerm": "SF362", "submissionValue": "Questionnaire Category", "synonyms": ["Short Form 36 Health Survey Acute, US Version 1.0 Questionnaire"]}, {"conceptId": "C102121", "definition": "The Short Form 36 Health Survey Acute, US Version 2.0 (SF36 v2.0 Acute) (copyright 1996, 2000 by Quality Metric Incorporated and Medical Outcomes Trust. All rights reserved).", "preferredTerm": "SF364", "submissionValue": "Questionnaire Category", "synonyms": ["Short Form 36 Health Survey Acute, US Version 2.0 Questionnaire"]}, {"conceptId": "C102122", "definition": "The Short Form 36 Health Survey Standard, US Version 2.0 (SF36 v2.0 Standard) (copyright 1996, 2000 by Quality Metric Incorporated and Medical Outcomes Trust. All rights reserved).", "preferredTerm": "SF363", "submissionValue": "Questionnaire Category", "synonyms": ["Short Form 36 Health Survey Standard, US Version 2.0 Questionnaire"]}, {"conceptId": "C102123", "definition": "The Subjective Opiate Withdrawal Scale (SOWS) (Handelsman, L., Cochrane, K. J., Aronson, M. J. Ness, R., Rubinstein K.J., Kanof, P.D. (1987) Two New Rating Scales for Opiate Withdrawal. American Journal of Alcohol Abuse, 13, 293-308).", "preferredTerm": "SOWSA1", "submissionValue": "Questionnaire Category", "synonyms": ["Subjective Opiate Withdrawal Scale Questionnaire"]}, {"conceptId": "C100778", "definition": "Unified Parkinson's Disease Rating Scale (UPDRS) (Fahn S, Marsden CD, Calne DB, Goldstein M, eds. Recent Developments in Parkinson's Disease, Vol 2. Florham Park, NJ. Macmillan Health Care Information 1987, pp 153-163, 293-304).", "preferredTerm": "UPD1", "submissionValue": "Questionnaire Category", "synonyms": ["Unified Parkinson s Disease Rating Scale Questionnaire"]}, {"conceptId": "C102124", "definition": "Young Mania Rating Scale (YMRS) (Young RC, Biggs JT, Ziegler VE et al: A rating scale for mania: reliability, validity and sensitivity. Br J Psychiatry 133: 429-435, 1978).", "preferredTerm": "YMRS01", "submissionValue": "Questionnaire Category", "synonyms": ["Young Mania Rating Scale Questionnaire"]}]}, {"conceptId": "", "definition": "ADAS-Cog CDISC Version test code.", "extensible": "No", "name": "Alzheimer's Disease Assessment Scale - Cognitive CDISC Version Test Code", "preferredTerm": "Alzheimer's Disease Assessment Scale - Cognitive CDISC Version Test Code", "submissionValue": "Alzheimer's Disease Assessment Scale - Cognitive CDISC Version Test Code", "synonyms": ["CDISC Questionnaire ADAS-Cog CDISC Version Test Code Terminology"], "terms": [{"conceptId": "C100177", "definition": "Alzheimer's Disease Assessment Scale-Cognitive CDISC Version - Word recall task word average score of trials 1, 2, 3.", "preferredTerm": "Word Recall", "submissionValue": "Alzheimer's Disease Assessment Scale - Cognitive CDISC Version Test Code", "synonyms": ["CDISC ADAS-Cog - Word Recall Average Score"]}, {"conceptId": "C100178", "definition": "Alzheimer's Disease Assessment Scale-Cognitive CDISC Version - Sub-score for word recall task trial 1.", "preferredTerm": "Word Recall Trial 1", "submissionValue": "Alzheimer's Disease Assessment Scale - Cognitive CDISC Version Test Code", "synonyms": ["CDISC ADAS-Cog - Word Recall Trial 1 Subscore"]}, {"conceptId": "C100179", "definition": "Alzheimer's Disease Assessment Scale-Cognitive CDISC Version - Sub-score for word recall task trial 2.", "preferredTerm": "Word Recall Trial 2", "submissionValue": "Alzheimer's Disease Assessment Scale - Cognitive CDISC Version Test Code", "synonyms": ["CDISC ADAS-Cog - Word Recall Trial 2 Subscore"]}, {"conceptId": "C100180", "definition": "Alzheimer's Disease Assessment Scale-Cognitive CDISC Version - Sub-score for word recall task trial 3.", "preferredTerm": "Word Recall Trial 3", "submissionValue": "Alzheimer's Disease Assessment Scale - Cognitive CDISC Version Test Code", "synonyms": ["CDISC ADAS-Cog - Word Recall Trial 3 Subscore"]}, {"conceptId": "C100181", "definition": "Alzheimer's Disease Assessment Scale-Cognitive CDISC Version - Word recall task word 1 for trial 1, 2, 3.", "preferredTerm": "Word Recall: Word [1]", "submissionValue": "Alzheimer's Disease Assessment Scale - Cognitive CDISC Version Test Code", "synonyms": ["CDISC ADAS-Cog - Word Recall: Word 1"]}, {"conceptId": "C100182", "definition": "Alzheimer's Disease Assessment Scale-Cognitive CDISC Version - Word recall task word 2 for trial 1, 2, 3.", "preferredTerm": "Word Recall: Word [2]", "submissionValue": "Alzheimer's Disease Assessment Scale - Cognitive CDISC Version Test Code", "synonyms": ["CDISC ADAS-Cog - Word Recall: Word 2"]}, {"conceptId": "C100183", "definition": "Alzheimer's Disease Assessment Scale-Cognitive CDISC Version - Word recall task word 3 for trial 1, 2, 3.", "preferredTerm": "Word Recall: Word [3]", "submissionValue": "Alzheimer's Disease Assessment Scale - Cognitive CDISC Version Test Code", "synonyms": ["CDISC ADAS-Cog - Word Recall: Word 3"]}, {"conceptId": "C100184", "definition": "Alzheimer's Disease Assessment Scale-Cognitive CDISC Version - Word recall task word 4 for trial 1, 2, 3.", "preferredTerm": "Word Recall: Word [4]", "submissionValue": "Alzheimer's Disease Assessment Scale - Cognitive CDISC Version Test Code", "synonyms": ["CDISC ADAS-Cog - Word Recall: Word 4"]}, {"conceptId": "C100185", "definition": "Alzheimer's Disease Assessment Scale-Cognitive CDISC Version - Word recall task word 5 for trial 1, 2, 3.", "preferredTerm": "Word Recall: Word [5]", "submissionValue": "Alzheimer's Disease Assessment Scale - Cognitive CDISC Version Test Code", "synonyms": ["CDISC ADAS-Cog - Word Recall: Word 5"]}, {"conceptId": "C100186", "definition": "Alzheimer's Disease Assessment Scale-Cognitive CDISC Version - Word recall task word 6 for trial 1, 2, 3.", "preferredTerm": "Word Recall: Word [6]", "submissionValue": "Alzheimer's Disease Assessment Scale - Cognitive CDISC Version Test Code", "synonyms": ["CDISC ADAS-Cog - Word Recall: Word 6"]}, {"conceptId": "C100187", "definition": "Alzheimer's Disease Assessment Scale-Cognitive CDISC Version - Word recall task word 7 for trial 1, 2, 3.", "preferredTerm": "Word Recall: Word [7]", "submissionValue": "Alzheimer's Disease Assessment Scale - Cognitive CDISC Version Test Code", "synonyms": ["CDISC ADAS-Cog - Word Recall: Word 7"]}, {"conceptId": "C100188", "definition": "Alzheimer's Disease Assessment Scale-Cognitive CDISC Version - Word recall task word 8 for trial 1, 2, 3.", "preferredTerm": "Word Recall: Word [8]", "submissionValue": "Alzheimer's Disease Assessment Scale - Cognitive CDISC Version Test Code", "synonyms": ["CDISC ADAS-Cog - Word Recall: Word 8"]}, {"conceptId": "C100189", "definition": "Alzheimer's Disease Assessment Scale-Cognitive CDISC Version - Word recall task word 9 for trial 1, 2, 3.", "preferredTerm": "Word Recall: Word [9]", "submissionValue": "Alzheimer's Disease Assessment Scale - Cognitive CDISC Version Test Code", "synonyms": ["CDISC ADAS-Cog - Word Recall: Word 9"]}, {"conceptId": "C100190", "definition": "Alzheimer's Disease Assessment Scale-Cognitive CDISC Version - Word recall task word 10 for trial 1, 2, 3.", "preferredTerm": "Word Recall: Word [10]", "submissionValue": "Alzheimer's Disease Assessment Scale - Cognitive CDISC Version Test Code", "synonyms": ["CDISC ADAS-Cog - Word Recall: Word 10"]}, {"conceptId": "C100191", "definition": "Alzheimer's Disease Assessment Scale-Cognitive CDISC Version - Naming task summary score for object and fingers.", "preferredTerm": "Naming Objects and Fingers", "submissionValue": "Alzheimer's Disease Assessment Scale - Cognitive CDISC Version Test Code", "synonyms": ["CDISC ADAS-Cog - Naming Objects and Fingers Summary Score"]}, {"conceptId": "C100192", "definition": "Alzheimer's Disease Assessment Scale-Cognitive CDISC Version - Naming task for object 1.", "preferredTerm": "Naming Objects and Fingers: 1", "submissionValue": "Alzheimer's Disease Assessment Scale - Cognitive CDISC Version Test Code", "synonyms": ["CDISC ADAS-Cog - Naming Objects and Fingers: 1"]}, {"conceptId": "C100193", "definition": "Alzheimer's Disease Assessment Scale-Cognitive CDISC Version - Naming task for object 2.", "preferredTerm": "Naming Objects and Fingers: 2", "submissionValue": "Alzheimer's Disease Assessment Scale - Cognitive CDISC Version Test Code", "synonyms": ["CDISC ADAS-Cog - Naming Objects and Fingers: 2"]}, {"conceptId": "C100194", "definition": "Alzheimer's Disease Assessment Scale-Cognitive CDISC Version - Naming task for object 3.", "preferredTerm": "Naming Objects and Fingers: 3", "submissionValue": "Alzheimer's Disease Assessment Scale - Cognitive CDISC Version Test Code", "synonyms": ["CDISC ADAS-Cog - Naming Objects and Fingers: 3"]}, {"conceptId": "C100195", "definition": "Alzheimer's Disease Assessment Scale-Cognitive CDISC Version - Naming task for object 4.", "preferredTerm": "Naming Objects and Fingers: 4", "submissionValue": "Alzheimer's Disease Assessment Scale - Cognitive CDISC Version Test Code", "synonyms": ["CDISC ADAS-Cog - Naming Objects and Fingers: 4"]}, {"conceptId": "C100196", "definition": "Alzheimer's Disease Assessment Scale-Cognitive CDISC Version - Naming task for object 5.", "preferredTerm": "Naming Objects and Fingers: 5", "submissionValue": "Alzheimer's Disease Assessment Scale - Cognitive CDISC Version Test Code", "synonyms": ["CDISC ADAS-Cog - Naming Objects and Fingers: 5"]}, {"conceptId": "C100197", "definition": "Alzheimer's Disease Assessment Scale-Cognitive CDISC Version - Naming task for object 6.", "preferredTerm": "Naming Objects and Fingers: 6", "submissionValue": "Alzheimer's Disease Assessment Scale - Cognitive CDISC Version Test Code", "synonyms": ["CDISC ADAS-Cog - Naming Objects and Fingers: 6"]}, {"conceptId": "C100198", "definition": "Alzheimer's Disease Assessment Scale-Cognitive CDISC Version - Naming task for object 7.", "preferredTerm": "Naming Objects and Fingers: 7", "submissionValue": "Alzheimer's Disease Assessment Scale - Cognitive CDISC Version Test Code", "synonyms": ["CDISC ADAS-Cog - Naming Objects and Fingers: 7"]}, {"conceptId": "C100199", "definition": "Alzheimer's Disease Assessment Scale-Cognitive CDISC Version - Naming task for object 8.", "preferredTerm": "Naming Objects and Fingers: 8", "submissionValue": "Alzheimer's Disease Assessment Scale - Cognitive CDISC Version Test Code", "synonyms": ["CDISC ADAS-Cog - Naming Objects and Fingers: 8"]}, {"conceptId": "C100200", "definition": "Alzheimer's Disease Assessment Scale-Cognitive CDISC Version - Naming task for object 9.", "preferredTerm": "Naming Objects and Fingers: 9", "submissionValue": "Alzheimer's Disease Assessment Scale - Cognitive CDISC Version Test Code", "synonyms": ["CDISC ADAS-Cog - Naming Objects and Fingers: 9"]}, {"conceptId": "C100201", "definition": "Alzheimer's Disease Assessment Scale-Cognitive CDISC Version - Naming task for object 10.", "preferredTerm": "Naming Objects and Fingers: 10", "submissionValue": "Alzheimer's Disease Assessment Scale - Cognitive CDISC Version Test Code", "synonyms": ["CDISC ADAS-Cog - Naming Objects and Fingers: 10"]}, {"conceptId": "C100202", "definition": "Alzheimer's Disease Assessment Scale-Cognitive CDISC Version - Naming task for object 11.", "preferredTerm": "Naming Objects and Fingers: 11", "submissionValue": "Alzheimer's Disease Assessment Scale - Cognitive CDISC Version Test Code", "synonyms": ["CDISC ADAS-Cog - Naming Objects and Fingers: 11"]}, {"conceptId": "C100203", "definition": "Alzheimer's Disease Assessment Scale-Cognitive CDISC Version - Naming task for object 12.", "preferredTerm": "Naming Objects and Fingers: 12", "submissionValue": "Alzheimer's Disease Assessment Scale - Cognitive CDISC Version Test Code", "synonyms": ["CDISC ADAS-Cog - Naming Objects and Fingers: 12"]}, {"conceptId": "C100204", "definition": "Alzheimer's Disease Assessment Scale-Cognitive CDISC Version - Naming task for fingers of the dominant hand, thumb.", "preferredTerm": "Naming Objects and Fingers: Thumb", "submissionValue": "Alzheimer's Disease Assessment Scale - Cognitive CDISC Version Test Code", "synonyms": ["CDISC ADAS-Cog - Naming Objects and Fingers: Thumb"]}, {"conceptId": "C100205", "definition": "Alzheimer's Disease Assessment Scale-Cognitive CDISC Version - Naming task for fingers of the dominant hand, index, or pointer finger.", "preferredTerm": "Naming Objects and Fingers: Pointer", "submissionValue": "Alzheimer's Disease Assessment Scale - Cognitive CDISC Version Test Code", "synonyms": ["CDISC ADAS-Cog - Naming Objects and Fingers: Pointer"]}, {"conceptId": "C100206", "definition": "Alzheimer's Disease Assessment Scale-Cognitive CDISC Version - Naming task for fingers of the dominant hand, middle finger.", "preferredTerm": "Naming Objects and Fingers: Middle", "submissionValue": "Alzheimer's Disease Assessment Scale - Cognitive CDISC Version Test Code", "synonyms": ["CDISC ADAS-Cog - Naming Objects and Fingers: Middle"]}, {"conceptId": "C100207", "definition": "Alzheimer's Disease Assessment Scale-Cognitive CDISC Version - Naming task for fingers of the dominant hand, ring finger.", "preferredTerm": "Naming Objects and Fingers: Ring", "submissionValue": "Alzheimer's Disease Assessment Scale - Cognitive CDISC Version Test Code", "synonyms": ["CDISC ADAS-Cog - Naming Objects and Fingers: Ring"]}, {"conceptId": "C100208", "definition": "Alzheimer's Disease Assessment Scale-Cognitive CDISC Version - Naming task for fingers of the dominant hand, little finger or pinky.", "preferredTerm": "Naming Objects and Fingers: Pinky", "submissionValue": "Alzheimer's Disease Assessment Scale - Cognitive CDISC Version Test Code", "synonyms": ["CDISC ADAS-Cog - Naming Objects and Fingers: Pinky"]}, {"conceptId": "C100209", "definition": "Alzheimer's Disease Assessment Scale-Cognitive CDISC Version - Summary score for commands.", "preferredTerm": "Commands", "submissionValue": "Alzheimer's Disease Assessment Scale - Cognitive CDISC Version Test Code", "synonyms": ["CDISC ADAS-Cog - Commands Summary Score"]}, {"conceptId": "C100210", "definition": "Alzheimer's Disease Assessment Scale-Cognitive CDISC Version - Commands task for making a fist.", "preferredTerm": "Commands: Fist", "submissionValue": "Alzheimer's Disease Assessment Scale - Cognitive CDISC Version Test Code", "synonyms": ["CDISC ADAS-Cog - Commands: Fist"]}, {"conceptId": "C100211", "definition": "Alzheimer's Disease Assessment Scale-Cognitive CDISC Version - Commands task for pointing to the ceiling then to the floor.", "preferredTerm": "Commands: Ceiling", "submissionValue": "Alzheimer's Disease Assessment Scale - Cognitive CDISC Version Test Code", "synonyms": ["CDISC ADAS-Cog - Commands: Ceiling"]}, {"conceptId": "C100212", "definition": "Alzheimer's Disease Assessment Scale-Cognitive CDISC Version - Commands task for put the pencil on top of the card and then put it back.", "preferredTerm": "Commands: Pencil", "submissionValue": "Alzheimer's Disease Assessment Scale - Cognitive CDISC Version Test Code", "synonyms": ["CDISC ADAS-Cog - Commands: Pencil"]}, {"conceptId": "C100213", "definition": "Alzheimer's Disease Assessment Scale-Cognitive CDISC Version - Commands task for put the watch on the other side of the pencil and then turn over the card.", "preferredTerm": "Commands: Watch", "submissionValue": "Alzheimer's Disease Assessment Scale - Cognitive CDISC Version Test Code", "synonyms": ["CDISC ADAS-Cog - Commands: Watch"]}, {"conceptId": "C100214", "definition": "Alzheimer's Disease Assessment Scale-Cognitive CDISC Version - Commands task for tap each shoulder twice with two fingers keeping your eyes shut.", "preferredTerm": "Commands: Shoulder", "submissionValue": "Alzheimer's Disease Assessment Scale - Cognitive CDISC Version Test Code", "synonyms": ["CDISC ADAS-Cog - Commands: Shoulder"]}, {"conceptId": "C100215", "definition": "Alzheimer's Disease Assessment Scale-Cognitive CDISC Version - Summary score for delayed word recall.", "preferredTerm": "Delayed Word Recall", "submissionValue": "Alzheimer's Disease Assessment Scale - Cognitive CDISC Version Test Code", "synonyms": ["CDISC ADAS-Cog - Delayed Word Recall Summary Score"]}, {"conceptId": "C100216", "definition": "Alzheimer's Disease Assessment Scale-Cognitive CDISC Version - Delayed word recall task for word 1.", "preferredTerm": "Delayed Word Recall: Word [1]", "submissionValue": "Alzheimer's Disease Assessment Scale - Cognitive CDISC Version Test Code", "synonyms": ["CDISC ADAS-Cog - Delayed Word Recall: Word 1"]}, {"conceptId": "C100217", "definition": "Alzheimer's Disease Assessment Scale-Cognitive CDISC Version - Delayed word recall task for word 2.", "preferredTerm": "Delayed Word Recall: Word [2]", "submissionValue": "Alzheimer's Disease Assessment Scale - Cognitive CDISC Version Test Code", "synonyms": ["CDISC ADAS-Cog - Delayed Word Recall: Word 2"]}, {"conceptId": "C100218", "definition": "Alzheimer's Disease Assessment Scale-Cognitive CDISC Version - Delayed word recall task for word 3.", "preferredTerm": "Delayed Word Recall: Word [3]", "submissionValue": "Alzheimer's Disease Assessment Scale - Cognitive CDISC Version Test Code", "synonyms": ["CDISC ADAS-Cog - Delayed Word Recall: Word 3"]}, {"conceptId": "C100219", "definition": "Alzheimer's Disease Assessment Scale-Cognitive CDISC Version - Delayed word recall task for word 4.", "preferredTerm": "Delayed Word Recall: Word [4]", "submissionValue": "Alzheimer's Disease Assessment Scale - Cognitive CDISC Version Test Code", "synonyms": ["CDISC ADAS-Cog - Delayed Word Recall: Word 4"]}, {"conceptId": "C100220", "definition": "Alzheimer's Disease Assessment Scale-Cognitive CDISC Version - Delayed word recall task for word 5.", "preferredTerm": "Delayed Word Recall: Word [5]", "submissionValue": "Alzheimer's Disease Assessment Scale - Cognitive CDISC Version Test Code", "synonyms": ["CDISC ADAS-Cog - Delayed Word Recall: Word 5"]}, {"conceptId": "C100221", "definition": "Alzheimer's Disease Assessment Scale-Cognitive CDISC Version - Delayed word recall task for word 6.", "preferredTerm": "Delayed Word Recall: Word [6]", "submissionValue": "Alzheimer's Disease Assessment Scale - Cognitive CDISC Version Test Code", "synonyms": ["CDISC ADAS-Cog - Delayed Word Recall: Word 6"]}, {"conceptId": "C100222", "definition": "Alzheimer's Disease Assessment Scale-Cognitive CDISC Version - Delayed word recall task for word 7.", "preferredTerm": "Delayed Word Recall: Word [7]", "submissionValue": "Alzheimer's Disease Assessment Scale - Cognitive CDISC Version Test Code", "synonyms": ["CDISC ADAS-Cog - Delayed Word Recall: Word 7"]}, {"conceptId": "C100223", "definition": "Alzheimer's Disease Assessment Scale-Cognitive CDISC Version - Delayed word recall task for word 8.", "preferredTerm": "Delayed Word Recall: Word [8]", "submissionValue": "Alzheimer's Disease Assessment Scale - Cognitive CDISC Version Test Code", "synonyms": ["CDISC ADAS-Cog - Delayed Word Recall: Word 8"]}, {"conceptId": "C100224", "definition": "Alzheimer's Disease Assessment Scale-Cognitive CDISC Version - Delayed word recall task for word 9.", "preferredTerm": "Delayed Word Recall: Word [9]", "submissionValue": "Alzheimer's Disease Assessment Scale - Cognitive CDISC Version Test Code", "synonyms": ["CDISC ADAS-Cog - Delayed Word Recall: Word 9"]}, {"conceptId": "C100225", "definition": "Alzheimer's Disease Assessment Scale-Cognitive CDISC Version - Delayed word recall task for word 10.", "preferredTerm": "Delayed Word Recall: Word [10]", "submissionValue": "Alzheimer's Disease Assessment Scale - Cognitive CDISC Version Test Code", "synonyms": ["CDISC ADAS-Cog - Delayed Word Recall: Word 10"]}, {"conceptId": "C100226", "definition": "Alzheimer's Disease Assessment Scale-Cognitive CDISC Version - Summary score for constructional praxis.", "preferredTerm": "Constructional Praxis", "submissionValue": "Alzheimer's Disease Assessment Scale - Cognitive CDISC Version Test Code", "synonyms": ["CDISC ADAS-Cog - Constructional Praxis Summary Score"]}, {"conceptId": "C100227", "definition": "Alzheimer's Disease Assessment Scale-Cognitive CDISC Version - Constructional praxis task for copying a circle.", "preferredTerm": "Constructional Praxis: Circle", "submissionValue": "Alzheimer's Disease Assessment Scale - Cognitive CDISC Version Test Code", "synonyms": ["CDISC ADAS-Cog - Constructional Praxis: Circle"]}, {"conceptId": "C100228", "definition": "Alzheimer's Disease Assessment Scale-Cognitive CDISC Version - Constructional praxis task for copying two overlapping rectangles.", "preferredTerm": "Constructional Praxis: 2 Rectangles", "submissionValue": "Alzheimer's Disease Assessment Scale - Cognitive CDISC Version Test Code", "synonyms": ["CDISC ADAS-Cog - Constructional Praxis: 2 Rectangles"]}, {"conceptId": "C100229", "definition": "Alzheimer's Disease Assessment Scale-Cognitive CDISC Version - Constructional praxis task for copying a diamond.", "preferredTerm": "Constructional Praxis: Diamond", "submissionValue": "Alzheimer's Disease Assessment Scale - Cognitive CDISC Version Test Code", "synonyms": ["CDISC ADAS-Cog - Constructional Praxis: Diamond"]}, {"conceptId": "C100230", "definition": "Alzheimer's Disease Assessment Scale-Cognitive CDISC Version - Constructional praxis task for copying a cube.", "preferredTerm": "Constructional Praxis: Cube", "submissionValue": "Alzheimer's Disease Assessment Scale - Cognitive CDISC Version Test Code", "synonyms": ["CDISC ADAS-Cog - Constructional Praxis: Cube"]}, {"conceptId": "C100231", "definition": "Alzheimer's Disease Assessment Scale-Cognitive CDISC Version - Constructional praxis attempted to draw, but drew no forms correctly.", "preferredTerm": "Attempt to Draw", "submissionValue": "Alzheimer's Disease Assessment Scale - Cognitive CDISC Version Test Code", "synonyms": ["CDISC ADAS-Cog - Attempt to Draw"]}, {"conceptId": "C100232", "definition": "Alzheimer's Disease Assessment Scale-Cognitive CDISC Version - Summary score for ideational praxis.", "preferredTerm": "Ideational Praxis", "submissionValue": "Alzheimer's Disease Assessment Scale - Cognitive CDISC Version Test Code", "synonyms": ["CDISC ADAS-Cog - Ideational Praxis Summary Score"]}, {"conceptId": "C100233", "definition": "Alzheimer's Disease Assessment Scale-Cognitive CDISC Version - Ideational praxis task for folding the paper.", "preferredTerm": "Ideational Praxis: Fold", "submissionValue": "Alzheimer's Disease Assessment Scale - Cognitive CDISC Version Test Code", "synonyms": ["CDISC ADAS-Cog - Ideational Praxis: Fold"]}, {"conceptId": "C100234", "definition": "Alzheimer's Disease Assessment Scale-Cognitive CDISC Version - Ideational praxis task for put the paper in the envelop.", "preferredTerm": "Ideational Praxis: Insert", "submissionValue": "Alzheimer's Disease Assessment Scale - Cognitive CDISC Version Test Code", "synonyms": ["CDISC ADAS-Cog - Ideational Praxis: Insert"]}, {"conceptId": "C100235", "definition": "Alzheimer's Disease Assessment Scale-Cognitive CDISC Version - Ideational praxis task for seal the envelop.", "preferredTerm": "Ideational Praxis: Seal", "submissionValue": "Alzheimer's Disease Assessment Scale - Cognitive CDISC Version Test Code", "synonyms": ["CDISC ADAS-Cog - Ideational Praxis: Seal"]}, {"conceptId": "C100236", "definition": "Alzheimer's Disease Assessment Scale-Cognitive CDISC Version - Ideational praxis task for address the envelop to yourself.", "preferredTerm": "Ideational Praxis: Address", "submissionValue": "Alzheimer's Disease Assessment Scale - Cognitive CDISC Version Test Code", "synonyms": ["CDISC ADAS-Cog - Ideational Praxis: Address"]}, {"conceptId": "C100237", "definition": "Alzheimer's Disease Assessment Scale-Cognitive CDISC Version - Ideational praxis task for showing where the stamp goes.", "preferredTerm": "Ideational Praxis: Stamp", "submissionValue": "Alzheimer's Disease Assessment Scale - Cognitive CDISC Version Test Code", "synonyms": ["CDISC ADAS-Cog - Ideational Praxis: Stamp"]}, {"conceptId": "C100238", "definition": "Alzheimer's Disease Assessment Scale-Cognitive CDISC Version - Summary score for orientation.", "preferredTerm": "Orientation", "submissionValue": "Alzheimer's Disease Assessment Scale - Cognitive CDISC Version Test Code", "synonyms": ["CDISC ADAS-Cog - Orientation Summary Score"]}, {"conceptId": "C100239", "definition": "Alzheimer's Disease Assessment Scale-Cognitive CDISC Version - Orientation task for knowing one's own full name.", "preferredTerm": "Orientation: Full Name", "submissionValue": "Alzheimer's Disease Assessment Scale - Cognitive CDISC Version Test Code", "synonyms": ["CDISC ADAS-Cog - Orientation: Full Name"]}, {"conceptId": "C100240", "definition": "Alzheimer's Disease Assessment Scale-Cognitive CDISC Version - Orientation task for knowing the current month.", "preferredTerm": "Orientation: Month", "submissionValue": "Alzheimer's Disease Assessment Scale - Cognitive CDISC Version Test Code", "synonyms": ["CDISC ADAS-Cog - Orientation: Month"]}, {"conceptId": "C100241", "definition": "Alzheimer's Disease Assessment Scale-Cognitive CDISC Version - Orientation task for knowing the current day.", "preferredTerm": "Orientation: Date", "submissionValue": "Alzheimer's Disease Assessment Scale - Cognitive CDISC Version Test Code", "synonyms": ["CDISC ADAS-Cog - Orientation: Date"]}, {"conceptId": "C100242", "definition": "Alzheimer's Disease Assessment Scale-Cognitive CDISC Version - Orientation task for knowing the current year.", "preferredTerm": "Orientation: Year", "submissionValue": "Alzheimer's Disease Assessment Scale - Cognitive CDISC Version Test Code", "synonyms": ["CDISC ADAS-Cog - Orientation: Year"]}, {"conceptId": "C100243", "definition": "Alzheimer's Disease Assessment Scale-Cognitive CDISC Version - Orientation task for knowing the current day of the week.", "preferredTerm": "Orientation: Day of Week", "submissionValue": "Alzheimer's Disease Assessment Scale - Cognitive CDISC Version Test Code", "synonyms": ["CDISC ADAS-Cog - Orientation: Day of Week"]}, {"conceptId": "C100244", "definition": "Alzheimer's Disease Assessment Scale-Cognitive CDISC Version - Orientation task for knowing the current season.", "preferredTerm": "Orientation: Season", "submissionValue": "Alzheimer's Disease Assessment Scale - Cognitive CDISC Version Test Code", "synonyms": ["CDISC ADAS-Cog - Orientation: Season"]}, {"conceptId": "C100245", "definition": "Alzheimer's Disease Assessment Scale-Cognitive CDISC Version - Orientation task for knowing the current place.", "preferredTerm": "Orientation: Place", "submissionValue": "Alzheimer's Disease Assessment Scale - Cognitive CDISC Version Test Code", "synonyms": ["CDISC ADAS-Cog - Orientation: Place"]}, {"conceptId": "C100246", "definition": "Alzheimer's Disease Assessment Scale-Cognitive CDISC Version - Orientation task for knowing the approximate current clock time.", "preferredTerm": "Orientation: Time", "submissionValue": "Alzheimer's Disease Assessment Scale - Cognitive CDISC Version Test Code", "synonyms": ["CDISC ADAS-Cog - Orientation: Time"]}, {"conceptId": "C100247", "definition": "Alzheimer's Disease Assessment Scale-Cognitive CDISC Version - Summary score for word recognition across trials 1-3.", "preferredTerm": "Word Recognition", "submissionValue": "Alzheimer's Disease Assessment Scale - Cognitive CDISC Version Test Code", "synonyms": ["CDISC ADAS-Cog - Word Recognition Summary Score"]}, {"conceptId": "C100248", "definition": "Alzheimer's Disease Assessment Scale-Cognitive CDISC Version - Sub-score for word recognition trial 1.", "preferredTerm": "Word Recognition Trial 1", "submissionValue": "Alzheimer's Disease Assessment Scale - Cognitive CDISC Version Test Code", "synonyms": ["CDISC ADAS-Cog - Word Recognition Trial 1 Summary Score"]}, {"conceptId": "C100249", "definition": "Alzheimer's Disease Assessment Scale-Cognitive CDISC Version - Sub-score for word recognition trial 2.", "preferredTerm": "Word Recognition Trial 2", "submissionValue": "Alzheimer's Disease Assessment Scale - Cognitive CDISC Version Test Code", "synonyms": ["CDISC ADAS-Cog - Word Recognition Trial 2 Summary Score"]}, {"conceptId": "C100250", "definition": "Alzheimer's Disease Assessment Scale-Cognitive CDISC Version - Sub-score for word recognition trial 3.", "preferredTerm": "Word Recognition Trial 3", "submissionValue": "Alzheimer's Disease Assessment Scale - Cognitive CDISC Version Test Code", "synonyms": ["CDISC ADAS-Cog - Word Recognition Trial 3 Summary Score"]}, {"conceptId": "C100251", "definition": "Alzheimer's Disease Assessment Scale-Cognitive CDISC Version - Word recognition task for word 1 Trials 1, 2, 3.", "preferredTerm": "Word Recognition: Word [1]", "submissionValue": "Alzheimer's Disease Assessment Scale - Cognitive CDISC Version Test Code", "synonyms": ["CDISC ADAS-Cog - Word Recognition: Word 1"]}, {"conceptId": "C100252", "definition": "Alzheimer's Disease Assessment Scale-Cognitive CDISC Version - Word recognition task for word 2 Trials 1, 2, 3.", "preferredTerm": "Word Recognition: Word [2]", "submissionValue": "Alzheimer's Disease Assessment Scale - Cognitive CDISC Version Test Code", "synonyms": ["CDISC ADAS-Cog - Word Recognition: Word 2"]}, {"conceptId": "C100253", "definition": "Alzheimer's Disease Assessment Scale-Cognitive CDISC Version - Word recognition task for word 3 Trials 1, 2, 3.", "preferredTerm": "Word Recognition: Word [3]", "submissionValue": "Alzheimer's Disease Assessment Scale - Cognitive CDISC Version Test Code", "synonyms": ["CDISC ADAS-Cog - Word Recognition: Word 3"]}, {"conceptId": "C100254", "definition": "Alzheimer's Disease Assessment Scale-Cognitive CDISC Version - Word recognition task for word 4 Trials 1, 2, 3.", "preferredTerm": "Word Recognition: Word [4]", "submissionValue": "Alzheimer's Disease Assessment Scale - Cognitive CDISC Version Test Code", "synonyms": ["CDISC ADAS-Cog - Word Recognition: Word 4"]}, {"conceptId": "C100255", "definition": "Alzheimer's Disease Assessment Scale-Cognitive CDISC Version - Word recognition task for word 5 Trials 1, 2, 3.", "preferredTerm": "Word Recognition: Word [5]", "submissionValue": "Alzheimer's Disease Assessment Scale - Cognitive CDISC Version Test Code", "synonyms": ["CDISC ADAS-Cog - Word Recognition: Word 5"]}, {"conceptId": "C100256", "definition": "Alzheimer's Disease Assessment Scale-Cognitive CDISC Version - Word recognition task for word 6 Trials 1, 2, 3.", "preferredTerm": "Word Recognition: Word [6]", "submissionValue": "Alzheimer's Disease Assessment Scale - Cognitive CDISC Version Test Code", "synonyms": ["CDISC ADAS-Cog - Word Recognition: Word 6"]}, {"conceptId": "C100257", "definition": "Alzheimer's Disease Assessment Scale-Cognitive CDISC Version - Word recognition task for word 7 Trials 1, 2, 3.", "preferredTerm": "Word Recognition: Word [7]", "submissionValue": "Alzheimer's Disease Assessment Scale - Cognitive CDISC Version Test Code", "synonyms": ["CDISC ADAS-Cog - Word Recognition: Word 7"]}, {"conceptId": "C100258", "definition": "Alzheimer's Disease Assessment Scale-Cognitive CDISC Version - Word recognition task for word 8 Trials 1, 2, 3.", "preferredTerm": "Word Recognition: Word [8]", "submissionValue": "Alzheimer's Disease Assessment Scale - Cognitive CDISC Version Test Code", "synonyms": ["CDISC ADAS-Cog - Word Recognition: Word 8"]}, {"conceptId": "C100259", "definition": "Alzheimer's Disease Assessment Scale-Cognitive CDISC Version - Word recognition task for word 9 Trials 1, 2, 3.", "preferredTerm": "Word Recognition: Word [9]", "submissionValue": "Alzheimer's Disease Assessment Scale - Cognitive CDISC Version Test Code", "synonyms": ["CDISC ADAS-Cog - Word Recognition: Word 9"]}, {"conceptId": "C100260", "definition": "Alzheimer's Disease Assessment Scale-Cognitive CDISC Version - Word recognition task for word 10 Trials 1, 2, 3.", "preferredTerm": "Word Recognition: Word [10]", "submissionValue": "Alzheimer's Disease Assessment Scale - Cognitive CDISC Version Test Code", "synonyms": ["CDISC ADAS-Cog - Word Recognition: Word 10"]}, {"conceptId": "C100261", "definition": "Alzheimer's Disease Assessment Scale-Cognitive CDISC Version - Word recognition task for word 11 Trials 1, 2, 3.", "preferredTerm": "Word Recognition: Word [11]", "submissionValue": "Alzheimer's Disease Assessment Scale - Cognitive CDISC Version Test Code", "synonyms": ["CDISC ADAS-Cog - Word Recognition: Word 11"]}, {"conceptId": "C100262", "definition": "Alzheimer's Disease Assessment Scale-Cognitive CDISC Version - Word recognition task for word 12 Trials 1, 2, 3.", "preferredTerm": "Word Recognition: Word [12]", "submissionValue": "Alzheimer's Disease Assessment Scale - Cognitive CDISC Version Test Code", "synonyms": ["CDISC ADAS-Cog - Word Recognition: Word 12"]}, {"conceptId": "C100263", "definition": "Alzheimer's Disease Assessment Scale-Cognitive CDISC Version - Word recognition task for word 13 Trials 1, 2, 3.", "preferredTerm": "Word Recognition: Word [13]", "submissionValue": "Alzheimer's Disease Assessment Scale - Cognitive CDISC Version Test Code", "synonyms": ["CDISC ADAS-Cog - CDISC ADAS-Cog - Word Recognition: Word 13"]}, {"conceptId": "C100264", "definition": "Alzheimer's Disease Assessment Scale-Cognitive CDISC Version - Word recognition task for word 14 Trials 1, 2, 3.", "preferredTerm": "Word Recognition: Word [14]", "submissionValue": "Alzheimer's Disease Assessment Scale - Cognitive CDISC Version Test Code", "synonyms": ["CDISC ADAS-Cog - Word Recognition: Word 14"]}, {"conceptId": "C100265", "definition": "Alzheimer's Disease Assessment Scale-Cognitive CDISC Version - Word recognition task for word 15 Trials 1, 2, 3.", "preferredTerm": "Word Recognition: Word [15]", "submissionValue": "Alzheimer's Disease Assessment Scale - Cognitive CDISC Version Test Code", "synonyms": ["CDISC ADAS-Cog - Word Recognition: Word 15"]}, {"conceptId": "C100266", "definition": "Alzheimer's Disease Assessment Scale-Cognitive CDISC Version - Word recognition task for word 16 Trials 1, 2, 3.", "preferredTerm": "Word Recognition: Word [16]", "submissionValue": "Alzheimer's Disease Assessment Scale - Cognitive CDISC Version Test Code", "synonyms": ["CDISC ADAS-Cog - Word Recognition: Word 16"]}, {"conceptId": "C100267", "definition": "Alzheimer's Disease Assessment Scale-Cognitive CDISC Version - Word recognition task for word 17 Trials 1, 2, 3.", "preferredTerm": "Word Recognition: Word [17]", "submissionValue": "Alzheimer's Disease Assessment Scale - Cognitive CDISC Version Test Code", "synonyms": ["CDISC ADAS-Cog - Word Recognition: Word 17"]}, {"conceptId": "C100268", "definition": "Alzheimer's Disease Assessment Scale-Cognitive CDISC Version - Word recognition task for word 18 Trials 1, 2, 3.", "preferredTerm": "Word Recognition: Word [18]", "submissionValue": "Alzheimer's Disease Assessment Scale - Cognitive CDISC Version Test Code", "synonyms": ["CDISC ADAS-Cog - Word Recognition: Word 18"]}, {"conceptId": "C100269", "definition": "Alzheimer's Disease Assessment Scale-Cognitive CDISC Version - Word recognition task for word 19 Trials 1, 2, 3.", "preferredTerm": "Word Recognition: Word [19]", "submissionValue": "Alzheimer's Disease Assessment Scale - Cognitive CDISC Version Test Code", "synonyms": ["CDISC ADAS-Cog - Word Recognition: Word 19"]}, {"conceptId": "C100270", "definition": "Alzheimer's Disease Assessment Scale-Cognitive CDISC Version - Word recognition task for word 20 Trials 1, 2, 3.", "preferredTerm": "Word Recognition: Word [20]", "submissionValue": "Alzheimer's Disease Assessment Scale - Cognitive CDISC Version Test Code", "synonyms": ["CDISC ADAS-Cog - Word Recognition: Word 20"]}, {"conceptId": "C100271", "definition": "Alzheimer's Disease Assessment Scale-Cognitive CDISC Version - Word recognition task for word 21 Trials 1, 2, 3.", "preferredTerm": "Word Recognition: Word [21]", "submissionValue": "Alzheimer's Disease Assessment Scale - Cognitive CDISC Version Test Code", "synonyms": ["CDISC ADAS-Cog - Word Recognition: Word 21"]}, {"conceptId": "C100272", "definition": "Alzheimer's Disease Assessment Scale-Cognitive CDISC Version - Word recognition task for word 22 Trials 1, 2, 3.", "preferredTerm": "Word Recognition: Word [22]", "submissionValue": "Alzheimer's Disease Assessment Scale - Cognitive CDISC Version Test Code", "synonyms": ["CDISC ADAS-Cog - Word Recognition: Word 22"]}, {"conceptId": "C100273", "definition": "Alzheimer's Disease Assessment Scale-Cognitive CDISC Version - Word recognition task for word 23 Trials 1, 2, 3.", "preferredTerm": "Word Recognition: Word [23]", "submissionValue": "Alzheimer's Disease Assessment Scale - Cognitive CDISC Version Test Code", "synonyms": ["CDISC ADAS-Cog - Word Recognition: Word 23"]}, {"conceptId": "C100274", "definition": "Alzheimer's Disease Assessment Scale-Cognitive CDISC Version - Word recognition task for word 24 Trials 1, 2, 3.", "preferredTerm": "Word Recognition: Word [24]", "submissionValue": "Alzheimer's Disease Assessment Scale - Cognitive CDISC Version Test Code", "synonyms": ["CDISC ADAS-Cog - Word Recognition: Word 24"]}, {"conceptId": "C100275", "definition": "Alzheimer's Disease Assessment Scale-Cognitive CDISC Version - Remembering test instructions.", "preferredTerm": "Remembering Test Instructions", "submissionValue": "Alzheimer's Disease Assessment Scale - Cognitive CDISC Version Test Code", "synonyms": ["CDISC ADAS-Cog - Remembering Test Instructions"]}, {"conceptId": "C100276", "definition": "Alzheimer's Disease Assessment Scale-Cognitive CDISC Version - Global rating of the quality of speech, or difficulty in making oneself understood.", "preferredTerm": "Spoken Language Ability", "submissionValue": "Alzheimer's Disease Assessment Scale - Cognitive CDISC Version Test Code", "synonyms": ["CDISC ADAS-Cog - Spoken Language Ability"]}, {"conceptId": "C100277", "definition": "Alzheimer's Disease Assessment Scale-Cognitive CDISC Version - Difficulty finding the desired word in spontaneous speech.", "preferredTerm": "Word Finding Difficulty in Spont Speech", "submissionValue": "Alzheimer's Disease Assessment Scale - Cognitive CDISC Version Test Code", "synonyms": ["CDISC ADAS-Cog - Word Difficulty in Spontaneous Speech"]}, {"conceptId": "C100278", "definition": "Alzheimer's Disease Assessment Scale-Cognitive CDISC Version - Ability to comprehend speech.", "preferredTerm": "Comprehension", "submissionValue": "Alzheimer's Disease Assessment Scale - Cognitive CDISC Version Test Code", "synonyms": ["CDISC ADAS-Cog - Comprehension"]}, {"conceptId": "C100279", "definition": "Alzheimer's Disease Assessment Scale-Cognitive CDISC Version - Ability to concentrate or easily be distracted.", "preferredTerm": "Concentration/Distractibility", "submissionValue": "Alzheimer's Disease Assessment Scale - Cognitive CDISC Version Test Code", "synonyms": ["CDISC ADAS-Cog - Concentration/Distractibility"]}, {"conceptId": "C100280", "definition": "Alzheimer's Disease Assessment Scale-Cognitive CDISC Version - Summary score for the number cancellation tasks.", "preferredTerm": "Number Cancellation", "submissionValue": "Alzheimer's Disease Assessment Scale - Cognitive CDISC Version Test Code", "synonyms": ["CDISC ADAS-Cog - Number Cancellation Summary Score"]}, {"conceptId": "C100281", "definition": "Alzheimer's Disease Assessment Scale-Cognitive CDISC Version - Number of targets hit during the number cancellation task.", "preferredTerm": "Number Cancellation: Correct", "submissionValue": "Alzheimer's Disease Assessment Scale - Cognitive CDISC Version Test Code", "synonyms": ["CDISC ADAS-Cog - Number Cancellation: Correct"]}, {"conceptId": "C100282", "definition": "Alzheimer's Disease Assessment Scale-Cognitive CDISC Version - Number of errors during the number cancellation task.", "preferredTerm": "Number Cancellation: Errors", "submissionValue": "Alzheimer's Disease Assessment Scale - Cognitive CDISC Version Test Code", "synonyms": ["CDISC ADAS-Cog - Number Cancellation: Errors"]}, {"conceptId": "C100283", "definition": "Alzheimer's Disease Assessment Scale-Cognitive CDISC Version - Number of times reminded for the number cancellation task.", "preferredTerm": "Number Cancellation: Remind", "submissionValue": "Alzheimer's Disease Assessment Scale - Cognitive CDISC Version Test Code", "synonyms": ["CDISC ADAS-Cog - Number Cancellation: Remind"]}, {"conceptId": "C100284", "definition": "Alzheimer's Disease Assessment Scale-Cognitive CDISC Version - Summary score for the executive function maze tasks.", "preferredTerm": "Executive Function Maze", "submissionValue": "Alzheimer's Disease Assessment Scale - Cognitive CDISC Version Test Code", "synonyms": ["CDISC ADAS-Cog - Executive Function Maze Summary Score"]}, {"conceptId": "C100285", "definition": "Alzheimer's Disease Assessment Scale-Cognitive CDISC Version - Number of errors during the executive function maze task.", "preferredTerm": "Executive Function Maze: Errors", "submissionValue": "Alzheimer's Disease Assessment Scale - Cognitive CDISC Version Test Code", "synonyms": ["CDISC ADAS-Cog - Executive Function Maze: Errors"]}, {"conceptId": "C100286", "definition": "Alzheimer's Disease Assessment Scale-Cognitive CDISC Version - The time in seconds stored in ISO 8601 time for the executive function maze task.", "preferredTerm": "Executive Function Maze: Time", "submissionValue": "Alzheimer's Disease Assessment Scale - Cognitive CDISC Version Test Code", "synonyms": ["CDISC ADAS-Cog - Executive Function Maze: Time"]}]}, {"conceptId": "", "definition": "ADAS-Cog CDISC Version test name.", "extensible": "No", "name": "Alzheimer's Disease Assessment Scale - Cognitive CDISC Version Test Name", "preferredTerm": "Alzheimer's Disease Assessment Scale - Cognitive CDISC Version Test Name", "submissionValue": "Alzheimer's Disease Assessment Scale - Cognitive CDISC Version Test Name", "synonyms": ["CDISC Questionnaire ADAS-Cog CDISC Version Test Name Terminology"], "terms": [{"conceptId": "C100177", "definition": "Alzheimer's Disease Assessment Scale-Cognitive CDISC Version - Word recall task word average score of trials 1, 2, 3.", "preferredTerm": "Word Recall", "submissionValue": "Alzheimer's Disease Assessment Scale - Cognitive CDISC Version Test Name", "synonyms": ["CDISC ADAS-Cog - Word Recall Average Score"]}, {"conceptId": "C100178", "definition": "Alzheimer's Disease Assessment Scale-Cognitive CDISC Version - Sub-score for word recall task trial 1.", "preferredTerm": "Word Recall Trial 1", "submissionValue": "Alzheimer's Disease Assessment Scale - Cognitive CDISC Version Test Name", "synonyms": ["CDISC ADAS-Cog - Word Recall Trial 1 Subscore"]}, {"conceptId": "C100179", "definition": "Alzheimer's Disease Assessment Scale-Cognitive CDISC Version - Sub-score for word recall task trial 2.", "preferredTerm": "Word Recall Trial 2", "submissionValue": "Alzheimer's Disease Assessment Scale - Cognitive CDISC Version Test Name", "synonyms": ["CDISC ADAS-Cog - Word Recall Trial 2 Subscore"]}, {"conceptId": "C100180", "definition": "Alzheimer's Disease Assessment Scale-Cognitive CDISC Version - Sub-score for word recall task trial 3.", "preferredTerm": "Word Recall Trial 3", "submissionValue": "Alzheimer's Disease Assessment Scale - Cognitive CDISC Version Test Name", "synonyms": ["CDISC ADAS-Cog - Word Recall Trial 3 Subscore"]}, {"conceptId": "C100181", "definition": "Alzheimer's Disease Assessment Scale-Cognitive CDISC Version - Word recall task word 1 for trial 1, 2, 3.", "preferredTerm": "Word Recall: Word [1]", "submissionValue": "Alzheimer's Disease Assessment Scale - Cognitive CDISC Version Test Name", "synonyms": ["CDISC ADAS-Cog - Word Recall: Word 1"]}, {"conceptId": "C100182", "definition": "Alzheimer's Disease Assessment Scale-Cognitive CDISC Version - Word recall task word 2 for trial 1, 2, 3.", "preferredTerm": "Word Recall: Word [2]", "submissionValue": "Alzheimer's Disease Assessment Scale - Cognitive CDISC Version Test Name", "synonyms": ["CDISC ADAS-Cog - Word Recall: Word 2"]}, {"conceptId": "C100183", "definition": "Alzheimer's Disease Assessment Scale-Cognitive CDISC Version - Word recall task word 3 for trial 1, 2, 3.", "preferredTerm": "Word Recall: Word [3]", "submissionValue": "Alzheimer's Disease Assessment Scale - Cognitive CDISC Version Test Name", "synonyms": ["CDISC ADAS-Cog - Word Recall: Word 3"]}, {"conceptId": "C100184", "definition": "Alzheimer's Disease Assessment Scale-Cognitive CDISC Version - Word recall task word 4 for trial 1, 2, 3.", "preferredTerm": "Word Recall: Word [4]", "submissionValue": "Alzheimer's Disease Assessment Scale - Cognitive CDISC Version Test Name", "synonyms": ["CDISC ADAS-Cog - Word Recall: Word 4"]}, {"conceptId": "C100185", "definition": "Alzheimer's Disease Assessment Scale-Cognitive CDISC Version - Word recall task word 5 for trial 1, 2, 3.", "preferredTerm": "Word Recall: Word [5]", "submissionValue": "Alzheimer's Disease Assessment Scale - Cognitive CDISC Version Test Name", "synonyms": ["CDISC ADAS-Cog - Word Recall: Word 5"]}, {"conceptId": "C100186", "definition": "Alzheimer's Disease Assessment Scale-Cognitive CDISC Version - Word recall task word 6 for trial 1, 2, 3.", "preferredTerm": "Word Recall: Word [6]", "submissionValue": "Alzheimer's Disease Assessment Scale - Cognitive CDISC Version Test Name", "synonyms": ["CDISC ADAS-Cog - Word Recall: Word 6"]}, {"conceptId": "C100187", "definition": "Alzheimer's Disease Assessment Scale-Cognitive CDISC Version - Word recall task word 7 for trial 1, 2, 3.", "preferredTerm": "Word Recall: Word [7]", "submissionValue": "Alzheimer's Disease Assessment Scale - Cognitive CDISC Version Test Name", "synonyms": ["CDISC ADAS-Cog - Word Recall: Word 7"]}, {"conceptId": "C100188", "definition": "Alzheimer's Disease Assessment Scale-Cognitive CDISC Version - Word recall task word 8 for trial 1, 2, 3.", "preferredTerm": "Word Recall: Word [8]", "submissionValue": "Alzheimer's Disease Assessment Scale - Cognitive CDISC Version Test Name", "synonyms": ["CDISC ADAS-Cog - Word Recall: Word 8"]}, {"conceptId": "C100189", "definition": "Alzheimer's Disease Assessment Scale-Cognitive CDISC Version - Word recall task word 9 for trial 1, 2, 3.", "preferredTerm": "Word Recall: Word [9]", "submissionValue": "Alzheimer's Disease Assessment Scale - Cognitive CDISC Version Test Name", "synonyms": ["CDISC ADAS-Cog - Word Recall: Word 9"]}, {"conceptId": "C100190", "definition": "Alzheimer's Disease Assessment Scale-Cognitive CDISC Version - Word recall task word 10 for trial 1, 2, 3.", "preferredTerm": "Word Recall: Word [10]", "submissionValue": "Alzheimer's Disease Assessment Scale - Cognitive CDISC Version Test Name", "synonyms": ["CDISC ADAS-Cog - Word Recall: Word 10"]}, {"conceptId": "C100191", "definition": "Alzheimer's Disease Assessment Scale-Cognitive CDISC Version - Naming task summary score for object and fingers.", "preferredTerm": "Naming Objects and Fingers", "submissionValue": "Alzheimer's Disease Assessment Scale - Cognitive CDISC Version Test Name", "synonyms": ["CDISC ADAS-Cog - Naming Objects and Fingers Summary Score"]}, {"conceptId": "C100192", "definition": "Alzheimer's Disease Assessment Scale-Cognitive CDISC Version - Naming task for object 1.", "preferredTerm": "Naming Objects and Fingers: 1", "submissionValue": "Alzheimer's Disease Assessment Scale - Cognitive CDISC Version Test Name", "synonyms": ["CDISC ADAS-Cog - Naming Objects and Fingers: 1"]}, {"conceptId": "C100193", "definition": "Alzheimer's Disease Assessment Scale-Cognitive CDISC Version - Naming task for object 2.", "preferredTerm": "Naming Objects and Fingers: 2", "submissionValue": "Alzheimer's Disease Assessment Scale - Cognitive CDISC Version Test Name", "synonyms": ["CDISC ADAS-Cog - Naming Objects and Fingers: 2"]}, {"conceptId": "C100194", "definition": "Alzheimer's Disease Assessment Scale-Cognitive CDISC Version - Naming task for object 3.", "preferredTerm": "Naming Objects and Fingers: 3", "submissionValue": "Alzheimer's Disease Assessment Scale - Cognitive CDISC Version Test Name", "synonyms": ["CDISC ADAS-Cog - Naming Objects and Fingers: 3"]}, {"conceptId": "C100195", "definition": "Alzheimer's Disease Assessment Scale-Cognitive CDISC Version - Naming task for object 4.", "preferredTerm": "Naming Objects and Fingers: 4", "submissionValue": "Alzheimer's Disease Assessment Scale - Cognitive CDISC Version Test Name", "synonyms": ["CDISC ADAS-Cog - Naming Objects and Fingers: 4"]}, {"conceptId": "C100196", "definition": "Alzheimer's Disease Assessment Scale-Cognitive CDISC Version - Naming task for object 5.", "preferredTerm": "Naming Objects and Fingers: 5", "submissionValue": "Alzheimer's Disease Assessment Scale - Cognitive CDISC Version Test Name", "synonyms": ["CDISC ADAS-Cog - Naming Objects and Fingers: 5"]}, {"conceptId": "C100197", "definition": "Alzheimer's Disease Assessment Scale-Cognitive CDISC Version - Naming task for object 6.", "preferredTerm": "Naming Objects and Fingers: 6", "submissionValue": "Alzheimer's Disease Assessment Scale - Cognitive CDISC Version Test Name", "synonyms": ["CDISC ADAS-Cog - Naming Objects and Fingers: 6"]}, {"conceptId": "C100198", "definition": "Alzheimer's Disease Assessment Scale-Cognitive CDISC Version - Naming task for object 7.", "preferredTerm": "Naming Objects and Fingers: 7", "submissionValue": "Alzheimer's Disease Assessment Scale - Cognitive CDISC Version Test Name", "synonyms": ["CDISC ADAS-Cog - Naming Objects and Fingers: 7"]}, {"conceptId": "C100199", "definition": "Alzheimer's Disease Assessment Scale-Cognitive CDISC Version - Naming task for object 8.", "preferredTerm": "Naming Objects and Fingers: 8", "submissionValue": "Alzheimer's Disease Assessment Scale - Cognitive CDISC Version Test Name", "synonyms": ["CDISC ADAS-Cog - Naming Objects and Fingers: 8"]}, {"conceptId": "C100200", "definition": "Alzheimer's Disease Assessment Scale-Cognitive CDISC Version - Naming task for object 9.", "preferredTerm": "Naming Objects and Fingers: 9", "submissionValue": "Alzheimer's Disease Assessment Scale - Cognitive CDISC Version Test Name", "synonyms": ["CDISC ADAS-Cog - Naming Objects and Fingers: 9"]}, {"conceptId": "C100201", "definition": "Alzheimer's Disease Assessment Scale-Cognitive CDISC Version - Naming task for object 10.", "preferredTerm": "Naming Objects and Fingers: 10", "submissionValue": "Alzheimer's Disease Assessment Scale - Cognitive CDISC Version Test Name", "synonyms": ["CDISC ADAS-Cog - Naming Objects and Fingers: 10"]}, {"conceptId": "C100202", "definition": "Alzheimer's Disease Assessment Scale-Cognitive CDISC Version - Naming task for object 11.", "preferredTerm": "Naming Objects and Fingers: 11", "submissionValue": "Alzheimer's Disease Assessment Scale - Cognitive CDISC Version Test Name", "synonyms": ["CDISC ADAS-Cog - Naming Objects and Fingers: 11"]}, {"conceptId": "C100203", "definition": "Alzheimer's Disease Assessment Scale-Cognitive CDISC Version - Naming task for object 12.", "preferredTerm": "Naming Objects and Fingers: 12", "submissionValue": "Alzheimer's Disease Assessment Scale - Cognitive CDISC Version Test Name", "synonyms": ["CDISC ADAS-Cog - Naming Objects and Fingers: 12"]}, {"conceptId": "C100204", "definition": "Alzheimer's Disease Assessment Scale-Cognitive CDISC Version - Naming task for fingers of the dominant hand, thumb.", "preferredTerm": "Naming Objects and Fingers: Thumb", "submissionValue": "Alzheimer's Disease Assessment Scale - Cognitive CDISC Version Test Name", "synonyms": ["CDISC ADAS-Cog - Naming Objects and Fingers: Thumb"]}, {"conceptId": "C100205", "definition": "Alzheimer's Disease Assessment Scale-Cognitive CDISC Version - Naming task for fingers of the dominant hand, index, or pointer finger.", "preferredTerm": "Naming Objects and Fingers: Pointer", "submissionValue": "Alzheimer's Disease Assessment Scale - Cognitive CDISC Version Test Name", "synonyms": ["CDISC ADAS-Cog - Naming Objects and Fingers: Pointer"]}, {"conceptId": "C100206", "definition": "Alzheimer's Disease Assessment Scale-Cognitive CDISC Version - Naming task for fingers of the dominant hand, middle finger.", "preferredTerm": "Naming Objects and Fingers: Middle", "submissionValue": "Alzheimer's Disease Assessment Scale - Cognitive CDISC Version Test Name", "synonyms": ["CDISC ADAS-Cog - Naming Objects and Fingers: Middle"]}, {"conceptId": "C100207", "definition": "Alzheimer's Disease Assessment Scale-Cognitive CDISC Version - Naming task for fingers of the dominant hand, ring finger.", "preferredTerm": "Naming Objects and Fingers: Ring", "submissionValue": "Alzheimer's Disease Assessment Scale - Cognitive CDISC Version Test Name", "synonyms": ["CDISC ADAS-Cog - Naming Objects and Fingers: Ring"]}, {"conceptId": "C100208", "definition": "Alzheimer's Disease Assessment Scale-Cognitive CDISC Version - Naming task for fingers of the dominant hand, little finger or pinky.", "preferredTerm": "Naming Objects and Fingers: Pinky", "submissionValue": "Alzheimer's Disease Assessment Scale - Cognitive CDISC Version Test Name", "synonyms": ["CDISC ADAS-Cog - Naming Objects and Fingers: Pinky"]}, {"conceptId": "C100209", "definition": "Alzheimer's Disease Assessment Scale-Cognitive CDISC Version - Summary score for commands.", "preferredTerm": "Commands", "submissionValue": "Alzheimer's Disease Assessment Scale - Cognitive CDISC Version Test Name", "synonyms": ["CDISC ADAS-Cog - Commands Summary Score"]}, {"conceptId": "C100210", "definition": "Alzheimer's Disease Assessment Scale-Cognitive CDISC Version - Commands task for making a fist.", "preferredTerm": "Commands: Fist", "submissionValue": "Alzheimer's Disease Assessment Scale - Cognitive CDISC Version Test Name", "synonyms": ["CDISC ADAS-Cog - Commands: Fist"]}, {"conceptId": "C100211", "definition": "Alzheimer's Disease Assessment Scale-Cognitive CDISC Version - Commands task for pointing to the ceiling then to the floor.", "preferredTerm": "Commands: Ceiling", "submissionValue": "Alzheimer's Disease Assessment Scale - Cognitive CDISC Version Test Name", "synonyms": ["CDISC ADAS-Cog - Commands: Ceiling"]}, {"conceptId": "C100212", "definition": "Alzheimer's Disease Assessment Scale-Cognitive CDISC Version - Commands task for put the pencil on top of the card and then put it back.", "preferredTerm": "Commands: Pencil", "submissionValue": "Alzheimer's Disease Assessment Scale - Cognitive CDISC Version Test Name", "synonyms": ["CDISC ADAS-Cog - Commands: Pencil"]}, {"conceptId": "C100213", "definition": "Alzheimer's Disease Assessment Scale-Cognitive CDISC Version - Commands task for put the watch on the other side of the pencil and then turn over the card.", "preferredTerm": "Commands: Watch", "submissionValue": "Alzheimer's Disease Assessment Scale - Cognitive CDISC Version Test Name", "synonyms": ["CDISC ADAS-Cog - Commands: Watch"]}, {"conceptId": "C100214", "definition": "Alzheimer's Disease Assessment Scale-Cognitive CDISC Version - Commands task for tap each shoulder twice with two fingers keeping your eyes shut.", "preferredTerm": "Commands: Shoulder", "submissionValue": "Alzheimer's Disease Assessment Scale - Cognitive CDISC Version Test Name", "synonyms": ["CDISC ADAS-Cog - Commands: Shoulder"]}, {"conceptId": "C100215", "definition": "Alzheimer's Disease Assessment Scale-Cognitive CDISC Version - Summary score for delayed word recall.", "preferredTerm": "Delayed Word Recall", "submissionValue": "Alzheimer's Disease Assessment Scale - Cognitive CDISC Version Test Name", "synonyms": ["CDISC ADAS-Cog - Delayed Word Recall Summary Score"]}, {"conceptId": "C100216", "definition": "Alzheimer's Disease Assessment Scale-Cognitive CDISC Version - Delayed word recall task for word 1.", "preferredTerm": "Delayed Word Recall: Word [1]", "submissionValue": "Alzheimer's Disease Assessment Scale - Cognitive CDISC Version Test Name", "synonyms": ["CDISC ADAS-Cog - Delayed Word Recall: Word 1"]}, {"conceptId": "C100217", "definition": "Alzheimer's Disease Assessment Scale-Cognitive CDISC Version - Delayed word recall task for word 2.", "preferredTerm": "Delayed Word Recall: Word [2]", "submissionValue": "Alzheimer's Disease Assessment Scale - Cognitive CDISC Version Test Name", "synonyms": ["CDISC ADAS-Cog - Delayed Word Recall: Word 2"]}, {"conceptId": "C100218", "definition": "Alzheimer's Disease Assessment Scale-Cognitive CDISC Version - Delayed word recall task for word 3.", "preferredTerm": "Delayed Word Recall: Word [3]", "submissionValue": "Alzheimer's Disease Assessment Scale - Cognitive CDISC Version Test Name", "synonyms": ["CDISC ADAS-Cog - Delayed Word Recall: Word 3"]}, {"conceptId": "C100219", "definition": "Alzheimer's Disease Assessment Scale-Cognitive CDISC Version - Delayed word recall task for word 4.", "preferredTerm": "Delayed Word Recall: Word [4]", "submissionValue": "Alzheimer's Disease Assessment Scale - Cognitive CDISC Version Test Name", "synonyms": ["CDISC ADAS-Cog - Delayed Word Recall: Word 4"]}, {"conceptId": "C100220", "definition": "Alzheimer's Disease Assessment Scale-Cognitive CDISC Version - Delayed word recall task for word 5.", "preferredTerm": "Delayed Word Recall: Word [5]", "submissionValue": "Alzheimer's Disease Assessment Scale - Cognitive CDISC Version Test Name", "synonyms": ["CDISC ADAS-Cog - Delayed Word Recall: Word 5"]}, {"conceptId": "C100221", "definition": "Alzheimer's Disease Assessment Scale-Cognitive CDISC Version - Delayed word recall task for word 6.", "preferredTerm": "Delayed Word Recall: Word [6]", "submissionValue": "Alzheimer's Disease Assessment Scale - Cognitive CDISC Version Test Name", "synonyms": ["CDISC ADAS-Cog - Delayed Word Recall: Word 6"]}, {"conceptId": "C100222", "definition": "Alzheimer's Disease Assessment Scale-Cognitive CDISC Version - Delayed word recall task for word 7.", "preferredTerm": "Delayed Word Recall: Word [7]", "submissionValue": "Alzheimer's Disease Assessment Scale - Cognitive CDISC Version Test Name", "synonyms": ["CDISC ADAS-Cog - Delayed Word Recall: Word 7"]}, {"conceptId": "C100223", "definition": "Alzheimer's Disease Assessment Scale-Cognitive CDISC Version - Delayed word recall task for word 8.", "preferredTerm": "Delayed Word Recall: Word [8]", "submissionValue": "Alzheimer's Disease Assessment Scale - Cognitive CDISC Version Test Name", "synonyms": ["CDISC ADAS-Cog - Delayed Word Recall: Word 8"]}, {"conceptId": "C100224", "definition": "Alzheimer's Disease Assessment Scale-Cognitive CDISC Version - Delayed word recall task for word 9.", "preferredTerm": "Delayed Word Recall: Word [9]", "submissionValue": "Alzheimer's Disease Assessment Scale - Cognitive CDISC Version Test Name", "synonyms": ["CDISC ADAS-Cog - Delayed Word Recall: Word 9"]}, {"conceptId": "C100225", "definition": "Alzheimer's Disease Assessment Scale-Cognitive CDISC Version - Delayed word recall task for word 10.", "preferredTerm": "Delayed Word Recall: Word [10]", "submissionValue": "Alzheimer's Disease Assessment Scale - Cognitive CDISC Version Test Name", "synonyms": ["CDISC ADAS-Cog - Delayed Word Recall: Word 10"]}, {"conceptId": "C100226", "definition": "Alzheimer's Disease Assessment Scale-Cognitive CDISC Version - Summary score for constructional praxis.", "preferredTerm": "Constructional Praxis", "submissionValue": "Alzheimer's Disease Assessment Scale - Cognitive CDISC Version Test Name", "synonyms": ["CDISC ADAS-Cog - Constructional Praxis Summary Score"]}, {"conceptId": "C100227", "definition": "Alzheimer's Disease Assessment Scale-Cognitive CDISC Version - Constructional praxis task for copying a circle.", "preferredTerm": "Constructional Praxis: Circle", "submissionValue": "Alzheimer's Disease Assessment Scale - Cognitive CDISC Version Test Name", "synonyms": ["CDISC ADAS-Cog - Constructional Praxis: Circle"]}, {"conceptId": "C100228", "definition": "Alzheimer's Disease Assessment Scale-Cognitive CDISC Version - Constructional praxis task for copying two overlapping rectangles.", "preferredTerm": "Constructional Praxis: 2 Rectangles", "submissionValue": "Alzheimer's Disease Assessment Scale - Cognitive CDISC Version Test Name", "synonyms": ["CDISC ADAS-Cog - Constructional Praxis: 2 Rectangles"]}, {"conceptId": "C100229", "definition": "Alzheimer's Disease Assessment Scale-Cognitive CDISC Version - Constructional praxis task for copying a diamond.", "preferredTerm": "Constructional Praxis: Diamond", "submissionValue": "Alzheimer's Disease Assessment Scale - Cognitive CDISC Version Test Name", "synonyms": ["CDISC ADAS-Cog - Constructional Praxis: Diamond"]}, {"conceptId": "C100230", "definition": "Alzheimer's Disease Assessment Scale-Cognitive CDISC Version - Constructional praxis task for copying a cube.", "preferredTerm": "Constructional Praxis: Cube", "submissionValue": "Alzheimer's Disease Assessment Scale - Cognitive CDISC Version Test Name", "synonyms": ["CDISC ADAS-Cog - Constructional Praxis: Cube"]}, {"conceptId": "C100231", "definition": "Alzheimer's Disease Assessment Scale-Cognitive CDISC Version - Constructional praxis attempted to draw, but drew no forms correctly.", "preferredTerm": "Attempt to Draw", "submissionValue": "Alzheimer's Disease Assessment Scale - Cognitive CDISC Version Test Name", "synonyms": ["CDISC ADAS-Cog - Attempt to Draw"]}, {"conceptId": "C100232", "definition": "Alzheimer's Disease Assessment Scale-Cognitive CDISC Version - Summary score for ideational praxis.", "preferredTerm": "Ideational Praxis", "submissionValue": "Alzheimer's Disease Assessment Scale - Cognitive CDISC Version Test Name", "synonyms": ["CDISC ADAS-Cog - Ideational Praxis Summary Score"]}, {"conceptId": "C100233", "definition": "Alzheimer's Disease Assessment Scale-Cognitive CDISC Version - Ideational praxis task for folding the paper.", "preferredTerm": "Ideational Praxis: Fold", "submissionValue": "Alzheimer's Disease Assessment Scale - Cognitive CDISC Version Test Name", "synonyms": ["CDISC ADAS-Cog - Ideational Praxis: Fold"]}, {"conceptId": "C100234", "definition": "Alzheimer's Disease Assessment Scale-Cognitive CDISC Version - Ideational praxis task for put the paper in the envelop.", "preferredTerm": "Ideational Praxis: Insert", "submissionValue": "Alzheimer's Disease Assessment Scale - Cognitive CDISC Version Test Name", "synonyms": ["CDISC ADAS-Cog - Ideational Praxis: Insert"]}, {"conceptId": "C100235", "definition": "Alzheimer's Disease Assessment Scale-Cognitive CDISC Version - Ideational praxis task for seal the envelop.", "preferredTerm": "Ideational Praxis: Seal", "submissionValue": "Alzheimer's Disease Assessment Scale - Cognitive CDISC Version Test Name", "synonyms": ["CDISC ADAS-Cog - Ideational Praxis: Seal"]}, {"conceptId": "C100236", "definition": "Alzheimer's Disease Assessment Scale-Cognitive CDISC Version - Ideational praxis task for address the envelop to yourself.", "preferredTerm": "Ideational Praxis: Address", "submissionValue": "Alzheimer's Disease Assessment Scale - Cognitive CDISC Version Test Name", "synonyms": ["CDISC ADAS-Cog - Ideational Praxis: Address"]}, {"conceptId": "C100237", "definition": "Alzheimer's Disease Assessment Scale-Cognitive CDISC Version - Ideational praxis task for showing where the stamp goes.", "preferredTerm": "Ideational Praxis: Stamp", "submissionValue": "Alzheimer's Disease Assessment Scale - Cognitive CDISC Version Test Name", "synonyms": ["CDISC ADAS-Cog - Ideational Praxis: Stamp"]}, {"conceptId": "C100238", "definition": "Alzheimer's Disease Assessment Scale-Cognitive CDISC Version - Summary score for orientation.", "preferredTerm": "Orientation", "submissionValue": "Alzheimer's Disease Assessment Scale - Cognitive CDISC Version Test Name", "synonyms": ["CDISC ADAS-Cog - Orientation Summary Score"]}, {"conceptId": "C100239", "definition": "Alzheimer's Disease Assessment Scale-Cognitive CDISC Version - Orientation task for knowing one's own full name.", "preferredTerm": "Orientation: Full Name", "submissionValue": "Alzheimer's Disease Assessment Scale - Cognitive CDISC Version Test Name", "synonyms": ["CDISC ADAS-Cog - Orientation: Full Name"]}, {"conceptId": "C100240", "definition": "Alzheimer's Disease Assessment Scale-Cognitive CDISC Version - Orientation task for knowing the current month.", "preferredTerm": "Orientation: Month", "submissionValue": "Alzheimer's Disease Assessment Scale - Cognitive CDISC Version Test Name", "synonyms": ["CDISC ADAS-Cog - Orientation: Month"]}, {"conceptId": "C100241", "definition": "Alzheimer's Disease Assessment Scale-Cognitive CDISC Version - Orientation task for knowing the current day.", "preferredTerm": "Orientation: Date", "submissionValue": "Alzheimer's Disease Assessment Scale - Cognitive CDISC Version Test Name", "synonyms": ["CDISC ADAS-Cog - Orientation: Date"]}, {"conceptId": "C100242", "definition": "Alzheimer's Disease Assessment Scale-Cognitive CDISC Version - Orientation task for knowing the current year.", "preferredTerm": "Orientation: Year", "submissionValue": "Alzheimer's Disease Assessment Scale - Cognitive CDISC Version Test Name", "synonyms": ["CDISC ADAS-Cog - Orientation: Year"]}, {"conceptId": "C100243", "definition": "Alzheimer's Disease Assessment Scale-Cognitive CDISC Version - Orientation task for knowing the current day of the week.", "preferredTerm": "Orientation: Day of Week", "submissionValue": "Alzheimer's Disease Assessment Scale - Cognitive CDISC Version Test Name", "synonyms": ["CDISC ADAS-Cog - Orientation: Day of Week"]}, {"conceptId": "C100244", "definition": "Alzheimer's Disease Assessment Scale-Cognitive CDISC Version - Orientation task for knowing the current season.", "preferredTerm": "Orientation: Season", "submissionValue": "Alzheimer's Disease Assessment Scale - Cognitive CDISC Version Test Name", "synonyms": ["CDISC ADAS-Cog - Orientation: Season"]}, {"conceptId": "C100245", "definition": "Alzheimer's Disease Assessment Scale-Cognitive CDISC Version - Orientation task for knowing the current place.", "preferredTerm": "Orientation: Place", "submissionValue": "Alzheimer's Disease Assessment Scale - Cognitive CDISC Version Test Name", "synonyms": ["CDISC ADAS-Cog - Orientation: Place"]}, {"conceptId": "C100246", "definition": "Alzheimer's Disease Assessment Scale-Cognitive CDISC Version - Orientation task for knowing the approximate current clock time.", "preferredTerm": "Orientation: Time", "submissionValue": "Alzheimer's Disease Assessment Scale - Cognitive CDISC Version Test Name", "synonyms": ["CDISC ADAS-Cog - Orientation: Time"]}, {"conceptId": "C100247", "definition": "Alzheimer's Disease Assessment Scale-Cognitive CDISC Version - Summary score for word recognition across trials 1-3.", "preferredTerm": "Word Recognition", "submissionValue": "Alzheimer's Disease Assessment Scale - Cognitive CDISC Version Test Name", "synonyms": ["CDISC ADAS-Cog - Word Recognition Summary Score"]}, {"conceptId": "C100248", "definition": "Alzheimer's Disease Assessment Scale-Cognitive CDISC Version - Sub-score for word recognition trial 1.", "preferredTerm": "Word Recognition Trial 1", "submissionValue": "Alzheimer's Disease Assessment Scale - Cognitive CDISC Version Test Name", "synonyms": ["CDISC ADAS-Cog - Word Recognition Trial 1 Summary Score"]}, {"conceptId": "C100249", "definition": "Alzheimer's Disease Assessment Scale-Cognitive CDISC Version - Sub-score for word recognition trial 2.", "preferredTerm": "Word Recognition Trial 2", "submissionValue": "Alzheimer's Disease Assessment Scale - Cognitive CDISC Version Test Name", "synonyms": ["CDISC ADAS-Cog - Word Recognition Trial 2 Summary Score"]}, {"conceptId": "C100250", "definition": "Alzheimer's Disease Assessment Scale-Cognitive CDISC Version - Sub-score for word recognition trial 3.", "preferredTerm": "Word Recognition Trial 3", "submissionValue": "Alzheimer's Disease Assessment Scale - Cognitive CDISC Version Test Name", "synonyms": ["CDISC ADAS-Cog - Word Recognition Trial 3 Summary Score"]}, {"conceptId": "C100251", "definition": "Alzheimer's Disease Assessment Scale-Cognitive CDISC Version - Word recognition task for word 1 Trials 1, 2, 3.", "preferredTerm": "Word Recognition: Word [1]", "submissionValue": "Alzheimer's Disease Assessment Scale - Cognitive CDISC Version Test Name", "synonyms": ["CDISC ADAS-Cog - Word Recognition: Word 1"]}, {"conceptId": "C100252", "definition": "Alzheimer's Disease Assessment Scale-Cognitive CDISC Version - Word recognition task for word 2 Trials 1, 2, 3.", "preferredTerm": "Word Recognition: Word [2]", "submissionValue": "Alzheimer's Disease Assessment Scale - Cognitive CDISC Version Test Name", "synonyms": ["CDISC ADAS-Cog - Word Recognition: Word 2"]}, {"conceptId": "C100253", "definition": "Alzheimer's Disease Assessment Scale-Cognitive CDISC Version - Word recognition task for word 3 Trials 1, 2, 3.", "preferredTerm": "Word Recognition: Word [3]", "submissionValue": "Alzheimer's Disease Assessment Scale - Cognitive CDISC Version Test Name", "synonyms": ["CDISC ADAS-Cog - Word Recognition: Word 3"]}, {"conceptId": "C100254", "definition": "Alzheimer's Disease Assessment Scale-Cognitive CDISC Version - Word recognition task for word 4 Trials 1, 2, 3.", "preferredTerm": "Word Recognition: Word [4]", "submissionValue": "Alzheimer's Disease Assessment Scale - Cognitive CDISC Version Test Name", "synonyms": ["CDISC ADAS-Cog - Word Recognition: Word 4"]}, {"conceptId": "C100255", "definition": "Alzheimer's Disease Assessment Scale-Cognitive CDISC Version - Word recognition task for word 5 Trials 1, 2, 3.", "preferredTerm": "Word Recognition: Word [5]", "submissionValue": "Alzheimer's Disease Assessment Scale - Cognitive CDISC Version Test Name", "synonyms": ["CDISC ADAS-Cog - Word Recognition: Word 5"]}, {"conceptId": "C100256", "definition": "Alzheimer's Disease Assessment Scale-Cognitive CDISC Version - Word recognition task for word 6 Trials 1, 2, 3.", "preferredTerm": "Word Recognition: Word [6]", "submissionValue": "Alzheimer's Disease Assessment Scale - Cognitive CDISC Version Test Name", "synonyms": ["CDISC ADAS-Cog - Word Recognition: Word 6"]}, {"conceptId": "C100257", "definition": "Alzheimer's Disease Assessment Scale-Cognitive CDISC Version - Word recognition task for word 7 Trials 1, 2, 3.", "preferredTerm": "Word Recognition: Word [7]", "submissionValue": "Alzheimer's Disease Assessment Scale - Cognitive CDISC Version Test Name", "synonyms": ["CDISC ADAS-Cog - Word Recognition: Word 7"]}, {"conceptId": "C100258", "definition": "Alzheimer's Disease Assessment Scale-Cognitive CDISC Version - Word recognition task for word 8 Trials 1, 2, 3.", "preferredTerm": "Word Recognition: Word [8]", "submissionValue": "Alzheimer's Disease Assessment Scale - Cognitive CDISC Version Test Name", "synonyms": ["CDISC ADAS-Cog - Word Recognition: Word 8"]}, {"conceptId": "C100259", "definition": "Alzheimer's Disease Assessment Scale-Cognitive CDISC Version - Word recognition task for word 9 Trials 1, 2, 3.", "preferredTerm": "Word Recognition: Word [9]", "submissionValue": "Alzheimer's Disease Assessment Scale - Cognitive CDISC Version Test Name", "synonyms": ["CDISC ADAS-Cog - Word Recognition: Word 9"]}, {"conceptId": "C100260", "definition": "Alzheimer's Disease Assessment Scale-Cognitive CDISC Version - Word recognition task for word 10 Trials 1, 2, 3.", "preferredTerm": "Word Recognition: Word [10]", "submissionValue": "Alzheimer's Disease Assessment Scale - Cognitive CDISC Version Test Name", "synonyms": ["CDISC ADAS-Cog - Word Recognition: Word 10"]}, {"conceptId": "C100261", "definition": "Alzheimer's Disease Assessment Scale-Cognitive CDISC Version - Word recognition task for word 11 Trials 1, 2, 3.", "preferredTerm": "Word Recognition: Word [11]", "submissionValue": "Alzheimer's Disease Assessment Scale - Cognitive CDISC Version Test Name", "synonyms": ["CDISC ADAS-Cog - Word Recognition: Word 11"]}, {"conceptId": "C100262", "definition": "Alzheimer's Disease Assessment Scale-Cognitive CDISC Version - Word recognition task for word 12 Trials 1, 2, 3.", "preferredTerm": "Word Recognition: Word [12]", "submissionValue": "Alzheimer's Disease Assessment Scale - Cognitive CDISC Version Test Name", "synonyms": ["CDISC ADAS-Cog - Word Recognition: Word 12"]}, {"conceptId": "C100263", "definition": "Alzheimer's Disease Assessment Scale-Cognitive CDISC Version - Word recognition task for word 13 Trials 1, 2, 3.", "preferredTerm": "Word Recognition: Word [13]", "submissionValue": "Alzheimer's Disease Assessment Scale - Cognitive CDISC Version Test Name", "synonyms": ["CDISC ADAS-Cog - CDISC ADAS-Cog - Word Recognition: Word 13"]}, {"conceptId": "C100264", "definition": "Alzheimer's Disease Assessment Scale-Cognitive CDISC Version - Word recognition task for word 14 Trials 1, 2, 3.", "preferredTerm": "Word Recognition: Word [14]", "submissionValue": "Alzheimer's Disease Assessment Scale - Cognitive CDISC Version Test Name", "synonyms": ["CDISC ADAS-Cog - Word Recognition: Word 14"]}, {"conceptId": "C100265", "definition": "Alzheimer's Disease Assessment Scale-Cognitive CDISC Version - Word recognition task for word 15 Trials 1, 2, 3.", "preferredTerm": "Word Recognition: Word [15]", "submissionValue": "Alzheimer's Disease Assessment Scale - Cognitive CDISC Version Test Name", "synonyms": ["CDISC ADAS-Cog - Word Recognition: Word 15"]}, {"conceptId": "C100266", "definition": "Alzheimer's Disease Assessment Scale-Cognitive CDISC Version - Word recognition task for word 16 Trials 1, 2, 3.", "preferredTerm": "Word Recognition: Word [16]", "submissionValue": "Alzheimer's Disease Assessment Scale - Cognitive CDISC Version Test Name", "synonyms": ["CDISC ADAS-Cog - Word Recognition: Word 16"]}, {"conceptId": "C100267", "definition": "Alzheimer's Disease Assessment Scale-Cognitive CDISC Version - Word recognition task for word 17 Trials 1, 2, 3.", "preferredTerm": "Word Recognition: Word [17]", "submissionValue": "Alzheimer's Disease Assessment Scale - Cognitive CDISC Version Test Name", "synonyms": ["CDISC ADAS-Cog - Word Recognition: Word 17"]}, {"conceptId": "C100268", "definition": "Alzheimer's Disease Assessment Scale-Cognitive CDISC Version - Word recognition task for word 18 Trials 1, 2, 3.", "preferredTerm": "Word Recognition: Word [18]", "submissionValue": "Alzheimer's Disease Assessment Scale - Cognitive CDISC Version Test Name", "synonyms": ["CDISC ADAS-Cog - Word Recognition: Word 18"]}, {"conceptId": "C100269", "definition": "Alzheimer's Disease Assessment Scale-Cognitive CDISC Version - Word recognition task for word 19 Trials 1, 2, 3.", "preferredTerm": "Word Recognition: Word [19]", "submissionValue": "Alzheimer's Disease Assessment Scale - Cognitive CDISC Version Test Name", "synonyms": ["CDISC ADAS-Cog - Word Recognition: Word 19"]}, {"conceptId": "C100270", "definition": "Alzheimer's Disease Assessment Scale-Cognitive CDISC Version - Word recognition task for word 20 Trials 1, 2, 3.", "preferredTerm": "Word Recognition: Word [20]", "submissionValue": "Alzheimer's Disease Assessment Scale - Cognitive CDISC Version Test Name", "synonyms": ["CDISC ADAS-Cog - Word Recognition: Word 20"]}, {"conceptId": "C100271", "definition": "Alzheimer's Disease Assessment Scale-Cognitive CDISC Version - Word recognition task for word 21 Trials 1, 2, 3.", "preferredTerm": "Word Recognition: Word [21]", "submissionValue": "Alzheimer's Disease Assessment Scale - Cognitive CDISC Version Test Name", "synonyms": ["CDISC ADAS-Cog - Word Recognition: Word 21"]}, {"conceptId": "C100272", "definition": "Alzheimer's Disease Assessment Scale-Cognitive CDISC Version - Word recognition task for word 22 Trials 1, 2, 3.", "preferredTerm": "Word Recognition: Word [22]", "submissionValue": "Alzheimer's Disease Assessment Scale - Cognitive CDISC Version Test Name", "synonyms": ["CDISC ADAS-Cog - Word Recognition: Word 22"]}, {"conceptId": "C100273", "definition": "Alzheimer's Disease Assessment Scale-Cognitive CDISC Version - Word recognition task for word 23 Trials 1, 2, 3.", "preferredTerm": "Word Recognition: Word [23]", "submissionValue": "Alzheimer's Disease Assessment Scale - Cognitive CDISC Version Test Name", "synonyms": ["CDISC ADAS-Cog - Word Recognition: Word 23"]}, {"conceptId": "C100274", "definition": "Alzheimer's Disease Assessment Scale-Cognitive CDISC Version - Word recognition task for word 24 Trials 1, 2, 3.", "preferredTerm": "Word Recognition: Word [24]", "submissionValue": "Alzheimer's Disease Assessment Scale - Cognitive CDISC Version Test Name", "synonyms": ["CDISC ADAS-Cog - Word Recognition: Word 24"]}, {"conceptId": "C100275", "definition": "Alzheimer's Disease Assessment Scale-Cognitive CDISC Version - Remembering test instructions.", "preferredTerm": "Remembering Test Instructions", "submissionValue": "Alzheimer's Disease Assessment Scale - Cognitive CDISC Version Test Name", "synonyms": ["CDISC ADAS-Cog - Remembering Test Instructions"]}, {"conceptId": "C100276", "definition": "Alzheimer's Disease Assessment Scale-Cognitive CDISC Version - Global rating of the quality of speech, or difficulty in making oneself understood.", "preferredTerm": "Spoken Language Ability", "submissionValue": "Alzheimer's Disease Assessment Scale - Cognitive CDISC Version Test Name", "synonyms": ["CDISC ADAS-Cog - Spoken Language Ability"]}, {"conceptId": "C100277", "definition": "Alzheimer's Disease Assessment Scale-Cognitive CDISC Version - Difficulty finding the desired word in spontaneous speech.", "preferredTerm": "Word Finding Difficulty in Spont Speech", "submissionValue": "Alzheimer's Disease Assessment Scale - Cognitive CDISC Version Test Name", "synonyms": ["CDISC ADAS-Cog - Word Difficulty in Spontaneous Speech"]}, {"conceptId": "C100278", "definition": "Alzheimer's Disease Assessment Scale-Cognitive CDISC Version - Ability to comprehend speech.", "preferredTerm": "Comprehension", "submissionValue": "Alzheimer's Disease Assessment Scale - Cognitive CDISC Version Test Name", "synonyms": ["CDISC ADAS-Cog - Comprehension"]}, {"conceptId": "C100279", "definition": "Alzheimer's Disease Assessment Scale-Cognitive CDISC Version - Ability to concentrate or easily be distracted.", "preferredTerm": "Concentration/Distractibility", "submissionValue": "Alzheimer's Disease Assessment Scale - Cognitive CDISC Version Test Name", "synonyms": ["CDISC ADAS-Cog - Concentration/Distractibility"]}, {"conceptId": "C100280", "definition": "Alzheimer's Disease Assessment Scale-Cognitive CDISC Version - Summary score for the number cancellation tasks.", "preferredTerm": "Number Cancellation", "submissionValue": "Alzheimer's Disease Assessment Scale - Cognitive CDISC Version Test Name", "synonyms": ["CDISC ADAS-Cog - Number Cancellation Summary Score"]}, {"conceptId": "C100281", "definition": "Alzheimer's Disease Assessment Scale-Cognitive CDISC Version - Number of targets hit during the number cancellation task.", "preferredTerm": "Number Cancellation: Correct", "submissionValue": "Alzheimer's Disease Assessment Scale - Cognitive CDISC Version Test Name", "synonyms": ["CDISC ADAS-Cog - Number Cancellation: Correct"]}, {"conceptId": "C100282", "definition": "Alzheimer's Disease Assessment Scale-Cognitive CDISC Version - Number of errors during the number cancellation task.", "preferredTerm": "Number Cancellation: Errors", "submissionValue": "Alzheimer's Disease Assessment Scale - Cognitive CDISC Version Test Name", "synonyms": ["CDISC ADAS-Cog - Number Cancellation: Errors"]}, {"conceptId": "C100283", "definition": "Alzheimer's Disease Assessment Scale-Cognitive CDISC Version - Number of times reminded for the number cancellation task.", "preferredTerm": "Number Cancellation: Remind", "submissionValue": "Alzheimer's Disease Assessment Scale - Cognitive CDISC Version Test Name", "synonyms": ["CDISC ADAS-Cog - Number Cancellation: Remind"]}, {"conceptId": "C100284", "definition": "Alzheimer's Disease Assessment Scale-Cognitive CDISC Version - Summary score for the executive function maze tasks.", "preferredTerm": "Executive Function Maze", "submissionValue": "Alzheimer's Disease Assessment Scale - Cognitive CDISC Version Test Name", "synonyms": ["CDISC ADAS-Cog - Executive Function Maze Summary Score"]}, {"conceptId": "C100285", "definition": "Alzheimer's Disease Assessment Scale-Cognitive CDISC Version - Number of errors during the executive function maze task.", "preferredTerm": "Executive Function Maze: Errors", "submissionValue": "Alzheimer's Disease Assessment Scale - Cognitive CDISC Version Test Name", "synonyms": ["CDISC ADAS-Cog - Executive Function Maze: Errors"]}, {"conceptId": "C100286", "definition": "Alzheimer's Disease Assessment Scale-Cognitive CDISC Version - The time in seconds stored in ISO 8601 time for the executive function maze task.", "preferredTerm": "Executive Function Maze: Time", "submissionValue": "Alzheimer's Disease Assessment Scale - Cognitive CDISC Version Test Name", "synonyms": ["CDISC ADAS-Cog - Executive Function Maze: Time"]}]}, {"conceptId": "", "definition": "The Brief Psychiatric Rating Scale-A test name.", "extensible": "No", "name": "Brief Psychiatric Rating Scale-A Test Name", "preferredTerm": "Brief Psychiatric Rating Scale-A Test Name", "submissionValue": "Brief Psychiatric Rating Scale-A Test Name", "synonyms": ["CDISC Questionnaire BPRS-A Test Name Terminology"], "terms": [{"conceptId": "C100372", "definition": "Brief Psychiatric Rating Scale-A - Somatic Concern.", "preferredTerm": "BPR01-Somatic Concern", "submissionValue": "Brief Psychiatric Rating Scale-A Test Name", "synonyms": ["BPRS-A - Somatic Concern"]}, {"conceptId": "C100373", "definition": "Brief Psychiatric Rating Scale-A - Anxiety.", "preferredTerm": "BPR01-Anxiety", "submissionValue": "Brief Psychiatric Rating Scale-A Test Name", "synonyms": ["BPRS-A - Anxiety"]}, {"conceptId": "C100374", "definition": "Brief Psychiatric Rating Scale-A - Emotional Withdrawal.", "preferredTerm": "BPR01-Emotional Withdrawal", "submissionValue": "Brief Psychiatric Rating Scale-A Test Name", "synonyms": ["BPRS-A - Emotional Withdrawal"]}, {"conceptId": "C100375", "definition": "Brief Psychiatric Rating Scale-A - Conceptual Disorganization.", "preferredTerm": "BPR01-Conceptual Disorganization", "submissionValue": "Brief Psychiatric Rating Scale-A Test Name", "synonyms": ["BPRS-A - Conceptual Disorganization"]}, {"conceptId": "C100376", "definition": "Brief Psychiatric Rating Scale-A - Guilt Feelings.", "preferredTerm": "BPR01-Guilt Feelings", "submissionValue": "Brief Psychiatric Rating Scale-A Test Name", "synonyms": ["BPRS-A - Guilt Feelings"]}, {"conceptId": "C100377", "definition": "Brief Psychiatric Rating Scale-A - Tension.", "preferredTerm": "BPR01-Tension", "submissionValue": "Brief Psychiatric Rating Scale-A Test Name", "synonyms": ["BPRS-A - Tension"]}, {"conceptId": "C100378", "definition": "Brief Psychiatric Rating Scale-A - Mannerisms and Posturing.", "preferredTerm": "BPR01-Mannerisms and Posturing", "submissionValue": "Brief Psychiatric Rating Scale-A Test Name", "synonyms": ["BPRS-A - Mannerisms and Posturing"]}, {"conceptId": "C100379", "definition": "Brief Psychiatric Rating Scale-A - Grandiosity.", "preferredTerm": "BPR01-Grandiosity", "submissionValue": "Brief Psychiatric Rating Scale-A Test Name", "synonyms": ["BPRS-A - Grandiosity"]}, {"conceptId": "C100380", "definition": "Brief Psychiatric Rating Scale-A - Depressive Mood.", "preferredTerm": "BPR01-Depressive Mood", "submissionValue": "Brief Psychiatric Rating Scale-A Test Name", "synonyms": ["BPRS-A - Depressive Mood"]}, {"conceptId": "C100381", "definition": "Brief Psychiatric Rating Scale-A - Hostility.", "preferredTerm": "BPR01-Hostility", "submissionValue": "Brief Psychiatric Rating Scale-A Test Name", "synonyms": ["BPRS-A - Hostility"]}, {"conceptId": "C100382", "definition": "Brief Psychiatric Rating Scale-A - Suspiciousness.", "preferredTerm": "BPR01-Suspiciousness", "submissionValue": "Brief Psychiatric Rating Scale-A Test Name", "synonyms": ["BPRS-A - Suspiciousness"]}, {"conceptId": "C100383", "definition": "Brief Psychiatric Rating Scale-A - Hallucinatory Behavior.", "preferredTerm": "BPR01-Hallucinatory Behavior", "submissionValue": "Brief Psychiatric Rating Scale-A Test Name", "synonyms": ["BPRS-A - Hallucinatory Behavior"]}, {"conceptId": "C100384", "definition": "Brief Psychiatric Rating Scale-A - Motor Retardation.", "preferredTerm": "BPR01-Motor Retardation", "submissionValue": "Brief Psychiatric Rating Scale-A Test Name", "synonyms": ["BPRS-A - Motor Retardation"]}, {"conceptId": "C100385", "definition": "Brief Psychiatric Rating Scale-A - Uncooperativeness.", "preferredTerm": "BPR01-Uncooperativeness", "submissionValue": "Brief Psychiatric Rating Scale-A Test Name", "synonyms": ["BPRS-A - Uncooperativeness"]}, {"conceptId": "C100386", "definition": "Brief Psychiatric Rating Scale-A - Unusual Thought Content.", "preferredTerm": "BPR01-Unusual Thought Content", "submissionValue": "Brief Psychiatric Rating Scale-A Test Name", "synonyms": ["BPRS-A - Unusual Thought Content"]}, {"conceptId": "C100387", "definition": "Brief Psychiatric Rating Scale-A - Blunted Affect.", "preferredTerm": "BPR01-Blunted Affect", "submissionValue": "Brief Psychiatric Rating Scale-A Test Name", "synonyms": ["BPRS-A - Blunted Affect"]}, {"conceptId": "C100388", "definition": "Brief Psychiatric Rating Scale-A - Excitement.", "preferredTerm": "BPR01-Excitement", "submissionValue": "Brief Psychiatric Rating Scale-A Test Name", "synonyms": ["BPRS-A - Excitement"]}, {"conceptId": "C100389", "definition": "Brief Psychiatric Rating Scale-A - Disorientation.", "preferredTerm": "BPR01-Disorientation", "submissionValue": "Brief Psychiatric Rating Scale-A Test Name", "synonyms": ["BPRS-A - Disorientation"]}]}, {"conceptId": "", "definition": "The Brief Psychiatric Rating Scale-A test code.", "extensible": "No", "name": "Brief Psychiatric Rating Scale-A Test Code", "preferredTerm": "Brief Psychiatric Rating Scale-A Test Code", "submissionValue": "Brief Psychiatric Rating Scale-A Test Code", "synonyms": ["CDISC Questionnaire BPRS-A Test Code Terminology"], "terms": [{"conceptId": "C100372", "definition": "Brief Psychiatric Rating Scale-A - Somatic Concern.", "preferredTerm": "BPR01-Somatic Concern", "submissionValue": "Brief Psychiatric Rating Scale-A Test Code", "synonyms": ["BPRS-A - Somatic Concern"]}, {"conceptId": "C100373", "definition": "Brief Psychiatric Rating Scale-A - Anxiety.", "preferredTerm": "BPR01-Anxiety", "submissionValue": "Brief Psychiatric Rating Scale-A Test Code", "synonyms": ["BPRS-A - Anxiety"]}, {"conceptId": "C100374", "definition": "Brief Psychiatric Rating Scale-A - Emotional Withdrawal.", "preferredTerm": "BPR01-Emotional Withdrawal", "submissionValue": "Brief Psychiatric Rating Scale-A Test Code", "synonyms": ["BPRS-A - Emotional Withdrawal"]}, {"conceptId": "C100375", "definition": "Brief Psychiatric Rating Scale-A - Conceptual Disorganization.", "preferredTerm": "BPR01-Conceptual Disorganization", "submissionValue": "Brief Psychiatric Rating Scale-A Test Code", "synonyms": ["BPRS-A - Conceptual Disorganization"]}, {"conceptId": "C100376", "definition": "Brief Psychiatric Rating Scale-A - Guilt Feelings.", "preferredTerm": "BPR01-Guilt Feelings", "submissionValue": "Brief Psychiatric Rating Scale-A Test Code", "synonyms": ["BPRS-A - Guilt Feelings"]}, {"conceptId": "C100377", "definition": "Brief Psychiatric Rating Scale-A - Tension.", "preferredTerm": "BPR01-Tension", "submissionValue": "Brief Psychiatric Rating Scale-A Test Code", "synonyms": ["BPRS-A - Tension"]}, {"conceptId": "C100378", "definition": "Brief Psychiatric Rating Scale-A - Mannerisms and Posturing.", "preferredTerm": "BPR01-Mannerisms and Posturing", "submissionValue": "Brief Psychiatric Rating Scale-A Test Code", "synonyms": ["BPRS-A - Mannerisms and Posturing"]}, {"conceptId": "C100379", "definition": "Brief Psychiatric Rating Scale-A - Grandiosity.", "preferredTerm": "BPR01-Grandiosity", "submissionValue": "Brief Psychiatric Rating Scale-A Test Code", "synonyms": ["BPRS-A - Grandiosity"]}, {"conceptId": "C100380", "definition": "Brief Psychiatric Rating Scale-A - Depressive Mood.", "preferredTerm": "BPR01-Depressive Mood", "submissionValue": "Brief Psychiatric Rating Scale-A Test Code", "synonyms": ["BPRS-A - Depressive Mood"]}, {"conceptId": "C100381", "definition": "Brief Psychiatric Rating Scale-A - Hostility.", "preferredTerm": "BPR01-Hostility", "submissionValue": "Brief Psychiatric Rating Scale-A Test Code", "synonyms": ["BPRS-A - Hostility"]}, {"conceptId": "C100382", "definition": "Brief Psychiatric Rating Scale-A - Suspiciousness.", "preferredTerm": "BPR01-Suspiciousness", "submissionValue": "Brief Psychiatric Rating Scale-A Test Code", "synonyms": ["BPRS-A - Suspiciousness"]}, {"conceptId": "C100383", "definition": "Brief Psychiatric Rating Scale-A - Hallucinatory Behavior.", "preferredTerm": "BPR01-Hallucinatory Behavior", "submissionValue": "Brief Psychiatric Rating Scale-A Test Code", "synonyms": ["BPRS-A - Hallucinatory Behavior"]}, {"conceptId": "C100384", "definition": "Brief Psychiatric Rating Scale-A - Motor Retardation.", "preferredTerm": "BPR01-Motor Retardation", "submissionValue": "Brief Psychiatric Rating Scale-A Test Code", "synonyms": ["BPRS-A - Motor Retardation"]}, {"conceptId": "C100385", "definition": "Brief Psychiatric Rating Scale-A - Uncooperativeness.", "preferredTerm": "BPR01-Uncooperativeness", "submissionValue": "Brief Psychiatric Rating Scale-A Test Code", "synonyms": ["BPRS-A - Uncooperativeness"]}, {"conceptId": "C100386", "definition": "Brief Psychiatric Rating Scale-A - Unusual Thought Content.", "preferredTerm": "BPR01-Unusual Thought Content", "submissionValue": "Brief Psychiatric Rating Scale-A Test Code", "synonyms": ["BPRS-A - Unusual Thought Content"]}, {"conceptId": "C100387", "definition": "Brief Psychiatric Rating Scale-A - Blunted Affect.", "preferredTerm": "BPR01-Blunted Affect", "submissionValue": "Brief Psychiatric Rating Scale-A Test Code", "synonyms": ["BPRS-A - Blunted Affect"]}, {"conceptId": "C100388", "definition": "Brief Psychiatric Rating Scale-A - Excitement.", "preferredTerm": "BPR01-Excitement", "submissionValue": "Brief Psychiatric Rating Scale-A Test Code", "synonyms": ["BPRS-A - Excitement"]}, {"conceptId": "C100389", "definition": "Brief Psychiatric Rating Scale-A - Disorientation.", "preferredTerm": "BPR01-Disorientation", "submissionValue": "Brief Psychiatric Rating Scale-A Test Code", "synonyms": ["BPRS-A - Disorientation"]}]}, {"conceptId": "", "definition": "The EuroQOL (European Quality of Life) Five Dimension three level scale (EQ-5D-3L) (copyright 1990 EuroQol Group EQ-5D test name. All Rights Reserved) test name.", "extensible": "No", "name": "EuroQOLFive Dimension Three Level Scale Test Name", "preferredTerm": "EuroQOLFive Dimension Three Level Scale Test Name", "submissionValue": "EuroQOLFive Dimension Three Level Scale Test Name", "synonyms": ["CDISC Questionnaire EQ-5D-3L Test Name Terminology"], "terms": [{"conceptId": "C100392", "definition": "The EuroQol (European Quality of Life) Five Dimension Three Level Scale (EQ-5D-3L) (copyright 1990 EuroQol Group EQ-5D. All Rights Reserved). Question 1.", "preferredTerm": "EQ-5D-3L-Question 1", "submissionValue": "EuroQOLFive Dimension Three Level Scale Test Name", "synonyms": ["EQ-5D-3L - Question 1"]}, {"conceptId": "C100393", "definition": "The EuroQol (European Quality of Life) Five Dimension Three Level Scale (EQ-5D-3L) (copyright 1990 EuroQol Group EQ-5D. All Rights Reserved). Question 2.", "preferredTerm": "EQ-5D-3L-Question 2", "submissionValue": "EuroQOLFive Dimension Three Level Scale Test Name", "synonyms": ["EQ-5D-3L - Question 2"]}, {"conceptId": "C100394", "definition": "The EuroQol (European Quality of Life) Five Dimension Three Level Scale (EQ-5D-3L) (copyright 1990 EuroQol Group EQ-5D. All Rights Reserved). Question 3.", "preferredTerm": "EQ-5D-3L-Question 3", "submissionValue": "EuroQOLFive Dimension Three Level Scale Test Name", "synonyms": ["EQ-5D-3L - Question 3"]}, {"conceptId": "C100395", "definition": "The EuroQol (European Quality of Life) Five Dimension Three Level Scale (EQ-5D-3L) (copyright 1990 EuroQol Group EQ-5D. All Rights Reserved). Question 4.", "preferredTerm": "EQ-5D-3L-Question 4", "submissionValue": "EuroQOLFive Dimension Three Level Scale Test Name", "synonyms": ["EQ-5D-3L - Question 4"]}, {"conceptId": "C100396", "definition": "The EuroQol (European Quality of Life) Five Dimension Three Level Scale (EQ-5D-3L) (copyright 1990 EuroQol Group EQ-5D. All Rights Reserved). Question 5.", "preferredTerm": "EQ-5D-3L-Question 5", "submissionValue": "EuroQOLFive Dimension Three Level Scale Test Name", "synonyms": ["EQ-5D-3L - Question 5"]}, {"conceptId": "C100397", "definition": "The EuroQol (European Quality of Life) Five Dimension Three Level Scale (EQ-5D-3L) (copyright 1990 EuroQol Group EQ-5D. All Rights Reserved). Question 6.", "preferredTerm": "EQ-5D-3L-Question 6", "submissionValue": "EuroQOLFive Dimension Three Level Scale Test Name", "synonyms": ["EQ-5D-3L - Question 6"]}]}, {"conceptId": "", "definition": "The EuroQOL (European Quality of Life) Five Dimension three level scale (EQ-5D-3L) (copyright 1990 EuroQol Group EQ-5D test code. All Rights Reserved) test code.", "extensible": "No", "name": "EuroQOLFive Dimension Three Level Scale Test Code", "preferredTerm": "EuroQOLFive Dimension Three Level Scale Test Code", "submissionValue": "EuroQOLFive Dimension Three Level Scale Test Code", "synonyms": ["CDISC Questionnaire EQ-5D-3L Test Code Terminology"], "terms": [{"conceptId": "C100392", "definition": "The EuroQol (European Quality of Life) Five Dimension Three Level Scale (EQ-5D-3L) (copyright 1990 EuroQol Group EQ-5D. All Rights Reserved). Question 1.", "preferredTerm": "EQ-5D-3L-Question 1", "submissionValue": "EuroQOLFive Dimension Three Level Scale Test Code", "synonyms": ["EQ-5D-3L - Question 1"]}, {"conceptId": "C100393", "definition": "The EuroQol (European Quality of Life) Five Dimension Three Level Scale (EQ-5D-3L) (copyright 1990 EuroQol Group EQ-5D. All Rights Reserved). Question 2.", "preferredTerm": "EQ-5D-3L-Question 2", "submissionValue": "EuroQOLFive Dimension Three Level Scale Test Code", "synonyms": ["EQ-5D-3L - Question 2"]}, {"conceptId": "C100394", "definition": "The EuroQol (European Quality of Life) Five Dimension Three Level Scale (EQ-5D-3L) (copyright 1990 EuroQol Group EQ-5D. All Rights Reserved). Question 3.", "preferredTerm": "EQ-5D-3L-Question 3", "submissionValue": "EuroQOLFive Dimension Three Level Scale Test Code", "synonyms": ["EQ-5D-3L - Question 3"]}, {"conceptId": "C100395", "definition": "The EuroQol (European Quality of Life) Five Dimension Three Level Scale (EQ-5D-3L) (copyright 1990 EuroQol Group EQ-5D. All Rights Reserved). Question 4.", "preferredTerm": "EQ-5D-3L-Question 4", "submissionValue": "EuroQOLFive Dimension Three Level Scale Test Code", "synonyms": ["EQ-5D-3L - Question 4"]}, {"conceptId": "C100396", "definition": "The EuroQol (European Quality of Life) Five Dimension Three Level Scale (EQ-5D-3L) (copyright 1990 EuroQol Group EQ-5D. All Rights Reserved). Question 5.", "preferredTerm": "EQ-5D-3L-Question 5", "submissionValue": "EuroQOLFive Dimension Three Level Scale Test Code", "synonyms": ["EQ-5D-3L - Question 5"]}, {"conceptId": "C100397", "definition": "The EuroQol (European Quality of Life) Five Dimension Three Level Scale (EQ-5D-3L) (copyright 1990 EuroQol Group EQ-5D. All Rights Reserved). Question 6.", "preferredTerm": "EQ-5D-3L-Question 6", "submissionValue": "EuroQOLFive Dimension Three Level Scale Test Code", "synonyms": ["EQ-5D-3L - Question 6"]}]}, {"conceptId": "", "definition": "The Hamilton Depression Rating Scale - 17 Item test name.", "extensible": "No", "name": "Hamilton Depression Rating Scale - 17 Item Test Name", "preferredTerm": "Hamilton Depression Rating Scale - 17 Item Test Name", "submissionValue": "Hamilton Depression Rating Scale - 17 Item Test Name", "synonyms": ["CDISC Questionnaire HAMD 17 Test Name Terminology"], "terms": [{"conceptId": "C100398", "definition": "Hamilton Depression Rating Scale 17 Item - Depressed mood: sadness, hopeless, helpless, worthless.", "preferredTerm": "HAMD1-Depressed Mood", "submissionValue": "Hamilton Depression Rating Scale - 17 Item Test Name", "synonyms": ["HAMD-17 - Depressed Mood"]}, {"conceptId": "C100399", "definition": "Hamilton Depression Rating Scale 17 Item - Feelings of guilt.", "preferredTerm": "HAMD1-Feelings of Guilt", "submissionValue": "Hamilton Depression Rating Scale - 17 Item Test Name", "synonyms": ["HAMD-17 - Feelings of Guilt"]}, {"conceptId": "C100400", "definition": "Hamilton Depression Rating Scale 17 Item - Suicide.", "preferredTerm": "HAMD1-Suicide", "submissionValue": "Hamilton Depression Rating Scale - 17 Item Test Name", "synonyms": ["HAMD-17 - Suicide"]}, {"conceptId": "C100401", "definition": "Hamilton Depression Rating Scale 17 Item - Insomnia: early in the night.", "preferredTerm": "HAMD1-Insomnia Early - Early Night", "submissionValue": "Hamilton Depression Rating Scale - 17 Item Test Name", "synonyms": ["HAMD-17 - Insomnia - Early Night"]}, {"conceptId": "C100402", "definition": "Hamilton Depression Rating Scale 17 Item - Insomnia: middle of the night.", "preferredTerm": "HAMD1-Insomnia Middle - Middle Night", "submissionValue": "Hamilton Depression Rating Scale - 17 Item Test Name", "synonyms": ["HAMD-17 - Insomnia - Middle Night"]}, {"conceptId": "C100403", "definition": "Hamilton Depression Rating Scale 17 Item - Insomnia: early hours of the morning.", "preferredTerm": "HAMD1-Insomnia Early Hours - Morning", "submissionValue": "Hamilton Depression Rating Scale - 17 Item Test Name", "synonyms": ["HAMD-17 - Insomnia - Early Morning"]}, {"conceptId": "C100404", "definition": "Hamilton Depression Rating Scale 17 Item - Work and activities.", "preferredTerm": "HAMD1-Work and Activities", "submissionValue": "Hamilton Depression Rating Scale - 17 Item Test Name", "synonyms": ["HAMD-17 - Work and Activities"]}, {"conceptId": "C100405", "definition": "Hamilton Depression Rating Scale 17 Item - Retardation.", "preferredTerm": "HAMD1-Retardation", "submissionValue": "Hamilton Depression Rating Scale - 17 Item Test Name", "synonyms": ["HAMD-17 - Retardation"]}, {"conceptId": "C100406", "definition": "Hamilton Depression Rating Scale 17 Item - Agitation.", "preferredTerm": "HAMD1-Agitation", "submissionValue": "Hamilton Depression Rating Scale - 17 Item Test Name", "synonyms": ["HAMD-17 - Agitation"]}, {"conceptId": "C100407", "definition": "Hamilton Depression Rating Scale 17 Item - Anxiety psychic.", "preferredTerm": "HAMD1-Anxiety Psychic", "submissionValue": "Hamilton Depression Rating Scale - 17 Item Test Name", "synonyms": ["HAMD-17 - Psychic Anxiety"]}, {"conceptId": "C100408", "definition": "Hamilton Depression Rating Scale 17 Item - Anxiety somatic: physiological concomitants of anxiety such as gastro-intestinal (dry mouth, wind, indigestion, diarrhea, cramps, belching), cardiovascular, (palpitations, headaches), respiratory (hyperventilation, sighing), urinary frequency, sweating.", "preferredTerm": "HAMD1-Anxiety Somatic", "submissionValue": "Hamilton Depression Rating Scale - 17 Item Test Name", "synonyms": ["HAMD-17 - Somatic Anxiety"]}, {"conceptId": "C100409", "definition": "Hamilton Depression Rating Scale 17 Item - Somatic symptoms gastro-intestinal.", "preferredTerm": "HAMD1-Somatic Symptoms GI", "submissionValue": "Hamilton Depression Rating Scale - 17 Item Test Name", "synonyms": ["HAMD-17 - Gastrointestinal Somatic Symptoms"]}, {"conceptId": "C100410", "definition": "Hamilton Depression Rating Scale 17 Item - General somatic symptoms.", "preferredTerm": "HAMD1-General Somatic Symptoms", "submissionValue": "Hamilton Depression Rating Scale - 17 Item Test Name", "synonyms": ["HAMD-17 - General Somatic Symptoms"]}, {"conceptId": "C100411", "definition": "Hamilton Depression Rating Scale 17 Item - Genital symptoms: symptoms such as loss of libido, menstrual disturbances.", "preferredTerm": "HAMD1-Genital Symptoms", "submissionValue": "Hamilton Depression Rating Scale - 17 Item Test Name", "synonyms": ["HAMD-17 - Genital Symptoms"]}, {"conceptId": "C100412", "definition": "Hamilton Depression Rating Scale 17 Item - Hypochondriasis.", "preferredTerm": "HAMD1-Hypochondriasis", "submissionValue": "Hamilton Depression Rating Scale - 17 Item Test Name", "synonyms": ["HAMD-17 - Hypochondriasis"]}, {"conceptId": "C100413", "definition": "Hamilton Depression Rating Scale 17 Item - Loss of weight according to the patient.", "preferredTerm": "HAMD1-Loss of WT According to Patient", "submissionValue": "Hamilton Depression Rating Scale - 17 Item Test Name", "synonyms": ["HAMD-17 - Loss of Weight According to Patient"]}, {"conceptId": "C100414", "definition": "Hamilton Depression Rating Scale 17 Item - Loss of weight according to weekly measurements.", "preferredTerm": "HAMD1-Loss of WT According to WK Meas", "submissionValue": "Hamilton Depression Rating Scale - 17 Item Test Name", "synonyms": ["HAMD-17 - Loss of Weight According to Weekly Measurements"]}, {"conceptId": "C100415", "definition": "Hamilton Depression Rating Scale 17 Item - Insight.", "preferredTerm": "HAMD1-Insight", "submissionValue": "Hamilton Depression Rating Scale - 17 Item Test Name", "synonyms": ["HAMD-17 - Insight"]}, {"conceptId": "C100416", "definition": "Hamilton Depression Rating Scale 17 Item - Total Score.", "preferredTerm": "HAMD1-Total Score", "submissionValue": "Hamilton Depression Rating Scale - 17 Item Test Name", "synonyms": ["HAMD-17 - Total Score"]}]}, {"conceptId": "", "definition": "The Hamilton Depression Rating Scale - 17 Item test code.", "extensible": "No", "name": "Hamilton Depression Rating Scale - 17 Item Test Code", "preferredTerm": "Hamilton Depression Rating Scale - 17 Item Test Code", "submissionValue": "Hamilton Depression Rating Scale - 17 Item Test Code", "synonyms": ["CDISC Questionnaire HAMD 17 Test Code Terminology"], "terms": [{"conceptId": "C100398", "definition": "Hamilton Depression Rating Scale 17 Item - Depressed mood: sadness, hopeless, helpless, worthless.", "preferredTerm": "HAMD1-Depressed Mood", "submissionValue": "Hamilton Depression Rating Scale - 17 Item Test Code", "synonyms": ["HAMD-17 - Depressed Mood"]}, {"conceptId": "C100399", "definition": "Hamilton Depression Rating Scale 17 Item - Feelings of guilt.", "preferredTerm": "HAMD1-Feelings of Guilt", "submissionValue": "Hamilton Depression Rating Scale - 17 Item Test Code", "synonyms": ["HAMD-17 - Feelings of Guilt"]}, {"conceptId": "C100400", "definition": "Hamilton Depression Rating Scale 17 Item - Suicide.", "preferredTerm": "HAMD1-Suicide", "submissionValue": "Hamilton Depression Rating Scale - 17 Item Test Code", "synonyms": ["HAMD-17 - Suicide"]}, {"conceptId": "C100401", "definition": "Hamilton Depression Rating Scale 17 Item - Insomnia: early in the night.", "preferredTerm": "HAMD1-Insomnia Early - Early Night", "submissionValue": "Hamilton Depression Rating Scale - 17 Item Test Code", "synonyms": ["HAMD-17 - Insomnia - Early Night"]}, {"conceptId": "C100402", "definition": "Hamilton Depression Rating Scale 17 Item - Insomnia: middle of the night.", "preferredTerm": "HAMD1-Insomnia Middle - Middle Night", "submissionValue": "Hamilton Depression Rating Scale - 17 Item Test Code", "synonyms": ["HAMD-17 - Insomnia - Middle Night"]}, {"conceptId": "C100403", "definition": "Hamilton Depression Rating Scale 17 Item - Insomnia: early hours of the morning.", "preferredTerm": "HAMD1-Insomnia Early Hours - Morning", "submissionValue": "Hamilton Depression Rating Scale - 17 Item Test Code", "synonyms": ["HAMD-17 - Insomnia - Early Morning"]}, {"conceptId": "C100404", "definition": "Hamilton Depression Rating Scale 17 Item - Work and activities.", "preferredTerm": "HAMD1-Work and Activities", "submissionValue": "Hamilton Depression Rating Scale - 17 Item Test Code", "synonyms": ["HAMD-17 - Work and Activities"]}, {"conceptId": "C100405", "definition": "Hamilton Depression Rating Scale 17 Item - Retardation.", "preferredTerm": "HAMD1-Retardation", "submissionValue": "Hamilton Depression Rating Scale - 17 Item Test Code", "synonyms": ["HAMD-17 - Retardation"]}, {"conceptId": "C100406", "definition": "Hamilton Depression Rating Scale 17 Item - Agitation.", "preferredTerm": "HAMD1-Agitation", "submissionValue": "Hamilton Depression Rating Scale - 17 Item Test Code", "synonyms": ["HAMD-17 - Agitation"]}, {"conceptId": "C100407", "definition": "Hamilton Depression Rating Scale 17 Item - Anxiety psychic.", "preferredTerm": "HAMD1-Anxiety Psychic", "submissionValue": "Hamilton Depression Rating Scale - 17 Item Test Code", "synonyms": ["HAMD-17 - Psychic Anxiety"]}, {"conceptId": "C100408", "definition": "Hamilton Depression Rating Scale 17 Item - Anxiety somatic: physiological concomitants of anxiety such as gastro-intestinal (dry mouth, wind, indigestion, diarrhea, cramps, belching), cardiovascular, (palpitations, headaches), respiratory (hyperventilation, sighing), urinary frequency, sweating.", "preferredTerm": "HAMD1-Anxiety Somatic", "submissionValue": "Hamilton Depression Rating Scale - 17 Item Test Code", "synonyms": ["HAMD-17 - Somatic Anxiety"]}, {"conceptId": "C100409", "definition": "Hamilton Depression Rating Scale 17 Item - Somatic symptoms gastro-intestinal.", "preferredTerm": "HAMD1-Somatic Symptoms GI", "submissionValue": "Hamilton Depression Rating Scale - 17 Item Test Code", "synonyms": ["HAMD-17 - Gastrointestinal Somatic Symptoms"]}, {"conceptId": "C100410", "definition": "Hamilton Depression Rating Scale 17 Item - General somatic symptoms.", "preferredTerm": "HAMD1-General Somatic Symptoms", "submissionValue": "Hamilton Depression Rating Scale - 17 Item Test Code", "synonyms": ["HAMD-17 - General Somatic Symptoms"]}, {"conceptId": "C100411", "definition": "Hamilton Depression Rating Scale 17 Item - Genital symptoms: symptoms such as loss of libido, menstrual disturbances.", "preferredTerm": "HAMD1-Genital Symptoms", "submissionValue": "Hamilton Depression Rating Scale - 17 Item Test Code", "synonyms": ["HAMD-17 - Genital Symptoms"]}, {"conceptId": "C100412", "definition": "Hamilton Depression Rating Scale 17 Item - Hypochondriasis.", "preferredTerm": "HAMD1-Hypochondriasis", "submissionValue": "Hamilton Depression Rating Scale - 17 Item Test Code", "synonyms": ["HAMD-17 - Hypochondriasis"]}, {"conceptId": "C100413", "definition": "Hamilton Depression Rating Scale 17 Item - Loss of weight according to the patient.", "preferredTerm": "HAMD1-Loss of WT According to Patient", "submissionValue": "Hamilton Depression Rating Scale - 17 Item Test Code", "synonyms": ["HAMD-17 - Loss of Weight According to Patient"]}, {"conceptId": "C100414", "definition": "Hamilton Depression Rating Scale 17 Item - Loss of weight according to weekly measurements.", "preferredTerm": "HAMD1-Loss of WT According to WK Meas", "submissionValue": "Hamilton Depression Rating Scale - 17 Item Test Code", "synonyms": ["HAMD-17 - Loss of Weight According to Weekly Measurements"]}, {"conceptId": "C100415", "definition": "Hamilton Depression Rating Scale 17 Item - Insight.", "preferredTerm": "HAMD1-Insight", "submissionValue": "Hamilton Depression Rating Scale - 17 Item Test Code", "synonyms": ["HAMD-17 - Insight"]}, {"conceptId": "C100416", "definition": "Hamilton Depression Rating Scale 17 Item - Total Score.", "preferredTerm": "HAMD1-Total Score", "submissionValue": "Hamilton Depression Rating Scale - 17 Item Test Code", "synonyms": ["HAMD-17 - Total Score"]}]}, {"conceptId": "", "definition": "The Movement Disorder Society version of the Unified Parkinson's Disease Rating Scale test name.", "extensible": "No", "name": "Movement Disorder Society UPDRS Test Name", "preferredTerm": "Movement Disorder Society UPDRS Test Name", "submissionValue": "Movement Disorder Society UPDRS Test Name", "synonyms": ["CDISC Questionnaire MDS-UPDRS Test Name Terminology"], "terms": [{"conceptId": "C101018", "definition": "The Movement Disorder Society version of the Unified Parkinson's Disease Rating Scale - Over the past week, have you usually had trouble getting out of bed, a car seat, or a deep chair?", "preferredTerm": "UPD2-Get Out of Bed/Car/Deep Chair", "submissionValue": "Movement Disorder Society UPDRS Test Name", "synonyms": ["MDS-UPDRS - Get Out of Bed, Car, or Deep Chair"]}, {"conceptId": "C100473", "definition": "The Movement Disorder Society version of the Unified Parkinson's Disease Rating Scale - Over the past week have you had problems remembering things, following conversations, paying attention, thinking clearly, or finding your way around the house or in town?", "preferredTerm": "UPD2-Cognitive Impairment", "submissionValue": "Movement Disorder Society UPDRS Test Name", "synonyms": ["MDS-UPDRS - Cognitive Impairment"]}, {"conceptId": "C100474", "definition": "The Movement Disorder Society version of the Unified Parkinson's Disease Rating Scale - Over the past week have you seen, heard, smelled or felt things that were not really there?", "preferredTerm": "UPD2-Hallucinations and Psychosis", "submissionValue": "Movement Disorder Society UPDRS Test Name", "synonyms": ["MDS-UPDRS - Hallucinations and Psychosis"]}, {"conceptId": "C100475", "definition": "The Movement Disorder Society version of the Unified Parkinson's Disease Rating Scale - Over the past week have you felt low, sad, hopeless or unable to enjoy things? If yes, was this feeling for longer than one day at a time? Did it make it difficult for you carry out your usual activities or to be with people?", "preferredTerm": "UPD2-Depressed Mood", "submissionValue": "Movement Disorder Society UPDRS Test Name", "synonyms": ["MDS-UPDRS - Depressed Mood"]}, {"conceptId": "C100476", "definition": "The Movement Disorder Society version of the Unified Parkinson's Disease Rating Scale - Over the past week have you felt nervous, worried or tense? If yes, was this feeling for longer than one day at a time? Did it make it difficult for you to follow your usual activities or to be with other people?", "preferredTerm": "UPD2-Anxious Mood", "submissionValue": "Movement Disorder Society UPDRS Test Name", "synonyms": ["MDS-UPDRS - Anxious Mood"]}, {"conceptId": "C100477", "definition": "The Movement Disorder Society version of the Unified Parkinson's Disease Rating Scale - Over the past week, have you felt indifferent to doing activities or being with people?", "preferredTerm": "UPD2-Apathy", "submissionValue": "Movement Disorder Society UPDRS Test Name", "synonyms": ["MDS-UPDRS - Apathy"]}, {"conceptId": "C100478", "definition": "The Movement Disorder Society version of the Unified Parkinson's Disease Rating Scale - Over the past week, have you had unusually strong urges that are hard to control? Do you feel driven to do or think about something and find it hard to stop?", "preferredTerm": "UPD2-Ftrs Dopa Dysregulation Synd", "submissionValue": "Movement Disorder Society UPDRS Test Name", "synonyms": ["MDS-UPDRS - Features of Dopamine Dysregulation Syndrome"]}, {"conceptId": "C100479", "definition": "The Movement Disorder Society version of the Unified Parkinson's Disease Rating Scale - Over the past week, have you had trouble going to sleep at night or staying asleep through the night?", "preferredTerm": "UPD2-Sleep Problems", "submissionValue": "Movement Disorder Society UPDRS Test Name", "synonyms": ["MDS-UPDRS - Sleep Problems"]}, {"conceptId": "C100480", "definition": "The Movement Disorder Society version of the Unified Parkinson's Disease Rating Scale - Over the past week, have you had trouble staying awake during the daytime?", "preferredTerm": "UPD2-Daytime Sleepiness", "submissionValue": "Movement Disorder Society UPDRS Test Name", "synonyms": ["MDS-UPDRS - Daytime Sleepiness"]}, {"conceptId": "C100481", "definition": "The Movement Disorder Society version of the Unified Parkinson's Disease Rating Scale - Over the past week, have you had uncomfortable feelings in your body like pain, aches tingling or cramps?", "preferredTerm": "UPD2-Pain and other Sensations", "submissionValue": "Movement Disorder Society UPDRS Test Name", "synonyms": ["MDS-UPDRS - Pain and Other Sensations"]}, {"conceptId": "C100482", "definition": "The Movement Disorder Society version of the Unified Parkinson's Disease Rating Scale - Over the past week, have you had trouble with urine control?", "preferredTerm": "UPD2-Urinary Problems", "submissionValue": "Movement Disorder Society UPDRS Test Name", "synonyms": ["MDS-UPDRS - Urinary Problems"]}, {"conceptId": "C100483", "definition": "The Movement Disorder Society version of the Unified Parkinson's Disease Rating Scale - Over the past week have you had constipation troubles that cause you difficulty moving your bowels?", "preferredTerm": "UPD2-Constipation Problems", "submissionValue": "Movement Disorder Society UPDRS Test Name", "synonyms": ["MDS-UPDRS - Constipation Problems"]}, {"conceptId": "C100484", "definition": "The Movement Disorder Society version of the Unified Parkinson's Disease Rating Scale - Over the past week, have you felt faint, dizzy or foggy when you stand up after sitting or lying down?", "preferredTerm": "UPD2-Lightheadedness on Standing", "submissionValue": "Movement Disorder Society UPDRS Test Name", "synonyms": ["MDS-UPDRS - Lightheadedness on Standing"]}, {"conceptId": "C100485", "definition": "The Movement Disorder Society version of the Unified Parkinson's Disease Rating Scale - Over the past week, have you usually felt fatigued?", "preferredTerm": "UPD2-Fatigue", "submissionValue": "Movement Disorder Society UPDRS Test Name", "synonyms": ["MDS-UPDRS - Fatigue"]}, {"conceptId": "C100486", "definition": "The Movement Disorder Society version of the Unified Parkinson's Disease Rating Scale - Over the past week, have you had problems with your speech?", "preferredTerm": "UPD2-Speech", "submissionValue": "Movement Disorder Society UPDRS Test Name", "synonyms": ["MDS-UPDRS - Speech"]}, {"conceptId": "C100487", "definition": "The Movement Disorder Society version of the Unified Parkinson's Disease Rating Scale - Over the past week, have you usually had too much saliva during when you are awake or when you sleep?", "preferredTerm": "UPD2-Saliva and Drooling", "submissionValue": "Movement Disorder Society UPDRS Test Name", "synonyms": ["MDS-UPDRS - Saliva and Drooling"]}, {"conceptId": "C100488", "definition": "The Movement Disorder Society version of the Unified Parkinson's Disease Rating Scale - Over the past week, have you usually had problems swallowing pills or eating meals?", "preferredTerm": "UPD2-Chewing and Swallowing", "submissionValue": "Movement Disorder Society UPDRS Test Name", "synonyms": ["MDS-UPDRS - Chewing and Swallowing"]}, {"conceptId": "C100489", "definition": "The Movement Disorder Society version of the Unified Parkinson's Disease Rating Scale - Over the past week, have you usually had troubles handling your food and using eating utensils?", "preferredTerm": "UPD2-Eating Tasks", "submissionValue": "Movement Disorder Society UPDRS Test Name", "synonyms": ["MDS-UPDRS - Eating Tasks"]}, {"conceptId": "C100490", "definition": "The Movement Disorder Society version of the Unified Parkinson's Disease Rating Scale - Over the past week, have you usually had problems dressing?", "preferredTerm": "UPD2-Dressing", "submissionValue": "Movement Disorder Society UPDRS Test Name", "synonyms": ["MDS-UPDRS - Dressing"]}, {"conceptId": "C100491", "definition": "The Movement Disorder Society version of the Unified Parkinson's Disease Rating Scale - Over the past week, have you usually been slow or do you need help with washing, bathing, shaving, brushing teeth, combing your hair or with other personal hygiene?", "preferredTerm": "UPD2-Hygiene", "submissionValue": "Movement Disorder Society UPDRS Test Name", "synonyms": ["MDS-UPDRS - Hygiene"]}, {"conceptId": "C100492", "definition": "The Movement Disorder Society version of the Unified Parkinson's Disease Rating Scale - Over the past week, have people usually had trouble reading your handwriting?", "preferredTerm": "UPD2-Handwriting", "submissionValue": "Movement Disorder Society UPDRS Test Name", "synonyms": ["MDS-UPDRS - Handwriting"]}, {"conceptId": "C100493", "definition": "The Movement Disorder Society version of the Unified Parkinson's Disease Rating Scale - Over the past week, have you usually had trouble doing your hobbies or other things that you like to do?", "preferredTerm": "UPD2-Doing Hobbies/Other Activities", "submissionValue": "Movement Disorder Society UPDRS Test Name", "synonyms": ["MDS-UPDRS - Doing Hobbies and Other Activities"]}, {"conceptId": "C100494", "definition": "The Movement Disorder Society version of the Unified Parkinson's Disease Rating Scale - Over the past week, do you usually have trouble turning over in bed?", "preferredTerm": "UPD2-Turning in Bed", "submissionValue": "Movement Disorder Society UPDRS Test Name", "synonyms": ["MDS-UPDRS - Turning in Bed"]}, {"conceptId": "C100495", "definition": "The Movement Disorder Society version of the Unified Parkinson's Disease Rating Scale - Over the past week, have you usually had shaking or tremor?", "preferredTerm": "UPD2-Tremor", "submissionValue": "Movement Disorder Society UPDRS Test Name", "synonyms": ["MDS-UPDRS - Tremor"]}, {"conceptId": "C100496", "definition": "The Movement Disorder Society version of the Unified Parkinson's Disease Rating Scale - Over the past week, have you usually had problems with balance and walking?", "preferredTerm": "UPD2-Walking and Balance", "submissionValue": "Movement Disorder Society UPDRS Test Name", "synonyms": ["MDS-UPDRS - Walking and Balance"]}, {"conceptId": "C100497", "definition": "The Movement Disorder Society version of the Unified Parkinson's Disease Rating Scale - Over the past week, on your usual day when walking, do you suddenly stop or freeze as if your feet are stuck to the floor?", "preferredTerm": "UPD2-Freezing", "submissionValue": "Movement Disorder Society UPDRS Test Name", "synonyms": ["MDS-UPDRS - Freezing"]}, {"conceptId": "C100498", "definition": "The Movement Disorder Society version of the Unified Parkinson's Disease Rating Scale - Is the patient on medication for treating the symptoms of Parkinson's Disease?", "preferredTerm": "UPD2-Medication for PD", "submissionValue": "Movement Disorder Society UPDRS Test Name", "synonyms": ["MDS-UPDRS - Medication for Parkinson's Disease"]}, {"conceptId": "C100499", "definition": "The Movement Disorder Society version of the Unified Parkinson's Disease Rating Scale - If the patient is receiving medication for treating the symptoms of Parkinson's Disease, mark the patient's clinical state.", "preferredTerm": "UPD2-Clinical State on Meds", "submissionValue": "Movement Disorder Society UPDRS Test Name", "synonyms": ["MDS-UPDRS - Clinical State on Medication"]}, {"conceptId": "C100500", "definition": "The Movement Disorder Society version of the Unified Parkinson's Disease Rating Scale - Is the patient on Levodopa?", "preferredTerm": "UPD2-Taking Levodopa", "submissionValue": "Movement Disorder Society UPDRS Test Name", "synonyms": ["MDS-UPDRS - Taking Levodopa"]}, {"conceptId": "C100501", "definition": "The Movement Disorder Society version of the Unified Parkinson's Disease Rating Scale - Minutes since last Levodopa dose.", "preferredTerm": "UPD2-Minutes Since Levodopa Dose", "submissionValue": "Movement Disorder Society UPDRS Test Name", "synonyms": ["MDS-UPDRS - Minutes Since Levodopa Dose"]}, {"conceptId": "C100502", "definition": "The Movement Disorder Society version of the Unified Parkinson's Disease Rating Scale - Speech Problems.", "preferredTerm": "UPD2-Speech Problems", "submissionValue": "Movement Disorder Society UPDRS Test Name", "synonyms": ["MDS-UPDRS - Speech Problems"]}, {"conceptId": "C100503", "definition": "The Movement Disorder Society version of the Unified Parkinson's Disease Rating Scale - Facial Expression.", "preferredTerm": "UPD2-Facial Expression", "submissionValue": "Movement Disorder Society UPDRS Test Name", "synonyms": ["MDS-UPDRS - Facial Expression"]}, {"conceptId": "C100504", "definition": "The Movement Disorder Society version of the Unified Parkinson's Disease Rating Scale - Rigidity Neck.", "preferredTerm": "UPD2-Rigidity Neck", "submissionValue": "Movement Disorder Society UPDRS Test Name", "synonyms": ["MDS-UPDRS - Rigidity Neck"]}, {"conceptId": "C100505", "definition": "The Movement Disorder Society version of the Unified Parkinson's Disease Rating Scale - Rigidity Right Upper Extremity.", "preferredTerm": "UPD2-Rigidity RT Upper Extremity", "submissionValue": "Movement Disorder Society UPDRS Test Name", "synonyms": ["MDS-UPDRS - Rigidity Right Upper Extremity"]}, {"conceptId": "C100506", "definition": "The Movement Disorder Society version of the Unified Parkinson's Disease Rating Scale - Rigidity Left Upper Extremity.", "preferredTerm": "UPD2-Rigidity Left Upper Extremity", "submissionValue": "Movement Disorder Society UPDRS Test Name", "synonyms": ["MDS-UPDRS - Rigidity Left Upper Extremity"]}, {"conceptId": "C100507", "definition": "The Movement Disorder Society version of the Unified Parkinson's Disease Rating Scale - Rigidity Right Lower Extremity.", "preferredTerm": "UPD2-Rigidity RT Lower Extremity", "submissionValue": "Movement Disorder Society UPDRS Test Name", "synonyms": ["MDS-UPDRS - Rigidity Right Lower Extremity"]}, {"conceptId": "C100508", "definition": "The Movement Disorder Society version of the Unified Parkinson's Disease Rating Scale - Rigidity Left Lower Extremity.", "preferredTerm": "UPD2-Rigidity Left Lower Extremity", "submissionValue": "Movement Disorder Society UPDRS Test Name", "synonyms": ["MDS-UPDRS - Rigidity Left Lower Extremity"]}, {"conceptId": "C100509", "definition": "The Movement Disorder Society version of the Unified Parkinson's Disease Rating Scale - Right Finger Tapping.", "preferredTerm": "UPD2-Right Finger Tapping", "submissionValue": "Movement Disorder Society UPDRS Test Name", "synonyms": ["MDS-UPDRS - Right Finger Tapping"]}, {"conceptId": "C100510", "definition": "The Movement Disorder Society version of the Unified Parkinson's Disease Rating Scale - Left Finger Tapping.", "preferredTerm": "UPD2-Left Finger Tapping", "submissionValue": "Movement Disorder Society UPDRS Test Name", "synonyms": ["MDS-UPDRS - Left Finger Tapping"]}, {"conceptId": "C100511", "definition": "The Movement Disorder Society version of the Unified Parkinson's Disease Rating Scale - Right Hand Movements.", "preferredTerm": "UPD2-Right Hand Movements", "submissionValue": "Movement Disorder Society UPDRS Test Name", "synonyms": ["MDS-UPDRS - Right Hand Movements"]}, {"conceptId": "C100512", "definition": "The Movement Disorder Society version of the Unified Parkinson's Disease Rating Scale - Left Hand Movements.", "preferredTerm": "UPD2-Left Hand Movements", "submissionValue": "Movement Disorder Society UPDRS Test Name", "synonyms": ["MDS-UPDRS - Left Hand Movements"]}, {"conceptId": "C100513", "definition": "The Movement Disorder Society version of the Unified Parkinson's Disease Rating Scale - Pronation-Supination Movements of Right Hand.", "preferredTerm": "UPD2-Pron/Sup Movement of RT Hand", "submissionValue": "Movement Disorder Society UPDRS Test Name", "synonyms": ["MDS-UPDRS - Pronanation-Supination Movement of Right Hand"]}, {"conceptId": "C100514", "definition": "The Movement Disorder Society version of the Unified Parkinson's Disease Rating Scale - Pronation-Supination Movements of Left Hand.", "preferredTerm": "UPD2-Pron/Sup Movement of Left Hand", "submissionValue": "Movement Disorder Society UPDRS Test Name", "synonyms": ["MDS-UPDRS - Pronanation-Supination Movement of Left Hand"]}, {"conceptId": "C100515", "definition": "The Movement Disorder Society version of the Unified Parkinson's Disease Rating Scale - Right Toe Tapping.", "preferredTerm": "UPD2-Right Toe Tapping", "submissionValue": "Movement Disorder Society UPDRS Test Name", "synonyms": ["MDS-UPDRS - Right Toe Tapping"]}, {"conceptId": "C100516", "definition": "The Movement Disorder Society version of the Unified Parkinson's Disease Rating Scale - Left Toe Tapping.", "preferredTerm": "UPD2-Left Toe Tapping", "submissionValue": "Movement Disorder Society UPDRS Test Name", "synonyms": ["MDS-UPDRS - Left Toe Tapping"]}, {"conceptId": "C100517", "definition": "The Movement Disorder Society version of the Unified Parkinson's Disease Rating Scale - Right Leg Agility.", "preferredTerm": "UPD2-Right Leg Agility", "submissionValue": "Movement Disorder Society UPDRS Test Name", "synonyms": ["MDS-UPDRS - Right Leg Agility"]}, {"conceptId": "C100518", "definition": "The Movement Disorder Society version of the Unified Parkinson's Disease Rating Scale - Left Leg Agility.", "preferredTerm": "UPD2-Left Leg Agility", "submissionValue": "Movement Disorder Society UPDRS Test Name", "synonyms": ["MDS-UPDRS - Left Leg Agility"]}, {"conceptId": "C100519", "definition": "The Movement Disorder Society version of the Unified Parkinson's Disease Rating Scale - Arising from Chair.", "preferredTerm": "UPD2-Arising from Chair", "submissionValue": "Movement Disorder Society UPDRS Test Name", "synonyms": ["MDS-UPDRS - Arising from Chair"]}, {"conceptId": "C100520", "definition": "The Movement Disorder Society version of the Unified Parkinson's Disease Rating Scale - Gait.", "preferredTerm": "UPD2-Gait", "submissionValue": "Movement Disorder Society UPDRS Test Name", "synonyms": ["MDS-UPDRS - Gait"]}, {"conceptId": "C100521", "definition": "The Movement Disorder Society version of the Unified Parkinson's Disease Rating Scale - Freezing of Gait.", "preferredTerm": "UPD2-Freezing of Gait", "submissionValue": "Movement Disorder Society UPDRS Test Name", "synonyms": ["MDS-UPDRS - Freezing of Gait"]}, {"conceptId": "C100522", "definition": "The Movement Disorder Society version of the Unified Parkinson's Disease Rating Scale - Postural Stability.", "preferredTerm": "UPD2-Postural Stability", "submissionValue": "Movement Disorder Society UPDRS Test Name", "synonyms": ["MDS-UPDRS - Postural Stability"]}, {"conceptId": "C100523", "definition": "The Movement Disorder Society version of the Unified Parkinson's Disease Rating Scale - Posture.", "preferredTerm": "UPD2-Posture", "submissionValue": "Movement Disorder Society UPDRS Test Name", "synonyms": ["MDS-UPDRS - Posture"]}, {"conceptId": "C100524", "definition": "The Movement Disorder Society version of the Unified Parkinson's Disease Rating Scale - Global Spontaneity of Movement (Body Bradykinesia).", "preferredTerm": "UPD2-Body Bradykinesia", "submissionValue": "Movement Disorder Society UPDRS Test Name", "synonyms": ["MDS-UPDRS - Body Bradykinesia"]}, {"conceptId": "C100525", "definition": "The Movement Disorder Society version of the Unified Parkinson's Disease Rating Scale - Postural Tremor of the Right Hand.", "preferredTerm": "UPD2-Postural Tremor of Right Hand", "submissionValue": "Movement Disorder Society UPDRS Test Name", "synonyms": ["MDS-UPDRS - Postural Tremor of Right Hand"]}, {"conceptId": "C100526", "definition": "The Movement Disorder Society version of the Unified Parkinson's Disease Rating Scale - Kinetic Tremor of the Left Hand.", "preferredTerm": "UPD2-Kinetic Tremor of Left Hand", "submissionValue": "Movement Disorder Society UPDRS Test Name", "synonyms": ["MDS-UPDRS - Kinetic Tremor of Left Hand"]}, {"conceptId": "C100527", "definition": "The Movement Disorder Society version of the Unified Parkinson's Disease Rating Scale - Rest Tremor Amplitude Right Upper Extremity.", "preferredTerm": "UPD2-Rest Tremor Amplitude RUE", "submissionValue": "Movement Disorder Society UPDRS Test Name", "synonyms": ["MDS-UPDRS - Rest Tremor Amplitude Right Upper Extremity"]}, {"conceptId": "C100528", "definition": "The Movement Disorder Society version of the Unified Parkinson's Disease Rating Scale - Rest Tremor Amplitude Left Upper Extremity.", "preferredTerm": "UPD2-Rest Tremor Amplitude LUE", "submissionValue": "Movement Disorder Society UPDRS Test Name", "synonyms": ["MDS-UPDRS - Rest Tremor Amplitude Left Upper Extremity"]}, {"conceptId": "C100529", "definition": "The Movement Disorder Society version of the Unified Parkinson's Disease Rating Scale - Rest Tremor Amplitude Right Lower Extremity.", "preferredTerm": "UPD2-Rest Tremor Amplitude RLE", "submissionValue": "Movement Disorder Society UPDRS Test Name", "synonyms": ["MDS-UPDRS - Rest Tremor Amplitude Right Lower Extremity"]}, {"conceptId": "C100530", "definition": "The Movement Disorder Society version of the Unified Parkinson's Disease Rating Scale - Rest Tremor Amplitude Left Lower Extremity.", "preferredTerm": "UPD2-Rest Tremor Amplitude LLE", "submissionValue": "Movement Disorder Society UPDRS Test Name", "synonyms": ["MDS-UPDRS - Rest Tremor Amplitude Left Lower Extremity"]}, {"conceptId": "C100531", "definition": "The Movement Disorder Society version of the Unified Parkinson's Disease Rating Scale - Rest Tremor Amplitude Lip/Jaw.", "preferredTerm": "UPD2-Rest Tremor Amplitude Lip/Jaw", "submissionValue": "Movement Disorder Society UPDRS Test Name", "synonyms": ["MDS-UPDRS - Rest Tremor Amplitude Lip or Jaw"]}, {"conceptId": "C100532", "definition": "The Movement Disorder Society version of the Unified Parkinson's Disease Rating Scale - Consistency of Rest Tremor.", "preferredTerm": "UPD2-Consistency of Rest Tremor", "submissionValue": "Movement Disorder Society UPDRS Test Name", "synonyms": ["MDS-UPDRS - Consistency of Rest Tremor"]}, {"conceptId": "C100533", "definition": "The Movement Disorder Society version of the Unified Parkinson's Disease Rating Scale - Were dyskinesias (chorea or dystonia) present during examination?", "preferredTerm": "UPD2-Dyskinesias During Exam", "submissionValue": "Movement Disorder Society UPDRS Test Name", "synonyms": ["MDS-UPDRS - Dyskinesias During Exam"]}, {"conceptId": "C100534", "definition": "The Movement Disorder Society version of the Unified Parkinson's Disease Rating Scale - If yes, did these movements interfere with your ratings?", "preferredTerm": "UPD2-Movements Interfere Ratings", "submissionValue": "Movement Disorder Society UPDRS Test Name", "synonyms": ["MDS-UPDRS - Movements Interfere with Ratings"]}, {"conceptId": "C100535", "definition": "The Movement Disorder Society version of the Unified Parkinson's Disease Rating Scale - Hoehn and Yahr Stage.", "preferredTerm": "UPD2-Hoehn and Yahr Stage", "submissionValue": "Movement Disorder Society UPDRS Test Name", "synonyms": ["MDS-UPDRS - Hoehn and Yahr Stage"]}, {"conceptId": "C100536", "definition": "The Movement Disorder Society version of the Unified Parkinson's Disease Rating Scale - Time Spent with Dyskinesias.", "preferredTerm": "UPD2-Time Spent with Dyskinesias", "submissionValue": "Movement Disorder Society UPDRS Test Name", "synonyms": ["MDS-UPDRS - Time Spent with Dyskinesias"]}, {"conceptId": "C100537", "definition": "The Movement Disorder Society version of the Unified Parkinson's Disease Rating Scale - Functional Impact of Dyskinesias.", "preferredTerm": "UPD2-Functional Impact Dyskinesias", "submissionValue": "Movement Disorder Society UPDRS Test Name", "synonyms": ["MDS-UPDRS - Functional Impact of Dyskinesias"]}, {"conceptId": "C100538", "definition": "The Movement Disorder Society version of the Unified Parkinson's Disease Rating Scale - Time Spent in the Off State.", "preferredTerm": "UPD2-Time Spent in the Off State", "submissionValue": "Movement Disorder Society UPDRS Test Name", "synonyms": ["MDS-UPDRS - Time Spent in the Off State"]}, {"conceptId": "C100539", "definition": "The Movement Disorder Society version of the Unified Parkinson's Disease Rating Scale - Functional Impact of Fluctuations.", "preferredTerm": "UPD2-Functional Impact Fluctuations", "submissionValue": "Movement Disorder Society UPDRS Test Name", "synonyms": ["MDS-UPDRS - Functional Impact of Fluctuations"]}, {"conceptId": "C100540", "definition": "The Movement Disorder Society version of the Unified Parkinson's Disease Rating Scale - Complexity of Motor Fluctuations.", "preferredTerm": "UPD2-Complexity Motor Fluctuations", "submissionValue": "Movement Disorder Society UPDRS Test Name", "synonyms": ["MDS-UPDRS - Complexity of Motor Fluctuations"]}, {"conceptId": "C100541", "definition": "The Movement Disorder Society version of the Unified Parkinson's Disease Rating Scale - Painful Off-state Dystonia.", "preferredTerm": "UPD2-Painful Off-state Dystonia", "submissionValue": "Movement Disorder Society UPDRS Test Name", "synonyms": ["MDS-UPDRS - Painful Off-state Dystonia"]}]}, {"conceptId": "", "definition": "The Movement Disorder Society version of the Unified Parkinson's Disease Rating Scale test code.", "extensible": "No", "name": "Movement Disorder Society UPDRS Test Code", "preferredTerm": "Movement Disorder Society UPDRS Test Code", "submissionValue": "Movement Disorder Society UPDRS Test Code", "synonyms": ["CDISC Questionnaire MDS-UPDRS Test Code Terminology"], "terms": [{"conceptId": "C101018", "definition": "The Movement Disorder Society version of the Unified Parkinson's Disease Rating Scale - Over the past week, have you usually had trouble getting out of bed, a car seat, or a deep chair?", "preferredTerm": "UPD2-Get Out of Bed/Car/Deep Chair", "submissionValue": "Movement Disorder Society UPDRS Test Code", "synonyms": ["MDS-UPDRS - Get Out of Bed, Car, or Deep Chair"]}, {"conceptId": "C100473", "definition": "The Movement Disorder Society version of the Unified Parkinson's Disease Rating Scale - Over the past week have you had problems remembering things, following conversations, paying attention, thinking clearly, or finding your way around the house or in town?", "preferredTerm": "UPD2-Cognitive Impairment", "submissionValue": "Movement Disorder Society UPDRS Test Code", "synonyms": ["MDS-UPDRS - Cognitive Impairment"]}, {"conceptId": "C100474", "definition": "The Movement Disorder Society version of the Unified Parkinson's Disease Rating Scale - Over the past week have you seen, heard, smelled or felt things that were not really there?", "preferredTerm": "UPD2-Hallucinations and Psychosis", "submissionValue": "Movement Disorder Society UPDRS Test Code", "synonyms": ["MDS-UPDRS - Hallucinations and Psychosis"]}, {"conceptId": "C100475", "definition": "The Movement Disorder Society version of the Unified Parkinson's Disease Rating Scale - Over the past week have you felt low, sad, hopeless or unable to enjoy things? If yes, was this feeling for longer than one day at a time? Did it make it difficult for you carry out your usual activities or to be with people?", "preferredTerm": "UPD2-Depressed Mood", "submissionValue": "Movement Disorder Society UPDRS Test Code", "synonyms": ["MDS-UPDRS - Depressed Mood"]}, {"conceptId": "C100476", "definition": "The Movement Disorder Society version of the Unified Parkinson's Disease Rating Scale - Over the past week have you felt nervous, worried or tense? If yes, was this feeling for longer than one day at a time? Did it make it difficult for you to follow your usual activities or to be with other people?", "preferredTerm": "UPD2-Anxious Mood", "submissionValue": "Movement Disorder Society UPDRS Test Code", "synonyms": ["MDS-UPDRS - Anxious Mood"]}, {"conceptId": "C100477", "definition": "The Movement Disorder Society version of the Unified Parkinson's Disease Rating Scale - Over the past week, have you felt indifferent to doing activities or being with people?", "preferredTerm": "UPD2-Apathy", "submissionValue": "Movement Disorder Society UPDRS Test Code", "synonyms": ["MDS-UPDRS - Apathy"]}, {"conceptId": "C100478", "definition": "The Movement Disorder Society version of the Unified Parkinson's Disease Rating Scale - Over the past week, have you had unusually strong urges that are hard to control? Do you feel driven to do or think about something and find it hard to stop?", "preferredTerm": "UPD2-Ftrs Dopa Dysregulation Synd", "submissionValue": "Movement Disorder Society UPDRS Test Code", "synonyms": ["MDS-UPDRS - Features of Dopamine Dysregulation Syndrome"]}, {"conceptId": "C100479", "definition": "The Movement Disorder Society version of the Unified Parkinson's Disease Rating Scale - Over the past week, have you had trouble going to sleep at night or staying asleep through the night?", "preferredTerm": "UPD2-Sleep Problems", "submissionValue": "Movement Disorder Society UPDRS Test Code", "synonyms": ["MDS-UPDRS - Sleep Problems"]}, {"conceptId": "C100480", "definition": "The Movement Disorder Society version of the Unified Parkinson's Disease Rating Scale - Over the past week, have you had trouble staying awake during the daytime?", "preferredTerm": "UPD2-Daytime Sleepiness", "submissionValue": "Movement Disorder Society UPDRS Test Code", "synonyms": ["MDS-UPDRS - Daytime Sleepiness"]}, {"conceptId": "C100481", "definition": "The Movement Disorder Society version of the Unified Parkinson's Disease Rating Scale - Over the past week, have you had uncomfortable feelings in your body like pain, aches tingling or cramps?", "preferredTerm": "UPD2-Pain and other Sensations", "submissionValue": "Movement Disorder Society UPDRS Test Code", "synonyms": ["MDS-UPDRS - Pain and Other Sensations"]}, {"conceptId": "C100482", "definition": "The Movement Disorder Society version of the Unified Parkinson's Disease Rating Scale - Over the past week, have you had trouble with urine control?", "preferredTerm": "UPD2-Urinary Problems", "submissionValue": "Movement Disorder Society UPDRS Test Code", "synonyms": ["MDS-UPDRS - Urinary Problems"]}, {"conceptId": "C100483", "definition": "The Movement Disorder Society version of the Unified Parkinson's Disease Rating Scale - Over the past week have you had constipation troubles that cause you difficulty moving your bowels?", "preferredTerm": "UPD2-Constipation Problems", "submissionValue": "Movement Disorder Society UPDRS Test Code", "synonyms": ["MDS-UPDRS - Constipation Problems"]}, {"conceptId": "C100484", "definition": "The Movement Disorder Society version of the Unified Parkinson's Disease Rating Scale - Over the past week, have you felt faint, dizzy or foggy when you stand up after sitting or lying down?", "preferredTerm": "UPD2-Lightheadedness on Standing", "submissionValue": "Movement Disorder Society UPDRS Test Code", "synonyms": ["MDS-UPDRS - Lightheadedness on Standing"]}, {"conceptId": "C100485", "definition": "The Movement Disorder Society version of the Unified Parkinson's Disease Rating Scale - Over the past week, have you usually felt fatigued?", "preferredTerm": "UPD2-Fatigue", "submissionValue": "Movement Disorder Society UPDRS Test Code", "synonyms": ["MDS-UPDRS - Fatigue"]}, {"conceptId": "C100486", "definition": "The Movement Disorder Society version of the Unified Parkinson's Disease Rating Scale - Over the past week, have you had problems with your speech?", "preferredTerm": "UPD2-Speech", "submissionValue": "Movement Disorder Society UPDRS Test Code", "synonyms": ["MDS-UPDRS - Speech"]}, {"conceptId": "C100487", "definition": "The Movement Disorder Society version of the Unified Parkinson's Disease Rating Scale - Over the past week, have you usually had too much saliva during when you are awake or when you sleep?", "preferredTerm": "UPD2-Saliva and Drooling", "submissionValue": "Movement Disorder Society UPDRS Test Code", "synonyms": ["MDS-UPDRS - Saliva and Drooling"]}, {"conceptId": "C100488", "definition": "The Movement Disorder Society version of the Unified Parkinson's Disease Rating Scale - Over the past week, have you usually had problems swallowing pills or eating meals?", "preferredTerm": "UPD2-Chewing and Swallowing", "submissionValue": "Movement Disorder Society UPDRS Test Code", "synonyms": ["MDS-UPDRS - Chewing and Swallowing"]}, {"conceptId": "C100489", "definition": "The Movement Disorder Society version of the Unified Parkinson's Disease Rating Scale - Over the past week, have you usually had troubles handling your food and using eating utensils?", "preferredTerm": "UPD2-Eating Tasks", "submissionValue": "Movement Disorder Society UPDRS Test Code", "synonyms": ["MDS-UPDRS - Eating Tasks"]}, {"conceptId": "C100490", "definition": "The Movement Disorder Society version of the Unified Parkinson's Disease Rating Scale - Over the past week, have you usually had problems dressing?", "preferredTerm": "UPD2-Dressing", "submissionValue": "Movement Disorder Society UPDRS Test Code", "synonyms": ["MDS-UPDRS - Dressing"]}, {"conceptId": "C100491", "definition": "The Movement Disorder Society version of the Unified Parkinson's Disease Rating Scale - Over the past week, have you usually been slow or do you need help with washing, bathing, shaving, brushing teeth, combing your hair or with other personal hygiene?", "preferredTerm": "UPD2-Hygiene", "submissionValue": "Movement Disorder Society UPDRS Test Code", "synonyms": ["MDS-UPDRS - Hygiene"]}, {"conceptId": "C100492", "definition": "The Movement Disorder Society version of the Unified Parkinson's Disease Rating Scale - Over the past week, have people usually had trouble reading your handwriting?", "preferredTerm": "UPD2-Handwriting", "submissionValue": "Movement Disorder Society UPDRS Test Code", "synonyms": ["MDS-UPDRS - Handwriting"]}, {"conceptId": "C100493", "definition": "The Movement Disorder Society version of the Unified Parkinson's Disease Rating Scale - Over the past week, have you usually had trouble doing your hobbies or other things that you like to do?", "preferredTerm": "UPD2-Doing Hobbies/Other Activities", "submissionValue": "Movement Disorder Society UPDRS Test Code", "synonyms": ["MDS-UPDRS - Doing Hobbies and Other Activities"]}, {"conceptId": "C100494", "definition": "The Movement Disorder Society version of the Unified Parkinson's Disease Rating Scale - Over the past week, do you usually have trouble turning over in bed?", "preferredTerm": "UPD2-Turning in Bed", "submissionValue": "Movement Disorder Society UPDRS Test Code", "synonyms": ["MDS-UPDRS - Turning in Bed"]}, {"conceptId": "C100495", "definition": "The Movement Disorder Society version of the Unified Parkinson's Disease Rating Scale - Over the past week, have you usually had shaking or tremor?", "preferredTerm": "UPD2-Tremor", "submissionValue": "Movement Disorder Society UPDRS Test Code", "synonyms": ["MDS-UPDRS - Tremor"]}, {"conceptId": "C100496", "definition": "The Movement Disorder Society version of the Unified Parkinson's Disease Rating Scale - Over the past week, have you usually had problems with balance and walking?", "preferredTerm": "UPD2-Walking and Balance", "submissionValue": "Movement Disorder Society UPDRS Test Code", "synonyms": ["MDS-UPDRS - Walking and Balance"]}, {"conceptId": "C100497", "definition": "The Movement Disorder Society version of the Unified Parkinson's Disease Rating Scale - Over the past week, on your usual day when walking, do you suddenly stop or freeze as if your feet are stuck to the floor?", "preferredTerm": "UPD2-Freezing", "submissionValue": "Movement Disorder Society UPDRS Test Code", "synonyms": ["MDS-UPDRS - Freezing"]}, {"conceptId": "C100498", "definition": "The Movement Disorder Society version of the Unified Parkinson's Disease Rating Scale - Is the patient on medication for treating the symptoms of Parkinson's Disease?", "preferredTerm": "UPD2-Medication for PD", "submissionValue": "Movement Disorder Society UPDRS Test Code", "synonyms": ["MDS-UPDRS - Medication for Parkinson's Disease"]}, {"conceptId": "C100499", "definition": "The Movement Disorder Society version of the Unified Parkinson's Disease Rating Scale - If the patient is receiving medication for treating the symptoms of Parkinson's Disease, mark the patient's clinical state.", "preferredTerm": "UPD2-Clinical State on Meds", "submissionValue": "Movement Disorder Society UPDRS Test Code", "synonyms": ["MDS-UPDRS - Clinical State on Medication"]}, {"conceptId": "C100500", "definition": "The Movement Disorder Society version of the Unified Parkinson's Disease Rating Scale - Is the patient on Levodopa?", "preferredTerm": "UPD2-Taking Levodopa", "submissionValue": "Movement Disorder Society UPDRS Test Code", "synonyms": ["MDS-UPDRS - Taking Levodopa"]}, {"conceptId": "C100501", "definition": "The Movement Disorder Society version of the Unified Parkinson's Disease Rating Scale - Minutes since last Levodopa dose.", "preferredTerm": "UPD2-Minutes Since Levodopa Dose", "submissionValue": "Movement Disorder Society UPDRS Test Code", "synonyms": ["MDS-UPDRS - Minutes Since Levodopa Dose"]}, {"conceptId": "C100502", "definition": "The Movement Disorder Society version of the Unified Parkinson's Disease Rating Scale - Speech Problems.", "preferredTerm": "UPD2-Speech Problems", "submissionValue": "Movement Disorder Society UPDRS Test Code", "synonyms": ["MDS-UPDRS - Speech Problems"]}, {"conceptId": "C100503", "definition": "The Movement Disorder Society version of the Unified Parkinson's Disease Rating Scale - Facial Expression.", "preferredTerm": "UPD2-Facial Expression", "submissionValue": "Movement Disorder Society UPDRS Test Code", "synonyms": ["MDS-UPDRS - Facial Expression"]}, {"conceptId": "C100504", "definition": "The Movement Disorder Society version of the Unified Parkinson's Disease Rating Scale - Rigidity Neck.", "preferredTerm": "UPD2-Rigidity Neck", "submissionValue": "Movement Disorder Society UPDRS Test Code", "synonyms": ["MDS-UPDRS - Rigidity Neck"]}, {"conceptId": "C100505", "definition": "The Movement Disorder Society version of the Unified Parkinson's Disease Rating Scale - Rigidity Right Upper Extremity.", "preferredTerm": "UPD2-Rigidity RT Upper Extremity", "submissionValue": "Movement Disorder Society UPDRS Test Code", "synonyms": ["MDS-UPDRS - Rigidity Right Upper Extremity"]}, {"conceptId": "C100506", "definition": "The Movement Disorder Society version of the Unified Parkinson's Disease Rating Scale - Rigidity Left Upper Extremity.", "preferredTerm": "UPD2-Rigidity Left Upper Extremity", "submissionValue": "Movement Disorder Society UPDRS Test Code", "synonyms": ["MDS-UPDRS - Rigidity Left Upper Extremity"]}, {"conceptId": "C100507", "definition": "The Movement Disorder Society version of the Unified Parkinson's Disease Rating Scale - Rigidity Right Lower Extremity.", "preferredTerm": "UPD2-Rigidity RT Lower Extremity", "submissionValue": "Movement Disorder Society UPDRS Test Code", "synonyms": ["MDS-UPDRS - Rigidity Right Lower Extremity"]}, {"conceptId": "C100508", "definition": "The Movement Disorder Society version of the Unified Parkinson's Disease Rating Scale - Rigidity Left Lower Extremity.", "preferredTerm": "UPD2-Rigidity Left Lower Extremity", "submissionValue": "Movement Disorder Society UPDRS Test Code", "synonyms": ["MDS-UPDRS - Rigidity Left Lower Extremity"]}, {"conceptId": "C100509", "definition": "The Movement Disorder Society version of the Unified Parkinson's Disease Rating Scale - Right Finger Tapping.", "preferredTerm": "UPD2-Right Finger Tapping", "submissionValue": "Movement Disorder Society UPDRS Test Code", "synonyms": ["MDS-UPDRS - Right Finger Tapping"]}, {"conceptId": "C100510", "definition": "The Movement Disorder Society version of the Unified Parkinson's Disease Rating Scale - Left Finger Tapping.", "preferredTerm": "UPD2-Left Finger Tapping", "submissionValue": "Movement Disorder Society UPDRS Test Code", "synonyms": ["MDS-UPDRS - Left Finger Tapping"]}, {"conceptId": "C100511", "definition": "The Movement Disorder Society version of the Unified Parkinson's Disease Rating Scale - Right Hand Movements.", "preferredTerm": "UPD2-Right Hand Movements", "submissionValue": "Movement Disorder Society UPDRS Test Code", "synonyms": ["MDS-UPDRS - Right Hand Movements"]}, {"conceptId": "C100512", "definition": "The Movement Disorder Society version of the Unified Parkinson's Disease Rating Scale - Left Hand Movements.", "preferredTerm": "UPD2-Left Hand Movements", "submissionValue": "Movement Disorder Society UPDRS Test Code", "synonyms": ["MDS-UPDRS - Left Hand Movements"]}, {"conceptId": "C100513", "definition": "The Movement Disorder Society version of the Unified Parkinson's Disease Rating Scale - Pronation-Supination Movements of Right Hand.", "preferredTerm": "UPD2-Pron/Sup Movement of RT Hand", "submissionValue": "Movement Disorder Society UPDRS Test Code", "synonyms": ["MDS-UPDRS - Pronanation-Supination Movement of Right Hand"]}, {"conceptId": "C100514", "definition": "The Movement Disorder Society version of the Unified Parkinson's Disease Rating Scale - Pronation-Supination Movements of Left Hand.", "preferredTerm": "UPD2-Pron/Sup Movement of Left Hand", "submissionValue": "Movement Disorder Society UPDRS Test Code", "synonyms": ["MDS-UPDRS - Pronanation-Supination Movement of Left Hand"]}, {"conceptId": "C100515", "definition": "The Movement Disorder Society version of the Unified Parkinson's Disease Rating Scale - Right Toe Tapping.", "preferredTerm": "UPD2-Right Toe Tapping", "submissionValue": "Movement Disorder Society UPDRS Test Code", "synonyms": ["MDS-UPDRS - Right Toe Tapping"]}, {"conceptId": "C100516", "definition": "The Movement Disorder Society version of the Unified Parkinson's Disease Rating Scale - Left Toe Tapping.", "preferredTerm": "UPD2-Left Toe Tapping", "submissionValue": "Movement Disorder Society UPDRS Test Code", "synonyms": ["MDS-UPDRS - Left Toe Tapping"]}, {"conceptId": "C100517", "definition": "The Movement Disorder Society version of the Unified Parkinson's Disease Rating Scale - Right Leg Agility.", "preferredTerm": "UPD2-Right Leg Agility", "submissionValue": "Movement Disorder Society UPDRS Test Code", "synonyms": ["MDS-UPDRS - Right Leg Agility"]}, {"conceptId": "C100518", "definition": "The Movement Disorder Society version of the Unified Parkinson's Disease Rating Scale - Left Leg Agility.", "preferredTerm": "UPD2-Left Leg Agility", "submissionValue": "Movement Disorder Society UPDRS Test Code", "synonyms": ["MDS-UPDRS - Left Leg Agility"]}, {"conceptId": "C100519", "definition": "The Movement Disorder Society version of the Unified Parkinson's Disease Rating Scale - Arising from Chair.", "preferredTerm": "UPD2-Arising from Chair", "submissionValue": "Movement Disorder Society UPDRS Test Code", "synonyms": ["MDS-UPDRS - Arising from Chair"]}, {"conceptId": "C100520", "definition": "The Movement Disorder Society version of the Unified Parkinson's Disease Rating Scale - Gait.", "preferredTerm": "UPD2-Gait", "submissionValue": "Movement Disorder Society UPDRS Test Code", "synonyms": ["MDS-UPDRS - Gait"]}, {"conceptId": "C100521", "definition": "The Movement Disorder Society version of the Unified Parkinson's Disease Rating Scale - Freezing of Gait.", "preferredTerm": "UPD2-Freezing of Gait", "submissionValue": "Movement Disorder Society UPDRS Test Code", "synonyms": ["MDS-UPDRS - Freezing of Gait"]}, {"conceptId": "C100522", "definition": "The Movement Disorder Society version of the Unified Parkinson's Disease Rating Scale - Postural Stability.", "preferredTerm": "UPD2-Postural Stability", "submissionValue": "Movement Disorder Society UPDRS Test Code", "synonyms": ["MDS-UPDRS - Postural Stability"]}, {"conceptId": "C100523", "definition": "The Movement Disorder Society version of the Unified Parkinson's Disease Rating Scale - Posture.", "preferredTerm": "UPD2-Posture", "submissionValue": "Movement Disorder Society UPDRS Test Code", "synonyms": ["MDS-UPDRS - Posture"]}, {"conceptId": "C100524", "definition": "The Movement Disorder Society version of the Unified Parkinson's Disease Rating Scale - Global Spontaneity of Movement (Body Bradykinesia).", "preferredTerm": "UPD2-Body Bradykinesia", "submissionValue": "Movement Disorder Society UPDRS Test Code", "synonyms": ["MDS-UPDRS - Body Bradykinesia"]}, {"conceptId": "C100525", "definition": "The Movement Disorder Society version of the Unified Parkinson's Disease Rating Scale - Postural Tremor of the Right Hand.", "preferredTerm": "UPD2-Postural Tremor of Right Hand", "submissionValue": "Movement Disorder Society UPDRS Test Code", "synonyms": ["MDS-UPDRS - Postural Tremor of Right Hand"]}, {"conceptId": "C100526", "definition": "The Movement Disorder Society version of the Unified Parkinson's Disease Rating Scale - Kinetic Tremor of the Left Hand.", "preferredTerm": "UPD2-Kinetic Tremor of Left Hand", "submissionValue": "Movement Disorder Society UPDRS Test Code", "synonyms": ["MDS-UPDRS - Kinetic Tremor of Left Hand"]}, {"conceptId": "C100527", "definition": "The Movement Disorder Society version of the Unified Parkinson's Disease Rating Scale - Rest Tremor Amplitude Right Upper Extremity.", "preferredTerm": "UPD2-Rest Tremor Amplitude RUE", "submissionValue": "Movement Disorder Society UPDRS Test Code", "synonyms": ["MDS-UPDRS - Rest Tremor Amplitude Right Upper Extremity"]}, {"conceptId": "C100528", "definition": "The Movement Disorder Society version of the Unified Parkinson's Disease Rating Scale - Rest Tremor Amplitude Left Upper Extremity.", "preferredTerm": "UPD2-Rest Tremor Amplitude LUE", "submissionValue": "Movement Disorder Society UPDRS Test Code", "synonyms": ["MDS-UPDRS - Rest Tremor Amplitude Left Upper Extremity"]}, {"conceptId": "C100529", "definition": "The Movement Disorder Society version of the Unified Parkinson's Disease Rating Scale - Rest Tremor Amplitude Right Lower Extremity.", "preferredTerm": "UPD2-Rest Tremor Amplitude RLE", "submissionValue": "Movement Disorder Society UPDRS Test Code", "synonyms": ["MDS-UPDRS - Rest Tremor Amplitude Right Lower Extremity"]}, {"conceptId": "C100530", "definition": "The Movement Disorder Society version of the Unified Parkinson's Disease Rating Scale - Rest Tremor Amplitude Left Lower Extremity.", "preferredTerm": "UPD2-Rest Tremor Amplitude LLE", "submissionValue": "Movement Disorder Society UPDRS Test Code", "synonyms": ["MDS-UPDRS - Rest Tremor Amplitude Left Lower Extremity"]}, {"conceptId": "C100531", "definition": "The Movement Disorder Society version of the Unified Parkinson's Disease Rating Scale - Rest Tremor Amplitude Lip/Jaw.", "preferredTerm": "UPD2-Rest Tremor Amplitude Lip/Jaw", "submissionValue": "Movement Disorder Society UPDRS Test Code", "synonyms": ["MDS-UPDRS - Rest Tremor Amplitude Lip or Jaw"]}, {"conceptId": "C100532", "definition": "The Movement Disorder Society version of the Unified Parkinson's Disease Rating Scale - Consistency of Rest Tremor.", "preferredTerm": "UPD2-Consistency of Rest Tremor", "submissionValue": "Movement Disorder Society UPDRS Test Code", "synonyms": ["MDS-UPDRS - Consistency of Rest Tremor"]}, {"conceptId": "C100533", "definition": "The Movement Disorder Society version of the Unified Parkinson's Disease Rating Scale - Were dyskinesias (chorea or dystonia) present during examination?", "preferredTerm": "UPD2-Dyskinesias During Exam", "submissionValue": "Movement Disorder Society UPDRS Test Code", "synonyms": ["MDS-UPDRS - Dyskinesias During Exam"]}, {"conceptId": "C100534", "definition": "The Movement Disorder Society version of the Unified Parkinson's Disease Rating Scale - If yes, did these movements interfere with your ratings?", "preferredTerm": "UPD2-Movements Interfere Ratings", "submissionValue": "Movement Disorder Society UPDRS Test Code", "synonyms": ["MDS-UPDRS - Movements Interfere with Ratings"]}, {"conceptId": "C100535", "definition": "The Movement Disorder Society version of the Unified Parkinson's Disease Rating Scale - Hoehn and Yahr Stage.", "preferredTerm": "UPD2-Hoehn and Yahr Stage", "submissionValue": "Movement Disorder Society UPDRS Test Code", "synonyms": ["MDS-UPDRS - Hoehn and Yahr Stage"]}, {"conceptId": "C100536", "definition": "The Movement Disorder Society version of the Unified Parkinson's Disease Rating Scale - Time Spent with Dyskinesias.", "preferredTerm": "UPD2-Time Spent with Dyskinesias", "submissionValue": "Movement Disorder Society UPDRS Test Code", "synonyms": ["MDS-UPDRS - Time Spent with Dyskinesias"]}, {"conceptId": "C100537", "definition": "The Movement Disorder Society version of the Unified Parkinson's Disease Rating Scale - Functional Impact of Dyskinesias.", "preferredTerm": "UPD2-Functional Impact Dyskinesias", "submissionValue": "Movement Disorder Society UPDRS Test Code", "synonyms": ["MDS-UPDRS - Functional Impact of Dyskinesias"]}, {"conceptId": "C100538", "definition": "The Movement Disorder Society version of the Unified Parkinson's Disease Rating Scale - Time Spent in the Off State.", "preferredTerm": "UPD2-Time Spent in the Off State", "submissionValue": "Movement Disorder Society UPDRS Test Code", "synonyms": ["MDS-UPDRS - Time Spent in the Off State"]}, {"conceptId": "C100539", "definition": "The Movement Disorder Society version of the Unified Parkinson's Disease Rating Scale - Functional Impact of Fluctuations.", "preferredTerm": "UPD2-Functional Impact Fluctuations", "submissionValue": "Movement Disorder Society UPDRS Test Code", "synonyms": ["MDS-UPDRS - Functional Impact of Fluctuations"]}, {"conceptId": "C100540", "definition": "The Movement Disorder Society version of the Unified Parkinson's Disease Rating Scale - Complexity of Motor Fluctuations.", "preferredTerm": "UPD2-Complexity Motor Fluctuations", "submissionValue": "Movement Disorder Society UPDRS Test Code", "synonyms": ["MDS-UPDRS - Complexity of Motor Fluctuations"]}, {"conceptId": "C100541", "definition": "The Movement Disorder Society version of the Unified Parkinson's Disease Rating Scale - Painful Off-state Dystonia.", "preferredTerm": "UPD2-Painful Off-state Dystonia", "submissionValue": "Movement Disorder Society UPDRS Test Code", "synonyms": ["MDS-UPDRS - Painful Off-state Dystonia"]}]}, {"conceptId": "", "definition": "The Mini-Mental State Examination (MMSE) (Folstein MF, Folstein SE, McHugh PR test name. 'Mini-Mental State': a practical method for grading the cognitive state of patients for the clinician test name. J Psychiatr Res test name. 1975;12:196-198) test name.", "extensible": "No", "name": "Mini-Mental State Examination Test Name", "preferredTerm": "Mini-Mental State Examination Test Name", "submissionValue": "Mini-Mental State Examination Test Name", "synonyms": ["CDISC Questionnaire MMSE Test Name Terminology"], "terms": [{"conceptId": "C100542", "definition": "The Mini-Mental State Examination (MMSE) (Folstein MF, Folstein SE, McHugh PR. 'Mini-Mental State': A practical method for grading the cognitive state of patients for the clinician. J Psychiatr Res. 1975; 12(3):189-98). Question 1.", "preferredTerm": "MMSE1-Question 1", "submissionValue": "Mini-Mental State Examination Test Name", "synonyms": ["MMSE - Question 1"]}, {"conceptId": "C100543", "definition": "The Mini-Mental State Examination (MMSE) (Folstein MF, Folstein SE, McHugh PR. 'Mini-Mental State': A practical method for grading the cognitive state of patients for the clinician. J Psychiatr Res. 1975; 12(3):189-98). Question 1A.", "preferredTerm": "MMSE1-Question 1A", "submissionValue": "Mini-Mental State Examination Test Name", "synonyms": ["MMSE - Question 1A"]}, {"conceptId": "C100544", "definition": "The Mini-Mental State Examination (MMSE) (Folstein MF, Folstein SE, McHugh PR. 'Mini-Mental State': A practical method for grading the cognitive state of patients for the clinician. J Psychiatr Res. 1975; 12(3):189-98). Question 1B.", "preferredTerm": "MMSE1-Question 1B", "submissionValue": "Mini-Mental State Examination Test Name", "synonyms": ["MMSE - Question 1B"]}, {"conceptId": "C100545", "definition": "The Mini-Mental State Examination (MMSE) (Folstein MF, Folstein SE, McHugh PR. 'Mini-Mental State': A practical method for grading the cognitive state of patients for the clinician. J Psychiatr Res. 1975; 12(3):189-98). Question 1C.", "preferredTerm": "MMSE1-Question 1C", "submissionValue": "Mini-Mental State Examination Test Name", "synonyms": ["MMSE - Question 1C"]}, {"conceptId": "C100546", "definition": "The Mini-Mental State Examination (MMSE) (Folstein MF, Folstein SE, McHugh PR. 'Mini-Mental State': A practical method for grading the cognitive state of patients for the clinician. J Psychiatr Res. 1975; 12(3):189-98). Question 1D.", "preferredTerm": "MMSE1-Question 1D", "submissionValue": "Mini-Mental State Examination Test Name", "synonyms": ["MMSE - Question 1D"]}, {"conceptId": "C100547", "definition": "The Mini-Mental State Examination (MMSE) (Folstein MF, Folstein SE, McHugh PR. 'Mini-Mental State': A practical method for grading the cognitive state of patients for the clinician. J Psychiatr Res. 1975; 12(3):189-98). Question 1E.", "preferredTerm": "MMSE1-Question 1E", "submissionValue": "Mini-Mental State Examination Test Name", "synonyms": ["MMSE - Question 1E"]}, {"conceptId": "C100548", "definition": "The Mini-Mental State Examination (MMSE) (Folstein MF, Folstein SE, McHugh PR. 'Mini-Mental State': A practical method for grading the cognitive state of patients for the clinician. J Psychiatr Res. 1975; 12(3):189-98). Question 2.", "preferredTerm": "MMSE1-Question 2", "submissionValue": "Mini-Mental State Examination Test Name", "synonyms": ["MMSE - Question 2"]}, {"conceptId": "C100549", "definition": "The Mini-Mental State Examination (MMSE) (Folstein MF, Folstein SE, McHugh PR. 'Mini-Mental State': A practical method for grading the cognitive state of patients for the clinician. J Psychiatr Res. 1975; 12(3):189-98). Question 2A.", "preferredTerm": "MMSE1-Question 2A", "submissionValue": "Mini-Mental State Examination Test Name", "synonyms": ["MMSE - Question 2A"]}, {"conceptId": "C100550", "definition": "The Mini-Mental State Examination (MMSE) (Folstein MF, Folstein SE, McHugh PR. 'Mini-Mental State': A practical method for grading the cognitive state of patients for the clinician. J Psychiatr Res. 1975; 12(3):189-98). Question 2B.", "preferredTerm": "MMSE1-Question 2B", "submissionValue": "Mini-Mental State Examination Test Name", "synonyms": ["MMSE - Question 2B"]}, {"conceptId": "C100551", "definition": "The Mini-Mental State Examination (MMSE) (Folstein MF, Folstein SE, McHugh PR. 'Mini-Mental State': A practical method for grading the cognitive state of patients for the clinician. J Psychiatr Res. 1975; 12(3):189-98). Question 2C.", "preferredTerm": "MMSE1-Question 2C", "submissionValue": "Mini-Mental State Examination Test Name", "synonyms": ["MMSE - Question 2C"]}, {"conceptId": "C100552", "definition": "The Mini-Mental State Examination (MMSE) (Folstein MF, Folstein SE, McHugh PR. 'Mini-Mental State': A practical method for grading the cognitive state of patients for the clinician. J Psychiatr Res. 1975; 12(3):189-98). Question 2D.", "preferredTerm": "MMSE1-Question 2D", "submissionValue": "Mini-Mental State Examination Test Name", "synonyms": ["MMSE - Question 2D"]}, {"conceptId": "C100553", "definition": "The Mini-Mental State Examination (MMSE) (Folstein MF, Folstein SE, McHugh PR. 'Mini-Mental State': A practical method for grading the cognitive state of patients for the clinician. J Psychiatr Res. 1975; 12(3):189-98). Question 2E.", "preferredTerm": "MMSE1-Question 2E", "submissionValue": "Mini-Mental State Examination Test Name", "synonyms": ["MMSE - Question 2E"]}, {"conceptId": "C100554", "definition": "The Mini-Mental State Examination (MMSE) (Folstein MF, Folstein SE, McHugh PR. 'Mini-Mental State': A practical method for grading the cognitive state of patients for the clinician. J Psychiatr Res. 1975; 12(3):189-98). Question 3.", "preferredTerm": "MMSE1-Question 3", "submissionValue": "Mini-Mental State Examination Test Name", "synonyms": ["MMSE - Question 3"]}, {"conceptId": "C100555", "definition": "The Mini-Mental State Examination (MMSE) (Folstein MF, Folstein SE, McHugh PR. 'Mini-Mental State': A practical method for grading the cognitive state of patients for the clinician. J Psychiatr Res. 1975; 12(3):189-98). Question 3A.", "preferredTerm": "MMSE1-Question 3A", "submissionValue": "Mini-Mental State Examination Test Name", "synonyms": ["MMSE - Question 3A"]}, {"conceptId": "C100556", "definition": "The Mini-Mental State Examination (MMSE) (Folstein MF, Folstein SE, McHugh PR. 'Mini-Mental State': A practical method for grading the cognitive state of patients for the clinician. J Psychiatr Res. 1975; 12(3):189-98). Question 3B.", "preferredTerm": "MMSE1-Question 3B", "submissionValue": "Mini-Mental State Examination Test Name", "synonyms": ["MMSE - Question 3B"]}, {"conceptId": "C100557", "definition": "The Mini-Mental State Examination (MMSE) (Folstein MF, Folstein SE, McHugh PR. 'Mini-Mental State': A practical method for grading the cognitive state of patients for the clinician. J Psychiatr Res. 1975; 12(3):189-98). Question 3C.", "preferredTerm": "MMSE1-Question 3C", "submissionValue": "Mini-Mental State Examination Test Name", "synonyms": ["MMSE - Question 3C"]}, {"conceptId": "C100558", "definition": "The Mini-Mental State Examination (MMSE) (Folstein MF, Folstein SE, McHugh PR. 'Mini-Mental State': A practical method for grading the cognitive state of patients for the clinician. J Psychiatr Res. 1975; 12(3):189-98). Question 4.", "preferredTerm": "MMSE1-Question 4", "submissionValue": "Mini-Mental State Examination Test Name", "synonyms": ["MMSE - Question 4"]}, {"conceptId": "C100559", "definition": "The Mini-Mental State Examination (MMSE) (Folstein MF, Folstein SE, McHugh PR. 'Mini-Mental State': A practical method for grading the cognitive state of patients for the clinician. J Psychiatr Res. 1975; 12(3):189-98). Question 4C1.", "preferredTerm": "MMSE1-Question 4C1", "submissionValue": "Mini-Mental State Examination Test Name", "synonyms": ["MMSE - Question 4C1"]}, {"conceptId": "C100560", "definition": "The Mini-Mental State Examination (MMSE) (Folstein MF, Folstein SE, McHugh PR. 'Mini-Mental State': A practical method for grading the cognitive state of patients for the clinician. J Psychiatr Res. 1975; 12(3):189-98). Question 4C2.", "preferredTerm": "MMSE1-Question 4C2", "submissionValue": "Mini-Mental State Examination Test Name", "synonyms": ["MMSE - Question 4C2"]}, {"conceptId": "C100561", "definition": "The Mini-Mental State Examination (MMSE) (Folstein MF, Folstein SE, McHugh PR. 'Mini-Mental State': A practical method for grading the cognitive state of patients for the clinician. J Psychiatr Res. 1975; 12(3):189-98). Question 4C3.", "preferredTerm": "MMSE1-Question 4C3", "submissionValue": "Mini-Mental State Examination Test Name", "synonyms": ["MMSE - Question 4C3"]}, {"conceptId": "C100562", "definition": "The Mini-Mental State Examination (MMSE) (Folstein MF, Folstein SE, McHugh PR. 'Mini-Mental State': A practical method for grading the cognitive state of patients for the clinician. J Psychiatr Res. 1975; 12(3):189-98). Question 4C4.", "preferredTerm": "MMSE1-Question 4C4", "submissionValue": "Mini-Mental State Examination Test Name", "synonyms": ["MMSE - Question 4C4"]}, {"conceptId": "C100563", "definition": "The Mini-Mental State Examination (MMSE) (Folstein MF, Folstein SE, McHugh PR. 'Mini-Mental State': A practical method for grading the cognitive state of patients for the clinician. J Psychiatr Res. 1975; 12(3):189-98). Question 4C5.", "preferredTerm": "MMSE1-Question 4C5", "submissionValue": "Mini-Mental State Examination Test Name", "synonyms": ["MMSE - Question 4C5"]}, {"conceptId": "C100564", "definition": "The Mini-Mental State Examination (MMSE) (Folstein MF, Folstein SE, McHugh PR. 'Mini-Mental State': A practical method for grading the cognitive state of patients for the clinician. J Psychiatr Res. 1975; 12(3):189-98). Question 4C.", "preferredTerm": "MMSE1-Question 4C", "submissionValue": "Mini-Mental State Examination Test Name", "synonyms": ["MMSE - Question 4C"]}, {"conceptId": "C100565", "definition": "The Mini-Mental State Examination (MMSE) (Folstein MF, Folstein SE, McHugh PR. 'Mini-Mental State': A practical method for grading the cognitive state of patients for the clinician. J Psychiatr Res. 1975; 12(3):189-98). Question 4S1.", "preferredTerm": "MMSE1-Question 4S1", "submissionValue": "Mini-Mental State Examination Test Name", "synonyms": ["MMSE - Question 4S1"]}, {"conceptId": "C100566", "definition": "The Mini-Mental State Examination (MMSE) (Folstein MF, Folstein SE, McHugh PR. 'Mini-Mental State': A practical method for grading the cognitive state of patients for the clinician. J Psychiatr Res. 1975; 12(3):189-98). Question 4S2.", "preferredTerm": "MMSE1-Question 4S2", "submissionValue": "Mini-Mental State Examination Test Name", "synonyms": ["MMSE - Question 4S2"]}, {"conceptId": "C100567", "definition": "The Mini-Mental State Examination (MMSE) (Folstein MF, Folstein SE, McHugh PR. 'Mini-Mental State': A practical method for grading the cognitive state of patients for the clinician. J Psychiatr Res. 1975; 12(3):189-98). Question 4S3.", "preferredTerm": "MMSE1-Question 4S3", "submissionValue": "Mini-Mental State Examination Test Name", "synonyms": ["MMSE - Question 4S3"]}, {"conceptId": "C100568", "definition": "The Mini-Mental State Examination (MMSE) (Folstein MF, Folstein SE, McHugh PR. 'Mini-Mental State': A practical method for grading the cognitive state of patients for the clinician. J Psychiatr Res. 1975; 12(3):189-98). Question 4S4.", "preferredTerm": "MMSE1-Question 4S4", "submissionValue": "Mini-Mental State Examination Test Name", "synonyms": ["MMSE - Question 4S4"]}, {"conceptId": "C100569", "definition": "The Mini-Mental State Examination (MMSE) (Folstein MF, Folstein SE, McHugh PR. 'Mini-Mental State': A practical method for grading the cognitive state of patients for the clinician. J Psychiatr Res. 1975; 12(3):189-98). Question 4S5.", "preferredTerm": "MMSE1-Question 4S5", "submissionValue": "Mini-Mental State Examination Test Name", "synonyms": ["MMSE - Question 4S5"]}, {"conceptId": "C100570", "definition": "The Mini-Mental State Examination (MMSE) (Folstein MF, Folstein SE, McHugh PR. 'Mini-Mental State': A practical method for grading the cognitive state of patients for the clinician. J Psychiatr Res. 1975; 12(3):189-98). Question 4S.", "preferredTerm": "MMSE1-Question 4S", "submissionValue": "Mini-Mental State Examination Test Name", "synonyms": ["MMSE - Question 4S"]}, {"conceptId": "C100571", "definition": "The Mini-Mental State Examination (MMSE) (Folstein MF, Folstein SE, McHugh PR. 'Mini-Mental State': A practical method for grading the cognitive state of patients for the clinician. J Psychiatr Res. 1975; 12(3):189-98). Question 5.", "preferredTerm": "MMSE1-Question 5", "submissionValue": "Mini-Mental State Examination Test Name", "synonyms": ["MMSE - Question 5"]}, {"conceptId": "C100572", "definition": "The Mini-Mental State Examination (MMSE) (Folstein MF, Folstein SE, McHugh PR. 'Mini-Mental State': A practical method for grading the cognitive state of patients for the clinician. J Psychiatr Res. 1975; 12(3):189-98). Question 5A.", "preferredTerm": "MMSE1-Question 5A", "submissionValue": "Mini-Mental State Examination Test Name", "synonyms": ["MMSE - Question 5A"]}, {"conceptId": "C100573", "definition": "The Mini-Mental State Examination (MMSE) (Folstein MF, Folstein SE, McHugh PR. 'Mini-Mental State': A practical method for grading the cognitive state of patients for the clinician. J Psychiatr Res. 1975; 12(3):189-98). Question 5B.", "preferredTerm": "MMSE1-Question 5B", "submissionValue": "Mini-Mental State Examination Test Name", "synonyms": ["MMSE - Question 5B"]}, {"conceptId": "C100574", "definition": "The Mini-Mental State Examination (MMSE) (Folstein MF, Folstein SE, McHugh PR. 'Mini-Mental State': A practical method for grading the cognitive state of patients for the clinician. J Psychiatr Res. 1975; 12(3):189-98). Question 5C.", "preferredTerm": "MMSE1-Question 5C", "submissionValue": "Mini-Mental State Examination Test Name", "synonyms": ["MMSE - Question 5C"]}, {"conceptId": "C100575", "definition": "The Mini-Mental State Examination (MMSE) (Folstein MF, Folstein SE, McHugh PR. 'Mini-Mental State': A practical method for grading the cognitive state of patients for the clinician. J Psychiatr Res. 1975; 12(3):189-98). Question 6.", "preferredTerm": "MMSE1-Question 6", "submissionValue": "Mini-Mental State Examination Test Name", "synonyms": ["MMSE - Question 6"]}, {"conceptId": "C100576", "definition": "The Mini-Mental State Examination (MMSE) (Folstein MF, Folstein SE, McHugh PR. 'Mini-Mental State': A practical method for grading the cognitive state of patients for the clinician. J Psychiatr Res. 1975; 12(3):189-98). Question 6A.", "preferredTerm": "MMSE1-Question 6A", "submissionValue": "Mini-Mental State Examination Test Name", "synonyms": ["MMSE - Question 6A"]}, {"conceptId": "C100577", "definition": "The Mini-Mental State Examination (MMSE) (Folstein MF, Folstein SE, McHugh PR. 'Mini-Mental State': A practical method for grading the cognitive state of patients for the clinician. J Psychiatr Res. 1975; 12(3):189-98). Question 6B.", "preferredTerm": "MMSE1-Question 6B", "submissionValue": "Mini-Mental State Examination Test Name", "synonyms": ["MMSE - Question 6B"]}, {"conceptId": "C100578", "definition": "The Mini-Mental State Examination (MMSE) (Folstein MF, Folstein SE, McHugh PR. 'Mini-Mental State': A practical method for grading the cognitive state of patients for the clinician. J Psychiatr Res. 1975; 12(3):189-98). Question 7.", "preferredTerm": "MMSE1-Question 7", "submissionValue": "Mini-Mental State Examination Test Name", "synonyms": ["MMSE - Question 7"]}, {"conceptId": "C100579", "definition": "The Mini-Mental State Examination (MMSE) (Folstein MF, Folstein SE, McHugh PR. 'Mini-Mental State': A practical method for grading the cognitive state of patients for the clinician. J Psychiatr Res. 1975; 12(3):189-98). Question 8.", "preferredTerm": "MMSE1-Question 8", "submissionValue": "Mini-Mental State Examination Test Name", "synonyms": ["MMSE - Question 8"]}, {"conceptId": "C100580", "definition": "The Mini-Mental State Examination (MMSE) (Folstein MF, Folstein SE, McHugh PR. 'Mini-Mental State': A practical method for grading the cognitive state of patients for the clinician. J Psychiatr Res. 1975; 12(3):189-98). Question 8A.", "preferredTerm": "MMSE1-Question 8A", "submissionValue": "Mini-Mental State Examination Test Name", "synonyms": ["MMSE - Question 8A"]}, {"conceptId": "C100581", "definition": "The Mini-Mental State Examination (MMSE) (Folstein MF, Folstein SE, McHugh PR. 'Mini-Mental State': A practical method for grading the cognitive state of patients for the clinician. J Psychiatr Res. 1975; 12(3):189-98). Question 8B.", "preferredTerm": "MMSE1-Question 8B", "submissionValue": "Mini-Mental State Examination Test Name", "synonyms": ["MMSE - Question 8B"]}, {"conceptId": "C100582", "definition": "The Mini-Mental State Examination (MMSE) (Folstein MF, Folstein SE, McHugh PR. 'Mini-Mental State': A practical method for grading the cognitive state of patients for the clinician. J Psychiatr Res. 1975; 12(3):189-98). Question 8C.", "preferredTerm": "MMSE1-Question 8C", "submissionValue": "Mini-Mental State Examination Test Name", "synonyms": ["MMSE - Question 8C"]}, {"conceptId": "C100583", "definition": "The Mini-Mental State Examination (MMSE) (Folstein MF, Folstein SE, McHugh PR. 'Mini-Mental State': A practical method for grading the cognitive state of patients for the clinician. J Psychiatr Res. 1975; 12(3):189-98). Question 9.", "preferredTerm": "MMSE1-Question 9", "submissionValue": "Mini-Mental State Examination Test Name", "synonyms": ["MMSE - Question 9"]}, {"conceptId": "C100584", "definition": "The Mini-Mental State Examination (MMSE) (Folstein MF, Folstein SE, McHugh PR. 'Mini-Mental State': A practical method for grading the cognitive state of patients for the clinician. J Psychiatr Res. 1975; 12(3):189-98). Question 10.", "preferredTerm": "MMSE1-Question 10", "submissionValue": "Mini-Mental State Examination Test Name", "synonyms": ["MMSE - Question 10"]}, {"conceptId": "C100585", "definition": "The Mini-Mental State Examination (MMSE) (Folstein MF, Folstein SE, McHugh PR. 'Mini-Mental State': A practical method for grading the cognitive state of patients for the clinician. J Psychiatr Res. 1975; 12(3):189-98). Question 11.", "preferredTerm": "MMSE1-Question 11", "submissionValue": "Mini-Mental State Examination Test Name", "synonyms": ["MMSE - Question 11"]}, {"conceptId": "C100586", "definition": "The Mini-Mental State Examination (MMSE) (Folstein MF, Folstein SE, McHugh PR. 'Mini-Mental State': A practical method for grading the cognitive state of patients for the clinician. J Psychiatr Res. 1975; 12(3):189-98). Question 12.", "preferredTerm": "MMSE1-Question 12", "submissionValue": "Mini-Mental State Examination Test Name", "synonyms": ["MMSE - Question 12"]}]}, {"conceptId": "", "definition": "The Mini-Mental State Examination (MMSE) (Folstein MF, Folstein SE, McHugh PR test code. \"Mini-Mental State\": a practical method for grading the cognitive state of patients for the clinician test code. J Psychiatr Res test code. 1975;12:196-198) test code.", "extensible": "No", "name": "Mini-Mental State Examination Test Code", "preferredTerm": "Mini-Mental State Examination Test Code", "submissionValue": "Mini-Mental State Examination Test Code", "synonyms": ["CDISC Questionnaire MMSE Test Code Terminology"], "terms": [{"conceptId": "C100542", "definition": "The Mini-Mental State Examination (MMSE) (Folstein MF, Folstein SE, McHugh PR. 'Mini-Mental State': A practical method for grading the cognitive state of patients for the clinician. J Psychiatr Res. 1975; 12(3):189-98). Question 1.", "preferredTerm": "MMSE1-Question 1", "submissionValue": "Mini-Mental State Examination Test Code", "synonyms": ["MMSE - Question 1"]}, {"conceptId": "C100543", "definition": "The Mini-Mental State Examination (MMSE) (Folstein MF, Folstein SE, McHugh PR. 'Mini-Mental State': A practical method for grading the cognitive state of patients for the clinician. J Psychiatr Res. 1975; 12(3):189-98). Question 1A.", "preferredTerm": "MMSE1-Question 1A", "submissionValue": "Mini-Mental State Examination Test Code", "synonyms": ["MMSE - Question 1A"]}, {"conceptId": "C100544", "definition": "The Mini-Mental State Examination (MMSE) (Folstein MF, Folstein SE, McHugh PR. 'Mini-Mental State': A practical method for grading the cognitive state of patients for the clinician. J Psychiatr Res. 1975; 12(3):189-98). Question 1B.", "preferredTerm": "MMSE1-Question 1B", "submissionValue": "Mini-Mental State Examination Test Code", "synonyms": ["MMSE - Question 1B"]}, {"conceptId": "C100545", "definition": "The Mini-Mental State Examination (MMSE) (Folstein MF, Folstein SE, McHugh PR. 'Mini-Mental State': A practical method for grading the cognitive state of patients for the clinician. J Psychiatr Res. 1975; 12(3):189-98). Question 1C.", "preferredTerm": "MMSE1-Question 1C", "submissionValue": "Mini-Mental State Examination Test Code", "synonyms": ["MMSE - Question 1C"]}, {"conceptId": "C100546", "definition": "The Mini-Mental State Examination (MMSE) (Folstein MF, Folstein SE, McHugh PR. 'Mini-Mental State': A practical method for grading the cognitive state of patients for the clinician. J Psychiatr Res. 1975; 12(3):189-98). Question 1D.", "preferredTerm": "MMSE1-Question 1D", "submissionValue": "Mini-Mental State Examination Test Code", "synonyms": ["MMSE - Question 1D"]}, {"conceptId": "C100547", "definition": "The Mini-Mental State Examination (MMSE) (Folstein MF, Folstein SE, McHugh PR. 'Mini-Mental State': A practical method for grading the cognitive state of patients for the clinician. J Psychiatr Res. 1975; 12(3):189-98). Question 1E.", "preferredTerm": "MMSE1-Question 1E", "submissionValue": "Mini-Mental State Examination Test Code", "synonyms": ["MMSE - Question 1E"]}, {"conceptId": "C100548", "definition": "The Mini-Mental State Examination (MMSE) (Folstein MF, Folstein SE, McHugh PR. 'Mini-Mental State': A practical method for grading the cognitive state of patients for the clinician. J Psychiatr Res. 1975; 12(3):189-98). Question 2.", "preferredTerm": "MMSE1-Question 2", "submissionValue": "Mini-Mental State Examination Test Code", "synonyms": ["MMSE - Question 2"]}, {"conceptId": "C100549", "definition": "The Mini-Mental State Examination (MMSE) (Folstein MF, Folstein SE, McHugh PR. 'Mini-Mental State': A practical method for grading the cognitive state of patients for the clinician. J Psychiatr Res. 1975; 12(3):189-98). Question 2A.", "preferredTerm": "MMSE1-Question 2A", "submissionValue": "Mini-Mental State Examination Test Code", "synonyms": ["MMSE - Question 2A"]}, {"conceptId": "C100550", "definition": "The Mini-Mental State Examination (MMSE) (Folstein MF, Folstein SE, McHugh PR. 'Mini-Mental State': A practical method for grading the cognitive state of patients for the clinician. J Psychiatr Res. 1975; 12(3):189-98). Question 2B.", "preferredTerm": "MMSE1-Question 2B", "submissionValue": "Mini-Mental State Examination Test Code", "synonyms": ["MMSE - Question 2B"]}, {"conceptId": "C100551", "definition": "The Mini-Mental State Examination (MMSE) (Folstein MF, Folstein SE, McHugh PR. 'Mini-Mental State': A practical method for grading the cognitive state of patients for the clinician. J Psychiatr Res. 1975; 12(3):189-98). Question 2C.", "preferredTerm": "MMSE1-Question 2C", "submissionValue": "Mini-Mental State Examination Test Code", "synonyms": ["MMSE - Question 2C"]}, {"conceptId": "C100552", "definition": "The Mini-Mental State Examination (MMSE) (Folstein MF, Folstein SE, McHugh PR. 'Mini-Mental State': A practical method for grading the cognitive state of patients for the clinician. J Psychiatr Res. 1975; 12(3):189-98). Question 2D.", "preferredTerm": "MMSE1-Question 2D", "submissionValue": "Mini-Mental State Examination Test Code", "synonyms": ["MMSE - Question 2D"]}, {"conceptId": "C100553", "definition": "The Mini-Mental State Examination (MMSE) (Folstein MF, Folstein SE, McHugh PR. 'Mini-Mental State': A practical method for grading the cognitive state of patients for the clinician. J Psychiatr Res. 1975; 12(3):189-98). Question 2E.", "preferredTerm": "MMSE1-Question 2E", "submissionValue": "Mini-Mental State Examination Test Code", "synonyms": ["MMSE - Question 2E"]}, {"conceptId": "C100554", "definition": "The Mini-Mental State Examination (MMSE) (Folstein MF, Folstein SE, McHugh PR. 'Mini-Mental State': A practical method for grading the cognitive state of patients for the clinician. J Psychiatr Res. 1975; 12(3):189-98). Question 3.", "preferredTerm": "MMSE1-Question 3", "submissionValue": "Mini-Mental State Examination Test Code", "synonyms": ["MMSE - Question 3"]}, {"conceptId": "C100555", "definition": "The Mini-Mental State Examination (MMSE) (Folstein MF, Folstein SE, McHugh PR. 'Mini-Mental State': A practical method for grading the cognitive state of patients for the clinician. J Psychiatr Res. 1975; 12(3):189-98). Question 3A.", "preferredTerm": "MMSE1-Question 3A", "submissionValue": "Mini-Mental State Examination Test Code", "synonyms": ["MMSE - Question 3A"]}, {"conceptId": "C100556", "definition": "The Mini-Mental State Examination (MMSE) (Folstein MF, Folstein SE, McHugh PR. 'Mini-Mental State': A practical method for grading the cognitive state of patients for the clinician. J Psychiatr Res. 1975; 12(3):189-98). Question 3B.", "preferredTerm": "MMSE1-Question 3B", "submissionValue": "Mini-Mental State Examination Test Code", "synonyms": ["MMSE - Question 3B"]}, {"conceptId": "C100557", "definition": "The Mini-Mental State Examination (MMSE) (Folstein MF, Folstein SE, McHugh PR. 'Mini-Mental State': A practical method for grading the cognitive state of patients for the clinician. J Psychiatr Res. 1975; 12(3):189-98). Question 3C.", "preferredTerm": "MMSE1-Question 3C", "submissionValue": "Mini-Mental State Examination Test Code", "synonyms": ["MMSE - Question 3C"]}, {"conceptId": "C100558", "definition": "The Mini-Mental State Examination (MMSE) (Folstein MF, Folstein SE, McHugh PR. 'Mini-Mental State': A practical method for grading the cognitive state of patients for the clinician. J Psychiatr Res. 1975; 12(3):189-98). Question 4.", "preferredTerm": "MMSE1-Question 4", "submissionValue": "Mini-Mental State Examination Test Code", "synonyms": ["MMSE - Question 4"]}, {"conceptId": "C100559", "definition": "The Mini-Mental State Examination (MMSE) (Folstein MF, Folstein SE, McHugh PR. 'Mini-Mental State': A practical method for grading the cognitive state of patients for the clinician. J Psychiatr Res. 1975; 12(3):189-98). Question 4C1.", "preferredTerm": "MMSE1-Question 4C1", "submissionValue": "Mini-Mental State Examination Test Code", "synonyms": ["MMSE - Question 4C1"]}, {"conceptId": "C100560", "definition": "The Mini-Mental State Examination (MMSE) (Folstein MF, Folstein SE, McHugh PR. 'Mini-Mental State': A practical method for grading the cognitive state of patients for the clinician. J Psychiatr Res. 1975; 12(3):189-98). Question 4C2.", "preferredTerm": "MMSE1-Question 4C2", "submissionValue": "Mini-Mental State Examination Test Code", "synonyms": ["MMSE - Question 4C2"]}, {"conceptId": "C100561", "definition": "The Mini-Mental State Examination (MMSE) (Folstein MF, Folstein SE, McHugh PR. 'Mini-Mental State': A practical method for grading the cognitive state of patients for the clinician. J Psychiatr Res. 1975; 12(3):189-98). Question 4C3.", "preferredTerm": "MMSE1-Question 4C3", "submissionValue": "Mini-Mental State Examination Test Code", "synonyms": ["MMSE - Question 4C3"]}, {"conceptId": "C100562", "definition": "The Mini-Mental State Examination (MMSE) (Folstein MF, Folstein SE, McHugh PR. 'Mini-Mental State': A practical method for grading the cognitive state of patients for the clinician. J Psychiatr Res. 1975; 12(3):189-98). Question 4C4.", "preferredTerm": "MMSE1-Question 4C4", "submissionValue": "Mini-Mental State Examination Test Code", "synonyms": ["MMSE - Question 4C4"]}, {"conceptId": "C100563", "definition": "The Mini-Mental State Examination (MMSE) (Folstein MF, Folstein SE, McHugh PR. 'Mini-Mental State': A practical method for grading the cognitive state of patients for the clinician. J Psychiatr Res. 1975; 12(3):189-98). Question 4C5.", "preferredTerm": "MMSE1-Question 4C5", "submissionValue": "Mini-Mental State Examination Test Code", "synonyms": ["MMSE - Question 4C5"]}, {"conceptId": "C100564", "definition": "The Mini-Mental State Examination (MMSE) (Folstein MF, Folstein SE, McHugh PR. 'Mini-Mental State': A practical method for grading the cognitive state of patients for the clinician. J Psychiatr Res. 1975; 12(3):189-98). Question 4C.", "preferredTerm": "MMSE1-Question 4C", "submissionValue": "Mini-Mental State Examination Test Code", "synonyms": ["MMSE - Question 4C"]}, {"conceptId": "C100565", "definition": "The Mini-Mental State Examination (MMSE) (Folstein MF, Folstein SE, McHugh PR. 'Mini-Mental State': A practical method for grading the cognitive state of patients for the clinician. J Psychiatr Res. 1975; 12(3):189-98). Question 4S1.", "preferredTerm": "MMSE1-Question 4S1", "submissionValue": "Mini-Mental State Examination Test Code", "syno