{"codelists": [{"conceptId": "", "definition": "Terminology specifying changes to the study treatment as a result of an adverse event.", "extensible": "No", "name": "Action Taken with Study Treatment", "preferredTerm": "Action Taken with Study Treatment", "submissionValue": "Action Taken with Study Treatment", "synonyms": ["CDISC SDTM Action Taken with Study Treatment Terminology"], "terms": [{"conceptId": "C49503", "definition": "An indication that a medication schedule was modified by addition; either by changing the frequency, strength or amount. (NCI)", "preferredTerm": "", "submissionValue": "Action Taken with Study Treatment", "synonyms": ["Dose Increased"]}, {"conceptId": "C49504", "definition": "An indication that a medication schedule was maintained. (NCI)", "preferredTerm": "", "submissionValue": "Action Taken with Study Treatment", "synonyms": ["Dose Not Changed"]}, {"conceptId": "C49505", "definition": "An indication that a medication schedule was modified by subtraction, either by changing the frequency, strength or amount. (NCI)", "preferredTerm": "", "submissionValue": "Action Taken with Study Treatment", "synonyms": ["Dose Reduced"]}, {"conceptId": "C49501", "definition": "An indication that a medication schedule was modified by temporarily terminating a prescribed regimen of medication. (NCI)", "preferredTerm": "", "submissionValue": "Action Taken with Study Treatment", "synonyms": ["Drug Interrupted"]}, {"conceptId": "C49502", "definition": "An indication that a medication schedule was modified through termination of a prescribed regimen of medication. (NCI)", "preferredTerm": "", "submissionValue": "Action Taken with Study Treatment", "synonyms": ["Drug Withdrawn"]}, {"conceptId": "C48660", "definition": "Determination of a value is not relevant in the current context. (NCI)", "preferredTerm": "NA; Not Applicable", "submissionValue": "Action Taken with Study Treatment", "synonyms": ["Not Applicable"]}, {"conceptId": "C17998", "definition": "Not known, not observed, not recorded, or refused. (NCI)", "preferredTerm": "U; Unknown", "submissionValue": "Action Taken with Study Treatment", "synonyms": ["Unknown"]}]}, {"conceptId": "", "definition": "A classification of the presentation of acute coronary syndrome.", "extensible": "No", "name": "Acute Coronary Syndrome Presentation Category", "preferredTerm": "Acute Coronary Syndrome Presentation Category", "submissionValue": "Acute Coronary Syndrome Presentation Category", "synonyms": ["CDISC SDTM Acute Coronary Syndrome Presentation Category Terminology"], "terms": [{"conceptId": "C80383", "definition": "A myocardial infarction that does not produce elevation in the ST segments of the ECG.", "preferredTerm": "NON-STEMI; NSTEMI", "submissionValue": "Acute Coronary Syndrome Presentation Category", "synonyms": ["Non-ST Elevation Myocardial Infarction by ECG Finding"]}, {"conceptId": "C17649", "definition": "Different than the one(s) previously specified or mentioned. (NCI)", "preferredTerm": "Other", "submissionValue": "Acute Coronary Syndrome Presentation Category", "synonyms": ["Other"]}, {"conceptId": "C101888", "definition": "A myocardial infarction that produces elevation in the ST segments of the ECG.", "preferredTerm": "STEMI", "submissionValue": "Acute Coronary Syndrome Presentation Category", "synonyms": ["ST Elevation Myocardial Infarction by ECG Finding"]}, {"conceptId": "C66914", "definition": "Angina pectoris which has not recently changed in frequency, duration or intensity. Stable angina pectoris is relieved by rest or administration of oral, sublingual or transdermal antianginal medications.", "preferredTerm": "", "submissionValue": "Acute Coronary Syndrome Presentation Category", "synonyms": ["Stable Angina"]}, {"conceptId": "C66911", "definition": "Angina pectoris (or equivalent type of ischemic discomfort) which has recently changed in frequency, duration, intensity, or occurs at rest.", "preferredTerm": "", "submissionValue": "Acute Coronary Syndrome Presentation Category", "synonyms": ["Unstable Angina"]}]}, {"conceptId": "", "definition": "Those units of time that are routinely used to express the age of a subject.", "extensible": "No", "name": "Age Unit", "preferredTerm": "Age Unit", "submissionValue": "Age Unit", "synonyms": ["CDISC SDTM Age Unit Terminology"], "terms": [{"conceptId": "C25301", "definition": "The time for Earth to make a complete rotation on its axis; ordinarily divided into twenty-four hours. This also refers to a specific day. (NCI)", "preferredTerm": "Day", "submissionValue": "Age Unit", "synonyms": ["Day"]}, {"conceptId": "C25529", "definition": "A unit measure of time equal to 3,600 seconds or 60 minutes. It is approximately 1/24 of a median day. (NCI)", "preferredTerm": "Hour; hr", "submissionValue": "Age Unit", "synonyms": ["Hour"]}, {"conceptId": "C29846", "definition": "One of the 12 divisions of a year as determined by a calendar. It corresponds to the unit of time of approximately to one cycle of the moon's phases, about 30 days or 4 weeks. (NCI)", "preferredTerm": "Month", "submissionValue": "Age Unit", "synonyms": ["Month"]}, {"conceptId": "C29844", "definition": "Any period of seven consecutive days. (NCI)", "preferredTerm": "Week", "submissionValue": "Age Unit", "synonyms": ["Week"]}, {"conceptId": "C29848", "definition": "The period of time that it takes for Earth to make a complete revolution around the sun, approximately 365 days; a specific one year period. (NCI)", "preferredTerm": "Year", "submissionValue": "Age Unit", "synonyms": ["Year"]}]}, {"conceptId": "", "definition": "Terminology codelist used for anatomical location within CDISC.", "extensible": "Yes", "name": "Anatomical Location", "preferredTerm": "Anatomical Location", "submissionValue": "Anatomical Location", "synonyms": ["CDISC SDTM Anatomical Location Terminology"], "terms": [{"conceptId": "C116163", "definition": "The spinous process of the 5th lumbar vertebra.", "preferredTerm": "", "submissionValue": "Anatomical Location", "synonyms": ["Fifth Lumbar Spinous Process"]}, {"conceptId": "C12664", "definition": "The portion of the body that lies between the thorax and the pelvis. (NCI)", "preferredTerm": "Abdomen; Abdominal Cavity", "submissionValue": "Anatomical Location", "synonyms": ["Abdominal Cavity"]}, {"conceptId": "C12360", "definition": "Any lymph node within the abdomen.", "preferredTerm": "", "submissionValue": "Anatomical Location", "synonyms": ["Intra-Abdominal Lymph Node"]}, {"conceptId": "C52758", "definition": "The skin or integument surrounding the abdomen. (NCI)", "preferredTerm": "Abdominal Skin", "submissionValue": "Anatomical Location", "synonyms": ["Abdominal Skin"]}, {"conceptId": "C77608", "definition": "The tissues that surround the organs that are present within the abdominal cavity. The abdominal wall tissue is composed of layers of fat, parietal peritoneum, fascia, and muscles. (NCI)", "preferredTerm": "", "submissionValue": "Anatomical Location", "synonyms": ["Abdominal Wall"]}, {"conceptId": "C12665", "definition": "The sixth cranial nerve.", "preferredTerm": "", "submissionValue": "Anatomical Location", "synonyms": ["Abducens Nerve"]}, {"conceptId": "C116183", "definition": "An additional renal vessel originating from the aorta and entering the kidney at the proximal or distal end of the organ. Accessory renal arteries are found in 26-30% of humans.", "preferredTerm": "", "submissionValue": "Anatomical Location", "synonyms": ["Accessory Renal Artery"]}, {"conceptId": "C32042", "definition": "Two cup shaped areas, one each on the lateral side of the lower pelvis that house the head of the femur to form the ball and socket joint of the hip. (NCI)", "preferredTerm": "Acetabulum", "submissionValue": "Anatomical Location", "synonyms": ["Acetabulum"]}, {"conceptId": "C32043", "definition": "The tendon that connects the heel bone to the calf muscles at the back of the lower leg. (NCI)", "preferredTerm": "Calcaneal Tendon", "submissionValue": "Anatomical Location", "synonyms": ["Achilles Tendon"]}, {"conceptId": "C32047", "definition": "The junction of the upper distal end of the scapula to the distal edge of the collarbone, also known as the acromion and the clavicle. (NCI)", "preferredTerm": "Acromioclavicular Joint", "submissionValue": "Anatomical Location", "synonyms": ["Acromioclavicular Joint"]}, {"conceptId": "C32048", "definition": "The upper distal process of the scapula. (NCI)", "preferredTerm": "Acromion", "submissionValue": "Anatomical Location", "synonyms": ["Acromion"]}, {"conceptId": "C102285", "definition": "The arteries that arise at the junction of the proximal and mid-right coronary artery conduit segments.", "preferredTerm": "ACUTE MARGINAL ARTERY SEGMENT(S); AMARG", "submissionValue": "Anatomical Location", "synonyms": ["Acute Marginal Artery"]}, {"conceptId": "C12666", "definition": "Suprarenal gland. A flattened, roughly triangular body resting upon the upper end of each kidney; it is one of the ductless glands furnishing internal secretions (epinephrine and norepinephrine from the medulla and steroid hormones from the cortex). (NCI)", "preferredTerm": "Adrenal Gland", "submissionValue": "Anatomical Location", "synonyms": ["Adrenal Gland"]}, {"conceptId": "C12440", "definition": "An almond-shaped group of basal nuclei anterior to the inferior horn of the lateral ventricle of the brain, within the temporal lobe. The amygdala is part of the limbic system. (MESH)", "preferredTerm": "Amygdaloid Nucleus", "submissionValue": "Anatomical Location", "synonyms": ["Amygdala"]}, {"conceptId": "C15609", "definition": "A natural or surgically-induced connection between tubular structures in the body. (NCI)", "preferredTerm": "Anastomosis", "submissionValue": "Anatomical Location", "synonyms": ["Anastomosis"]}, {"conceptId": "C32078", "definition": "A gliding joint between the distal ends of the tibia and fibula and the proximal end of the talus. (NCI)", "preferredTerm": "Ankle; Ankle Joint", "submissionValue": "Anatomical Location", "synonyms": ["Ankle Joint"]}, {"conceptId": "C12825", "definition": "An artery of the lower extremity that supplies blood to the anterior part of the leg and the foot.", "preferredTerm": "", "submissionValue": "Anatomical Location", "synonyms": ["Anterior Tibial Artery"]}, {"conceptId": "C12259", "definition": "The initial part of the pyloric canal of the stomach. This site contains endocrine cells that produce gastrin and somatostatin. (NCI)", "preferredTerm": "Antrum Pylori", "submissionValue": "Anatomical Location", "synonyms": ["Antrum Pylori"]}, {"conceptId": "C43362", "definition": "The lower opening of the digestive tract, lying in the cleft between the buttocks, through which fecal matter is extruded. (NCI)", "preferredTerm": "Anus", "submissionValue": "Anatomical Location", "synonyms": ["Anus"]}, {"conceptId": "C12669", "definition": "The major arterial trunk that carries oxygenated blood from the left ventricle into the ascending aorta behind the heart, the aortic arch, through the thorax as the descending aorta and through the abdomen as the abdominal aorta; it bifurcates into the left and right common iliac arteries. (NCI)", "preferredTerm": "Aorta", "submissionValue": "Anatomical Location", "synonyms": ["Aorta"]}, {"conceptId": "C32123", "definition": "The curved section of the aorta between the ascending and the descending tracts. The brachiocephalic, left common carotid and left subclavian arteries branch from the aorta at this section. (NCI)", "preferredTerm": "Aortic Arch", "submissionValue": "Anatomical Location", "synonyms": ["Aortic Arch"]}, {"conceptId": "C12670", "definition": "A valve that is located between and controls the flow of blood from the left ventricle of the heart and the aorta. (NCI)", "preferredTerm": "", "submissionValue": "Anatomical Location", "synonyms": ["Aortic Valve"]}, {"conceptId": "C116166", "definition": "The segment of the blood vessels that includes the iliac artery and its origin from the aorta.", "preferredTerm": "", "submissionValue": "Anatomical Location", "synonyms": ["Aortoiliac Artery Segment"]}, {"conceptId": "C116165", "definition": "A lymph node located in the aortopulmonary window.", "preferredTerm": "", "submissionValue": "Anatomical Location", "synonyms": ["Aortopulmonary Window Lymph Node"]}, {"conceptId": "C83470", "definition": "The distal end of the appendix. (NCI)", "preferredTerm": "", "submissionValue": "Anatomical Location", "synonyms": ["Appendiceal Tip"]}, {"conceptId": "C49477", "definition": "The part of the skeleton that includes the bones of the upper and lower limbs, including the shoulder and pelvic girdles", "preferredTerm": "", "submissionValue": "Anatomical Location", "synonyms": ["Appendicular Skeleton"]}, {"conceptId": "C12380", "definition": "Small tissue projection existing as a cecal diverticulum with a questionable history of vestigial versus specialized organ. (NCI)", "preferredTerm": "Appendix", "submissionValue": "Anatomical Location", "synonyms": ["Appendix"]}, {"conceptId": "C32141", "definition": "The portion of the upper extremity between the shoulder and the elbow. For clinical purposes this term is also used to refer to the whole superior limb. (NCI)", "preferredTerm": "Arm", "submissionValue": "Anatomical Location", "synonyms": ["Arm"]}, {"conceptId": "C52754", "definition": "The skin or integument covering the arm. (NCI)", "preferredTerm": "Arm Skin", "submissionValue": "Anatomical Location", "synonyms": ["Arm Skin"]}, {"conceptId": "C12372", "definition": "A blood vessel that carries blood away from the heart. (NCI)", "preferredTerm": "Artery", "submissionValue": "Anatomical Location", "synonyms": ["Artery"]}, {"conceptId": "C32172", "definition": "The part of the skeleton that includes the skull and spinal column and sternum and ribs. (NCI)", "preferredTerm": "", "submissionValue": "Anatomical Location", "synonyms": ["Axial Skeleton"]}, {"conceptId": "C12674", "definition": "The underside concavity where the arm and the shoulder are joined. (NCI)", "preferredTerm": "Axilla", "submissionValue": "Anatomical Location", "synonyms": ["Axilla"]}, {"conceptId": "C32169", "definition": "An artery that originates from the subclavian artery at the lateral margin of the first rib. It supplies the brachial artery.", "preferredTerm": "", "submissionValue": "Anatomical Location", "synonyms": ["Axillary Artery"]}, {"conceptId": "C12904", "definition": "One of approximately 20-30 lymph nodes in chain formation that traverse the concavity of the underarm to the clavicle. (NCI)", "preferredTerm": "Axillary Lymph Node", "submissionValue": "Anatomical Location", "synonyms": ["Axillary Lymph Node"]}, {"conceptId": "C32171", "definition": "A large blood vessel which returns blood to the heart from the lateral thorax, axilla and upper limb. Each side of the body contains one axillary vein.", "preferredTerm": "", "submissionValue": "Anatomical Location", "synonyms": ["Axillary Vein"]}, {"conceptId": "C13062", "definition": "The dorsal area between the base of the neck and the sacrum. (NCI)", "preferredTerm": "Back", "submissionValue": "Anatomical Location", "synonyms": ["Back"]}, {"conceptId": "C12447", "definition": "Clusters of neurons comprising the globus pallidus, putamen, caudate, nucleus accumbens, substantia nigra and subthalamic nucleus. They are involved with high level aspects of inhibitory motor activity in coordination with the excitation commands issued from the cerebellum. (NCI)", "preferredTerm": "Basal Ganglia", "submissionValue": "Anatomical Location", "synonyms": ["Basal Ganglia"]}, {"conceptId": "C32197", "definition": "One of the moderately large superficial veins of the forearm that transports blood from the hand and the medial aspect of the forearm to the axillary vein. (NCI)", "preferredTerm": "Basilic Vein", "submissionValue": "Anatomical Location", "synonyms": ["Basilic Vein"]}, {"conceptId": "C12376", "definition": "Any of the ducts conveying bile between the liver and the intestine, including hepatic, cystic, and common bile duct.", "preferredTerm": "", "submissionValue": "Anatomical Location", "synonyms": ["Bile Duct"]}, {"conceptId": "C12678", "definition": "The duct system that transports bile from its origination by hepatocytes in the liver to the small intestine. It is comprised of the common bile duct that connects the liver and gall bladder to the small intestine and the cystic duct that connects the gall bladder to the common bile duct. (NCI)", "preferredTerm": "Biliary Tract", "submissionValue": "Anatomical Location", "synonyms": ["Biliary Tract"]}, {"conceptId": "C12414", "definition": "The distensible sac-like organ that functions as a reservoir of urine, collecting from the kidneys and eliminating via the urethra. (NCI)", "preferredTerm": "Bladder", "submissionValue": "Anatomical Location", "synonyms": ["Bladder"]}, {"conceptId": "C12332", "definition": "The upper, convex surface of the bladder. (NCI)", "preferredTerm": "Dome of the Bladder", "submissionValue": "Anatomical Location", "synonyms": ["Dome of the Bladder"]}, {"conceptId": "C48939", "definition": "The portion of the bladder that is formed by the posterior wall and is located opposite to the bladder opening. (NCI)", "preferredTerm": "Fundus of the Bladder", "submissionValue": "Anatomical Location", "synonyms": ["Bladder Fundus"]}, {"conceptId": "C12336", "definition": "The inferior portion of the urinary bladder which is formed as the walls of the bladder converge and become contiguous with the proximal urethra. (NCI)", "preferredTerm": "Neck of the Bladder", "submissionValue": "Anatomical Location", "synonyms": ["Bladder Neck"]}, {"conceptId": "C12331", "definition": "The triangular area in the bladder mucosa that is formed by the two ureteral orifices and the urethral orifice. (NCI)", "preferredTerm": "Trigone of the Bladder", "submissionValue": "Anatomical Location", "synonyms": ["Bladder Trigone"]}, {"conceptId": "C12434", "definition": "A liquid tissue with the primary function of transporting oxygen and carbon dioxide. It supplies the tissues with nutrients, removes waste products, and contains various components of the immune system defending the body against infection.", "preferredTerm": "Blood; Peripheral Blood", "submissionValue": "Anatomical Location", "synonyms": ["Blood"]}, {"conceptId": "C12679", "definition": "A tubular structure through which the blood circulates in the body. Blood vessels constitute a network composed of arteries, arterioles, capillaries, venules, and veins. (NCI)", "preferredTerm": "Blood Vessel", "submissionValue": "Anatomical Location", "synonyms": ["Blood Vessel"]}, {"conceptId": "C13041", "definition": "The entire physical structure of an organism. It is composed of anatomic systems, regions, cavities, and spaces. (NCI)", "preferredTerm": "Body", "submissionValue": "Anatomical Location", "synonyms": ["Body"]}, {"conceptId": "C12258", "definition": "The main section of the digestive tube that connects the esophagus to the small intestine. The body proper excludes the upper and lower sections of the fundus and pyloric portion respectively. (NCI)", "preferredTerm": "Body of Stomach", "submissionValue": "Anatomical Location", "synonyms": ["Body of Stomach"]}, {"conceptId": "C12366", "definition": "Calcified connective tissue that forms the skeletal components of the body. (NCI)", "preferredTerm": "Bone", "submissionValue": "Anatomical Location", "synonyms": ["Bone"]}, {"conceptId": "C12431", "definition": "The tissue occupying the spaces of bone. It consists of blood vessel sinuses and a network of hematopoietic cells which give rise to the red cells, white cells, and megakaryocytes. (NCI)", "preferredTerm": "Bone Marrow", "submissionValue": "Anatomical Location", "synonyms": ["Bone Marrow"]}, {"conceptId": "C12681", "definition": "An artery originating at the axillary artery and branching into the radial and ulnar arteries. (NCI)", "preferredTerm": "Brachial Artery", "submissionValue": "Anatomical Location", "synonyms": ["Brachial Artery"]}, {"conceptId": "C92221", "definition": "An axillary lymph node along the brachial vein. (NCI)", "preferredTerm": "", "submissionValue": "Anatomical Location", "synonyms": ["Brachial Lymph Node"]}, {"conceptId": "C12682", "definition": "A nerve network originating from C5 to T1 that supplies cutaneous and muscular innervation to the arm and hand. (NCI)", "preferredTerm": "Brachial Plexus", "submissionValue": "Anatomical Location", "synonyms": ["Brachial Plexus"]}, {"conceptId": "C12439", "definition": "An organ composed of grey and white matter containing billions of neurons that is the center for intelligence and reasoning. It is protected by the bony cranium. (NCI)", "preferredTerm": "Brain; Nervous System, Brain", "submissionValue": "Anatomical Location", "synonyms": ["Brain"]}, {"conceptId": "C12441", "definition": "The part of the brain that connects the cerebral hemispheres with the spinal cord. It consists of the mesencephalon, pons, and medulla oblongata. (NCI)", "preferredTerm": "Brain Stem", "submissionValue": "Anatomical Location", "synonyms": ["Brain Stem"]}, {"conceptId": "C12356", "definition": "The four connected cavities (hollow spaces) centrally located within the brain that connect posteriorly with the central canal of the spinal cord. (NCI)", "preferredTerm": "Brain Ventricle", "submissionValue": "Anatomical Location", "synonyms": ["Brain Ventricle"]}, {"conceptId": "C12971", "definition": "One of two hemispheric projections of variable size situated in the subcutaneous layer over the pectoralis major muscle on either side of the chest. (NCI)", "preferredTerm": "Breast", "submissionValue": "Anatomical Location", "synonyms": ["Breast"]}, {"conceptId": "C12683", "definition": "Tubular structure in continuation with the trachea, serving as air passage. It terminates in the lung (terminal bronchiole). (NCI)", "preferredTerm": "Bronchi; Bronchus", "submissionValue": "Anatomical Location", "synonyms": ["Bronchus"]}, {"conceptId": "C89806", "definition": "Either of the fleshy mounds in the rear pelvic area of the human body formed by the gluteal muscles.", "preferredTerm": "Buttock", "submissionValue": "Anatomical Location", "synonyms": ["Buttock"]}, {"conceptId": "C32239", "definition": "The first of the seven cervical vertebrae. (NCI)", "preferredTerm": "C1 Vertebra", "submissionValue": "Anatomical Location", "synonyms": ["C1 Vertebra"]}, {"conceptId": "C32240", "definition": "The second of the seven cervical vertebrae. (NCI)", "preferredTerm": "C2 Vertebra", "submissionValue": "Anatomical Location", "synonyms": ["C2 Vertebra"]}, {"conceptId": "C32241", "definition": "The third of the seven cervical vertebrae. (NCI)", "preferredTerm": "C3 Vertebra", "submissionValue": "Anatomical Location", "synonyms": ["C3 Vertebra"]}, {"conceptId": "C32242", "definition": "The fourth of the seven cervical vertebrae. (NCI)", "preferredTerm": "C4 Vertebra", "submissionValue": "Anatomical Location", "synonyms": ["C4 Vertebra"]}, {"conceptId": "C32243", "definition": "The fifth of the seven cervical vertebrae. (NCI)", "preferredTerm": "C5 Vertebra", "submissionValue": "Anatomical Location", "synonyms": ["C5 Vertebra"]}, {"conceptId": "C32244", "definition": "The sixth of the seven cervical vertebrae. (NCI)", "preferredTerm": "C6 Vertebra", "submissionValue": "Anatomical Location", "synonyms": ["C6 Vertebra"]}, {"conceptId": "C32245", "definition": "The seventh of the seven cervical vertebrae. (NCI)", "preferredTerm": "C7 Vertebra", "submissionValue": "Anatomical Location", "synonyms": ["C7 Vertebra"]}, {"conceptId": "C32252", "definition": "A cerebral fissure that originates near the occipital lobe and terminates below the corpus callosum. (NCI)", "preferredTerm": "", "submissionValue": "Anatomical Location", "synonyms": ["Calcarine Sulcus"]}, {"conceptId": "C32258", "definition": "A single-cusped (pointed) and usually single-rooted tooth located between the incisors and premolars. (NCI)", "preferredTerm": "Canine Tooth", "submissionValue": "Anatomical Location", "synonyms": ["Canine Tooth"]}, {"conceptId": "C12856", "definition": "The largest of eight carpal bones, located in the center of the hand. (NCI)", "preferredTerm": "Capitate Bone", "submissionValue": "Anatomical Location", "synonyms": ["Capitate Bone"]}, {"conceptId": "C12687", "definition": "One of two arteries that supply oxygenated blood to the head and neck; the left common carotid branches from the aorta and the right common carotid from the innominate (brachiocephalic artery). (NCI)", "preferredTerm": "Carotid Artery", "submissionValue": "Anatomical Location", "synonyms": ["Carotid Artery"]}, {"conceptId": "C103912", "definition": "A saddle-shaped synovial joint between the metacarpal of the thumb and the trapezium. (NCI)", "preferredTerm": "CMC1", "submissionValue": "Anatomical Location", "synonyms": ["Carpometacarpal Joint 1"]}, {"conceptId": "C103913", "definition": "A plane joint primarily between the second metacarpal and the trapezoid, which also connects with the trapezium and capitate. (NCI)", "preferredTerm": "CMC2", "submissionValue": "Anatomical Location", "synonyms": ["Carpometacarpal Joint 2"]}, {"conceptId": "C103914", "definition": "A plane joint between the third metacarpal and the capitate. (NCI)", "preferredTerm": "CMC3", "submissionValue": "Anatomical Location", "synonyms": ["Carpometacarpal Joint 3"]}, {"conceptId": "C103915", "definition": "A plane joint between the fourth metacarpal and the hamate. (NCI)", "preferredTerm": "CMC4", "submissionValue": "Anatomical Location", "synonyms": ["Carpometacarpal Joint 4"]}, {"conceptId": "C103916", "definition": "A plane joint between the fifth metacarpal and the pisiform. (NCI)", "preferredTerm": "CMC5", "submissionValue": "Anatomical Location", "synonyms": ["Carpometacarpal Joint 5"]}, {"conceptId": "C12451", "definition": "An elongated gray mass of the neostriatum located adjacent to the lateral ventricle of the brain. (MeSH)", "preferredTerm": "", "submissionValue": "Anatomical Location", "synonyms": ["Caudate Nucleus"]}, {"conceptId": "C12381", "definition": "A blind pouch-like commencement of the colon in the right lower quadrant of the abdomen at the end of the small intestine and the start of the large intestine. (OMD)", "preferredTerm": "Cecal; Cecum", "submissionValue": "Anatomical Location", "synonyms": ["Cecum"]}, {"conceptId": "C65166", "definition": "A lymph node at the base of the celiac artery. (NCI)", "preferredTerm": "Celiac Axis Lymph Node; Celiac Lymph Node", "submissionValue": "Anatomical Location", "synonyms": ["Celiac Lymph Node"]}, {"conceptId": "C12438", "definition": "The part of the nervous system that consists of the brain, spinal cord, and meninges. (NCI)", "preferredTerm": "", "submissionValue": "Anatomical Location", "synonyms": ["Central Nervous System"]}, {"conceptId": "C32286", "definition": "One of five superficial veins of the upper extremity, beginning at the radial aspect of the wrist area, wrapping around the forearm and emptying into the axillary vein. (NCI)", "preferredTerm": "Cephalic Vein; Vena Cephalica", "submissionValue": "Anatomical Location", "synonyms": ["Cephalic Vein"]}, {"conceptId": "C12445", "definition": "The portion of the brain located at the base of the skull that is responsible for balance, equilibrium and movement. (NCI)", "preferredTerm": "", "submissionValue": "Anatomical Location", "synonyms": ["Cerebellum"]}, {"conceptId": "C12443", "definition": "The outer layer of the cerebrum composed of neurons and unmyelinated nerve fibers. It is responsible for memory, attention, consciousness and other higher levels of mental function.", "preferredTerm": "Cerebral Cortex", "submissionValue": "Anatomical Location", "synonyms": ["Cerebral Cortex"]}, {"conceptId": "C32955", "definition": "The left half of the cerebrum.", "preferredTerm": "", "submissionValue": "Anatomical Location", "synonyms": ["Left Cerebral Hemisphere"]}, {"conceptId": "C33472", "definition": "The right half of the cerebrum.", "preferredTerm": "", "submissionValue": "Anatomical Location", "synonyms": ["Right Cerebral Hemisphere"]}, {"conceptId": "C98712", "definition": "The layer located below the cerebral cortex that includes the forebrain, midbrain and hindbrain. (NCI)", "preferredTerm": "Cerebral Subcortex", "submissionValue": "Anatomical Location", "synonyms": ["Cerebral Subcortex"]}, {"conceptId": "C12351", "definition": "One half of the cerebrum, the part of the brain that controls muscle functions and also controls speech, thought, emotions, reading, writing, and learning. The right hemisphere controls the muscles on the left side of the body, and the left hemisphere controls the muscles on the right side of the body. (NCI)", "preferredTerm": "Cerebral Hemisphere", "submissionValue": "Anatomical Location", "synonyms": ["Cerebral Hemisphere"]}, {"conceptId": "C32298", "definition": "Any of the lymph nodes located in the neck. (NCI)", "preferredTerm": "Cervical Lymph Node", "submissionValue": "Anatomical Location", "synonyms": ["Cervical Lymph Node"]}, {"conceptId": "C12693", "definition": "Any one of the seven vertebrae that start with C1, connecting the skull to the spine, and ends with C7, which joins the cervical with the thoracic spine. (NCI)", "preferredTerm": "Cervical Vertebra", "submissionValue": "Anatomical Location", "synonyms": ["Cervical Vertebra"]}, {"conceptId": "C12311", "definition": "The lower part of the uterus occupying the region between the isthmus of the uterus and the vagina. It is divided into supravaginal and vaginal portions. (NCI)", "preferredTerm": "Cervix Uteri; Uterine Cervix", "submissionValue": "Anatomical Location", "synonyms": ["Cervix Uteri"]}, {"conceptId": "C13070", "definition": "The fleshy part of the face bounded by the eyes, nose, ear, and jaw line. (NCI)", "preferredTerm": "", "submissionValue": "Anatomical Location", "synonyms": ["Cheek"]}, {"conceptId": "C25389", "definition": "The anterior side of the thorax from the neck to the abdomen. The shape of the chest is often regarded as potential insight into a disease process, as in the case of barrel chest and respiratory dysfunction. (NCI)", "preferredTerm": "Chest", "submissionValue": "Anatomical Location", "synonyms": ["Chest"]}, {"conceptId": "C62484", "definition": "The total system of structures outside the lungs that move as a part of breathing; it includes all structures from the skin to the parietal pleura. (NCI)", "preferredTerm": "Chest Wall", "submissionValue": "Anatomical Location", "synonyms": ["Chest Wall"]}, {"conceptId": "C12694", "definition": "Blood vessels forming villous structures in the third, fourth, and lateral ventricles of the brain. (NCI)", "preferredTerm": "Choroid Plexus", "submissionValue": "Anatomical Location", "synonyms": ["Choroid Plexus"]}, {"conceptId": "C52713", "definition": "Part of the medial aspect of the cerebral cortex. (NCI)", "preferredTerm": "", "submissionValue": "Anatomical Location", "synonyms": ["Cingulate Cortex"]}, {"conceptId": "C102287", "definition": "The segment of the left circumflex artery that is distal to the third marginal branch, located in the atrioventricular groove.", "preferredTerm": "CIRC AV; CIRCUMFLEX ARTERY AV GROOVE CONTINUATION ARTERY SEGMENT", "submissionValue": "Anatomical Location", "synonyms": ["Circumflex Artery AV Groove Continuation Artery"]}, {"conceptId": "C102286", "definition": "The left circumflex coronary artery and all of its branches.", "preferredTerm": "", "submissionValue": "Anatomical Location", "synonyms": ["Circumflex Artery and its Branches"]}, {"conceptId": "C12695", "definition": "One of a pair of bones linking the scapula and the sternum. The clavicle is part of the pectoral girdle. (NCI)", "preferredTerm": "Clavicle", "submissionValue": "Anatomical Location", "synonyms": ["Clavicle"]}, {"conceptId": "C12308", "definition": "The erectile tissue in the vulva. It is composed of the corpora cavernosa and the glans clitoris.", "preferredTerm": "", "submissionValue": "Anatomical Location", "synonyms": ["Clitoris"]}, {"conceptId": "C32334", "definition": "Four vertebral segments positioned at the base of the spine that are fused. (NCI)", "preferredTerm": "Coccygeal Vertebra", "submissionValue": "Anatomical Location", "synonyms": ["Coccygeal Vertebra"]}, {"conceptId": "C12696", "definition": "A small bone located at the bottom of the spine. The coccyx is a result of 3-5 fused rudimentary vertebrae. (NCI)", "preferredTerm": "Coccyx", "submissionValue": "Anatomical Location", "synonyms": ["Coccyx"]}, {"conceptId": "C12382", "definition": "The part of the large intestine measured from the cecum to the rectum consisting of ascending, transverse, descending and sigmoid portions. The purpose of the colon is to remove water from digested food prior to excretion. (NCI)", "preferredTerm": "Colon", "submissionValue": "Anatomical Location", "synonyms": ["Colon"]}, {"conceptId": "C12265", "definition": "The first part of the colon (large intestine) that starts in the right lower quadrant of the abdomen and ends at the transverse colon in the right upper quadrant of the abdomen. (NCI)", "preferredTerm": "Ascending Colon", "submissionValue": "Anatomical Location", "synonyms": ["Ascending Colon"]}, {"conceptId": "C12268", "definition": "The fourth portion of the large intestine (colon) that communicates with the transverse colon in the left-upper quadrant of the abdomen and the rectum below. (NCI)", "preferredTerm": "Descending Colon", "submissionValue": "Anatomical Location", "synonyms": ["Descending Colon"]}, {"conceptId": "C33929", "definition": "The portion of the large intestine that includes the descending and sigmoid colon. (NCI)", "preferredTerm": "Left Colon", "submissionValue": "Anatomical Location", "synonyms": ["Left Colon"]}, {"conceptId": "C103438", "definition": "A portion of the large intestine that includes the descending colon, sigmoid colon and rectum.", "preferredTerm": "", "submissionValue": "Anatomical Location", "synonyms": ["Rectosigmoid Colon"]}, {"conceptId": "C12383", "definition": "The proximal segment of the large intestine that is located in the right side of the abdominal cavity. It includes the cecum (with the attached appendix) and the ascending colon. (NCI)", "preferredTerm": "Right Colon", "submissionValue": "Anatomical Location", "synonyms": ["Right Colon"]}, {"conceptId": "C12384", "definition": "The portion of the colon that connects to the descending colon above and the rectum below. (NCI)", "preferredTerm": "Sigmoid Colon", "submissionValue": "Anatomical Location", "synonyms": ["Sigmoid Colon"]}, {"conceptId": "C12385", "definition": "The third division of the colon (large intestine). It communicates with the ascending colon in the upper right-hand quadrant of the abdomen and the descending colon in the upper left-hand quadrant. (NCI)", "preferredTerm": "Transverse Colon", "submissionValue": "Anatomical Location", "synonyms": ["Transverse Colon"]}, {"conceptId": "C32354", "definition": "An artery arising from the external iliac artery at the inguinal ligament which bifurcates forming the deep and superficial femoral arteries.", "preferredTerm": "", "submissionValue": "Anatomical Location", "synonyms": ["Common Femoral Artery"]}, {"conceptId": "C32357", "definition": "An artery arising from the bifurcation of the abdominal aorta which then bifurcates forming the internal and external iliac arteries.", "preferredTerm": "", "submissionValue": "Anatomical Location", "synonyms": ["Common Iliac Artery"]}, {"conceptId": "C103384", "definition": "A lymph node located adjacent to the common iliac artery. (NCI)", "preferredTerm": "", "submissionValue": "Anatomical Location", "synonyms": ["Common Iliac Lymph Node"]}, {"conceptId": "C12341", "definition": "A thin, transparent tissue divided into the palpebral conjunctiva (covering the inner side of the eye lid) and the bulbar conjunctiva (covering the eyeball). (NCI)", "preferredTerm": "Conjunctiva", "submissionValue": "Anatomical Location", "synonyms": ["Conjunctiva"]}, {"conceptId": "C12342", "definition": "A dome-shaped, transparent, avascular tissue covering the front of the eye. It is composed of five layers: squamous epithelium, Bowman's membrane, stroma, Descemet's membrane, and endothelium. Refraction of light contributing to eye's focusing ability is its characteristic function. It contains unmyelinated nerve endings which are responsible for the high sensitivity of the tissue. (NCI)", "preferredTerm": "Cornea", "submissionValue": "Anatomical Location", "synonyms": ["Cornea"]}, {"conceptId": "C12843", "definition": "A principal artery that originates in the aorta. It supplies blood to the muscular tissue of the heart. (NCI)", "preferredTerm": "Coronary Artery", "submissionValue": "Anatomical Location", "synonyms": ["Coronary Artery"]}, {"conceptId": "C32089", "definition": "A left coronary artery branch that descends on the anterior portion of the heart through the anterior interventricular groove. (NCI)", "preferredTerm": "Anterior Descending Coronary Artery; Left Anterior Descending Coronary Artery", "submissionValue": "Anatomical Location", "synonyms": ["Anterior Descending Coronary Artery"]}, {"conceptId": "C12872", "definition": "A coronary artery that arises from the aorta and bifurcates into the left anterior descending artery and the left circumflex artery. (NCI)", "preferredTerm": "LM; Left Coronary Artery; Left Main Coronary Artery; Left Main Coronary Artery Segment", "submissionValue": "Anatomical Location", "synonyms": ["Left Coronary Artery"]}, {"conceptId": "C12875", "definition": "A coronary artery that originates above the right coronary cusp and supplies blood predominantly to the right side of the heart. (NCI)", "preferredTerm": "Right Coronary Artery", "submissionValue": "Anatomical Location", "synonyms": ["Right Coronary Artery"]}, {"conceptId": "C32378", "definition": "The coronary vein that terminates in the right atrium and transports deoxygenated blood from the coronary circulation.", "preferredTerm": "", "submissionValue": "Anatomical Location", "synonyms": ["Coronary Sinus"]}, {"conceptId": "C12882", "definition": "A blood vessel in the heart which returns coronary blood to the right atrium.", "preferredTerm": "", "submissionValue": "Anatomical Location", "synonyms": ["Coronary Vein"]}, {"conceptId": "C12446", "definition": "A white matter structure within the cleft that separates the left and right cerebral hemispheres in the mammalian brain. It is composed of a wide, flat bundle of 200-250 million axonal projections. (NCI)", "preferredTerm": "", "submissionValue": "Anatomical Location", "synonyms": ["Corpus Callosum"]}, {"conceptId": "C26465", "definition": "A group of cells that remain of the Graafian follicle following ovulation. This structure is composed of endocrine tissue and produces progesterone. This is needed to prepare the uterine lining for implantation by the fertilized egg. (NCI)", "preferredTerm": "Corpus Luteum", "submissionValue": "Anatomical Location", "synonyms": ["Corpus Luteum"]}, {"conceptId": "C12448", "definition": "The portion of the brain consisting of the neostriatum and globus pallidus.", "preferredTerm": "", "submissionValue": "Anatomical Location", "synonyms": ["Corpus Striatum"]}, {"conceptId": "C32391", "definition": "The cartilage positioned between the anterior end of the rib and the sternum. Its elasticity allows the ribcage to expand while breathing. (NCI)", "preferredTerm": "Costal Cartilage", "submissionValue": "Anatomical Location", "synonyms": ["Costal Cartilage"]}, {"conceptId": "C102288", "definition": "The first hyaline cartilaginous joint between the ribs and costal cartilage.", "preferredTerm": "", "submissionValue": "Anatomical Location", "synonyms": ["Costochondral Joint 1"]}, {"conceptId": "C102289", "definition": "The seventh hyaline cartilaginous joint between the ribs and costal cartilage.", "preferredTerm": "", "submissionValue": "Anatomical Location", "synonyms": ["Costochondral Joint 7"]}, {"conceptId": "C12700", "definition": "Any of the 12 paired nerves that originate in the brain stem. (NCI)", "preferredTerm": "", "submissionValue": "Anatomical Location", "synonyms": ["Cranial Nerve"]}, {"conceptId": "C32414", "definition": "A bone on the lateral side of the tarsus between the calcaneus and the fourth and fifth metatarsal bones. (NCI)", "preferredTerm": "Cuboid Bone", "submissionValue": "Anatomical Location", "synonyms": ["Cuboid Bone"]}, {"conceptId": "C12702", "definition": "Fibromuscular tissue that separates the thoracic from the abdominal cavity. It increases the volume of the thoracic cavity through contractions, thus facilitating respiration.", "preferredTerm": "", "submissionValue": "Anatomical Location", "synonyms": ["Diaphragm"]}, {"conceptId": "C102290", "definition": "The segment of the left circumflex artery that is between the second and third obtuse marginal branches.", "preferredTerm": "DCIRC; DISTAL CIRCUMFLEX ARTERY SEGMENT", "submissionValue": "Anatomical Location", "synonyms": ["Distal Circumflex Artery"]}, {"conceptId": "C102291", "definition": "A condyloid synovial joint within the second digit of the hand or foot connecting the middle and distal phalanges. (NCI)", "preferredTerm": "DIP2", "submissionValue": "Anatomical Location", "synonyms": ["Distal Interphalangeal Joint 2"]}, {"conceptId": "C114198", "definition": "A ginglymoid (hinge) synovial joint within the second digit of the foot connecting the middle and distal phalanges. (NCI)", "preferredTerm": "DIP2 of the Foot", "submissionValue": "Anatomical Location", "synonyms": ["Distal Interphalangeal Joint 2 of the Foot"]}, {"conceptId": "C114188", "definition": "A ginglymoid (hinge) synovial joint within the second digit of the hand connecting the middle and distal phalanges. (NCI)", "preferredTerm": "DIP2 of the Hand", "submissionValue": "Anatomical Location", "synonyms": ["Distal Interphalangeal Joint 2 of the Hand"]}, {"conceptId": "C102292", "definition": "A condyloid synovial joint within the third digit of the hand or foot connecting the middle and distal phalanges. (NCI)", "preferredTerm": "DIP3", "submissionValue": "Anatomical Location", "synonyms": ["Distal Interphalangeal Joint 3"]}, {"conceptId": "C114199", "definition": "A ginglymoid (hinge) synovial joint within the third digit of the foot connecting the middle and distal phalanges. (NCI)", "preferredTerm": "DIP3 of the Foot", "submissionValue": "Anatomical Location", "synonyms": ["Distal Interphalangeal Joint 3 of the Foot"]}, {"conceptId": "C114189", "definition": "A ginglymoid (hinge) synovial joint within the third digit of the hand connecting the middle and distal phalanges. (NCI)", "preferredTerm": "DIP3 of the Hand", "submissionValue": "Anatomical Location", "synonyms": ["Distal Interphalangeal Joint 3 of the Hand"]}, {"conceptId": "C102293", "definition": "A condyloid synovial joint within the fourth digit of the hand or foot connecting the middle and distal phalanges. (NCI)", "preferredTerm": "DIP4", "submissionValue": "Anatomical Location", "synonyms": ["Distal Interphalangeal Joint 4"]}, {"conceptId": "C114275", "definition": "A ginglymoid (hinge) synovial joint within the fourth digit of the foot connecting the middle and distal phalanges. (NCI)", "preferredTerm": "DIP4 of the Foot", "submissionValue": "Anatomical Location", "synonyms": ["Distal Interphalangeal Joint 4 of the Foot"]}, {"conceptId": "C114273", "definition": "A ginglymoid (hinge) synovial joint within the fourth digit of the hand connecting the middle and distal phalanges. (NCI)", "preferredTerm": "DIP4 of the Hand", "submissionValue": "Anatomical Location", "synonyms": ["Distal Interphalangeal Joint 4 of the Hand"]}, {"conceptId": "C102294", "definition": "A condyloid synovial joint within the fifth digit of the hand or foot connecting the middle and distal phalanges. (NCI)", "preferredTerm": "DIP5", "submissionValue": "Anatomical Location", "synonyms": ["Distal Interphalangeal Joint 5"]}, {"conceptId": "C114276", "definition": "A ginglymoid (hinge) synovial joint within the fifth digit of the foot connecting the middle and distal phalanges. (NCI)", "preferredTerm": "DIP5 of the Foot", "submissionValue": "Anatomical Location", "synonyms": ["Distal Interphalangeal Joint 5 of the Foot"]}, {"conceptId": "C114274", "definition": "A ginglymoid (hinge) synovial joint within the fifth digit of the hand connecting the middle and distal phalanges. (NCI)", "preferredTerm": "DIP5 of the Hand", "submissionValue": "Anatomical Location", "synonyms": ["Distal Interphalangeal Joint 5 of the Hand"]}, {"conceptId": "C102295", "definition": "The segment of the left anterior descending (LAD) artery that is distal to the third diagonal branch.", "preferredTerm": "DISTAL LAD ARTERY SEGMENT; DLAD", "submissionValue": "Anatomical Location", "synonyms": ["Distal Left Anterior Descending Artery"]}, {"conceptId": "C102296", "definition": "The section of the right coronary artery distal to the origin of the acute marginal artery.", "preferredTerm": "DISTAL RIGHT CORONARY ARTERY CONDUIT SEGMENT; DRCA", "submissionValue": "Anatomical Location", "synonyms": ["Distal Right Coronary Artery Conduit"]}, {"conceptId": "C12934", "definition": "A brain nucleus located in the medulla oblongata. (NCI)", "preferredTerm": "", "submissionValue": "Anatomical Location", "synonyms": ["Dorsal Motor Nucleus"]}, {"conceptId": "C32478", "definition": "An artery of the dorsal surface of the foot, originating from the anterior tibial artery of the lower leg. The following arterial branches originate from the dorsalis pedis artery: the arcuate artery of the foot and deep plantar artery. (NCI)", "preferredTerm": "Dorsalis Pedis Artery", "submissionValue": "Anatomical Location", "synonyms": ["Dorsalis Pedis Artery"]}, {"conceptId": "C12263", "definition": "A jointed tube 25-30 cm long that connects the stomach to the jejunum. (NCI)", "preferredTerm": "", "submissionValue": "Anatomical Location", "synonyms": ["Duodenum"]}, {"conceptId": "C102627", "definition": "Venous channels within the dura mater of the brain which receives both blood from blood vessels within the brain as well as cerebrospinal fluid then drains into the internal jugular vein. Unlike other blood vessels, dural venous sinuses lack valves and other vessel associated layers.", "preferredTerm": "", "submissionValue": "Anatomical Location", "synonyms": ["Dural Venous Sinus"]}, {"conceptId": "C12394", "definition": "A sense organ needed for the detection of sound and for establishing balance. The outer ear consists of the auricle, the ear canal as well as the tympanic membrane. The middle ear is made up of an air-filled cavity behind the tympanic membrane that contains the ossicles (malleus, incus and stapes). The inner ear is made up of the cochlea needed for hearing and the vestibular apparatus required for balance. (NCI)", "preferredTerm": "Ear", "submissionValue": "Anatomical Location", "synonyms": ["Ear"]}, {"conceptId": "C12499", "definition": "The portion of the ear located within the temporal bone that is involved in both hearing and balance and includes the semicircular canals, vestibule, and cochlea. (from American Heritage Dictionary online)", "preferredTerm": "Cochlea; Internal Ear; Labyrinth", "submissionValue": "Anatomical Location", "synonyms": ["Inner Ear"]}, {"conceptId": "C12292", "definition": "The external part of the ear. (NCI)", "preferredTerm": "Auricle; External Ear", "submissionValue": "Anatomical Location", "synonyms": ["External Ear"]}, {"conceptId": "C32497", "definition": "A joint involving the humerus, radius and ulna bones.", "preferredTerm": "Elbow Joint", "submissionValue": "Anatomical Location", "synonyms": ["Elbow Joint"]}, {"conceptId": "C13004", "definition": "The layer of endothelial cells and connective tissue lining the chambers of the heart. (NCI)", "preferredTerm": "", "submissionValue": "Anatomical Location", "synonyms": ["Endocardium"]}, {"conceptId": "C12309", "definition": "The portion of the cervix which is lined by single columnar epithelium (mucosa). (NCI)", "preferredTerm": "", "submissionValue": "Anatomical Location", "synonyms": ["Endocervix"]}, {"conceptId": "C32514", "definition": "A space inside the uterus lined by a layer of mucus membranes called the endometrium. (NCI)", "preferredTerm": "Endometrial Cavity", "submissionValue": "Anatomical Location", "synonyms": ["Endometrial Cavity"]}, {"conceptId": "C97338", "definition": "A brain region in the medial temporal lobe near the hippocampus. (NCI)", "preferredTerm": "", "submissionValue": "Anatomical Location", "synonyms": ["Entorhinal Cortex"]}, {"conceptId": "C13164", "definition": "The outer membranous connective tissue layer of the heart tissue. (NCI)", "preferredTerm": "", "submissionValue": "Anatomical Location", "synonyms": ["Epicardium"]}, {"conceptId": "C69300", "definition": "A bone prominence to which ligaments and tendons of the joints are attached. (NCI)", "preferredTerm": "Epicondyle", "submissionValue": "Anatomical Location", "synonyms": ["Epicondyle"]}, {"conceptId": "C12328", "definition": "A crescent-like structure located in the upper and posterior surfaces of the testis. It consists of the efferent ductules and the duct of the epididymis. It facilitates the maturation of sperm that is produced in the testis. (NCI)", "preferredTerm": "", "submissionValue": "Anatomical Location", "synonyms": ["Epididymis"]}, {"conceptId": "C12709", "definition": "A small cartilagenous flap-like valve that closes over the larynx during swallowing to prevent food entering the lungs. (NCI)", "preferredTerm": "Epiglottis", "submissionValue": "Anatomical Location", "synonyms": ["Epiglottis"]}, {"conceptId": "C98182", "definition": "A lymph node located above and adjacent to the elbow. (NCI)", "preferredTerm": "", "submissionValue": "Anatomical Location", "synonyms": ["Epitrochlear Lymph Node"]}, {"conceptId": "C12389", "definition": "The portion of the digestive canal between the pharynx and stomach. It is about 25 cm long and consists of three parts: the cervical part, from the cricoid cartilage to the thoracic inlet; thoracic part, from thoracic inlet to the diaphragm; and abdominal part, below the diaphragm to the cardiac opening of the stomach. (NCI)", "preferredTerm": "Esophagus", "submissionValue": "Anatomical Location", "synonyms": ["Esophagus"]}, {"conceptId": "C12252", "definition": "Clinical esophageal segment composed of smooth muscle. It corresponds to the inferior part of the lower third topographic segment of the esophagus. (NCI)", "preferredTerm": "Abdominal Esophagus", "submissionValue": "Anatomical Location", "synonyms": ["Abdominal Esophagus"]}, {"conceptId": "C12250", "definition": "Clinical esophageal segment composed of skeletal muscle. It corresponds to the superior part of the upper third topographic segment of the esophagus. (NCI)", "preferredTerm": "Cervical Esophagus", "submissionValue": "Anatomical Location", "synonyms": ["Cervical Esophagus"]}, {"conceptId": "C12255", "definition": "The lower one third of the esophagus in which the muscle layer is composed of muscle cells predominantly of the smooth type. (NCI)", "preferredTerm": "Lower Third of the Esophagus", "submissionValue": "Anatomical Location", "synonyms": ["Lower Third of the Esophagus"]}, {"conceptId": "C12254", "definition": "The middle one third of the esophagus in which the muscle layer is composed of muscle cells of the striated and smooth types.", "preferredTerm": "Middle Third of the Esophagus", "submissionValue": "Anatomical Location", "synonyms": ["Middle Third of the Esophagus"]}, {"conceptId": "C12251", "definition": "Clinical esophageal segment composed of smooth muscle. It includes the middle third topographic segment, as well as parts of the upper and lower thirds. (NCI)", "preferredTerm": "Thoracic Esophagus", "submissionValue": "Anatomical Location", "synonyms": ["Thoracic Esophagus"]}, {"conceptId": "C12253", "definition": "The upper one third of esophagus in which the muscle layer is composed of muscle cells of the striated type. (NCI)", "preferredTerm": "Upper Third of the Esophagus", "submissionValue": "Anatomical Location", "synonyms": ["Upper Third of the Esophagus"]}, {"conceptId": "C12711", "definition": "A light and spongy bone that is cubical in shape. This bone is positioned at the anterior part of the cranium, sitting between the two orbits, at the roof of the nose. It consists of four parts: a horizontal or cribriform plate; a perpendicular plate; and two lateral masses or labyrinths. (NCI)", "preferredTerm": "Ethmoid Bone", "submissionValue": "Anatomical Location", "synonyms": ["Ethmoid Bone"]}, {"conceptId": "C12276", "definition": "A sinus of the meatuses of the nasal cavity. (NCI)", "preferredTerm": "Ethmoid Sinus", "submissionValue": "Anatomical Location", "synonyms": ["Ethmoid Sinus"]}, {"conceptId": "C32558", "definition": "An artery arising from the bifurcation of the common iliac artery in the lower torso. The external iliac artery becomes the femoral artery and is the main blood supply for the leg.", "preferredTerm": "", "submissionValue": "Anatomical Location", "synonyms": ["External Iliac Artery"]}, {"conceptId": "C88143", "definition": "A lymph node located along the external iliac artery. (NCI)", "preferredTerm": "", "submissionValue": "Anatomical Location", "synonyms": ["External Iliac Lymph Node"]}, {"conceptId": "C32573", "definition": "The portion of the biliary tract outside the liver; the common hepatic duct joins the cystic duct to form the common bile duct. (NCI)", "preferredTerm": "", "submissionValue": "Anatomical Location", "synonyms": ["Extrahepatic Bile Duct"]}, {"conceptId": "C12401", "definition": "The organ of sight or vision. (NCI)", "preferredTerm": "Eye; Eyeball", "submissionValue": "Anatomical Location", "synonyms": ["Eye"]}, {"conceptId": "C12667", "definition": "The space in the eye, filled with aqueous humor, bounded anteriorly by the cornea and a small portion of the sclera and posteriorly by a small portion of the ciliary body, the iris, and that part of the crystalline lens which presents through the pupil. (Cline et al., Dictionary of Visual Science, 4th ed, p109) (NCI)", "preferredTerm": "", "submissionValue": "Anatomical Location", "synonyms": ["Anterior Chamber of the Eye"]}, {"conceptId": "C33885", "definition": "The largest space within the eye which is bounded by the lens and the retina and filled with the gelatinous vitreous humor. (NCI)", "preferredTerm": "Postremal Chamber", "submissionValue": "Anatomical Location", "synonyms": ["Vitreous Chamber"]}, {"conceptId": "C32576", "definition": "Anyone of the short hairs that grow on the edge of the eyelid. (NCI)", "preferredTerm": "", "submissionValue": "Anatomical Location", "synonyms": ["Eyelash"]}, {"conceptId": "C12713", "definition": "A thin membrane of skin with the purpose of covering and protecting an eye. (NCI)", "preferredTerm": "Eyelid; Palpebra", "submissionValue": "Anatomical Location", "synonyms": ["Eyelid"]}, {"conceptId": "C13071", "definition": "The anterior portion of the head extending from the forehead to the chin and ear to ear. The facial structures contain the eyes, nose and mouth, cheeks and jaws. (NCI)", "preferredTerm": "Face; Facial", "submissionValue": "Anatomical Location", "synonyms": ["Face"]}, {"conceptId": "C32577", "definition": "A synovial joint between two adjacent vertebrae. The facet joint links the articular process of one vertebra and the inferior articular process of the adjacent vertebra. (NCI)", "preferredTerm": "Facet Joint", "submissionValue": "Anatomical Location", "synonyms": ["Facet Joint"]}, {"conceptId": "C63706", "definition": "Any bone that contributes to the facial structures, except those bones that are part of the braincase. (NCI)", "preferredTerm": "Facial Bone", "submissionValue": "Anatomical Location", "synonyms": ["Facial Bone"]}, {"conceptId": "C12714", "definition": "The 7th cranial nerve. The facial nerve has two parts, the larger motor root which may be called the facial nerve proper, and the smaller intermediate or sensory root. Together they provide efferent innervation to the muscles of facial expression and to the lacrimal and salivary glands, and convey afferent information for taste from the anterior two-thirds of the tongue and for touch from the external ear. (MeSH)", "preferredTerm": "Seventh Cranial Nerve", "submissionValue": "Anatomical Location", "synonyms": ["Facial Nerve"]}, {"conceptId": "C12403", "definition": "One of a pair of tubes that extend from the uterus to each of the ovaries. Following ovulation the egg travels down the fallopian tube to the uterus where fertilization may or may not occur. (NCI)", "preferredTerm": "Fallopian Tube", "submissionValue": "Anatomical Location", "synonyms": ["Fallopian Tube"]}, {"conceptId": "C13108", "definition": "A sheet or band of fibrous connective tissue enveloping, separating, or binding together muscles, organs and other soft structures of the body.", "preferredTerm": "", "submissionValue": "Anatomical Location", "synonyms": ["Fascia"]}, {"conceptId": "C61600", "definition": "Female internal and external organs of reproduction.", "preferredTerm": "Female Genitalia", "submissionValue": "Anatomical Location", "synonyms": ["Female Genitalia"]}, {"conceptId": "C12402", "definition": "The sex organs of the female.", "preferredTerm": "", "submissionValue": "Anatomical Location", "synonyms": ["Female Reproductive System"]}, {"conceptId": "C12715", "definition": "An artery that starts within the inguinal region and extends to the lower extremities. (NCI)", "preferredTerm": "Femoral Artery", "submissionValue": "Anatomical Location", "synonyms": ["Femoral Artery"]}, {"conceptId": "C114186", "definition": "The rounded bony projection at the distal end of the femur.", "preferredTerm": "", "submissionValue": "Anatomical Location", "synonyms": ["Femoral Condyle"]}, {"conceptId": "C32718", "definition": "The highest portion of the femoral bone that articulates with the acetabulum. (NCI)", "preferredTerm": "Femur Head", "submissionValue": "Anatomical Location", "synonyms": ["Head of the Femur"]}, {"conceptId": "C98183", "definition": "A lymph node located in the upper inner portion of the thigh. (NCI)", "preferredTerm": "", "submissionValue": "Anatomical Location", "synonyms": ["Femoral Lymph Node"]}, {"conceptId": "C61563", "definition": "The short, constricted portion of the thigh bone between the femur head and the trochanter. (NCI)", "preferredTerm": "Femoral Neck", "submissionValue": "Anatomical Location", "synonyms": ["Femoral Neck"]}, {"conceptId": "C12716", "definition": "A vein that starts within the inguinal region and extends to the lower extremities. (NCI)", "preferredTerm": "Femoral Vein", "submissionValue": "Anatomical Location", "synonyms": ["Femoral Vein"]}, {"conceptId": "C116167", "definition": "The segment of the blood vessels that includes the popliteal artery and its origin from the femoral artery.", "preferredTerm": "", "submissionValue": "Anatomical Location", "synonyms": ["Femoropopliteal Artery Segment"]}, {"conceptId": "C12717", "definition": "The upper leg bone positioned between the pelvis and the knee. (NCI)", "preferredTerm": "Bone, Femoral; Femur", "submissionValue": "Anatomical Location", "synonyms": ["Femur"]}, {"conceptId": "C12718", "definition": "The small, lateral calf bone extending from the knee to the ankle. (NCI)", "preferredTerm": "Fibula", "submissionValue": "Anatomical Location", "synonyms": ["Fibula"]}, {"conceptId": "C32608", "definition": "Any of the digits of the hand. (NCI)", "preferredTerm": "Finger", "submissionValue": "Anatomical Location", "synonyms": ["Finger"]}, {"conceptId": "C32609", "definition": "The nail at the end of a finger. (NCI)", "preferredTerm": "Fingernail", "submissionValue": "Anatomical Location", "synonyms": ["Fingernail"]}, {"conceptId": "C102297", "definition": "The first artery arising from the left anterior descending (LAD) artery that supplies the anterolateral wall, when counted from proximal to distal.", "preferredTerm": "1ST DIAG; FIRST DIAGONAL BRANCH ARTERY SEGMENT", "submissionValue": "Anatomical Location", "synonyms": ["First Diagonal Branch Artery"]}, {"conceptId": "C102298", "definition": "In an individual with a left-dominant heart, this is the first branch that arises from the circumflex artery atrioventricular groove continuation when counted from proximal to distal. It supplies the posterolateral wall.", "preferredTerm": "1ST LPL; FIRST LEFT POSTEROLATERAL BRANCH ARTERY SEGMENT", "submissionValue": "Anatomical Location", "synonyms": ["First Left Posterolateral Branch Artery"]}, {"conceptId": "C102299", "definition": "The first artery arising from the left circumflex artery that supplies the lateral wall, when counted from proximal to distal.", "preferredTerm": "1ST OM; FIRST OBTUSE MARGINAL BRANCH ARTERY SEGMENT", "submissionValue": "Anatomical Location", "synonyms": ["First Obtuse Marginal Branch Artery"]}, {"conceptId": "C102300", "definition": "In an individual with a right-dominant heart, this is the first branch that arises from the right coronary artery distal to the right posterior descending artery, when counted from proximal to distal.", "preferredTerm": "1ST RPL; FIRST RIGHT POSTEROLATERAL ARTERY SEGMENT", "submissionValue": "Anatomical Location", "synonyms": ["First Right Posterolateral Artery"]}, {"conceptId": "C54187", "definition": "The area of the mouth under the ventral surface of the tongue.", "preferredTerm": "", "submissionValue": "Anatomical Location", "synonyms": ["Floor of Mouth"]}, {"conceptId": "C32622", "definition": "The structure found below the ankle joint required for locomotion. (NCI)", "preferredTerm": "Feet; Foot", "submissionValue": "Anatomical Location", "synonyms": ["Foot"]}, {"conceptId": "C52839", "definition": "The largest and most medial toe of the foot. (NCI)", "preferredTerm": "Big Toe", "submissionValue": "Anatomical Location", "synonyms": ["Foot Digit 1"]}, {"conceptId": "C52840", "definition": "The second toe from the medial side of the foot. (NCI)", "preferredTerm": "Index Toe", "submissionValue": "Anatomical Location", "synonyms": ["Foot Digit 2"]}, {"conceptId": "C52841", "definition": "The middle or third toe from the medial side of the foot. (NCI)", "preferredTerm": "Middle Toe", "submissionValue": "Anatomical Location", "synonyms": ["Foot Digit 3"]}, {"conceptId": "C52842", "definition": "The fourth toe from the medial side of the foot. (NCI)", "preferredTerm": "Fourth Toe", "submissionValue": "Anatomical Location", "synonyms": ["Foot Digit 4"]}, {"conceptId": "C52843", "definition": "The smallest and most lateral toe of the foot. (NCI)", "preferredTerm": "Little Toe", "submissionValue": "Anatomical Location", "synonyms": ["Foot Digit 5"]}, {"conceptId": "C52772", "definition": "A bone of the foot. (NCI)", "preferredTerm": "Foot Phalanx", "submissionValue": "Anatomical Location", "synonyms": ["Foot Phalanx"]}, {"conceptId": "C32628", "definition": "The structure on the upper limb, between the elbow and the wrist. (NCI)", "preferredTerm": "Forearm", "submissionValue": "Anatomical Location", "synonyms": ["Forearm"]}, {"conceptId": "C40185", "definition": "The largest part of the brain composed of the cerebral hemispheres, thalamus, hypothalamus, and the limbic system. (NCI)", "preferredTerm": "", "submissionValue": "Anatomical Location", "synonyms": ["Forebrain"]}, {"conceptId": "C89803", "definition": "The part of the face between the eyebrows and the normal hairline.", "preferredTerm": "Forehead", "submissionValue": "Anatomical Location", "synonyms": ["Forehead"]}, {"conceptId": "C12352", "definition": "The part of the brain located anterior to the parietal lobes at the front of each cerebral hemisphere. (NCI)", "preferredTerm": "Frontal Lobe", "submissionValue": "Anatomical Location", "synonyms": ["Frontal Lobe"]}, {"conceptId": "C12277", "definition": "The paired, mucosal lined air spaces located above the orbit and communicating with the nasal passages. (NCI)", "preferredTerm": "Frontal Sinus", "submissionValue": "Anatomical Location", "synonyms": ["Frontal Sinus"]}, {"conceptId": "C12257", "definition": "The portion of the stomach that lies above the cardiac notch. It allows for the accumulation of gases produced by chemical digestion. (NCI)", "preferredTerm": "Fundus of the Stomach", "submissionValue": "Anatomical Location", "synonyms": ["Fundus of the Stomach"]}, {"conceptId": "C12377", "definition": "A pear-shaped organ located under the liver that stores and concentrates bile secreted by the liver. From the gallbladder the bile is delivered through the bile ducts into the intestine thereby aiding the digestion of fat-containing foods. (NCI)", "preferredTerm": "Gallbladder", "submissionValue": "Anatomical Location", "synonyms": ["Gallbladder"]}, {"conceptId": "C12719", "definition": "A cluster of nervous tissue principally composed of neuronal cell bodies external to the central nervous system (CNS). (NCI)", "preferredTerm": "Ganglia; Ganglion; Neural Ganglion", "submissionValue": "Anatomical Location", "synonyms": ["Ganglion"]}, {"conceptId": "C12256", "definition": "The area around the esophagogastric mucosal junction where the esophageal mucosa transitions into the gastric mucosa. (NCI)", "preferredTerm": "Gastric Cardia", "submissionValue": "Anatomical Location", "synonyms": ["Gastric Cardia"]}, {"conceptId": "C32668", "definition": "The anatomical location where the esophagus joins to the stomach. (NCI)", "preferredTerm": "Gastroesophageal Junction", "submissionValue": "Anatomical Location", "synonyms": ["Gastroesophageal Junction"]}, {"conceptId": "C12378", "definition": "The system that includes the esophagus, stomach, small and large intestine, anus, liver, biliary tract, and pancreas. (NCI)", "preferredTerm": "Gastrointestinal System", "submissionValue": "Anatomical Location", "synonyms": ["Gastrointestinal System"]}, {"conceptId": "C34082", "definition": "The upper gastrointestinal (GI) tract is comprised of mouth, pharynx, esophagus and stomach while the lower GI tract consists of intestines and anus. The primary function of the GI tract is to ingest, digest, absorb and ultimately excrete food stuff. (NCI)", "preferredTerm": "Gastrointestinal Tract", "submissionValue": "Anatomical Location", "synonyms": ["Gastrointestinal Tract"]}, {"conceptId": "C33010", "definition": "The lower part of the gastrointestinal tract that includes the jejunum and ileum of the small intestine and the large intestine. (NCI)", "preferredTerm": "Lower Gastrointestinal Tract", "submissionValue": "Anatomical Location", "synonyms": ["Lower Gastrointestinal Tract"]}, {"conceptId": "C33837", "definition": "The upper part of the gastrointestinal tract that includes the esophagus, stomach, and duodenum. (NCI)", "preferredTerm": "Upper Gastrointestinal Tract", "submissionValue": "Anatomical Location", "synonyms": ["Upper Gastrointestinal Tract"]}, {"conceptId": "C25177", "definition": "The external sex organs. (NCI)", "preferredTerm": "", "submissionValue": "Anatomical Location", "synonyms": ["Genitalia"]}, {"conceptId": "C32677", "definition": "The soft tissue surrounding the neck of individual teeth as well as covering the alveolar bone. The tissue is fibrous and continuous with the periodontal ligament and mucosal covering. (NCI)", "preferredTerm": "Gingiva; Gum", "submissionValue": "Anatomical Location", "synonyms": ["Gingiva"]}, {"conceptId": "C32682", "definition": "The trough in the head of the scapula that receives the head of the humerus to form the shoulder joint. (NCI)", "preferredTerm": "Glenoid Fossa", "submissionValue": "Anatomical Location", "synonyms": ["Glenoid Fossa"]}, {"conceptId": "C12723", "definition": "The ninth cranial nerve.", "preferredTerm": "", "submissionValue": "Anatomical Location", "synonyms": ["Glossopharyngeal Nerve"]}, {"conceptId": "C12724", "definition": "The space in which the vocal cords are located. (NCI)", "preferredTerm": "Glottis", "submissionValue": "Anatomical Location", "synonyms": ["Glottis"]}, {"conceptId": "C32698", "definition": "A large, irregular, quadrilateral area of bone found at the neck of the femur. (NCI)", "preferredTerm": "Great Trochanter", "submissionValue": "Anatomical Location", "synonyms": ["Great Trochanter"]}, {"conceptId": "C12262", "definition": "The lateral and inferior border of the stomach. Attached to it is the greater omentum. (NCI)", "preferredTerm": "Greater Curvature of the Stomach", "submissionValue": "Anatomical Location", "synonyms": ["Greater Curvature of the Stomach"]}, {"conceptId": "C32705", "definition": "The filamentous outgrowth of the epidermis. (NCI)", "preferredTerm": "Hair", "submissionValue": "Anatomical Location", "synonyms": ["Hair"]}, {"conceptId": "C32706", "definition": "The lower segment of the hair that circles the dermal papilla and the hair matrix. (NCI)", "preferredTerm": "", "submissionValue": "Anatomical Location", "synonyms": ["Hair Bulb"]}, {"conceptId": "C13317", "definition": "A tube-like invagination of the epidermis from which the hair shaft develops and into which the sebaceous glands open; the follicle is lined by a cellular inner and outer root sheath of epidermal origin and is invested with a fibrous sheath derived from the dermis. (NCI)", "preferredTerm": "", "submissionValue": "Anatomical Location", "synonyms": ["Hair Follicle"]}, {"conceptId": "C32711", "definition": "The portion of the hair that is enclosed within the hair follicle. (NCI)", "preferredTerm": "", "submissionValue": "Anatomical Location", "synonyms": ["Hair Root"]}, {"conceptId": "C33543", "definition": "The segment of the hair that projects above the skin surface. (NCI)", "preferredTerm": "Shaft of the Hair", "submissionValue": "Anatomical Location", "synonyms": ["Shaft of the Hair"]}, {"conceptId": "C12860", "definition": "The medial bone in the distal row of carpal bones. (NCI)", "preferredTerm": "Hamate Bone", "submissionValue": "Anatomical Location", "synonyms": ["Hamate Bone"]}, {"conceptId": "C32712", "definition": "The distal portion of the upper extremity. It consists of the carpus, metacarpus, and digits. (NCI)", "preferredTerm": "Hand", "submissionValue": "Anatomical Location", "synonyms": ["Hand"]}, {"conceptId": "C52834", "definition": "The thick and short hand digit which is next to the index finger in humans. (NCI)", "preferredTerm": "Thumb", "submissionValue": "Anatomical Location", "synonyms": ["Hand Digit 1"]}, {"conceptId": "C52835", "definition": "The second finger from the radial side of the hand, next to the thumb. (NCI)", "preferredTerm": "Index Finger", "submissionValue": "Anatomical Location", "synonyms": ["Hand Digit 2"]}, {"conceptId": "C52836", "definition": "The middle or third finger from the radial side of the hand. (NCI)", "preferredTerm": "Middle Finger", "submissionValue": "Anatomical Location", "synonyms": ["Hand Digit 3"]}, {"conceptId": "C52837", "definition": "The fourth finger from the radial side of the hand. (NCI)", "preferredTerm": "Ring Finger", "submissionValue": "Anatomical Location", "synonyms": ["Hand Digit 4"]}, {"conceptId": "C52838", "definition": "The fifth and smallest finger from the radial side of the hand. (NCI)", "preferredTerm": "Little Finger", "submissionValue": "Anatomical Location", "synonyms": ["Hand Digit 5"]}, {"conceptId": "C52771", "definition": "A bone of the hand. (NCI)", "preferredTerm": "Hand Phalanx", "submissionValue": "Anatomical Location", "synonyms": ["Hand Phalanx"]}, {"conceptId": "C12230", "definition": "The bony anterior part of the roof of the mouth separating the nose from the mouth. (NCI)", "preferredTerm": "Hard Palate", "submissionValue": "Anatomical Location", "synonyms": ["Hard Palate"]}, {"conceptId": "C12419", "definition": "The anterior and superior part of a human or animal bearing the mouth, the brain and sensory organs.", "preferredTerm": "Head", "submissionValue": "Anatomical Location", "synonyms": ["Head"]}, {"conceptId": "C12418", "definition": "The area of the body comprising the skull, facial bones and the cervical vertebrae, sinuses, orbits, salivary glands, oral cavity, oropharynx, larynx, thyroid, facial and neck musculature, soft tissue and lymph nodes draining these areas.", "preferredTerm": "", "submissionValue": "Anatomical Location", "synonyms": ["Head and Neck"]}, {"conceptId": "C32720", "definition": "The upper rounded part of the humerus that fits into the glenoid cavity of the scapula. (NCI)", "preferredTerm": "Head of the Humerus", "submissionValue": "Anatomical Location", "synonyms": ["Head of the Humerus"]}, {"conceptId": "C12727", "definition": "A hollow muscular organ which receives the blood from the veins and propels it into the arteries. It is divided by a musculomembranous septum into two halves -- right or venous and left or arterial -- each of which consists of a receiving chamber (atrium) and an ejecting chamber (ventricle). (NCI)", "preferredTerm": "Cardiac; Heart", "submissionValue": "Anatomical Location", "synonyms": ["Heart"]}, {"conceptId": "C32126", "definition": "The most outer superficial part of the heart which is situated on the left 5th intercostal space. (NCI)", "preferredTerm": "Apex of the Heart", "submissionValue": "Anatomical Location", "synonyms": ["Apex of the Heart"]}, {"conceptId": "C12728", "definition": "The paired upper chambers of the heart. The left atrium receives oxygenated blood from the pulmonary vein and pumps blood into the left ventricle. The right atrium receives venous deoxygenated blood from the entire body via the superior and inferior vena cavae and pumps blood into the right ventricle. (NCI)", "preferredTerm": "Cardiac Atrium", "submissionValue": "Anatomical Location", "synonyms": ["Cardiac Atrium"]}, {"conceptId": "C48589", "definition": "The superior portion of the heart located opposite to the apical portion. It is formed mainly by the left atrium. (NCI)", "preferredTerm": "Base of the Heart", "submissionValue": "Anatomical Location", "synonyms": ["Base of the Heart"]}, {"conceptId": "C12871", "definition": "The left lower chamber of the heart that receives blood from the left atrium and pumps it through the aorta to the body. (NCI)", "preferredTerm": "Left Ventricle", "submissionValue": "Anatomical Location", "synonyms": ["Left Ventricle"]}, {"conceptId": "C12870", "definition": "The lower chamber of the heart located in the right side. It receives blood from the right atrium that is no longer oxygenated and it pumps it to the pulmonary artery. (NCI)", "preferredTerm": "Right Ventricle", "submissionValue": "Anatomical Location", "synonyms": ["Right Ventricle"]}, {"conceptId": "C49485", "definition": "The tissue in the heart that separates the two atria (atrial septum) and the two ventricles (ventricular septum). (NCI)", "preferredTerm": "Cardiac Septum", "submissionValue": "Anatomical Location", "synonyms": ["Heart Septum"]}, {"conceptId": "C12730", "definition": "The lower right and left chambers of the heart. The right pumps venous blood into the lungs and the left pumps oxygenated blood into the systemic arterial circulation. (MeSH)", "preferredTerm": "Cardiac Ventricle", "submissionValue": "Anatomical Location", "synonyms": ["Cardiac Ventricle"]}, {"conceptId": "C77640", "definition": "Any of the lymph nodes adjacent to the stomach and duodenum. (NCI)", "preferredTerm": "", "submissionValue": "Anatomical Location", "synonyms": ["Hepatic Lymph Node"]}, {"conceptId": "C25724", "definition": "Refers to the area associated with the hilum. (NCI)", "preferredTerm": "Hilar", "submissionValue": "Anatomical Location", "synonyms": ["Hilar"]}, {"conceptId": "C98187", "definition": "A lymph node located in the hilum of the lung within the mediastinum.", "preferredTerm": "", "submissionValue": "Anatomical Location", "synonyms": ["Pulmonary Hilar Lymph Node"]}, {"conceptId": "C64193", "definition": "The lateral prominence of the pelvis from the waist to the thigh. (NCI)", "preferredTerm": "Hip", "submissionValue": "Anatomical Location", "synonyms": ["Hip"]}, {"conceptId": "C32742", "definition": "A ball-and-socket joint between the head of the femur and the acetabulum. (NCI)", "preferredTerm": "Coxofemoral Joint; Hip Joint", "submissionValue": "Anatomical Location", "synonyms": ["Hip Joint"]}, {"conceptId": "C12444", "definition": "A curved gray matter structure of the temporal lobe lying on the floor of the lateral ventricle of the brain. (NCI)", "preferredTerm": "Hippocampus", "submissionValue": "Anatomical Location", "synonyms": ["Hippocampus"]}, {"conceptId": "C114187", "definition": "The bone prominence at the distal end of the humerus to which ligaments and tendons of the joints are attached.", "preferredTerm": "", "submissionValue": "Anatomical Location", "synonyms": ["Humeral Epicondyle"]}, {"conceptId": "C12731", "definition": "The upper arm bone between the shoulder and elbow. (NCI)", "preferredTerm": "Bone, Humeral; Humerus", "submissionValue": "Anatomical Location", "synonyms": ["Humerus"]}, {"conceptId": "C32752", "definition": "A U-shaped bone supporting the tongue. This bone is located at the base of the tongue and is suspended from the tips of the styloid processes of the temporal bones by the stylohyoid ligaments. (NCI)", "preferredTerm": "Hyoid Bone", "submissionValue": "Anatomical Location", "synonyms": ["Hyoid Bone"]}, {"conceptId": "C12732", "definition": "The twelfth cranial nerve.", "preferredTerm": "", "submissionValue": "Anatomical Location", "synonyms": ["Hypoglossal Nerve"]}, {"conceptId": "C12246", "definition": "The lower part of the pharynx that connects to the esophagus. (NCI)", "preferredTerm": "Hypopharynx", "submissionValue": "Anatomical Location", "synonyms": ["Hypopharynx"]}, {"conceptId": "C12458", "definition": "The supervisory center in the brain, rich in ganglia, nerve fibers, and synaptic connections. It is composed of several sections called nuclei, each of which controls a specific function.", "preferredTerm": "Hypothalamus", "submissionValue": "Anatomical Location", "synonyms": ["Hypothalamus"]}, {"conceptId": "C12387", "definition": "The final section of the small intestine. (NCI)", "preferredTerm": "Ileum", "submissionValue": "Anatomical Location", "synonyms": ["Ileum"]}, {"conceptId": "C33757", "definition": "The most distal section of the ileum that is continuous with the cecum. (NCI)", "preferredTerm": "Terminal Ileum", "submissionValue": "Anatomical Location", "synonyms": ["Terminal Ileum"]}, {"conceptId": "C103818", "definition": "A predominate bone structure which borders the ilium wing stretching from the anterior superior iliac spine to the posterior superior iliac spine.", "preferredTerm": "", "submissionValue": "Anatomical Location", "synonyms": ["Iliac Crest"]}, {"conceptId": "C103454", "definition": "The large smooth and concave surface of the ilium. (NCI)", "preferredTerm": "", "submissionValue": "Anatomical Location", "synonyms": ["Iliac Fossa"]}, {"conceptId": "C32761", "definition": "One of the three lymph nodes of the pelvis: the superior gluteal, interior gluteal or sacral. (NCI)", "preferredTerm": "Iliac Lymph Node", "submissionValue": "Anatomical Location", "synonyms": ["Iliac Lymph Node"]}, {"conceptId": "C32765", "definition": "The broad, dorsal, upper, and widest of the three principal bones composing either half of the pelvis. (NCI)", "preferredTerm": "Ilium", "submissionValue": "Anatomical Location", "synonyms": ["Ilium"]}, {"conceptId": "C32769", "definition": "One of the teeth in front of the canines in either jaw designed for cutting or gnawing. (NCI)", "preferredTerm": "Incisor", "submissionValue": "Anatomical Location", "synonyms": ["Incisor"]}, {"conceptId": "C32770", "definition": "One of the three bones comprising the middle ear. This anvil-shaped bone is positioned between the malleus and the stapes. (NCI)", "preferredTerm": "Incus", "submissionValue": "Anatomical Location", "synonyms": ["Incus"]}, {"conceptId": "C63705", "definition": "A lymph node located in the area below the clavicle. (NCI)", "preferredTerm": "Infraclavicular Lymph Node", "submissionValue": "Anatomical Location", "synonyms": ["Infraclavicular Lymph Node"]}, {"conceptId": "C116179", "definition": "The portion of the abdominal aorta that lies below the kidneys.", "preferredTerm": "", "submissionValue": "Anatomical Location", "synonyms": ["Infrarenal Aortic Segment"]}, {"conceptId": "C32801", "definition": "A superficial or deep lymph node located in the inguinal area. (NCI)", "preferredTerm": "Inguinal Lymph Node", "submissionValue": "Anatomical Location", "synonyms": ["Inguinal Lymph Node"]}, {"conceptId": "C12726", "definition": "The lower region of the anterior abdominal wall located laterally to the pubic region. (NCI)", "preferredTerm": "Inguinal Region", "submissionValue": "Anatomical Location", "synonyms": ["Inguinal Region"]}, {"conceptId": "C32845", "definition": "A short thick blood vessel arising from the bifurcation of the common iliac artery with numerous branches that supply the organs, walls and viscera of the pelvis as well as the inner thigh.", "preferredTerm": "", "submissionValue": "Anatomical Location", "synonyms": ["Internal Iliac Artery"]}, {"conceptId": "C52941", "definition": "The blood vessel that supplies the breast and the anterior chest wall with arterial blood. It is located in the chest wall. (NCI)", "preferredTerm": "", "submissionValue": "Anatomical Location", "synonyms": ["Internal Mammary Artery"]}, {"conceptId": "C32853", "definition": "Any of the lymph nodes of the breast located under the ribcage, near the sternum. (NCI)", "preferredTerm": "", "submissionValue": "Anatomical Location", "synonyms": ["Internal Mammary Lymph Node"]}, {"conceptId": "C102301", "definition": "A ginglymoid (hinge) synovial joint within the first digit of the hand or foot connecting the proximal and distal phalanges. (NCI)", "preferredTerm": "IP1", "submissionValue": "Anatomical Location", "synonyms": ["Interphalangeal Joint 1"]}, {"conceptId": "C114200", "definition": "A ginglymoid (hinge) synovial joint within the first digit of the foot connecting the proximal and distal phalanges. (NCI)", "preferredTerm": "IP1 of the Foot", "submissionValue": "Anatomical Location", "synonyms": ["Interphalangeal Joint 1 of the Foot"]}, {"conceptId": "C102302", "definition": "A ginglymoid (hinge) synovial joint between the phalanges of the second digit of the hand or foot. (NCI)", "preferredTerm": "IP2", "submissionValue": "Anatomical Location", "synonyms": ["Interphalangeal Joint 2"]}, {"conceptId": "C114201", "definition": "A ginglymoid (hinge) synovial joint between the phalanges of the second digit of the foot. (NCI)", "preferredTerm": "IP2 of the Foot", "submissionValue": "Anatomical Location", "synonyms": ["Interphalangeal Joint 2 of the Foot"]}, {"conceptId": "C114190", "definition": "A ginglymoid (hinge) synovial joint between the phalanges of the second digit of the hand. (NCI)", "preferredTerm": "IP2 of the Hand", "submissionValue": "Anatomical Location", "synonyms": ["Interphalangeal Joint 2 of the Hand"]}, {"conceptId": "C102303", "definition": "A ginglymoid (hinge) synovial joint between the phalanges of the third digit of the hand or foot. (NCI)", "preferredTerm": "IP3", "submissionValue": "Anatomical Location", "synonyms": ["Interphalangeal Joint 3"]}, {"conceptId": "C114202", "definition": "A ginglymoid (hinge) synovial joint between the phalanges of the third digit of the foot. (NCI)", "preferredTerm": "IP3 of the Foot", "submissionValue": "Anatomical Location", "synonyms": ["Interphalangeal Joint 3 of the Foot"]}, {"conceptId": "C114191", "definition": "A ginglymoid (hinge) synovial joint between the phalanges of the third digit of the hand. (NCI)", "preferredTerm": "IP3 of the Hand", "submissionValue": "Anatomical Location", "synonyms": ["Interphalangeal Joint 3 of the Hand"]}, {"conceptId": "C102304", "definition": "A ginglymoid (hinge) synovial joint between the phalanges of the fourth digit of the hand or foot. (NCI)", "preferredTerm": "IP4", "submissionValue": "Anatomical Location", "synonyms": ["Interphalangeal Joint 4"]}, {"conceptId": "C114203", "definition": "A ginglymoid (hinge) synovial joint between the phalanges of the fourth digit of the foot. (NCI)", "preferredTerm": "IP4 of the Foot", "submissionValue": "Anatomical Location", "synonyms": ["Interphalangeal Joint 4 of the Foot"]}, {"conceptId": "C114192", "definition": "A ginglymoid (hinge) synovial joint between the phalanges of the fourth digit of the hand. (NCI)", "preferredTerm": "IP4 of the Hand", "submissionValue": "Anatomical Location", "synonyms": ["Interphalangeal Joint 4 of the Hand"]}, {"conceptId": "C102305", "definition": "A ginglymoid (hinge) synovial joint between the phalanges of the fifth digit of the hand or foot. (NCI)", "preferredTerm": "IP5", "submissionValue": "Anatomical Location", "synonyms": ["Interphalangeal Joint 5"]}, {"conceptId": "C114204", "definition": "A ginglymoid (hinge) synovial joint between the phalanges of the fifth digit of the foot. (NCI)", "preferredTerm": "IP5 of the Foot", "submissionValue": "Anatomical Location", "synonyms": ["Interphalangeal Joint 5 of the Foot"]}, {"conceptId": "C114193", "definition": "A ginglymoid (hinge) synovial joint between the phalanges of the fifth digit of the hand. (NCI)", "preferredTerm": "IP5 of the Hand", "submissionValue": "Anatomical Location", "synonyms": ["Interphalangeal Joint 5 of the Hand"]}, {"conceptId": "C32868", "definition": "The hinge synovial joints between the phalanges of the fingers. (NCI)", "preferredTerm": "Interphalangeal Joint of the Hand", "submissionValue": "Anatomical Location", "synonyms": ["Interphalangeal Joint of the Hand"]}, {"conceptId": "C32867", "definition": "The hinge synovial joints between the bones of the toes. (NCI)", "preferredTerm": "IP of the Foot", "submissionValue": "Anatomical Location", "synonyms": ["Interphalangeal Joint of the Foot"]}, {"conceptId": "C102306", "definition": "A condyloid synovial joint within the thumb connecting the proximal and distal phalanges.", "preferredTerm": "IP THUMB; IP1 of the Hand; Interphalangeal Joint 1 of the Hand", "submissionValue": "Anatomical Location", "synonyms": ["Interphalangeal Thumb Joint"]}, {"conceptId": "C12736", "definition": "The portion of the gastrointestinal tract between the stomach and the anus. It includes the small intestine and large intestine. (NCI)", "preferredTerm": "Intestine", "submissionValue": "Anatomical Location", "synonyms": ["Intestine"]}, {"conceptId": "C12677", "definition": "The bile ducts that pass through and drain bile from the liver. (NCI)", "preferredTerm": "", "submissionValue": "Anatomical Location", "synonyms": ["Intrahepatic Bile Duct"]}, {"conceptId": "C12359", "definition": "Any lymph node within the thoracic cavity.", "preferredTerm": "", "submissionValue": "Anatomical Location", "synonyms": ["Intrathoracic Lymph Node"]}, {"conceptId": "C105446", "definition": "The bony prominence of the lower part of the ischium. (NCI)", "preferredTerm": "", "submissionValue": "Anatomical Location", "synonyms": ["Ischial Tuberosity"]}, {"conceptId": "C103455", "definition": "A tetrahedral region of adipose tissue located in the ischiorectal region with its base between the tuberosity of the ischium and the lower end of the rectum and its apex at the point where the obturator fascia and the Levator ani membrane divide.", "preferredTerm": "", "submissionValue": "Anatomical Location", "synonyms": ["Ischiorectal Fossa"]}, {"conceptId": "C32884", "definition": "The most posterior and ventral bone making up the pelvis. (NCI)", "preferredTerm": "Ischium", "submissionValue": "Anatomical Location", "synonyms": ["Ischium"]}, {"conceptId": "C12388", "definition": "The portion of the small intestine that extends from the duodenum to the ileum. (NCI)", "preferredTerm": "Jejunum", "submissionValue": "Anatomical Location", "synonyms": ["Jejunum"]}, {"conceptId": "C13044", "definition": "The connection point between two bones or skeletal elements. The joint may be fixed or movable. (NCI)", "preferredTerm": "Articulation; Joint", "submissionValue": "Anatomical Location", "synonyms": ["Joint"]}, {"conceptId": "C12738", "definition": "Veins in the neck which drain the brain, face, and neck into the brachiocephalic or subclavian veins. (NCI)", "preferredTerm": "Vena Jugularis", "submissionValue": "Anatomical Location", "synonyms": ["Jugular Vein"]}, {"conceptId": "C12415", "definition": "One of the two bean-shaped organs located on each side of the spine in the retroperitoneum. The right kidney is located below the liver and the left kidney below the diaphragm. The kidneys filter and secret the metabolic products and minerals from the blood, thus maintaining the homeostasis. On the superior pole of each kidney there is an adrenal gland. Each kidney and adrenal gland is surrounded by fat. (NCI)", "preferredTerm": "Kidney", "submissionValue": "Anatomical Location", "synonyms": ["Kidney"]}, {"conceptId": "C12739", "definition": "The outer zone of the KIDNEY, beneath the capsule, consisting of KIDNEY GLOMERULUS; KIDNEY TUBULES, DISTAL; and KIDNEY TUBULES, PROXIMAL. (MSH2001)", "preferredTerm": "Renal Cortex", "submissionValue": "Anatomical Location", "synonyms": ["Renal Cortex"]}, {"conceptId": "C32740", "definition": "The concave area of the kidney through which the renal artery enters and the renal vein and ureter exit the organ. (NCI)", "preferredTerm": "Hilar Area of the Kidney", "submissionValue": "Anatomical Location", "synonyms": ["Hilar Area of the Kidney"]}, {"conceptId": "C93180", "definition": "The lobe of the kidney located in the lowest portion of the kidney. (NCI)", "preferredTerm": "Lower Lobe of the Kidney", "submissionValue": "Anatomical Location", "synonyms": ["Lower Lobe of Kidney"]}, {"conceptId": "C12740", "definition": "The internal portion of the kidney, consisting of striated conical masses, the renal pyramids, whose bases are adjacent to the cortex and whose apices form prominent papillae projecting into the lumen of the minor calyces. (MSH2001)", "preferredTerm": "Renal Medulla", "submissionValue": "Anatomical Location", "synonyms": ["Renal Medulla"]}, {"conceptId": "C93179", "definition": "The lobe of the kidney located in the uppermost region of the kidney. (NCI)", "preferredTerm": "Upper Lobe of the Kidney", "submissionValue": "Anatomical Location", "synonyms": ["Upper Lobe of Kidney"]}, {"conceptId": "C32898", "definition": "A joint connecting the lower part of the femur with the upper part of the tibia. The lower part of the femur and the upper part of the tibia are attached to each other by ligaments. Other structures of the knee joint include the upper part of the fibula, located below and parallel to the tibia, and the patella which moves as the knee bends. (NCI)", "preferredTerm": "Knee Joint; Tibiofemoral Joint", "submissionValue": "Anatomical Location", "synonyms": ["Knee Joint"]}, {"conceptId": "C32899", "definition": "The first lumbar vertebra counting from the top down. (NCI)", "preferredTerm": "L1 Vertebra", "submissionValue": "Anatomical Location", "synonyms": ["L1 Vertebra"]}, {"conceptId": "C32900", "definition": "The second lumbar vertebra counting from the top down. (NCI)", "preferredTerm": "L2 Vertebra", "submissionValue": "Anatomical Location", "synonyms": ["L2 Vertebra"]}, {"conceptId": "C112327", "definition": "The space between the L2 and L3 vertebrae.", "preferredTerm": "", "submissionValue": "Anatomical Location", "synonyms": ["L2-L3 Intervertebral Space"]}, {"conceptId": "C32901", "definition": "The third lumbar vertebra counting from the top down. (NCI)", "preferredTerm": "L3 Vertebra", "submissionValue": "Anatomical Location", "synonyms": ["L3 Vertebra"]}, {"conceptId": "C112328", "definition": "The space between the L3 and L4 vertebrae.", "preferredTerm": "", "submissionValue": "Anatomical Location", "synonyms": ["L3-L4 Intervertebral Space"]}, {"conceptId": "C32902", "definition": "The fourth lumbar vertebra counting from the top down. (NCI)", "preferredTerm": "L4 Vertebra", "submissionValue": "Anatomical Location", "synonyms": ["L4 Vertebra"]}, {"conceptId": "C32903", "definition": "The fifth lumbar vertebra counting from the top down. (NCI)", "preferredTerm": "L5 Vertebra", "submissionValue": "Anatomical Location", "synonyms": ["L5 Vertebra"]}, {"conceptId": "C32906", "definition": "A small rectangular thin plate forming part of the medial orbit wall. It is located posterior to the frontal process of the maxilla and articulates with the inferior nasal concha, ethmoid, frontal, and maxillary bones. (NCI)", "preferredTerm": "Lacrimal Bone", "submissionValue": "Anatomical Location", "synonyms": ["Lacrimal Bone"]}, {"conceptId": "C12346", "definition": "Paired, almond-shaped exocrine glands situated superior and posterior to each orbit of the eye that produce and secrete the watery serous component of tears. (NCI)", "preferredTerm": "", "submissionValue": "Anatomical Location", "synonyms": ["Lacrimal Gland"]}, {"conceptId": "C102313", "definition": "The arteries that arise from the left anterior descending (LAD) artery that supply the interventricular septum.", "preferredTerm": "LAD SEPTAL PERFORATOR ARTERY SEGMENTS; LAD SP", "submissionValue": "Anatomical Location", "synonyms": ["Left Anterior Descending Septal Perforator Artery"]}, {"conceptId": "C12379", "definition": "A muscular tube that extends from the end of the small intestine to the anus. (NCI)", "preferredTerm": "Large Intestine", "submissionValue": "Anatomical Location", "synonyms": ["Large Intestine"]}, {"conceptId": "C12420", "definition": "The cartilaginous structure of the respiratory tract between the pharynx and the trachea. It contains elastic vocal cords required for sound production. (NCI)", "preferredTerm": "Larynx", "submissionValue": "Anatomical Location", "synonyms": ["Larynx"]}, {"conceptId": "C102307", "definition": "The lateral branch distal to a bifurcation of the first diagonal artery.", "preferredTerm": "LAT 1ST DIAG; LATERAL FIRST DIAGONAL BRANCH ARTERY SEGMENT", "submissionValue": "Anatomical Location", "synonyms": ["Lateral First Diagonal Branch Artery"]}, {"conceptId": "C102308", "definition": "The lateral branch distal to a bifurcation of the first obtuse marginal artery.", "preferredTerm": "First Obtuse Marginal Lateral Branch; LAT 1ST OM; LATERAL FIRST OBTUSE MARGINAL BRANCH ARTERY SEGMENT", "submissionValue": "Anatomical Location", "synonyms": ["Lateral First Obtuse Marginal Branch Artery"]}, {"conceptId": "C102309", "definition": "The lateral branch distal to a bifurcation of the ramus intermedius artery.", "preferredTerm": "LAT RAMUS; LATERAL RAMUS INTERMEDIUS ARTERY SEGMENT", "submissionValue": "Anatomical Location", "synonyms": ["Lateral Ramus Intermedius Artery"]}, {"conceptId": "C102310", "definition": "The lateral branch distal to a bifurcation of the second diagonal artery.", "preferredTerm": "LAT 2ND DIAG; LATERAL SECOND DIAGONAL BRANCH ARTERY SEGMENT", "submissionValue": "Anatomical Location", "synonyms": ["Lateral Second Diagonal Branch Artery"]}, {"conceptId": "C102311", "definition": "The lateral branch distal to a bifurcation of the second obtuse marginal artery.", "preferredTerm": "LAT 2ND OM; LATERAL SECOND OBTUSE MARGINAL BRANCH ARTERY SEGMENT; Second Obtuse Marginal Lateral Branch", "submissionValue": "Anatomical Location", "synonyms": ["Lateral Second Obtuse Marginal Branch Artery"]}, {"conceptId": "C102312", "definition": "The lateral branch distal to a bifurcation of the third diagonal artery.", "preferredTerm": "LAT 3RD DIAG; LATERAL THIRD DIAGONAL BRANCH ARTERY SEGMENT", "submissionValue": "Anatomical Location", "synonyms": ["Lateral Third Diagonal Branch Artery"]}, {"conceptId": "C102425", "definition": "The lateral branch distal to a bifurcation of the third obtuse marginal artery.", "preferredTerm": "LAT 3RD OM; LATERAL THIRD OBTUSE MARGINAL BRANCH ARTERY SEGMENT; Third Obtuse Marginal Lateral Branch", "submissionValue": "Anatomical Location", "synonyms": ["Lateral Third Obtuse Marginal Branch Artery"]}, {"conceptId": "C116175", "definition": "The opening of the left anterior descending coronary artery at its origin.", "preferredTerm": "", "submissionValue": "Anatomical Location", "synonyms": ["Left Anterior Descending Artery Ostium"]}, {"conceptId": "C116177", "definition": "The first posterolateral branch originating from the posterior atrioventricular left circumflex artery in left dominant and mixed circulations.", "preferredTerm": "", "submissionValue": "Anatomical Location", "synonyms": ["Left Atrioventricular Artery"]}, {"conceptId": "C116176", "definition": "The opening of the left circumflex artery at its origin.", "preferredTerm": "", "submissionValue": "Anatomical Location", "synonyms": ["Left Circumflex Artery Ostium"]}, {"conceptId": "C12874", "definition": "An artery arising from the bifurcation of the left coronary artery that runs along the coronary groove.", "preferredTerm": "", "submissionValue": "Anatomical Location", "synonyms": ["Circumflex Branch of the Left Coronary Artery"]}, {"conceptId": "C116174", "definition": "The portion of the distal end of the left main coronary artery that branches into the left anterior descending artery and the left circumflex artery.", "preferredTerm": "", "submissionValue": "Anatomical Location", "synonyms": ["Left Main Coronary Artery Bifurcation"]}, {"conceptId": "C116173", "definition": "The segment of the left main coronary artery that is bounded by its ostium and bifurcation.", "preferredTerm": "", "submissionValue": "Anatomical Location", "synonyms": ["Left Main Coronary Artery Body"]}, {"conceptId": "C116172", "definition": "The opening of the left coronary artery at its origin.", "preferredTerm": "", "submissionValue": "Anatomical Location", "synonyms": ["Left Main Coronary Artery Ostium"]}, {"conceptId": "C116178", "definition": "The second posterolateral branch originating from the posterior atrioventricular left circumflex artery in left dominant and mixed circulations.", "preferredTerm": "", "submissionValue": "Anatomical Location", "synonyms": ["Left Posterior Descending Artery"]}, {"conceptId": "C102314", "definition": "In an individual with a left-dominant heart, this branch arises from the circumflex artery atrioventricular groove continuation and supplies the inferior apex of the heart.", "preferredTerm": "LEFT POSTEROLATERAL DESCENDING ARTERY SEGMENT; LPDA", "submissionValue": "Anatomical Location", "synonyms": ["Left Posterolateral Descending Artery"]}, {"conceptId": "C102315", "definition": "The outermost layer of cardiac tissue lining of the left ventricle.", "preferredTerm": "", "submissionValue": "Anatomical Location", "synonyms": ["Left Ventricular Epicardium"]}, {"conceptId": "C32974", "definition": "One of the two lower extremities in humans used for locomotion and support. (NCI)", "preferredTerm": "Leg", "submissionValue": "Anatomical Location", "synonyms": ["Leg"]}, {"conceptId": "C52749", "definition": "The skin or integument surrounding the leg. (NCI)", "preferredTerm": "Leg Skin", "submissionValue": "Anatomical Location", "synonyms": ["Leg Skin"]}, {"conceptId": "C12743", "definition": "A biconvex transparent structure of the eye through which light is focused on the retina. The lens sits behind the iris and is supported by the zonule, which connects it to the ciliary body. The lens is an avascular structure. (NCI)", "preferredTerm": "Crystalline Lens; Lens; Lens Of Eye; Ocular Lens", "submissionValue": "Anatomical Location", "synonyms": ["Lens"]}, {"conceptId": "C32982", "definition": "A cone-shaped projection in the shaft of the femur in which the iliopsoas muscle is attached. (NCI)", "preferredTerm": "", "submissionValue": "Anatomical Location", "synonyms": ["Lesser Trochanter"]}, {"conceptId": "C13046", "definition": "Band of fibrous tissue connecting bone to bone or cartilage to bone thereby supporting or strengthening a joint. (NCI)", "preferredTerm": "Ligament", "submissionValue": "Anatomical Location", "synonyms": ["Ligament"]}, {"conceptId": "C12429", "definition": "A body region referring to an upper or lower extremity. (NCI)", "preferredTerm": "Extremities; Limb", "submissionValue": "Anatomical Location", "synonyms": ["Limb"]}, {"conceptId": "C12742", "definition": "The limb that is composed of the hip, thigh, leg and foot. (NCI)", "preferredTerm": "Lower Extremity", "submissionValue": "Anatomical Location", "synonyms": ["Lower Extremity"]}, {"conceptId": "C12671", "definition": "The region of the body that includes the arm, the forearm, and hand. (NCI)", "preferredTerm": "Upper Extremity", "submissionValue": "Anatomical Location", "synonyms": ["Upper Extremity"]}, {"conceptId": "C40373", "definition": "A small tongue-like projection from the lower portion of the upper lobe of the left lung.", "preferredTerm": "", "submissionValue": "Anatomical Location", "synonyms": ["Lingula of the Lung"]}, {"conceptId": "C12220", "definition": "Fleshy fold which surrounds the opening of the mouth. (NCI)", "preferredTerm": "Lip", "submissionValue": "Anatomical Location", "synonyms": ["Lip"]}, {"conceptId": "C12222", "definition": "The external surface of the lower lip. (NCI)", "preferredTerm": "External Lower Lip", "submissionValue": "Anatomical Location", "synonyms": ["External Lower Lip"]}, {"conceptId": "C12221", "definition": "The external surface of the upper lip. (NCI)", "preferredTerm": "External Upper Lip", "submissionValue": "Anatomical Location", "synonyms": ["External Upper Lip"]}, {"conceptId": "C12392", "definition": "A triangular-shaped organ located under the diaphragm in the right hypochondrium. It is the largest internal organ of the body, weighting up to 2 kg. Metabolism and bile secretion are its main functions. It is composed of cells which have the ability to regenerate. (NCI)", "preferredTerm": "Liver", "submissionValue": "Anatomical Location", "synonyms": ["Liver"]}, {"conceptId": "C32996", "definition": "A groove on the surface of the liver.", "preferredTerm": "Liver Fissure", "submissionValue": "Anatomical Location", "synonyms": ["Liver Fissure"]}, {"conceptId": "C33000", "definition": "The lobe of the liver situated posteriorly located between the left lobe and the inferior vena cava.", "preferredTerm": "", "submissionValue": "Anatomical Location", "synonyms": ["Caudate Lobe"]}, {"conceptId": "C32965", "definition": "The smaller lobe of the liver extending into the left side of the body.", "preferredTerm": "", "submissionValue": "Anatomical Location", "synonyms": ["Left Lobe of the Liver"]}, {"conceptId": "C112404", "definition": "An oblong shaped area of the liver that is situated inferior to the right lobe, bounded by the anterior margin of the liver and the porta hepatis.", "preferredTerm": "", "submissionValue": "Anatomical Location", "synonyms": ["Quadrate Lobe of Liver"]}, {"conceptId": "C33481", "definition": "The larger lobe of the liver extending into the right side of the body.", "preferredTerm": "", "submissionValue": "Anatomical Location", "synonyms": ["Right Lobe of the Liver"]}, {"conceptId": "C97333", "definition": "A brainstem nucleus. It is the major brain site for the synthesis and secretion of norepinephrine. (NCI)", "preferredTerm": "", "submissionValue": "Anatomical Location", "synonyms": ["Locus Coeruleus"]}, {"conceptId": "C69314", "definition": "The vertebrae located below the thoracic and above the sacral vertebrae.", "preferredTerm": "", "submissionValue": "Anatomical Location", "synonyms": ["Lumbar Spine"]}, {"conceptId": "C12744", "definition": "One of the five bones situated between the thoracic vertebrae and the sacrum in the lower part of the spine. (NCI)", "preferredTerm": "Lumbar Vertebra", "submissionValue": "Anatomical Location", "synonyms": ["Lumbar Vertebra"]}, {"conceptId": "C12786", "definition": "The bone in the proximal row of carpal bones that lies between the scaphoid and triquetral bones. (NCI)", "preferredTerm": "Lunate Bone", "submissionValue": "Anatomical Location", "synonyms": ["Lunate Bone"]}, {"conceptId": "C12468", "definition": "One of a pair of viscera occupying the pulmonary cavities of the thorax, the organs of respiration in which aeration of the blood takes place. As a rule, the right lung is slightly larger than the left and is divided into three lobes (an upper, a middle, and a lower or basal), while the left has two lobes (an upper and a lower or basal). Each lung is irregularly conical in shape, presenting a blunt upper extremity (the apex), a concave base following the curve of the diaphragm, an outer convex surface (costal surface), an inner or mediastinal surface (mediastinal surface), a thin and sharp anterior border, and a thick and rounded posterior border. (NCI)", "preferredTerm": "Lung", "submissionValue": "Anatomical Location", "synonyms": ["Lung"]}, {"conceptId": "C49282", "definition": "The wedge-shaped area at the central portion of the lung through which the bronchi, vessels and nerves enter or exit the organ. (NCI)", "preferredTerm": "Hilar Area of the Lung", "submissionValue": "Anatomical Location", "synonyms": ["Hilar Area of the Lung"]}, {"conceptId": "C32967", "definition": "The 2-lobed lung located on the left side of the body. (NCI)", "preferredTerm": "Left Lung", "submissionValue": "Anatomical Location", "synonyms": ["Left Lung"]}, {"conceptId": "C33020", "definition": "The larger lobe of the left lung, situated below and behind the oblique fissure. (NCI)", "preferredTerm": "Lower Lobe of the Left Lung", "submissionValue": "Anatomical Location", "synonyms": ["Lower Lobe of the Left Lung"]}, {"conceptId": "C33021", "definition": "The smaller lobe of the left lung, situated above and in front the oblique fissure, which includes the apex. (NCI)", "preferredTerm": "Upper Lobe of the Left Lung", "submissionValue": "Anatomical Location", "synonyms": ["Upper Lobe of the Left Lung"]}, {"conceptId": "C33483", "definition": "The 3-lobed lung located on the right side of the body. (NCI)", "preferredTerm": "Right Lung", "submissionValue": "Anatomical Location", "synonyms": ["Right Lung"]}, {"conceptId": "C33022", "definition": "The lobe of the right lung situated below the oblique fissure. (NCI)", "preferredTerm": "Lower Lobe of the Right Lung", "submissionValue": "Anatomical Location", "synonyms": ["Lower Lobe of the Right Lung"]}, {"conceptId": "C12286", "definition": "The smallest lobe of the right lung, situated above the oblique fissure and below the horizontal fissure. (NCI)", "preferredTerm": "Middle Lobe of the Right Lung", "submissionValue": "Anatomical Location", "synonyms": ["Middle Lobe of the Right Lung"]}, {"conceptId": "C33023", "definition": "The lobe of the right lung, situated above the horizontal fissure, which includes the apex. (NCI)", "preferredTerm": "Upper Lobe of the Right Lung", "submissionValue": "Anatomical Location", "synonyms": ["Upper Lobe of the Right Lung"]}, {"conceptId": "C12745", "definition": "A bean-shaped organ surrounded by a connective tissue capsule. It is part of the lymphatic system and is found through out the body. It is composed predominantly of lymphocytes and its main function is immune protection. (NCI)", "preferredTerm": "Lymph Node; Lymphatic Gland", "submissionValue": "Anatomical Location", "synonyms": ["Lymph Node"]}, {"conceptId": "C33031", "definition": "The concave side of the lymph node. (NCI)", "preferredTerm": "Lymph Node Hilum", "submissionValue": "Anatomical Location", "synonyms": ["Lymph Node Hilum"]}, {"conceptId": "C32968", "definition": "One of the two main bronchi. It is narrower but longer than the right main bronchus and connects to the left lung. (NCI)", "preferredTerm": "Left Main Bronchus", "submissionValue": "Anatomical Location", "synonyms": ["Left Main Bronchus"]}, {"conceptId": "C33486", "definition": "One of the two main bronchi. It is wider but shorter than the left main bronchus and connects to the right lung. (NCI)", "preferredTerm": "Right Main Bronchus", "submissionValue": "Anatomical Location", "synonyms": ["Right Main Bronchus"]}, {"conceptId": "C61599", "definition": "Male internal and external organs of reproduction.", "preferredTerm": "Male Genitalia", "submissionValue": "Anatomical Location", "synonyms": ["Male Genitalia"]}, {"conceptId": "C12722", "definition": "The sex organs of the male.", "preferredTerm": "", "submissionValue": "Anatomical Location", "synonyms": ["Male Reproductive System"]}, {"conceptId": "C33051", "definition": "A hammer-shaped bone, part of three interconnected small bones located in the middle ear. It is attached to the inner surface of the tympanic membrane and its function is to transmit sound vibrations. (NCI)", "preferredTerm": "Malleus", "submissionValue": "Anatomical Location", "synonyms": ["Malleus"]}, {"conceptId": "C12367", "definition": "Lactiferous glands consisting of fibrous tissue connecting the lobes and fatty tissue in between the lobes.", "preferredTerm": "", "submissionValue": "Anatomical Location", "synonyms": ["Mammary Gland"]}, {"conceptId": "C12290", "definition": "The lower jaw bone holding the lower teeth. (NCI)", "preferredTerm": "Bone, Mandibular; Inferior Maxillary Bone; Jaw; Mandible", "submissionValue": "Anatomical Location", "synonyms": ["Mandible"]}, {"conceptId": "C12503", "definition": "A honeycombed section of bone located near the base of the skull, protruding behind the outer ear. It is connected to the middle ear. (NCI)", "preferredTerm": "Mastoid Process", "submissionValue": "Anatomical Location", "synonyms": ["Mastoid Process"]}, {"conceptId": "C26470", "definition": "The upper jawbone in vertebrates: it is fused to the cranium. (NCI)", "preferredTerm": "Maxilla", "submissionValue": "Anatomical Location", "synonyms": ["Maxilla"]}, {"conceptId": "C12275", "definition": "A pyramidal-shaped, thin-walled, air-filled cavity located in the maxilla. It is lined by mucus membrane and periosteum (mucoperiosteum) which contains cilia. It is adjacent to the nasal cavity and communicates with the middle meatus of the nose. It is the largest paranasal sinus and is composed of three recesses: alveolar, zygomatic, and infraorbital. (NCI)", "preferredTerm": "Maxillary Sinus", "submissionValue": "Anatomical Location", "synonyms": ["Maxillary Sinus"]}, {"conceptId": "C103417", "definition": "A lymph node located in the median or lower region of the neck. (NCI)", "preferredTerm": "", "submissionValue": "Anatomical Location", "synonyms": ["Median Or Lower Cervical Lymph Node"]}, {"conceptId": "C33073", "definition": "A lymph node located in the mediastinum. Mediastinal lymph nodes are arranged in three groups, one on the lateral, another on the medial, and a third on the anterior aspect of the vessels; the third group is, however, sometimes absent. (NCI)", "preferredTerm": "Mediastinal Lymph Node", "submissionValue": "Anatomical Location", "synonyms": ["Mediastinal Lymph Node"]}, {"conceptId": "C12748", "definition": "A group of organs surrounded by loose connective tissue, separating the two pleural sacs, between the sternum anteriorly and the vertebral column posteriorly as well as from the thoracic inlet superiorly to the diaphragm inferiorly. The mediastinum contains the heart and pericardium, the bases of the great vessels, the trachea and bronchi, esophagus, thymus, lymph nodes, thoracic duct, phrenic and vagus nerves, and other structures and tissues. (NCI)", "preferredTerm": "Mediastinum", "submissionValue": "Anatomical Location", "synonyms": ["Mediastinum"]}, {"conceptId": "C32098", "definition": "The area between the lungs; it contains the thymus, some lymph nodes, and vessels and branches of the internal thoracic artery. (NCI)", "preferredTerm": "Anterior Mediastinum", "submissionValue": "Anatomical Location", "synonyms": ["Anterior Mediastinum"]}, {"conceptId": "C33123", "definition": "The broadest part of the lower portion of the mediastinum. It contains the heart and the great vessels. (NCI)", "preferredTerm": "Middle Mediastinum", "submissionValue": "Anatomical Location", "synonyms": ["Middle Mediastinum"]}, {"conceptId": "C33368", "definition": "The part of the lower portion of the mediastinum that is located behind the pericardium. (NCI)", "preferredTerm": "Posterior Mediastinum", "submissionValue": "Anatomical Location", "synonyms": ["Posterior Mediastinum"]}, {"conceptId": "C33684", "definition": "The part of the mediastinum that is located between the upper part of the sternum in the front and the upper thoracic vertebrae in the back. (NCI)", "preferredTerm": "Superior Mediastinum", "submissionValue": "Anatomical Location", "synonyms": ["Superior Mediastinum"]}, {"conceptId": "C12442", "definition": "The lower portion of the brainstem located between the pons and brainstem. This structure contains several descending and ascending tracts, lower cranial nerve nuclei, a significant proportion of the reticular system of the brainstem and other structures. (NCI)", "preferredTerm": "Medulla Oblongata", "submissionValue": "Anatomical Location", "synonyms": ["Medulla Oblongata"]}, {"conceptId": "C77641", "definition": "A lymph node located in the mesentery. (NCI)", "preferredTerm": "", "submissionValue": "Anatomical Location", "synonyms": ["Mesenteric Lymph Node"]}, {"conceptId": "C33103", "definition": "A double layer of peritoneum that attaches to the back wall of the abdominal cavity and supports the small intestines. (NCI)", "preferredTerm": "", "submissionValue": "Anatomical Location", "synonyms": ["Mesentery"]}, {"conceptId": "C102316", "definition": "A condyloid synovial joint within the first digit of the hand connecting the metacarpal to the proximal phalanx.", "preferredTerm": "MCP1", "submissionValue": "Anatomical Location", "synonyms": ["Metacarpophalangeal Joint 1"]}, {"conceptId": "C102317", "definition": "A condyloid synovial joint within the second digit of the hand connecting the metacarpal to the proximal phalanx.", "preferredTerm": "MCP2", "submissionValue": "Anatomical Location", "synonyms": ["Metacarpophalangeal Joint 2"]}, {"conceptId": "C102318", "definition": "A condyloid synovial joint within the third digit of the hand connecting the metacarpal to the proximal phalanx.", "preferredTerm": "MCP3", "submissionValue": "Anatomical Location", "synonyms": ["Metacarpophalangeal Joint 3"]}, {"conceptId": "C102319", "definition": "A condyloid synovial joint within the fourth digit of the hand connecting the metacarpal to the proximal phalanx.", "preferredTerm": "MCP4", "submissionValue": "Anatomical Location", "synonyms": ["Metacarpophalangeal Joint 4"]}, {"conceptId": "C102320", "definition": "A condyloid synovial joint within the fifth digit of the hand connecting the metacarpal to the proximal phalanx.", "preferredTerm": "MCP5", "submissionValue": "Anatomical Location", "synonyms": ["Metacarpophalangeal Joint 5"]}, {"conceptId": "C12752", "definition": "A bone belonging to the middle part of the foot located between toes and ankle. There are 5 metatarsal bones and they are numbered from the medial side. (NCI)", "preferredTerm": "Metatarsal Bone", "submissionValue": "Anatomical Location", "synonyms": ["Metatarsal Bone"]}, {"conceptId": "C33108", "definition": "A spheroid joint located between the heads of the metatarsal bone and the base of the proximal phalanx of the toe. (NCI)", "preferredTerm": "Metatarsophalangeal Joint", "submissionValue": "Anatomical Location", "synonyms": ["Metatarsophalangeal Joint"]}, {"conceptId": "C102321", "definition": "A condyloid synovial joint within the first digit of the foot connecting metatarsal with the proximal phalanx.", "preferredTerm": "MTP1", "submissionValue": "Anatomical Location", "synonyms": ["Metatarsophalangeal Joint 1"]}, {"conceptId": "C102322", "definition": "A condyloid synovial joint within the second digit of the foot connecting metatarsal with the proximal phalanx.", "preferredTerm": "MTP2", "submissionValue": "Anatomical Location", "synonyms": ["Metatarsophalangeal Joint 2"]}, {"conceptId": "C102323", "definition": "A condyloid synovial joint within the third digit of the foot connecting metatarsal with the proximal phalanx.", "preferredTerm": "MTP3", "submissionValue": "Anatomical Location", "synonyms": ["Metatarsophalangeal Joint 3"]}, {"conceptId": "C102324", "definition": "A condyloid synovial joint within the fourth digit of the foot connecting metatarsal with the proximal phalanx.", "preferredTerm": "MTP4", "submissionValue": "Anatomical Location", "synonyms": ["Metatarsophalangeal Joint 4"]}, {"conceptId": "C102325", "definition": "A condyloid synovial joint within the fifth digit of the foot connecting metatarsal with the proximal phalanx.", "preferredTerm": "MTP5", "submissionValue": "Anatomical Location", "synonyms": ["Metatarsophalangeal Joint 5"]}, {"conceptId": "C102326", "definition": "The segment of the left circumflex artery between the first and second marginal branches.", "preferredTerm": "MCIRC; MID-CIRCUMFLEX ARTERY SEGMENT", "submissionValue": "Anatomical Location", "synonyms": ["Mid-Circumflex Artery"]}, {"conceptId": "C102328", "definition": "The segment of the left anterior descending (LAD) artery between the first and third diagonal branches.", "preferredTerm": "MID-LAD ARTERY SEGMENT; MLAD", "submissionValue": "Anatomical Location", "synonyms": ["Mid-Left Anterior Descending Artery"]}, {"conceptId": "C102329", "definition": "The section of the right coronary artery between the right ventricular artery and the acute marginal artery.", "preferredTerm": "MID-RIGHT CORONARY ARTERY CONDUIT SEGMENT; MRCA; Mid-right Coronary Artery", "submissionValue": "Anatomical Location", "synonyms": ["Mid-Right Coronary Artery Conduit"]}, {"conceptId": "C102327", "definition": "All of the arterial branches distal to the proximal left anterior descending coronary artery.", "preferredTerm": "", "submissionValue": "Anatomical Location", "synonyms": ["Mid-Distal Left Anterior Descending Coronary Artery and All Diagonal Coronary Branches"]}, {"conceptId": "C12510", "definition": "The uppermost portion of the brainstem located between the pons and the diencephalon. The midbrain contains the cerebral peduncles, oculomotor, trochlear and red nuclei, substantia nigra and various other nuclei and tracts. (NCI)", "preferredTerm": "Mesencephalon; Midbrain", "submissionValue": "Anatomical Location", "synonyms": ["Mesencephalon"]}, {"conceptId": "C12274", "definition": "The part of the ear including the eardrum and ossicles. The middle ear leads to the inner ear. (NCI)", "preferredTerm": "Middle Ear", "submissionValue": "Anatomical Location", "synonyms": ["Middle Ear"]}, {"conceptId": "C97339", "definition": "A brain region that is located in the dorsal part of the precentral gyrus. (NCI)", "preferredTerm": "", "submissionValue": "Anatomical Location", "synonyms": ["Primary Motor Cortex"]}, {"conceptId": "C13166", "definition": "The moist, inner lining of some organs and body cavities (such as the nose, mouth, lungs, and stomach). Glands in the mucosa make mucus (a thick, slippery fluid).", "preferredTerm": "Mucosa; Mucous Membrane", "submissionValue": "Anatomical Location", "synonyms": ["Mucosa"]}, {"conceptId": "C12226", "definition": "The lining of the fleshy folds surrounding the mouth. It is comprised of the epithelium, basement membrane, lamina propria mucosae, and lamina muscularis mucosae. (NCI)", "preferredTerm": "", "submissionValue": "Anatomical Location", "synonyms": ["Mucosa of the Lip"]}, {"conceptId": "C13056", "definition": "A fibrous soft tissue with the ability to contract to produce force and motion.", "preferredTerm": "", "submissionValue": "Anatomical Location", "synonyms": ["Muscle"]}, {"conceptId": "C12314", "definition": "The smooth muscle lining the uterus. (NCI)", "preferredTerm": "Myometrium", "submissionValue": "Anatomical Location", "synonyms": ["Myometrium"]}, {"conceptId": "C33156", "definition": "The cutaneous plate on the dorsal surface of the distal end of a finger or toe. (NCI)", "preferredTerm": "Nail", "submissionValue": "Anatomical Location", "synonyms": ["Nail"]}, {"conceptId": "C33157", "definition": "One of two small oblong bones placed side by side at the middle and upper part of the face. (NCI)", "preferredTerm": "Nasal Bone", "submissionValue": "Anatomical Location", "synonyms": ["Nasal Bone"]}, {"conceptId": "C12424", "definition": "The proximal portion of the respiratory passages on either side of the nasal septum lying between the floor of the cranium and the roof of the mouth and extending from the face to the pharynx. The nasal cavity is lined with ciliated mucosa, extending from the nares to the pharynx. (NCI)", "preferredTerm": "Nasal Cavity", "submissionValue": "Anatomical Location", "synonyms": ["Nasal Cavity"]}, {"conceptId": "C33160", "definition": "The thin wall between the two nasal cavities. (NCI)", "preferredTerm": "Nasal Septum", "submissionValue": "Anatomical Location", "synonyms": ["Nasal Septum"]}, {"conceptId": "C12423", "definition": "The part of the pharynx in the back of the throat, at and above the soft palate. The nasopharynx is continuous with the nasal passages. (NCI)", "preferredTerm": "Nasopharynx", "submissionValue": "Anatomical Location", "synonyms": ["Nasopharynx"]}, {"conceptId": "C33162", "definition": "An oval-shaped bone of the tarsus found on the medial side of the foot. (NCI)", "preferredTerm": "Navicular Bone", "submissionValue": "Anatomical Location", "synonyms": ["Navicular Bone"]}, {"conceptId": "C13063", "definition": "The region that connects the head to the rest of the body. (NCI)", "preferredTerm": "Neck", "submissionValue": "Anatomical Location", "synonyms": ["Neck"]}, {"conceptId": "C12466", "definition": "A bundle of fibers that transmits electrochemical impulses encoding sensory and motor information from one body part to another.", "preferredTerm": "", "submissionValue": "Anatomical Location", "synonyms": ["Nerve"]}, {"conceptId": "C12299", "definition": "The pigmented protuberance on the surface of the breast through which milk is drawn from the breast. (NCI)", "preferredTerm": "Nipple", "submissionValue": "Anatomical Location", "synonyms": ["Nipple"]}, {"conceptId": "C12756", "definition": "A structure of special sense serving as an organ of the sense of smell and as an entrance to the respiratory tract. (NCI)", "preferredTerm": "Nose", "submissionValue": "Anatomical Location", "synonyms": ["Nose"]}, {"conceptId": "C33178", "definition": "One of the two channels of the nose, from the point where they divide to the external opening. (NCI)", "preferredTerm": "Nostril", "submissionValue": "Anatomical Location", "synonyms": ["Nostril"]}, {"conceptId": "C97342", "definition": "A brain structure that is part of the septal nuclear complex. It is connected with the hippocampus, hypothalamus and amygdala.", "preferredTerm": "BASAL NUCLEUS/DIAGONAL BAND", "submissionValue": "Anatomical Location", "synonyms": ["Nucleus of Diagonal Band"]}, {"conceptId": "C12355", "definition": "The posterior part of the cerebral hemisphere. (MeSH)", "preferredTerm": "", "submissionValue": "Anatomical Location", "synonyms": ["Occipital Lobe"]}, {"conceptId": "C98188", "definition": "A lymph node located in the back of the head adjacent to the trapezius muscle.", "preferredTerm": "", "submissionValue": "Anatomical Location", "synonyms": ["Occipital Lymph Node"]}, {"conceptId": "C103456", "definition": "The occipital region of the skin that covers the top of the head. (NCI)", "preferredTerm": "", "submissionValue": "Anatomical Location", "synonyms": ["Occipital Scalp"]}, {"conceptId": "C12758", "definition": "The third cranial nerve.", "preferredTerm": "", "submissionValue": "Anatomical Location", "synonyms": ["Oculomotor Nerve"]}, {"conceptId": "C33794", "definition": "The tissue that forms the tooth. It consists of the dental pulp, dentin, enamel, cementum, odontogenic epithelium, and periodontium. (NCI)", "preferredTerm": "Teeth", "submissionValue": "Anatomical Location", "synonyms": ["Odontogenic Tissue"]}, {"conceptId": "C33200", "definition": "A prominence at the proximal end of the ulna. It forms the tip of the elbow. (NCI)", "preferredTerm": "Olecranon", "submissionValue": "Anatomical Location", "synonyms": ["Olecranon"]}, {"conceptId": "C28401", "definition": "Anatomical structure located in the vertebral forebrain that receives neural input regarding odors that have been detected by cells within the nasal cavity. The axons of olfactory receptor cells extend into the olfactory bulb. (NCI)", "preferredTerm": "Olfactory Bulb", "submissionValue": "Anatomical Location", "synonyms": ["Olfactory Bulb"]}, {"conceptId": "C33205", "definition": "The part of the nasal mucosa composed of neuroepithelial tissue and mucus-producing Bowman's glands. The mucus moistens the epithelium and helps dissolve odor-containing gases. (NCI)", "preferredTerm": "Olfactory Mucosa", "submissionValue": "Anatomical Location", "synonyms": ["Olfactory Mucosa"]}, {"conceptId": "C12759", "definition": "The first cranial nerve.", "preferredTerm": "", "submissionValue": "Anatomical Location", "synonyms": ["Olfactory Nerve"]}, {"conceptId": "C33209", "definition": "A fold of peritoneum originating at the stomach and supporting the viscera. (NCI)", "preferredTerm": "Omental Fat", "submissionValue": "Anatomical Location", "synonyms": ["Omentum"]}, {"conceptId": "C12760", "definition": "A portion of the retina at which the axons of the ganglion cells exit the eyeball to form the optic nerve. No light-sensitive photoreceptors are contained within this portion of the retina. (NCI)", "preferredTerm": "Optic Nerve Head; Optic Papilla; Second Cranial Nerve", "submissionValue": "Anatomical Location", "synonyms": ["Optic Disc"]}, {"conceptId": "C12761", "definition": "The second cranial nerve. (NCI)", "preferredTerm": "Optic Nerve", "submissionValue": "Anatomical Location", "synonyms": ["Optic Nerve"]}, {"conceptId": "C12421", "definition": "The cavity located at the upper end of the alimentary canal, behind the teeth and gums that is bounded on the outside by the lips, above by the hard and soft palates and below by the tongue. (NCI)", "preferredTerm": "Oral Cavity", "submissionValue": "Anatomical Location", "synonyms": ["Oral Cavity"]}, {"conceptId": "C77637", "definition": "Moist tissue lining the oral cavity, containing mucus secreting glands.", "preferredTerm": "", "submissionValue": "Anatomical Location", "synonyms": ["Oral Mucosa"]}, {"conceptId": "C12347", "definition": "The bony cavity of the skull which contains the eye, anterior portion of the optic nerve, ocular muscles and ocular adnexa. Seven bones contribute to the structure of the orbit: the frontal, maxillary, zygomatic, sphenoid, lacrimal, ethmoid, and palatine bones. (NCI)", "preferredTerm": "Eye Socket; Ocular Orbit; Orbit; Orbital Cavity", "submissionValue": "Anatomical Location", "synonyms": ["Orbit"]}, {"conceptId": "C12762", "definition": "The part of the pharynx between the soft palate and the upper portion of the epiglottis. (NCI)", "preferredTerm": "", "submissionValue": "Anatomical Location", "synonyms": ["Oropharynx"]}, {"conceptId": "C12404", "definition": "One of the paired female reproductive glands containing the ova or germ cells; the ovary's stroma is a vascular connective tissue containing numbers of ovarian follicles enclosing the ova. (NCI)", "preferredTerm": "Ovary", "submissionValue": "Anatomical Location", "synonyms": ["Ovary"]}, {"conceptId": "C52745", "definition": "An irregularly shaped bone positioned at the back part of the nasal cavity between the maxilla and the pterygoid process of the sphenoid. It forms the posterior part of the hard palate and the lateral wall of the nasal fossa and helps to form the floor of the orbit as well as several adjoining parts. (NCI)", "preferredTerm": "Palatine Bone", "submissionValue": "Anatomical Location", "synonyms": ["Palatine Bone"]}, {"conceptId": "C33252", "definition": "The undersurface of the hand. (NCI)", "preferredTerm": "", "submissionValue": "Anatomical Location", "synonyms": ["Palmar Region"]}, {"conceptId": "C12393", "definition": "An organ behind the lower part of the stomach that is the shape of a fish and about the size of a hand. It is a compound gland composed of both exocrine and endocrine tissues. The endocrine pancreas makes insulin so that the body can use glucose (sugar) for energy. The exocrine pancreas makes enzymes that help the body digest food. Spread all over the pancreas are areas called the Islets of Langerhans. The cells in these areas each have a special purpose. The alpha cells make glucagon, which raises the level of glucose in the blood; the beta cells make insulin; the delta cells make somatostatin. There are also PP cells and D1 cells, about which little is known. (NCI)", "preferredTerm": "Pancreas", "submissionValue": "Anatomical Location", "synonyms": ["Pancreas"]}, {"conceptId": "C12270", "definition": "The part of the pancreas from the point where it crosses the portal vein to the point where it enters the lienorenal ligament. (NCI)", "preferredTerm": "Body of the Pancreas", "submissionValue": "Anatomical Location", "synonyms": ["Body of the Pancreas"]}, {"conceptId": "C12608", "definition": "The pancreatic tissue that contains the islets of Langerhans. It is responsible for the production and secretions of the pancreatic hormones. (NCI)", "preferredTerm": "Endocrine Pancreas", "submissionValue": "Anatomical Location", "synonyms": ["Islet of Langerhans"]}, {"conceptId": "C32546", "definition": "An enzyme producing region of the pancreatic tissue containing the pancreatic acini and exocrine intralobular ducts which collectively secrete the digestive enzymes into the main pancreatic duct to drain into the duodenal part of the small intestine. (NCI)", "preferredTerm": "Exocrine Pancreas", "submissionValue": "Anatomical Location", "synonyms": ["Exocrine Pancreas"]}, {"conceptId": "C12269", "definition": "That portion of the pancreas lying in the concavity of the duodenum. (NCI)", "preferredTerm": "Head of the Pancreas", "submissionValue": "Anatomical Location", "synonyms": ["Head of the Pancreas"]}, {"conceptId": "C12271", "definition": "The left extremity of the pancreas within the lienorenal ligament. (NCI)", "preferredTerm": "Tail of the Pancreas", "submissionValue": "Anatomical Location", "synonyms": ["Tail of the Pancreas"]}, {"conceptId": "C77643", "definition": "A lymph node located adjacent to the lumbar region of the spine. (NCI)", "preferredTerm": "Lymph Node, Para-Aortic", "submissionValue": "Anatomical Location", "synonyms": ["Paraaortic Lymph Node"]}, {"conceptId": "C12320", "definition": "The subserous connective tissue of the pelvic floor of the supracervical portion of the uterus. The parametrium extends laterally between the layers of the broad ligament. (NCI)", "preferredTerm": "Parametrium", "submissionValue": "Anatomical Location", "synonyms": ["Parametrium"]}, {"conceptId": "C12763", "definition": "An air-filled cavity adjacent to the nasal cavity lined by a mucous membrane and located in the bones of the skull. There are four paranasal sinuses on each side of the face: ethmoid, frontal, maxillary, and sphenoid sinus. (NCI)", "preferredTerm": "Accessory Sinuses; Nasal Cavity; Nasal Sinuses; Paranasal Sinus", "submissionValue": "Anatomical Location", "synonyms": ["Paranasal Sinus"]}, {"conceptId": "C52557", "definition": "A usually small autonomic ganglion of the parasympathetic nervous system. The majority are located near or in the organs that they innervate. (NCI)", "preferredTerm": "", "submissionValue": "Anatomical Location", "synonyms": ["Parasympathetic Ganglion"]}, {"conceptId": "C12765", "definition": "One of two small paired endocrine glands, superior and inferior, usually found embedded in the connective tissue capsule on the posterior surface of the thyroid gland; these glands secrete parathyroid hormone that regulates the metabolism of calcium and phosphorus. The parenchyma is composed of chief and oxyphilic cells arranged in anastomosing cords. (NCI)", "preferredTerm": "", "submissionValue": "Anatomical Location", "synonyms": ["Parathyroid Gland"]}, {"conceptId": "C103426", "definition": "A lymph node located adjacent to the trachea within the mediastinum. (NCI)", "preferredTerm": "", "submissionValue": "Anatomical Location", "synonyms": ["Paratracheal Lymph Node"]}, {"conceptId": "C97925", "definition": "A cluster of neuronal cell bodies and their dendrites located just ventral and lateral to the spinal cord that give rise to the sympathetic nervous system.", "preferredTerm": "", "submissionValue": "Anatomical Location", "synonyms": ["Para-Spinal Ganglion"]}, {"conceptId": "C12354", "definition": "One of the lobes of the cerebral hemisphere located superiorly to the occipital lobe and posteriorly to the frontal lobe. Cognition and visuospatial processing are its main function. (NCI)", "preferredTerm": "Parietal Lobe", "submissionValue": "Anatomical Location", "synonyms": ["Parietal Lobe"]}, {"conceptId": "C12427", "definition": "The largest of the three paired salivary glands, located in front of the ear. (NCI)", "preferredTerm": "Parotid Gland", "submissionValue": "Anatomical Location", "synonyms": ["Parotid Gland"]}, {"conceptId": "C33278", "definition": "A lymph node located close to, on, or within the parotid gland. (NCI)", "preferredTerm": "Parotid Gland Lymph Node", "submissionValue": "Anatomical Location", "synonyms": ["Parotid Gland Lymph Node"]}, {"conceptId": "C97341", "definition": "A part of the substantia nigra. The pars compacta nerve cells contain melanin and are involved in motor control. (NCI)", "preferredTerm": "", "submissionValue": "Anatomical Location", "synonyms": ["Pars Compacta"]}, {"conceptId": "C33282", "definition": "A small flat triangular bone in front of the knee that articulates with the femur and protects the knee joint. (NCI)", "preferredTerm": "Patella", "submissionValue": "Anatomical Location", "synonyms": ["Patella"]}, {"conceptId": "C33287", "definition": "The caudal portion of the trunk, bounded anteriorly and laterally by the two hip bones incorporating the socket portion of the hip joint for each leg. Posteriorly it is bounded by the sacrum and coccyx. (NCI)", "preferredTerm": "Pelvic Bone; Pelvis Bone", "submissionValue": "Anatomical Location", "synonyms": ["Pelvic Bone"]}, {"conceptId": "C12363", "definition": "Any lymph node within the pelvic region. (NCI)", "preferredTerm": "Pelvic Lymph Node", "submissionValue": "Anatomical Location", "synonyms": ["Pelvic Lymph Node"]}, {"conceptId": "C12767", "definition": "The bony, basin-shaped structure formed by the hipbones and the base of the backbone supporting the lower limbs in humans. (NCI)", "preferredTerm": "Pelvic Cavity; Pelvic Region; Pelvis", "submissionValue": "Anatomical Location", "synonyms": ["Pelvis"]}, {"conceptId": "C12409", "definition": "The male organ of urination and copulation. (NCI)", "preferredTerm": "Penis", "submissionValue": "Anatomical Location", "synonyms": ["Penis"]}, {"conceptId": "C99148", "definition": "The skin area around the anus. (NCI)", "preferredTerm": "", "submissionValue": "Anatomical Location", "synonyms": ["Perianal Region"]}, {"conceptId": "C38662", "definition": "The potential body space formed between the parietal and visceral layers of the pericardial sac. (NCI)", "preferredTerm": "Pericardial Cavity", "submissionValue": "Anatomical Location", "synonyms": ["Pericardial Cavity"]}, {"conceptId": "C13005", "definition": "A conical membranous sac filled with serous fluid in which the heart as well as the roots of the aorta and other large blood vessels are contained. (NCI)", "preferredTerm": "Pericardium", "submissionValue": "Anatomical Location", "synonyms": ["Pericardium"]}, {"conceptId": "C102330", "definition": "A lymph node located in the area around the hilum.", "preferredTerm": "", "submissionValue": "Anatomical Location", "synonyms": ["Perihilar Lymph Node"]}, {"conceptId": "C33301", "definition": "The area located between the anus and vulva in females, and anus and scrotum in males. (NCI)", "preferredTerm": "Perineum", "submissionValue": "Anatomical Location", "synonyms": ["Perineum"]}, {"conceptId": "C77642", "definition": "A lymph node of the pancreas. (NCI)", "preferredTerm": "", "submissionValue": "Anatomical Location", "synonyms": ["Pancreatic Lymph Node"]}, {"conceptId": "C12768", "definition": "Any nerve outside the brain or spinal cord that connects with peripheral receptors or effectors. (NCI)", "preferredTerm": "Peripheral Nerve", "submissionValue": "Anatomical Location", "synonyms": ["Peripheral Nerve"]}, {"conceptId": "C12769", "definition": "The lower part of the abdomen that contains the intestines (the last part of the digestive tract), the stomach, and the liver. It is bound by thin membranes. (NCI)", "preferredTerm": "Peritoneal Cavity", "submissionValue": "Anatomical Location", "synonyms": ["Peritoneal Cavity"]}, {"conceptId": "C12770", "definition": "The tissue that lines the wall of the abdominal cavity, intestine, and mesentery. It consists of the parietal peritoneum that covers the inside of the abdominal wall and the visceral peritoneum that covers the surface of the intestine and mesentery. (NCI)", "preferredTerm": "Peritoneum", "submissionValue": "Anatomical Location", "synonyms": ["Peritoneum"]}, {"conceptId": "C111287", "definition": "The tissue surrounding the urethra.", "preferredTerm": "", "submissionValue": "Anatomical Location", "synonyms": ["Periurethral Region"]}, {"conceptId": "C33314", "definition": "An artery arising from the posterior tibial artery that supplies the muscles on the lateral side of the lower leg.", "preferredTerm": "", "submissionValue": "Anatomical Location", "synonyms": ["Peroneal Artery"]}, {"conceptId": "C33318", "definition": "A fold of lymphatic tissue covered by ciliated epithelium at the very back of the nose, in the roof of the nasopharynx. (NCI)", "preferredTerm": "Adenoid; Pharyngeal Tonsil", "submissionValue": "Anatomical Location", "synonyms": ["Pharyngeal Tonsil"]}, {"conceptId": "C12425", "definition": "A hollow tube that starts posterior to the mouth and nasal cavity and ends superior to the trachea and esophagus. (NCI)", "preferredTerm": "Pharynx", "submissionValue": "Anatomical Location", "synonyms": ["Pharynx"]}, {"conceptId": "C12398", "definition": "A small endocrine gland within the diencephalon of the brain, situated beneath the back part of the corpus callosum, that secretes melatonin.", "preferredTerm": "", "submissionValue": "Anatomical Location", "synonyms": ["Pineal Gland"]}, {"conceptId": "C12855", "definition": "The medial bone of the proximal row of carpal bones. (NCI)", "preferredTerm": "Pisiform Bone", "submissionValue": "Anatomical Location", "synonyms": ["Pisiform Bone"]}, {"conceptId": "C12399", "definition": "Pea-sized endocrine gland located at the base of the brain in the pituitary fossa. It produces and secretes hormones such as oxytocin and vasopressin, to regulate the activities of the hypothalamus. (NCI)", "preferredTerm": "Hypophysis; Hypophysis Cerebri", "submissionValue": "Anatomical Location", "synonyms": ["Pituitary Gland"]}, {"conceptId": "C12469", "definition": "The tissue that lines the wall of the thoracic cavity and the surface of the lungs. (NCI)", "preferredTerm": "Pleural Tissue", "submissionValue": "Anatomical Location", "synonyms": ["Pleura"]}, {"conceptId": "C12840", "definition": "The cavity lined by the pleura, located in the thorax and contains heart and lungs. (NCI)", "preferredTerm": "Pleural Cavity", "submissionValue": "Anatomical Location", "synonyms": ["Pleural Cavity"]}, {"conceptId": "C12511", "definition": "The middle portion of the brainstem located between the midbrain and the medulla oblongata.", "preferredTerm": "Pons Varolii", "submissionValue": "Anatomical Location", "synonyms": ["Pons Varolii"]}, {"conceptId": "C116180", "definition": "The segment of the popliteal artery that is located above the knee.", "preferredTerm": "", "submissionValue": "Anatomical Location", "synonyms": ["Popliteal Artery Above the Knee"]}, {"conceptId": "C116181", "definition": "The segment of the popliteal artery that is located below the knee.", "preferredTerm": "", "submissionValue": "Anatomical Location", "synonyms": ["Popliteal Artery Below the Knee"]}, {"conceptId": "C53146", "definition": "Lymph node located within the fat layer of the knee joint. (NCI)", "preferredTerm": "", "submissionValue": "Anatomical Location", "synonyms": ["Popliteal Lymph Node"]}, {"conceptId": "C77645", "definition": "Lymph nodes surrounding the portal vein. (NCI)", "preferredTerm": "Periportal Lymph Node", "submissionValue": "Anatomical Location", "synonyms": ["Portal Lymph Node"]}, {"conceptId": "C33343", "definition": "A short thick trunk vein that transports blood containing the absorbed products of digestion from the intestine directly to the liver. (NCI)", "preferredTerm": "Hepatic Portal Vein; Portal Vein", "submissionValue": "Anatomical Location", "synonyms": ["Portal Vein"]}, {"conceptId": "C103428", "definition": "A lymph node located in the posterior region of the neck. (NCI)", "preferredTerm": "", "submissionValue": "Anatomical Location", "synonyms": ["Posterior Cervical Lymph Node"]}, {"conceptId": "C102348", "definition": "The arteries arising from the right posterior descending artery that supply the interventricular septum.", "preferredTerm": "PDSP; POSTERIOR DESCENDING SEPTAL PERFORATORS ARTERY SEGMENT", "submissionValue": "Anatomical Location", "synonyms": ["Septal Perforator Artery"]}, {"conceptId": "C12826", "definition": "A terminal branch of the popliteal artery that runs along the tibia from the lower portion of the popliteus muscle to the lower ankle with numerous branches supplying the lower leg and foot.", "preferredTerm": "", "submissionValue": "Anatomical Location", "synonyms": ["Posterior Tibial Artery"]}, {"conceptId": "C116170", "definition": "In an individual with a right-dominant heart, the arterial branch that arises from the distal right coronary artery in the posterior atrioventricular groove after the origin of the right posterior descending artery.", "preferredTerm": "", "submissionValue": "Anatomical Location", "synonyms": ["Posterolateral Coronary Artery"]}, {"conceptId": "C103429", "definition": "A lymph node located anterior to the auricle of the ear. (NCI)", "preferredTerm": "", "submissionValue": "Anatomical Location", "synonyms": ["Preauricular Lymph Node"]}, {"conceptId": "C112399", "definition": "The posteromedial region of the parietal lobe bounded by the marginal branch of the cingulate sulcus anteriorly, by the medial portion of the parieto-occipital fissure posteriorly and by the subparietal sulcus inferiorly.", "preferredTerm": "", "submissionValue": "Anatomical Location", "synonyms": ["Precuneus"]}, {"conceptId": "C79432", "definition": "Exocrine glands located at the anterior aspect of the genitals of some mammals, such as mice and rats, that produce and secrete pheromones. (NCI)", "preferredTerm": "", "submissionValue": "Anatomical Location", "synonyms": ["Preputial Gland"]}, {"conceptId": "C97340", "definition": "A brain region in the occipital cortex that receives visual stimuli from the retina. (NCI)", "preferredTerm": "", "submissionValue": "Anatomical Location", "synonyms": ["Primary Visual Cortex"]}, {"conceptId": "C32436", "definition": "An artery arising from the common femoral artery just below the inguinal ligament running close to the femur and ending in the lower third of the thigh with branches supplying the thigh muscles.", "preferredTerm": "", "submissionValue": "Anatomical Location", "synonyms": ["Deep Femoral Artery"]}, {"conceptId": "C12410", "definition": "The walnut shaped accessory sex gland of the male reproductive system. It is located in the pelvis just below the bladder, surrounding the prostatic part of the urethra. The prostate gland secretes a fluid which is part of the semen. (NCI)", "preferredTerm": "Prostate Gland", "submissionValue": "Anatomical Location", "synonyms": ["Prostate Gland"]}, {"conceptId": "C13092", "definition": "The prostate gland lobe that is located on the lateral side of the organ. (NCI)", "preferredTerm": "Lateral Lobe of the Prostate", "submissionValue": "Anatomical Location", "synonyms": ["Lateral Lobe of the Prostate"]}, {"conceptId": "C13094", "definition": "The upper, smaller part of the prostate between the ejaculatory ducts and the urethra. (NCI)", "preferredTerm": "Middle Lobe of the Prostate", "submissionValue": "Anatomical Location", "synonyms": ["Middle Lobe of the Prostate"]}, {"conceptId": "C13093", "definition": "The prostate gland lobe that is located on the posterior side of the organ. (NCI)", "preferredTerm": "Posterior Lobe of the Prostate", "submissionValue": "Anatomical Location", "synonyms": ["Posterior Lobe of the Prostate"]}, {"conceptId": "C102331", "definition": "The section of the left circumflex coronary artery that arises from the left main coronary artery and extends to the first marginal branch.", "preferredTerm": "PCIRC; PROXIMAL CIRCUMFLEX ARTERY SEGMENT", "submissionValue": "Anatomical Location", "synonyms": ["Proximal Circumflex Artery"]}, {"conceptId": "C102332", "definition": "A condyloid synovial joint within the second digit of the hand or foot connecting the proximal and middle phalanges. (NCI)", "preferredTerm": "PIP2", "submissionValue": "Anatomical Location", "synonyms": ["Proximal Interphalangeal Joint 2"]}, {"conceptId": "C114205", "definition": "A ginglymoid (hinge) synovial joint within the second digit of the foot connecting the proximal and middle phalanges. (NCI)", "preferredTerm": "PIP2 of the Foot", "submissionValue": "Anatomical Location", "synonyms": ["Proximal Interphalangeal Joint 2 of the Foot"]}, {"conceptId": "C114194", "definition": "A ginglymoid (hinge) synovial joint within the second digit of the hand connecting the proximal and middle phalanges. (NCI)", "preferredTerm": "PIP2 of the Hand", "submissionValue": "Anatomical Location", "synonyms": ["Proximal Interphalangeal Joint 2 of the Hand"]}, {"conceptId": "C102333", "definition": "A condyloid synovial joint within the third digit of the hand or foot connecting the proximal and middle phalanges. (NCI)", "preferredTerm": "PIP3", "submissionValue": "Anatomical Location", "synonyms": ["Proximal Interphalangeal Joint 3"]}, {"conceptId": "C114206", "definition": "A ginglymoid (hinge) synovial joint within the third digit of the foot connecting the proximal and middle phalanges. (NCI)", "preferredTerm": "PIP3 of the Foot", "submissionValue": "Anatomical Location", "synonyms": ["Proximal Interphalangeal Joint 3 of the Foot"]}, {"conceptId": "C114195", "definition": "A ginglymoid (hinge) synovial joint within the third digit of the hand connecting the proximal and middle phalanges. (NCI)", "preferredTerm": "PIP3 of the Hand", "submissionValue": "Anatomical Location", "synonyms": ["Proximal Interphalangeal Joint 3 of the Hand"]}, {"conceptId": "C102334", "definition": "A condyloid synovial joint within the fourth digit of the hand or foot connecting the proximal and middle phalanges. (NCI)", "preferredTerm": "PIP4", "submissionValue": "Anatomical Location", "synonyms": ["Proximal Interphalangeal Joint 4"]}, {"conceptId": "C114207", "definition": "A ginglymoid (hinge) synovial joint within the fourth digit of the foot connecting the proximal and middle phalanges. (NCI)", "preferredTerm": "PIP4 of the Foot", "submissionValue": "Anatomical Location", "synonyms": ["Proximal Interphalangeal Joint 4 of the Foot"]}, {"conceptId": "C114196", "definition": "A ginglymoid (hinge) synovial joint within the fourth digit of the hand connecting the proximal and middle phalanges. (NCI)", "preferredTerm": "PIP4 of the Hand", "submissionValue": "Anatomical Location", "synonyms": ["Proximal Interphalangeal Joint 4 of the Hand"]}, {"conceptId": "C102335", "definition": "A condyloid synovial joint within the fifth digit of the hand or foot connecting the proximal and middle phalanges. (NCI)", "preferredTerm": "PIP5", "submissionValue": "Anatomical Location", "synonyms": ["Proximal Interphalangeal Joint 5"]}, {"conceptId": "C114208", "definition": "A ginglymoid (hinge) synovial joint within the fifth digit of the foot connecting the proximal and middle phalanges. (NCI)", "preferredTerm": "PIP5 of the Foot", "submissionValue": "Anatomical Location", "synonyms": ["Proximal Interphalangeal Joint 5 of the Foot"]}, {"conceptId": "C114197", "definition": "A ginglymoid (hinge) synovial joint within the fifth digit of the hand connecting the proximal and middle phalanges. (NCI)", "preferredTerm": "PIP5 of the Hand", "submissionValue": "Anatomical Location", "synonyms": ["Proximal Interphalangeal Joint 5 of the Hand"]}, {"conceptId": "C102336", "definition": "The section of the left anterior descending coronary artery that arises from the left main coronary artery and extends to the first diagonal branch.", "preferredTerm": "PLAD; PROXIMAL LAD ARTERY SEGMENT", "submissionValue": "Anatomical Location", "synonyms": ["Proximal Left Anterior Descending Artery"]}, {"conceptId": "C102337", "definition": "The section of the right coronary artery proximal to the origin of the right ventricular artery.", "preferredTerm": "PRCA; PROXIMAL RIGHT CORONARY ARTERY CONDUIT SEGMENT", "submissionValue": "Anatomical Location", "synonyms": ["Proximal Right Coronary Artery Conduit"]}, {"conceptId": "C12452", "definition": "The largest and most lateral of the basal ganglia lying between the lateral medullary lamina of the globus pallidus and the external capsule. It is part of the neostriatum and forms part of the lentiform nucleus along with the globus pallidus. (MeSH)", "preferredTerm": "Putamen", "submissionValue": "Anatomical Location", "synonyms": ["Putamen"]}, {"conceptId": "C33433", "definition": "The muscular structure at the distal portion of the stomach, opening into the duodenum. (NCI)", "preferredTerm": "Pyloric Sphincter", "submissionValue": "Anatomical Location", "synonyms": ["Pyloric Sphincter"]}, {"conceptId": "C12838", "definition": "The branch of the brachial artery that passes down the forearm. (NCI)", "preferredTerm": "Radial Artery", "submissionValue": "Anatomical Location", "synonyms": ["Radial Artery"]}, {"conceptId": "C12777", "definition": "The long bone that extends from the lateral aspect of the elbow to the medial side of the carpus.", "preferredTerm": "Radius; Radius Bone", "submissionValue": "Anatomical Location", "synonyms": ["Radius Bone"]}, {"conceptId": "C102338", "definition": "An artery that arises from the left main coronary artery and is positioned between the left anterior descending coronary artery and the circumflex artery.", "preferredTerm": "RAMUS; RAMUS ARTERY; RAMUS INTERMEDIUS ARTERY SEGMENT", "submissionValue": "Anatomical Location", "synonyms": ["Ramus Intermedius Artery"]}, {"conceptId": "C97335", "definition": "A group of nuclei that are located in the midline of the brainstem and release serotonin. (NCI)", "preferredTerm": "", "submissionValue": "Anatomical Location", "synonyms": ["Raphe Nuclei"]}, {"conceptId": "C54188", "definition": "The area where the sigmoid colon joins the rectum.", "preferredTerm": "", "submissionValue": "Anatomical Location", "synonyms": ["Rectosigmoid Region"]}, {"conceptId": "C12390", "definition": "The terminal portion of the gastrointestinal tract, extending from the rectosigmoid junction to the anal canal. (NCI)", "preferredTerm": "", "submissionValue": "Anatomical Location", "synonyms": ["Rectum"]}, {"conceptId": "C49018", "definition": "A lymph node that drains lymph from a region of interest. (NCI)", "preferredTerm": "Regional Lymph Node", "submissionValue": "Anatomical Location", "synonyms": ["Regional Lymph Node"]}, {"conceptId": "C12778", "definition": "Either of two arteries (right or left) that arise from the aorta to supply the kidneys.", "preferredTerm": "", "submissionValue": "Anatomical Location", "synonyms": ["Renal Artery"]}, {"conceptId": "C12343", "definition": "A light-sensitive membrane that lines the back wall of the eyeball. The retina is continuous with the optic nerve and this way transmits optical images to the brain. (NCI)", "preferredTerm": "Retina", "submissionValue": "Anatomical Location", "synonyms": ["Retina"]}, {"conceptId": "C103439", "definition": "A lymph node located within the most inferior portion of the posterior mediastinum. (NCI)", "preferredTerm": "", "submissionValue": "Anatomical Location", "synonyms": ["Retrocrural Lymph Node"]}, {"conceptId": "C98189", "definition": "A lymph node located in the retroperitoneal space. (NCI)", "preferredTerm": "", "submissionValue": "Anatomical Location", "synonyms": ["Retroperitoneal Lymph Node"]}, {"conceptId": "C12298", "definition": "The back of the abdomen where the kidneys lie and the great blood vessels run. (NCI)", "preferredTerm": "RETROPERITONEAL CAVITY", "submissionValue": "Anatomical Location", "synonyms": ["Retroperitoneum"]}, {"conceptId": "C12782", "definition": "Any one of the paired bones, 12 on either side, extending from the thoracic vertebrae toward the median line on the ventral aspect of the trunk. The long curved bones which form the rib cage. Generally, ribs 1 to 7 are connected to the sternum by their costal cartilages and are called true ribs, whereas ribs 8 to 12 are termed false ribs. (NCI)", "preferredTerm": "Rib", "submissionValue": "Anatomical Location", "synonyms": ["Rib"]}, {"conceptId": "C52770", "definition": "The first rib counting from the top of the rib cage down. (NCI)", "preferredTerm": "Rib 1", "submissionValue": "Anatomical Location", "synonyms": ["Rib 1"]}, {"conceptId": "C52769", "definition": "The tenth rib counting from the top of the rib cage down. (NCI)", "preferredTerm": "Rib 10", "submissionValue": "Anatomical Location", "synonyms": ["Rib 10"]}, {"conceptId": "C52768", "definition": "The eleventh rib counting from the top of the rib cage down. (NCI)", "preferredTerm": "Rib 11", "submissionValue": "Anatomical Location", "synonyms": ["Rib 11"]}, {"conceptId": "C52767", "definition": "The twelfth rib counting from the top of the rib cage down. (NCI)", "preferredTerm": "Rib 12", "submissionValue": "Anatomical Location", "synonyms": ["Rib 12"]}, {"conceptId": "C52766", "definition": "The second rib counting from the top of the rib cage down. (NCI)", "preferredTerm": "Rib 2", "submissionValue": "Anatomical Location", "synonyms": ["Rib 2"]}, {"conceptId": "C52765", "definition": "The third rib counting from the top of the rib cage down. (NCI)", "preferredTerm": "Rib 3", "submissionValue": "Anatomical Location", "synonyms": ["Rib 3"]}, {"conceptId": "C52764", "definition": "The fourth rib counting from the top of the rib cage down. (NCI)", "preferredTerm": "Rib 4", "submissionValue": "Anatomical Location", "synonyms": ["Rib 4"]}, {"conceptId": "C52763", "definition": "The fifth rib counting from the top of the rib cage down. (NCI)", "preferredTerm": "Rib 5", "submissionValue": "Anatomical Location", "synonyms": ["Rib 5"]}, {"conceptId": "C52762", "definition": "The sixth rib counting from the top of the rib cage down. (NCI)", "preferredTerm": "Rib 6", "submissionValue": "Anatomical Location", "synonyms": ["Rib 6"]}, {"conceptId": "C52761", "definition": "The seventh rib counting from the top of the rib cage down. (NCI)", "preferredTerm": "Rib 7", "submissionValue": "Anatomical Location", "synonyms": ["Rib 7"]}, {"conceptId": "C52760", "definition": "The eighth rib counting from the top of the rib cage down. (NCI)", "preferredTerm": "Rib 8", "submissionValue": "Anatomical Location", "synonyms": ["Rib 8"]}, {"conceptId": "C52759", "definition": "The ninth rib counting from the top of the rib cage down. (NCI)", "preferredTerm": "Rib 9", "submissionValue": "Anatomical Location", "synonyms": ["Rib 9"]}, {"conceptId": "C102339", "definition": "The innermost layer of endothelial cells and connective tissue that lines the right atrium.", "preferredTerm": "", "submissionValue": "Anatomical Location", "synonyms": ["Right Atrial Endocardium"]}, {"conceptId": "C116169", "definition": "The opening of the right coronary artery at its origin.", "preferredTerm": "", "submissionValue": "Anatomical Location", "synonyms": ["Right Coronary Artery Ostium"]}, {"conceptId": "C102340", "definition": "The right coronary artery and all of its branches.", "preferredTerm": "", "submissionValue": "Anatomical Location", "synonyms": ["Right Coronary Artery and its Branches"]}, {"conceptId": "C102341", "definition": "The arterial branch between the right posterior descending artery segment and the first right posterolateral segment.", "preferredTerm": "RIGHT POSTERIOR ATRIOVENTRICULAR ARTERY SEGMENT; RPAV", "submissionValue": "Anatomical Location", "synonyms": ["Right Posterior Atrioventricular Artery"]}, {"conceptId": "C102342", "definition": "In an individual with a right-dominant heart, the arterial branch that arises from the distal right coronary artery between the acute marginal artery and the first right posterolateral segment. It supplies the inferior apex of the heart.", "preferredTerm": "RIGHT POSTERIOR DESCENDING ARTERY SEGMENT; RPDA", "submissionValue": "Anatomical Location", "synonyms": ["Right Posterior Descending Artery"]}, {"conceptId": "C116171", "definition": "The branch of the right coronary artery that supplies blood to the right ventricular wall.", "preferredTerm": "", "submissionValue": "Anatomical Location", "synonyms": ["Right Ventricular Branch of Right Coronary Artery"]}, {"conceptId": "C102343", "definition": "The innermost layer of endothelial cells and connective tissue that lines the right ventricle.", "preferredTerm": "", "submissionValue": "Anatomical Location", "synonyms": ["Right Ventricular Endocardium"]}, {"conceptId": "C105447", "definition": "The prominence on the lateral surface of the sacrum, posterior to the auricular surface of the sacrum. (NCI)", "preferredTerm": "", "submissionValue": "Anatomical Location", "synonyms": ["Sacral Tuberosity"]}, {"conceptId": "C12853", "definition": "One of the usually five fused vertebrae forming the triangular bone just below the lumbar vertebrae. (NCI)", "preferredTerm": "Sacral Vertebra", "submissionValue": "Anatomical Location", "synonyms": ["Sacral Vertebra"]}, {"conceptId": "C33507", "definition": "The joint located between the sacrum and the ilium. (NCI)", "preferredTerm": "Sacroiliac Joint", "submissionValue": "Anatomical Location", "synonyms": ["Sacroiliac Joint"]}, {"conceptId": "C33508", "definition": "The triangular bone, made up of 5 fused bones of the spine, located in the lower area of the spine between the fifth lumbar vertebra and the coccyx. (NCI)", "preferredTerm": "Sacrum", "submissionValue": "Anatomical Location", "synonyms": ["Sacrum"]}, {"conceptId": "C12426", "definition": "An exocrine gland that secretes saliva. Salivary glands are mostly located in and around the oral cavity.", "preferredTerm": "", "submissionValue": "Anatomical Location", "synonyms": ["Salivary Gland"]}, {"conceptId": "C33511", "definition": "One of two (Greater, Small) superficial veins of the leg and thigh. (NCI)", "preferredTerm": "Saphenous Vein", "submissionValue": "Anatomical Location", "synonyms": ["Saphenous Vein"]}, {"conceptId": "C89807", "definition": "The skin which covers the top of the head and which is usually covered by hair. (NCI)", "preferredTerm": "", "submissionValue": "Anatomical Location", "synonyms": ["Scalp"]}, {"conceptId": "C12854", "definition": "A nut-shaped bone of the wrist located in the radial site of the hand. It is one of the eight carpal bones. (NCI)", "preferredTerm": "Scaphoid Bone", "submissionValue": "Anatomical Location", "synonyms": ["Scaphoid Bone"]}, {"conceptId": "C12783", "definition": "The flat triangle-shaped bone that connects the humerus with the clavicle in the back of the shoulder. (NCI)", "preferredTerm": "Scapula; Shoulder Blade", "submissionValue": "Anatomical Location", "synonyms": ["Scapula"]}, {"conceptId": "C52810", "definition": "The longest single nerve that is formed by the merging of the ventral rami of the L4, L5, and S1 in the pelvis and passes down the lower limb where it divides into the common peroneal and tibial nerves. (NCI)", "preferredTerm": "Sciatic Nerve", "submissionValue": "Anatomical Location", "synonyms": ["Sciatic Nerve"]}, {"conceptId": "C12784", "definition": "The white, opaque, fibrous, outer tunic of the eyeball, covering it entirely excepting the segment covered anteriorly by the cornea. It is essentially avascular but contains apertures for vessels, lymphatics, and nerves. It receives the tendons of insertion of the extraocular muscles and at the corneoscleral junction contains the canal of Schlemm. (From Cline et al., Dictionary of Visual Science, 4th ed)", "preferredTerm": "", "submissionValue": "Anatomical Location", "synonyms": ["Sclera"]}, {"conceptId": "C12785", "definition": "The musculocutaneous pouch that encloses the testicles. (NCI)", "preferredTerm": "Scrotum", "submissionValue": "Anatomical Location", "synonyms": ["Scrotum"]}, {"conceptId": "C33519", "definition": "Small glands located within the epidermis, and associated with the hair follicle, that produce and secrete an oily substance that lubricates the skin and hair. (NCI)", "preferredTerm": "", "submissionValue": "Anatomical Location", "synonyms": ["Sebaceous Gland"]}, {"conceptId": "C102344", "definition": "The second artery arising from the left anterior descending (LAD) artery that supplies the anterolateral wall, when counted from proximal to distal.", "preferredTerm": "2ND DIAG; SECOND DIAGONAL BRANCH ARTERY SEGMENT", "submissionValue": "Anatomical Location", "synonyms": ["Second Diagonal Branch Artery"]}, {"conceptId": "C102345", "definition": "In an individual with a left-dominant heart, this is the second branch that arises from the circumflex artery atrioventricular groove continuation when counted from proximal to distal. It supplies the posterolateral wall.", "preferredTerm": "2ND LPL; SECOND LEFT POSTEROLATERAL BRANCH ARTERY SEGMENT", "submissionValue": "Anatomical Location", "synonyms": ["Second Left Posterolateral Branch Artery"]}, {"conceptId": "C102346", "definition": "The second artery arising from the left circumflex artery that supplies the lateral wall, when counted from proximal to distal.", "preferredTerm": "2ND OM; SECOND OBTUSE MARGINAL BRANCH ARTERY SEGMENT", "submissionValue": "Anatomical Location", "synonyms": ["Second Obtuse Marginal Branch Artery"]}, {"conceptId": "C102347", "definition": "In an individual with a right-dominant heart, this is the second branch that arises from the right coronary artery distal to the right posterior descending artery, when counted from proximal to distal.", "preferredTerm": "2ND RPL; SECOND RIGHT POSTEROLATERAL ARTERY SEGMENT", "submissionValue": "Anatomical Location", "synonyms": ["Second Right Posterolateral Artery"]}, {"conceptId": "C12787", "definition": "One of the two paired glands in the male genitourinary system, posterior to the bladder and superior to the prostate gland, that produces fructose-rich seminal fluid which is a component of semen. These glands join the ipsilateral ductus deferens to form the ejaculatory duct. (NCI)", "preferredTerm": "Seminal Sacs", "submissionValue": "Anatomical Location", "synonyms": ["Seminal Vesicle"]}, {"conceptId": "C25203", "definition": "The region of the body between the neck and the upper arm. (NCI)", "preferredTerm": "Shoulder", "submissionValue": "Anatomical Location", "synonyms": ["Shoulder"]}, {"conceptId": "C33548", "definition": "A ball-and-socket joint at the upper end of the humerus, located at the junction of humerus and scapula. (NCI)", "preferredTerm": "Shoulder Joint", "submissionValue": "Anatomical Location", "synonyms": ["Shoulder Joint"]}, {"conceptId": "C33556", "definition": "A recess, cavity, or channel. (NCI)", "preferredTerm": "Sinus", "submissionValue": "Anatomical Location", "synonyms": ["Sinus"]}, {"conceptId": "C12470", "definition": "An organ that constitutes the external surface of the body. It consists of the epidermis, dermis, and skin appendages. (NCI)", "preferredTerm": "Integument; Skin", "submissionValue": "Anatomical Location", "synonyms": ["Skin"]}, {"conceptId": "C116164", "definition": "The skin or integument surrounding the axilla, or underarm.", "preferredTerm": "", "submissionValue": "Anatomical Location", "synonyms": ["Skin Of The Axilla"]}, {"conceptId": "C52757", "definition": "The skin or integument surrounding the head.", "preferredTerm": "", "submissionValue": "Anatomical Location", "synonyms": ["Head Skin"]}, {"conceptId": "C12291", "definition": "The skin portion of the lip that contains hair.", "preferredTerm": "", "submissionValue": "Anatomical Location", "synonyms": ["Skin of the Lip"]}, {"conceptId": "C52756", "definition": "The skin or integument surrounding the neck.", "preferredTerm": "", "submissionValue": "Anatomical Location", "synonyms": ["Neck Skin"]}, {"conceptId": "C12295", "definition": "The skin or integument surrounding the trunk of the body. (NCI)", "preferredTerm": "Skin of the Trunk", "submissionValue": "Anatomical Location", "synonyms": ["Skin of the Trunk"]}, {"conceptId": "C12789", "definition": "The bones that form the head, made up of the bones of the braincase and face. (NCI)", "preferredTerm": "Bone, Cranial; Cranium; Skull", "submissionValue": "Anatomical Location", "synonyms": ["Skull"]}, {"conceptId": "C12386", "definition": "The section of the intestines between the pylorus and cecum. The small intestine is approximately 20 feet long and consists of the duodenum, the jejunum, and the ileum. Its main function is to absorb nutrients from food as the food is transported to the large intestine. (NCI)", "preferredTerm": "Small Intestine", "submissionValue": "Anatomical Location", "synonyms": ["Small Intestine"]}, {"conceptId": "C12231", "definition": "A movable fold suspended from the posterior border of the hard palate. (MeSH)", "preferredTerm": "", "submissionValue": "Anatomical Location", "synonyms": ["Soft Palate"]}, {"conceptId": "C33326", "definition": "The undersurface of the foot. (NCI)", "preferredTerm": "", "submissionValue": "Anatomical Location", "synonyms": ["Plantar Region"]}, {"conceptId": "C32041", "definition": "The eleventh cranial nerve.", "preferredTerm": "ACCESSORY NERVE; CRANIAL ACCESSORY NERVE", "submissionValue": "Anatomical Location", "synonyms": ["Accessory Nerve"]}, {"conceptId": "C12464", "definition": "The elongated, approximately cylindrical part of the central nervous system of vertebrates that lies in the vertebral canal and from which the spinal nerves emerge. (NCI)", "preferredTerm": "Medulla Spinalis", "submissionValue": "Anatomical Location", "synonyms": ["Spinal Cord"]}, {"conceptId": "C116112", "definition": "A bony projection arising from the posterior vertebral arch that serves for the attachment of muscles and ligaments.", "preferredTerm": "", "submissionValue": "Anatomical Location", "synonyms": ["Spinous Process"]}, {"conceptId": "C12432", "definition": "An organ that is part of the hematopoietic and immune systems. It is composed of the white pulp and the red pulp and is surrounded by a capsule. It is located in the left hypochondriac region. Its functions include lymphocyte production, blood cell storage, and blood cell destruction. (NCI)", "preferredTerm": "Spleen", "submissionValue": "Anatomical Location", "synonyms": ["Spleen"]}, {"conceptId": "C33601", "definition": "The area of the spleen through which the vessels and nerves enter or exit the organ. (NCI)", "preferredTerm": "Splenic Hilum", "submissionValue": "Anatomical Location", "synonyms": ["Splenic Hilum"]}, {"conceptId": "C33600", "definition": "A lymph node located in the hilar region of the spleen. (NCI)", "preferredTerm": "", "submissionValue": "Anatomical Location", "synonyms": ["Splenic Hilar Lymph Node"]}, {"conceptId": "C52730", "definition": "The upper segment of the sternum, quadrangular in shape, as well as wider superiorly and narrower inferiorly. The sternal manubrium articulates with the clavicle and first two ribs. (NCI)", "preferredTerm": "Sternal Manubrium", "submissionValue": "Anatomical Location", "synonyms": ["Sternal Manubrium"]}, {"conceptId": "C33615", "definition": "The synovial juncture between the medial end of the clavicle and the anterior segment of the sternum. (NCI)", "preferredTerm": "Sternoclavicular Joint", "submissionValue": "Anatomical Location", "synonyms": ["Sternoclavicular Joint"]}, {"conceptId": "C12793", "definition": "The long, flat bone connecting with the cartilages of the first seven ribs and the clavicle. (NCI)", "preferredTerm": "Sterna; Sternum", "submissionValue": "Anatomical Location", "synonyms": ["Sternum"]}, {"conceptId": "C12391", "definition": "An organ located under the diaphragm, between the liver and the spleen as well as between the esophagus and the small intestine. The stomach is the primary organ of food digestion. (NCI)", "preferredTerm": "Stomach", "submissionValue": "Anatomical Location", "synonyms": ["Stomach"]}, {"conceptId": "C12794", "definition": "The vein that drains the axillary vein and joins the internal jugular vein to form the brachiocephalic vein. It runs parallel to the subclavian artery.", "preferredTerm": "", "submissionValue": "Anatomical Location", "synonyms": ["Subclavian Vein"]}, {"conceptId": "C33645", "definition": "Adipose tissue located under the dermis. It binds underlying structures with the skin. The subcutis is important in the regulation of temperature of the skin itself and the body. The size of this layer varies throughout the body and from subject to subject.", "preferredTerm": "Subcutaneous Adipose Tissue; Subcutaneous Tissue", "submissionValue": "Anatomical Location", "synonyms": ["Subcutis"]}, {"conceptId": "C12280", "definition": "The area of the larynx below the vocal cords down to the trachea. (NCI)", "preferredTerm": "Subglottis", "submissionValue": "Anatomical Location", "synonyms": ["Subglottis"]}, {"conceptId": "C102349", "definition": "A body region relating to the area under or adjacent to the tongue.", "preferredTerm": "", "submissionValue": "Anatomical Location", "synonyms": ["Sublingual Region"]}, {"conceptId": "C77650", "definition": "A lymph node located beneath the floor of the oral cavity. (NCI)", "preferredTerm": "Lymph Node, Submandibular", "submissionValue": "Anatomical Location", "synonyms": ["Submandibular Lymph Node"]}, {"conceptId": "C12453", "definition": "A large cell mass extending forward, over the dorsal surface of the crus cerebri, from the rostral border of the pons into the subthalamic region. It is composed of a dorsal stratum of closely spaced pigmented cells, the pars compacta, and a larger ventral region of widely scattered cells, the pars reticulata. The pars compacta includes numerous cells that project forward to the striatum (caudate nucleus and putamen) and contain dopamine, which acts as the primary neurotransmitter at the synaptic endings. Other, apparently non-dopaminergic cells project to portions of the ventral nucleus of thalamus, the superior colliculus and reticular formation. The nigrostriatal projection is reciprocated by a striatonigral fiber system with multiple neurotransmitters, chief among which is gamma-aminobutyric acid (GABA). The substantia nigra is involved in the metabolic disturbances associated with Parkinson's disease and Huntington's disease. (NCI)", "preferredTerm": "Substantia Nigra", "submissionValue": "Anatomical Location", "synonyms": ["Substantia Nigra"]}, {"conceptId": "C33653", "definition": "The plane synovial joint between the talus and calcaneus bones of the foot.", "preferredTerm": "Talocalcaneal Joint", "submissionValue": "Anatomical Location", "synonyms": ["Subtalar Joint"]}, {"conceptId": "C33712", "definition": "The small coiled tubular glands in the skin that produce and secrete sweat.", "preferredTerm": "Sweat Gland", "submissionValue": "Anatomical Location", "synonyms": ["Sweat Gland"]}, {"conceptId": "C33661", "definition": "The portion of the femoral artery distal to the branching of the deep femoral artery that runs close to the skin.", "preferredTerm": "", "submissionValue": "Anatomical Location", "synonyms": ["Superficial Femoral Artery"]}, {"conceptId": "C102716", "definition": "A lymph node located in a superficial part of the body.", "preferredTerm": "", "submissionValue": "Anatomical Location", "synonyms": ["Superficial Lymph Node"]}, {"conceptId": "C12816", "definition": "The large vein that terminates in the right atrium and transports deoxygenated blood from the head, neck, arms, and chest to the heart.", "preferredTerm": "", "submissionValue": "Anatomical Location", "synonyms": ["Superior Vena Cava"]}, {"conceptId": "C12903", "definition": "A lymph node which is located above the clavicle. (NCI)", "preferredTerm": "Supraclavicular Lymph Node", "submissionValue": "Anatomical Location", "synonyms": ["Supraclavicular Lymph Node"]}, {"conceptId": "C12467", "definition": "A mass containing the cell bodies of sympathetic nerves. Sympathetic ganglia exist as paravertebral ganglia (located bilaterally adjacent to the spinal cord) or prevertebral ganglia (located close to the target organ).", "preferredTerm": "", "submissionValue": "Anatomical Location", "synonyms": ["Sympathetic Ganglion"]}, {"conceptId": "C33718", "definition": "A viscid fluid secreted by the synovial membrane, serving as a lubricant. (NCI)", "preferredTerm": "Synovia; Synovial Fluid", "submissionValue": "Anatomical Location", "synonyms": ["Synovial Fluid"]}, {"conceptId": "C33720", "definition": "The first thoracic vertebra counting from the top down. (NCI)", "preferredTerm": "T1 Vertebra", "submissionValue": "Anatomical Location", "synonyms": ["T1 Vertebra"]}, {"conceptId": "C33721", "definition": "The tenth thoracic vertebra counting from the top down. (NCI)", "preferredTerm": "T10 Vertebra", "submissionValue": "Anatomical Location", "synonyms": ["T10 Vertebra"]}, {"conceptId": "C33722", "definition": "The eleventh thoracic vertebra counting from the top down. (NCI)", "preferredTerm": "T11 Vertebra", "submissionValue": "Anatomical Location", "synonyms": ["T11 Vertebra"]}, {"conceptId": "C33723", "definition": "The twelfth thoracic vertebra counting from the top down. (NCI)", "preferredTerm": "T12 Vertebra", "submissionValue": "Anatomical Location", "synonyms": ["T12 Vertebra"]}, {"conceptId": "C33724", "definition": "The second thoracic vertebra counting from the top down. (NCI)", "preferredTerm": "T2 Vertebra", "submissionValue": "Anatomical Location", "synonyms": ["T2 Vertebra"]}, {"conceptId": "C33725", "definition": "The third thoracic vertebra counting from the top down. (NCI)", "preferredTerm": "T3 Vertebra", "submissionValue": "Anatomical Location", "synonyms": ["T3 Vertebra"]}, {"conceptId": "C33726", "definition": "The fourth thoracic vertebra counting from the top down. (NCI)", "preferredTerm": "T4 Vertebra", "submissionValue": "Anatomical Location", "synonyms": ["T4 Vertebra"]}, {"conceptId": "C33727", "definition": "The fifth thoracic vertebra counting from the top down. (NCI)", "preferredTerm": "T5 Vertebra", "submissionValue": "Anatomical Location", "synonyms": ["T5 Vertebra"]}, {"conceptId": "C33728", "definition": "The sixth thoracic vertebra counting from the top down. (NCI)", "preferredTerm": "T6 Vertebra", "submissionValue": "Anatomical Location", "synonyms": ["T6 Vertebra"]}, {"conceptId": "C33729", "definition": "The seventh thoracic vertebra counting from the top down. (NCI)", "preferredTerm": "T7 Vertebra", "submissionValue": "Anatomical Location", "synonyms": ["T7 Vertebra"]}, {"conceptId": "C33730", "definition": "The eighth thoracic vertebra counting from the top down. (NCI)", "preferredTerm": "T8 Vertebra", "submissionValue": "Anatomical Location", "synonyms": ["T8 Vertebra"]}, {"conceptId": "C33731", "definition": "The ninth thoracic vertebra counting from the top down. (NCI)", "preferredTerm": "T9 Vertebra", "submissionValue": "Anatomical Location", "synonyms": ["T9 Vertebra"]}, {"conceptId": "C52799", "definition": "The bone of the foot that connects with the tibia and fibula to form the ankle joint. (NCI)", "preferredTerm": "Talus", "submissionValue": "Anatomical Location", "synonyms": ["Talus"]}, {"conceptId": "C12796", "definition": "Any one of the seven bones forming the instep of the foot. (NCI)", "preferredTerm": "Bone, Tarsal; Tarsus; Tarsus Bone", "submissionValue": "Anatomical Location", "synonyms": ["Tarsal Bone"]}, {"conceptId": "C12797", "definition": "A large irregular bone situated at the base and side of the skull, connected with the mandible via the temporomandibular joint. The temporal bone consists of the squamous, tympanic and petrous parts. The petrous portion of the temporal bone contains the vestibulocochlear organ of the inner ear. (NCI)", "preferredTerm": "Temporal Bone", "submissionValue": "Anatomical Location", "synonyms": ["Temporal Bone"]}, {"conceptId": "C12353", "definition": "Lower lateral part of the cerebral hemisphere. (MSH2001)", "preferredTerm": "", "submissionValue": "Anatomical Location", "synonyms": ["Temporal Lobe"]}, {"conceptId": "C32888", "definition": "The joint between the head of the lower mandible and the temporal bone. (NCI)", "preferredTerm": "Jaw Joint; TMJ", "submissionValue": "Anatomical Location", "synonyms": ["Jaw Joint"]}, {"conceptId": "C12412", "definition": "Either of the paired male reproductive glands that produce the male germ cells and the male hormones. (NCI)", "preferredTerm": "Testicle; Testis", "submissionValue": "Anatomical Location", "synonyms": ["Testis"]}, {"conceptId": "C12459", "definition": "An ovoid mass composed predominantly of gray substance and associated laminae of white substance. The thalamus is divided into anterior, medial, and lateral parts. The function of the thalamus is to relay sensory impulses and cerebellar and basal ganglia projections to the cerebral cortex. The thalamus is positioned within the posterior part of the diencephalon forming most of each lateral wall of the third ventricle. (NCI)", "preferredTerm": "Thalamus", "submissionValue": "Anatomical Location", "synonyms": ["Thalamus"]}, {"conceptId": "C33763", "definition": "A part of the lower limb, located between hip and knee. (NCI)", "preferredTerm": "Thigh", "submissionValue": "Anatomical Location", "synonyms": ["Thigh"]}, {"conceptId": "C102350", "definition": "The third artery arising from the left anterior descending (LAD) artery that supplies the anterolateral wall, when counted from proximal to distal.", "preferredTerm": "3RD DIAG; THIRD DIAGONAL BRANCH ARTERY SEGMENT", "submissionValue": "Anatomical Location", "synonyms": ["Third Diagonal Branch Artery"]}, {"conceptId": "C102351", "definition": "The third artery arising from the left circumflex artery that supplies the lateral wall, when counted from proximal to distal.", "preferredTerm": "3RD OM; THIRD OBTUSE MARGINAL BRANCH ARTERY SEGMENT", "submissionValue": "Anatomical Location", "synonyms": ["Third Obtuse Marginal Branch Artery"]}, {"conceptId": "C102352", "definition": "In an individual with a left-dominant heart, this is the third branch that arises from the circumflex artery atrioventricular groove continuation when counted from proximal to distal. It supplies the posterolateral wall.", "preferredTerm": "3RD LPL; THIRD POSTEROLATERAL DESCENDING ARTERY SEGMENT", "submissionValue": "Anatomical Location", "synonyms": ["Third Posterolateral Descending Artery"]}, {"conceptId": "C102353", "definition": "In an individual with a right-dominant heart, this is the third branch that arises from the right coronary artery distal to the right posterior descending artery, when counted from proximal to distal.", "preferredTerm": "3RD RPL; THIRD RIGHT POSTEROLATERAL ARTERY SEGMENT", "submissionValue": "Anatomical Location", "synonyms": ["Third Right Posterolateral Artery"]}, {"conceptId": "C12905", "definition": "The cavity in the vertebrate body enclosed by the ribs between the diaphragm and the neck and containing the lungs and heart. (NCI)", "preferredTerm": "Thoracic Cavity", "submissionValue": "Anatomical Location", "synonyms": ["Thoracic Cavity"]}, {"conceptId": "C33769", "definition": "Lymph node located in the thoracic cavity. (NCI)", "preferredTerm": "", "submissionValue": "Anatomical Location", "synonyms": ["Thoracic Lymph Node"]}, {"conceptId": "C12798", "definition": "One of 12 vertebrae in the human vertebral column. The thoracic vertebrae are situated between the seventh cervical vertebra down to the first lumbar vertebra. (NCI)", "preferredTerm": "Thoracic Vertebra", "submissionValue": "Anatomical Location", "synonyms": ["Thoracic Vertebra"]}, {"conceptId": "C12799", "definition": "The division of the body lying between the neck and the abdomen. (NCI)", "preferredTerm": "Thorax", "submissionValue": "Anatomical Location", "synonyms": ["Thorax"]}, {"conceptId": "C54272", "definition": "The narrow passage from the mouth to the cavity at the back of the mouth. (NCI)", "preferredTerm": "Throat", "submissionValue": "Anatomical Location", "synonyms": ["Throat"]}, {"conceptId": "C12433", "definition": "A bi-lobed organ surrounded by a connective tissue capsule. It is located in the upper anterior portion of the chest, behind the sternum. It is composed predominantly of lymphocytes and fewer epithelial cells. Connective tissue septa separate the lobes into lobules. The lobules contain an outer portion (cortical zone) which is rich in lymphocytes and an inner portion (medullary zone) which is rich in epithelial cells. It is an organ essential for the development of the immune system. Its function is the maturation of the progenitor lymphoid cells to thymocytes and subsequently to mature T-cells. It reaches its greatest weight at puberty and subsequently begins to involute. (NCI)", "preferredTerm": "Thymus Gland", "submissionValue": "Anatomical Location", "synonyms": ["Thymus Gland"]}, {"conceptId": "C12400", "definition": "An endocrine gland located at the base of the neck that produces and secretes thyroxine and other hormones. Thyroxine is important for metabolic control. (NCI)", "preferredTerm": "Thyroid Gland", "submissionValue": "Anatomical Location", "synonyms": ["Thyroid Gland"]}, {"conceptId": "C32887", "definition": "The narrow, central portion of the thyroid gland that crosses the trachea anteriorly and connects the two lobes of the gland. (NCI)", "preferredTerm": "", "submissionValue": "Anatomical Location", "synonyms": ["Thyroid Gland Isthmus"]}, {"conceptId": "C32973", "definition": "The cone-like lobe of the thyroid gland that is located in the left side of the trachea. (NCI)", "preferredTerm": "Left Thyroid Gland Lobe", "submissionValue": "Anatomical Location", "synonyms": ["Left Thyroid Gland Lobe"]}, {"conceptId": "C33491", "definition": "The cone-like lobe of the thyroid gland that is located in the right side of the trachea. (NCI)", "preferredTerm": "Right Thyroid Gland Lobe", "submissionValue": "Anatomical Location", "synonyms": ["Right Thyroid Gland Lobe"]}, {"conceptId": "C12800", "definition": "A bone located between the femur and the tarsus, being part of the lower leg. (NCI)", "preferredTerm": "Tibia", "submissionValue": "Anatomical Location", "synonyms": ["Tibia"]}, {"conceptId": "C116168", "definition": "The blood vessels segment that includes the crural artery and the tibial artery.", "preferredTerm": "", "submissionValue": "Anatomical Location", "synonyms": ["Tibialcrural Artery"]}, {"conceptId": "C116182", "definition": "An arterial trunk that contains parts of the posterior tibial artery and fibular artery.", "preferredTerm": "", "submissionValue": "Anatomical Location", "synonyms": ["Tibioperoneal Arterial Trunk"]}, {"conceptId": "C33788", "definition": "One of the terminal digits of the foot. (NCI)", "preferredTerm": "Toe", "submissionValue": "Anatomical Location", "synonyms": ["Toe"]}, {"conceptId": "C33790", "definition": "A thin, horny translucent plate covering the end of each toe. (NCI)", "preferredTerm": "Toenail", "submissionValue": "Anatomical Location", "synonyms": ["Toenail"]}, {"conceptId": "C12422", "definition": "The muscular organ located in the floor of the mouth and serving as the principal organ of taste and modification of the voice in speech. (NCI)", "preferredTerm": "Tongue", "submissionValue": "Anatomical Location", "synonyms": ["Tongue"]}, {"conceptId": "C12802", "definition": "The two organs situated in the throat on either side of the narrow passage from the mouth to the pharynx. They are composed of lymphoid tissues. (NCI)", "preferredTerm": "Tonsil", "submissionValue": "Anatomical Location", "synonyms": ["Tonsil"]}, {"conceptId": "C66864", "definition": "The anatomic space in the root of a tooth that contains nerves, blood vessels, and connective tissue. (NCI)", "preferredTerm": "Tooth Canal", "submissionValue": "Anatomical Location", "synonyms": ["Tooth Canal"]}, {"conceptId": "C12428", "definition": "The fibrocartilaginous, mucous-lined tube passing from the larynx to the bronchi. (NCI)", "preferredTerm": "Trachea; Windpipe", "submissionValue": "Anatomical Location", "synonyms": ["Trachea"]}, {"conceptId": "C102354", "definition": "A combination of syndesmosis and synovial joints formed by the articulation of the talus with the navicular and the calcaneus with the cuboid.", "preferredTerm": "", "submissionValue": "Anatomical Location", "synonyms": ["Transverse Tarsal Joint"]}, {"conceptId": "C12857", "definition": "A carpal bone on the thumb side of the hand that articulates with the 1st and 2nd metacarpals. (NCI)", "preferredTerm": "Trapezial Bone", "submissionValue": "Anatomical Location", "synonyms": ["Trapezial Bone"]}, {"conceptId": "C33809", "definition": "One of a pair of flat, large, triangular muscles that extend from the external occipital protuberance and the medial third of the superior nuchal line of the occipital bone to the middle of the back. The trapezius muscle is involved in moving the shoulder and arm. (NCI)", "preferredTerm": "Trapezius Muscle", "submissionValue": "Anatomical Location", "synonyms": ["Trapezius Muscle"]}, {"conceptId": "C12859", "definition": "A carpal bone located between the trapezium and capitate bones. (NCI)", "preferredTerm": "Trapezoid Bone", "submissionValue": "Anatomical Location", "synonyms": ["Trapezoid Bone"]}, {"conceptId": "C12858", "definition": "A carpal bone located between the lunate and pisiform bones. (NCI)", "preferredTerm": "Triangular Bone", "submissionValue": "Anatomical Location", "synonyms": ["Triangular Bone"]}, {"conceptId": "C12806", "definition": "The fifth set of paired nerves of the face that emerge from the brain steam. These nerves have sensory and motor functions in the face, oral cavity, and nasal cavity. (NCI)", "preferredTerm": "Fifth Cranial Nerve; Nervus Trigeminus; Trigeminal Nerve", "submissionValue": "Anatomical Location", "synonyms": ["Trigeminal Nerve"]}, {"conceptId": "C33814", "definition": "A bony protrusion on the femoral bone to which muscles are attached. (NCI)", "preferredTerm": "Trochanter", "submissionValue": "Anatomical Location", "synonyms": ["Trochanter"]}, {"conceptId": "C12808", "definition": "The cranial nerve that controls the superior oblique muscle of the eye. (NCI)", "preferredTerm": "Trochlear Nerve", "submissionValue": "Anatomical Location", "synonyms": ["Trochlear Nerve"]}, {"conceptId": "C33816", "definition": "The body excluding the head and neck and limbs. (NCI)", "preferredTerm": "Trunk", "submissionValue": "Anatomical Location", "synonyms": ["Trunk"]}, {"conceptId": "C33820", "definition": "The inner most layer of the blood vessel wall. The consistency of the intima will vary depending on the type of blood vessel, but will always have an endothelial layer with a basal lamina. It may contain collagen and elastic fibers. (NCI)", "preferredTerm": "Tunica Intima", "submissionValue": "Anatomical Location", "synonyms": ["Tunica Intima"]}, {"conceptId": "C12502", "definition": "A thin membrane that separates the external auditory canal from the middle ear. The movement of the tympanic membrane in response to air pressure changes in the external ear facilitates the transmission of sound energy by causing vibration of the ossicular chain. (NCI)", "preferredTerm": "Tympanic Membrane", "submissionValue": "Anatomical Location", "synonyms": ["Tympanic Membrane"]}, {"conceptId": "C12809", "definition": "The long bone that extends from the elbow to the lateral side of the carpus.", "preferredTerm": "Ulna Bone", "submissionValue": "Anatomical Location", "synonyms": ["Ulna"]}, {"conceptId": "C62432", "definition": "A portion of the pancreas that extends behind the superior mesenteric artery and superior mesenteric vein. (NCI)", "preferredTerm": "Uncinate Process of Pancreas", "submissionValue": "Anatomical Location", "synonyms": ["Uncinate Process of Pancreas"]}, {"conceptId": "C103447", "definition": "A lymph node located in the upper region of the neck. (NCI)", "preferredTerm": "", "submissionValue": "Anatomical Location", "synonyms": ["Upper Cervical Lymph Node"]}, {"conceptId": "C33839", "definition": "The sinuses and those parts of the respiratory system above the trachea. It includes the nares, nasopharynx, oropharynx, larynx, vocal cords, glottis and upper trachea.", "preferredTerm": "", "submissionValue": "Anatomical Location", "synonyms": ["Upper Respiratory System"]}, {"conceptId": "C12416", "definition": "The thick-walled tube that carries urine from each kidney to the bladder. (NCI)", "preferredTerm": "Ureter", "submissionValue": "Anatomical Location", "synonyms": ["Ureter"]}, {"conceptId": "C12417", "definition": "The tube carrying urine from the bladder to outside of the body. (NCI)", "preferredTerm": "Urethra", "submissionValue": "Anatomical Location", "synonyms": ["Urethra"]}, {"conceptId": "C61125", "definition": "The portion of the urethra that extends from the meatus to the membranous urethra. (NCI)", "preferredTerm": "Anterior Portion of the Urethra", "submissionValue": "Anatomical Location", "synonyms": ["Anterior Portion of the Urethra"]}, {"conceptId": "C61123", "definition": "The portion of the urethra that spans the corpus spongiosum. (NCI)", "preferredTerm": "Penile Portion of the Urethra", "submissionValue": "Anatomical Location", "synonyms": ["Penile Portion of the Urethra"]}, {"conceptId": "C61126", "definition": "The portion of the urethra that is located on the posterior aspect of the urogenital diaphragm. (NCI)", "preferredTerm": "Posterior Portion of the Urethra", "submissionValue": "Anatomical Location", "synonyms": ["Posterior Portion of the Urethra"]}, {"conceptId": "C13101", "definition": "That part of the male urethra that passes through the prostate gland. (NCI)", "preferredTerm": "Prostatic Urethra", "submissionValue": "Anatomical Location", "synonyms": ["Prostatic Urethra"]}, {"conceptId": "C12413", "definition": "The organs involved in the creation and excretion of urine. (NCI)", "preferredTerm": "Urinary System", "submissionValue": "Anatomical Location", "synonyms": ["Urinary System"]}, {"conceptId": "C12405", "definition": "A hollow, thick-walled, muscular organ located within the pelvic cavity of a woman. Within the uterus the fertilized egg implants and the fetus develops during pregnancy. (NCI)", "preferredTerm": "Uterus; Womb", "submissionValue": "Anatomical Location", "synonyms": ["Uterus"]}, {"conceptId": "C12811", "definition": "The pigmented layer of the eyeball between the tough, white outer coat of the eye and the retina. (NCI)", "preferredTerm": "Uvea", "submissionValue": "Anatomical Location", "synonyms": ["Uvea"]}, {"conceptId": "C12407", "definition": "The female genital canal, extending from the uterus to the vulva. (NCI)", "preferredTerm": "Vagina", "submissionValue": "Anatomical Location", "synonyms": ["Vagina"]}, {"conceptId": "C12812", "definition": "The 10th cranial nerve. The vagus is a mixed nerve which contains somatic afferents (from skin in back of the ear and the external auditory meatus), visceral afferents (from the pharynx, larynx, thorax, and abdomen), parasympathetic efferents (to the thorax and abdomen), and efferents to striated muscle (of the larynx and pharynx). (MSH2001)", "preferredTerm": "", "submissionValue": "Anatomical Location", "synonyms": ["Vagus Nerve"]}, {"conceptId": "C12813", "definition": "Duct carrying spermatozoa. (NCI)", "preferredTerm": "", "submissionValue": "Anatomical Location", "synonyms": ["Vas Deferens"]}, {"conceptId": "C12814", "definition": "A blood vessel that carries blood towards the heart.", "preferredTerm": "Vein", "submissionValue": "Anatomical Location", "synonyms": ["Vein"]}, {"conceptId": "C12817", "definition": "A large vein which returns blood from the head, neck and extremities to the heart. (NCI)", "preferredTerm": "Vena Cava", "submissionValue": "Anatomical Location", "synonyms": ["Vena Cava"]}, {"conceptId": "C12998", "definition": "A series of bones, muscles, tendons, and other tissues reaching from the base of the skull to the tailbone. The vertebral column forms the axis of the skeleton and encloses as well as protects the spinal cord and the fluid surrounding the spinal cord. (NCI)", "preferredTerm": "Vertebral Column", "submissionValue": "Anatomical Location", "synonyms": ["Vertebral Column"]}, {"conceptId": "C12996", "definition": "The eighth cranial nerve.", "preferredTerm": "", "submissionValue": "Anatomical Location", "synonyms": ["Vestibulocochlear Nerve"]}, {"conceptId": "C12822", "definition": "A pair of small bands of muscle that stretch from the thyroid cartilage in front to the arytenoid cartilage in back of the larynx. The vocal cords help prevent food entering the lungs and produce sound through vibration. (NCI)", "preferredTerm": "Vocal Cord", "submissionValue": "Anatomical Location", "synonyms": ["Vocal Cord"]}, {"conceptId": "C33888", "definition": "A thin, paired or unpaired, trapezoidal bone of the skull located in the floor of the nasal cavity. The vomer forms the posterior and inferior parts of the nasal septum. (NCI)", "preferredTerm": "Vomer", "submissionValue": "Anatomical Location", "synonyms": ["Vomer"]}, {"conceptId": "C12408", "definition": "The external, visible part of the female genitalia surrounding the urethral and vaginal opening. The vulva includes the clitoris and inner as well as outer labia. (NCI)", "preferredTerm": "External Genitalia; Vulva", "submissionValue": "Anatomical Location", "synonyms": ["Vulva"]}, {"conceptId": "C64192", "definition": "The abdominal circumference at the navel. (NCI)", "preferredTerm": "Waist", "submissionValue": "Anatomical Location", "synonyms": ["Waist"]}, {"conceptId": "C73468", "definition": "The ring of lymphoid tissue located in the pharynx, consisting of the pharyngeal, tubal, palatine, and lingual tonsils. (NCI)", "preferredTerm": "", "submissionValue": "Anatomical Location", "synonyms": ["Waldeyer's Tonsillar Ring"]}, {"conceptId": "C33894", "definition": "A joint between the distal end of the radius and the proximal row of carpal bones. (NCI)", "preferredTerm": "Wrist Joint", "submissionValue": "Anatomical Location", "synonyms": ["Wrist Joint"]}, {"conceptId": "C33895", "definition": "The cartilage just below the sternal body. (NCI)", "preferredTerm": "Xiphoid Process", "submissionValue": "Anatomical Location", "synonyms": ["Xiphoid Process"]}]}, {"conceptId": "", "definition": "The anginal classifications as measured by the Canadian Cardiovascular Society grading scale.", "extensible": "No", "name": "Canadian Cardiovascular Society Classification", "preferredTerm": "Canadian Cardiovascular Society Classification", "submissionValue": "Canadian Cardiovascular Society Classification", "synonyms": ["CDISC SDTM Canadian Cardiovascular Society Classification Terminology"], "terms": [{"conceptId": "C77265", "definition": "Ordinary physical activity, such as walking or climbing stairs, does not cause angina. Angina occurs with strenuous, rapid, or prolonged exertion at work or recreation.", "preferredTerm": "Canadian Cardiovascular Society Classification 1", "submissionValue": "Canadian Cardiovascular Society Classification", "synonyms": ["Canadian Cardiovascular Society Grading Scale Class I"]}, {"conceptId": "C77266", "definition": "Slight limitation of ordinary activity. Angina occurs on walking or climbing stairs rapidly, walking uphill, walking or climbing stairs after meals, or in cold, in wind, or under emotional stress, or only during the few hours after awakening. Angina occurs on walking more than 2 blocks on the level and climbing more than 1 flight of ordinary stairs at a normal pace and in normal conditions.", "preferredTerm": "Canadian Cardiovascular Society Classification 2", "submissionValue": "Canadian Cardiovascular Society Classification", "synonyms": ["Canadian Cardiovascular Society Grading Scale Class II"]}, {"conceptId": "C77267", "definition": "Marked limitations of ordinary physical activity. Angina occurs on walking 1 to 2 blocks on the level and climbing 1 flight of stairs in normal conditions and at a normal pace.", "preferredTerm": "Canadian Cardiovascular Society Classification 3", "submissionValue": "Canadian Cardiovascular Society Classification", "synonyms": ["Canadian Cardiovascular Society Grading Scale Class III"]}, {"conceptId": "C77268", "definition": "Inability to perform any physical activity without discomfort - anginal symptoms may be present at rest.", "preferredTerm": "Canadian Cardiovascular Society Classification 4", "submissionValue": "Canadian Cardiovascular Society Classification", "synonyms": ["Canadian Cardiovascular Society Grading Scale Class IV"]}]}, {"conceptId": "", "definition": "The reason that a subject had a cardiac procedure.", "extensible": "Yes", "name": "Cardiac Procedure Indication", "preferredTerm": "Cardiac Procedure Indication", "submissionValue": "Cardiac Procedure Indication", "synonyms": ["CDISC SDTM Cardiac Procedure Indication Terminology"], "terms": [{"conceptId": "C99919", "definition": "The intended recipient of a heart transplant.", "preferredTerm": "", "submissionValue": "Cardiac Procedure Indication", "synonyms": ["Candidate to Receive Cardiac Transplant"]}, {"conceptId": "C100033", "definition": "An episode of cardiac arrest or arrhythmia where the etiology was unknown.", "preferredTerm": "", "submissionValue": "Cardiac Procedure Indication", "synonyms": ["Cardiac Arrest/Arrhythmia Etiology Unknown"]}, {"conceptId": "C34830", "definition": "A disease of the heart muscle or myocardium proper. Cardiomyopathies may be classified as either primary or secondary, on the basis of etiology, or on the pathophysiology of the lesion: hypertrophic, dilated, or restrictive.", "preferredTerm": "", "submissionValue": "Cardiac Procedure Indication", "synonyms": ["Cardiomyopathy"]}, {"conceptId": "C99938", "definition": "A longstanding, complete blockage of a vessel.", "preferredTerm": "", "submissionValue": "Cardiac Procedure Indication", "synonyms": ["Chronic Total Occlusion Vessel"]}, {"conceptId": "C99947", "definition": "The subject contributing a heart for a cardiac transplant.", "preferredTerm": "", "submissionValue": "Cardiac Procedure Indication", "synonyms": ["Donor for Cardiac Transplant"]}, {"conceptId": "C99949", "defini