{"codelists": [{"conceptId": "", "definition": "Action Taken with Study Treatment", "extensible": "No", "name": "Action Taken with Study Treatment", "preferredTerm": "ACN", "submissionValue": "Action Taken with Study Treatment", "synonyms": ["The reason that changes were made to the therapy under study. (NCI)"], "terms": [{"conceptId": "C49503", "definition": "", "preferredTerm": "DOSE INCREASED", "submissionValue": "Action Taken with Study Treatment", "synonyms": ["An indication that a medication schedule was modified by addition", " either by changing the frequency, strength or amount. (NCI)"]}, {"conceptId": "C49504", "definition": "", "preferredTerm": "DOSE NOT CHANGED", "submissionValue": "Action Taken with Study Treatment", "synonyms": ["An indication that a medication schedule was maintained. (NCI)"]}, {"conceptId": "C49505", "definition": "", "preferredTerm": "DOSE REDUCED", "submissionValue": "Action Taken with Study Treatment", "synonyms": ["An indication that a medication schedule was modified by subtraction, either by changing the frequency, strength or amount. (NCI)"]}, {"conceptId": "C49501", "definition": "", "preferredTerm": "DRUG INTERRUPTED", "submissionValue": "Action Taken with Study Treatment", "synonyms": ["An indication that a medication schedule was modified by temporarily terminating a prescribed regimen of medication. (NCI)"]}, {"conceptId": "C49502", "definition": "", "preferredTerm": "DRUG WITHDRAWN", "submissionValue": "Action Taken with Study Treatment", "synonyms": ["An indication that a medication schedule was modified through termination of a prescribed regimen of medication. (NCI)"]}, {"conceptId": "C48660", "definition": "", "preferredTerm": "NOT APPLICABLE", "submissionValue": "Action Taken with Study Treatment", "synonyms": ["Determination of a value is not relevant in the current context. (NCI)"]}, {"conceptId": "C17998", "definition": "U; Unknown", "preferredTerm": "UNKNOWN", "submissionValue": "Action Taken with Study Treatment", "synonyms": ["Not known, not observed, not recorded, or refused. (NCI)"]}]}, {"conceptId": "", "definition": "Outcome of Event", "extensible": "No", "name": "Outcome of Event", "preferredTerm": "OUT", "submissionValue": "Outcome of Event", "synonyms": ["A condition or event that is attributed to the adverse event and is the result or conclusion of the adverse event. (NCI)"], "terms": [{"conceptId": "C48275", "definition": "Grade 5; 5", "preferredTerm": "FATAL", "submissionValue": "Outcome of Event", "synonyms": ["The termination of life as a result of an adverse event. (NCI)"]}, {"conceptId": "C49494", "definition": "", "preferredTerm": "NOT RECOVERED/NOT RESOLVED", "submissionValue": "Outcome of Event", "synonyms": ["One of the possible results of an adverse event outcome that indicates that the event has not improved or recuperated. (NCI)"]}, {"conceptId": "C49498", "definition": "", "preferredTerm": "RECOVERED/RESOLVED", "submissionValue": "Outcome of Event", "synonyms": ["One of the possible results of an adverse event outcome that indicates that the event has improved or recuperated. (NCI)"]}, {"conceptId": "C49495", "definition": "", "preferredTerm": "RECOVERED/RESOLVED WITH SEQUELAE", "submissionValue": "Outcome of Event", "synonyms": ["One of the possible results of an adverse event outcome where the subject recuperated but retained pathological conditions resulting from the prior disease or injury. (NCI)"]}, {"conceptId": "C49496", "definition": "", "preferredTerm": "RECOVERING/RESOLVING", "submissionValue": "Outcome of Event", "synonyms": ["One of the possible results of an adverse event outcome that indicates that the event is improving. (NCI)"]}, {"conceptId": "C17998", "definition": "U; Unknown", "preferredTerm": "UNKNOWN", "submissionValue": "Outcome of Event", "synonyms": ["Not known, not observed, not recorded, or refused. (NCI)"]}]}, {"conceptId": "", "definition": "Age Span", "extensible": "Yes", "name": "Age Span", "preferredTerm": "AGESPAN", "submissionValue": "Age Span", "synonyms": ["Subgroups of populations based on age. (NCI)"], "terms": [{"conceptId": "C27954", "definition": "", "preferredTerm": "ADOLESCENT (12-17 YEARS)", "submissionValue": "Age Span", "synonyms": ["A juvenile between the onset of puberty and maturity", " in the state of development between puberty and maturity. (NCI)"]}, {"conceptId": "C49685", "definition": "", "preferredTerm": "ADULT (18-65)", "submissionValue": "Age Span", "synonyms": ["A person from 18 years to 65 years of age. (NCI)"]}, {"conceptId": "C49683", "definition": "", "preferredTerm": "CHILDREN (2-11 YEARS)", "submissionValue": "Age Span", "synonyms": ["A person from 2 years to 11 years of age. (NCI)"]}, {"conceptId": "C16268", "definition": "", "preferredTerm": "ELDERLY (> 65)", "submissionValue": "Age Span", "synonyms": ["An age group comprised by people 65 years of age and older. (NCI)"]}, {"conceptId": "C49641", "definition": "", "preferredTerm": "IN UTERO", "submissionValue": "Age Span", "synonyms": ["The period of time during which the embryo or foetus is present in the uterus of the female. Also describes the location of the embryo or foetus as being in the uterus in contrast to outside the uterus (ex utero). (NCI)"]}, {"conceptId": "C49643", "definition": "", "preferredTerm": "INFANT AND TODDLER (28 DAYS - 23 MONTHS)", "submissionValue": "Age Span", "synonyms": ["A person from 28 days to 23 months of age. (NCI)"]}, {"conceptId": "C16731", "definition": "", "preferredTerm": "NEWBORN (0-27 DAYS)", "submissionValue": "Age Span", "synonyms": ["An infant during the first month after birth. (NCI)"]}, {"conceptId": "C49642", "definition": "", "preferredTerm": "PRETERM NEWBORN INFANTS", "submissionValue": "Age Span", "synonyms": ["An infant born prior to completion of the normal gestation period. (NCI)"]}]}, {"conceptId": "", "definition": "Age Unit", "extensible": "No", "name": "Age Unit", "preferredTerm": "AGEU", "submissionValue": "Age Unit", "synonyms": ["Those units of time that are routinely used to express the age of a person. (NCI)"], "terms": [{"conceptId": "C25301", "definition": "", "preferredTerm": "DAYS", "submissionValue": "Age Unit", "synonyms": ["The time for Earth to make a complete rotation on its axis", " ordinarily divided into twenty-four hours. This also refers to a specific day. (NCI)"]}, {"conceptId": "C25529", "definition": "", "preferredTerm": "HOURS", "submissionValue": "Age Unit", "synonyms": ["A unit measure of time equal to 3,600 seconds or 60 minutes. It is approximately 1/24 of a median day. (NCI)"]}, {"conceptId": "C29846", "definition": "", "preferredTerm": "MONTHS", "submissionValue": "Age Unit", "synonyms": ["One of the 12 divisions of a year as determined by a calendar. It corresponds to the unit of time of approximately to one cycle of the moon's phases, about 30 days or 4 weeks. (NCI)"]}, {"conceptId": "C29844", "definition": "", "preferredTerm": "WEEKS", "submissionValue": "Age Unit", "synonyms": ["Any period of seven consecutive days. (NCI)"]}, {"conceptId": "C29848", "definition": "", "preferredTerm": "YEARS", "submissionValue": "Age Unit", "synonyms": ["The period of time that it takes for Earth to make a complete revolution around the sun, approximately 365 days", " a specific one year period. (NCI)"]}]}, {"conceptId": "", "definition": "Category for Inclusion/Exclusion", "extensible": "No", "name": "Category for Inclusion/Exclusion", "preferredTerm": "IECAT", "submissionValue": "Category for Inclusion/Exclusion", "synonyms": ["A collection of criteria on which subjects are evaluated and that must be met by all study subjects. (NCI)"], "terms": [{"conceptId": "C25370", "definition": "", "preferredTerm": "EXCLUSION", "submissionValue": "Category for Inclusion/Exclusion", "synonyms": ["List of characteristics in a protocol, any one of which may exclude a potential subject from participation in a study. (CDISC glossary)"]}, {"conceptId": "C25532", "definition": "", "preferredTerm": "INCLUSION", "submissionValue": "Category for Inclusion/Exclusion", "synonyms": ["The criteria in a protocol that prospective subjects must meet to be eligible for participation in a study. NOTE: Exclusion and inclusion criteria define the study population. See also exclusion criteria. (CDISC glossary)"]}]}, {"conceptId": "", "definition": "CDISC System Organ Class", "extensible": "No", "name": "CDISC System Organ Class", "preferredTerm": "SOC", "submissionValue": "CDISC System Organ Class", "synonyms": ["Terms at the highest level of the CDISC system organ class terminology."], "terms": [{"conceptId": "C35814", "definition": "", "preferredTerm": "BLOOD AND LYMPHATIC SYSTEM DISORDERS", "submissionValue": "CDISC System Organ Class", "synonyms": ["Any deviation from the normal structure or function of the blood or lymphatic system that is manifested by a characteristic set of symptoms and signs. (NCI)"]}, {"conceptId": "C3079", "definition": "", "preferredTerm": "CARDIAC DISORDERS", "submissionValue": "CDISC System Organ Class", "synonyms": ["Any deviation from the normal structure or function of the cardiac system that is manifested by a characteristic set of symptoms and signs. (NCI)"]}, {"conceptId": "C49399", "definition": "", "preferredTerm": "CONGENITAL, FAMILIAL AND GENETIC DISORDERS", "submissionValue": "CDISC System Organ Class", "synonyms": ["A class of disorders that encompasses conditions resulting from a congenital, familial hereditary trait or genetic abnormality as is manifested by a characteristic set of symptoms and signs. (NCI)"]}, {"conceptId": "C49400", "definition": "", "preferredTerm": "EAR AND LABYRINTH DISORDERS", "submissionValue": "CDISC System Organ Class", "synonyms": ["Any deviation from the normal structure or function of the ear or labyrinth that is manifested by a characteristic set of symptoms and signs. (NCI)"]}, {"conceptId": "C3009", "definition": "", "preferredTerm": "ENDOCRINE DISORDERS", "submissionValue": "CDISC System Organ Class", "synonyms": ["Any deviation from the normal structure or function of the endocrine system that is manifested by a characteristic set of symptoms and signs. (NCI)"]}, {"conceptId": "C26767", "definition": "", "preferredTerm": "EYE DISORDERS", "submissionValue": "CDISC System Organ Class", "synonyms": ["Any deviation from the normal structure or function of the eye that is manifested by a characteristic set of symptoms and signs. (NCI)"]}, {"conceptId": "C2990", "definition": "", "preferredTerm": "GASTROINTESTINAL DISORDERS", "submissionValue": "CDISC System Organ Class", "synonyms": ["Diseases of the digestive tract (oral cavity to anus) and associated organs (salivary glands, liver, pancreas). (NCI)"]}, {"conceptId": "C49401", "definition": "", "preferredTerm": "GENERAL DISORDERS AND ADMINISTRATION SITE CONDITIONS", "submissionValue": "CDISC System Organ Class", "synonyms": ["A class of disorders that encompasses conditions of a general kind that result from a disease, the treatment of disease or administration of treatment at a particular site and are manifested by a characteristic set of symptoms and signs. (NCI)"]}, {"conceptId": "C3959", "definition": "", "preferredTerm": "HEPATOBILIARY DISORDERS", "submissionValue": "CDISC System Organ Class", "synonyms": ["Any deviation from the normal structure or function of the liver or biliary tract that is manifested by a characteristic set of symptoms and signs. (NCI)"]}, {"conceptId": "C3507", "definition": "", "preferredTerm": "IMMUNE SYSTEM DISORDERS", "submissionValue": "CDISC System Organ Class", "synonyms": ["A disorder resulting from an abnormality in the immune system. -- 2003 (NCI)"]}, {"conceptId": "C26726", "definition": "", "preferredTerm": "INFECTIONS AND INFESTATIONS", "submissionValue": "CDISC System Organ Class", "synonyms": ["A disorder resulting from the presence and activity of a microbial, viral, or parasitic agent. It can be transmitted by direct or indirect contact. -- 2003 (NCI)"]}, {"conceptId": "C49402", "definition": "", "preferredTerm": "INJURY, POISONING AND PROCEDURAL COMPLICATIONS", "submissionValue": "CDISC System Organ Class", "synonyms": ["A class of disorders that encompasses conditions resulting from an injury, poisoning or procedure. (NCI)"]}, {"conceptId": "C41198", "definition": "", "preferredTerm": "INVESTIGATIONS", "submissionValue": "CDISC System Organ Class", "synonyms": ["The act or process of a systematic and thorough examination", " research, study", " the process of inquiring into or following up, intended to develop facts. (NCI)"]}, {"conceptId": "C49403", "definition": "", "preferredTerm": "METABOLISM AND NUTRITION DISORDERS", "submissionValue": "CDISC System Organ Class", "synonyms": ["A class of disorders that encompasses conditions occurring as a result of metabolic dysfunction or deviation from the normal nutritional requirements. (NCI)"]}, {"conceptId": "C27574", "definition": "", "preferredTerm": "MUSCULOSKELETAL AND CONNECTIVE TISSUE DISORDERS", "submissionValue": "CDISC System Organ Class", "synonyms": ["Any deviation from the normal structure or function of the musculoskeletal or connective tissue that is manifested by a characteristic set of symptoms and signs. (NCI)"]}, {"conceptId": "C3262", "definition": "", "preferredTerm": "NEOPLASMS BENIGN, MALIGNANT AND UNSPECIFIED (INCL CYSTS AND POLYPS)", "submissionValue": "CDISC System Organ Class", "synonyms": ["An abnormal tissue growth resulted from uncontrolled cell proliferation. Benign neoplastic cells resemble normal cells without exhibiting significant cytologic atypia, while malignant ones exhibit overt signs such as dysplastic features, atypical mitotic figures, necrosis, nuclear pleomorphism, and anaplasia. Representative examples of benign neoplasms include papillomas, cystadenomas, and lipomas", " malignant neoplasms include carcinomas, sarcomas, lymphomas, and leukemias. -- 2004 (NCI)"]}, {"conceptId": "C26835", "definition": "", "preferredTerm": "NERVOUS SYSTEM DISORDERS", "submissionValue": "CDISC System Organ Class", "synonyms": ["Any deviation from the normal structure or function of the nervous system that is manifested by a characteristic set of symptoms and signs. (NCI)"]}, {"conceptId": "C49404", "definition": "", "preferredTerm": "PREGNANCY, PUERPERIUM AND PERINATAL CONDITIONS", "submissionValue": "CDISC System Organ Class", "synonyms": ["A class of conditions associated with pregnancy, puerperium and perinatal status. (NCI)"]}, {"conceptId": "C2893", "definition": "", "preferredTerm": "PSYCHIATRIC DISORDERS", "submissionValue": "CDISC System Organ Class", "synonyms": ["Any deviation from the normal structure or function of the brain and a psychiatric condition, that results in an impairment of an individual's normal cognitive, emotional, or behavioral functioning, and is caused by physiological or psychosocial factors. (NCI)"]}, {"conceptId": "C3430", "definition": "", "preferredTerm": "RENAL AND URINARY DISORDERS", "submissionValue": "CDISC System Organ Class", "synonyms": ["Disorders of any part of the urologic system. (NCI)"]}, {"conceptId": "C49405", "definition": "", "preferredTerm": "REPRODUCTIVE SYSTEM AND BREAST DISORDERS", "submissionValue": "CDISC System Organ Class", "synonyms": ["Any deviation from the normal structure or function of the reproductive system or breast that is manifested by a characteristic set of symptoms and signs. (NCI)"]}, {"conceptId": "C27669", "definition": "", "preferredTerm": "RESPIRATORY, THORACIC AND MEDIASTINAL DISORDERS", "submissionValue": "CDISC System Organ Class", "synonyms": ["Any deviation from the normal structure or function of the respiratory system including the thorax and mediastinum that is manifested by a characteristic set of symptoms and signs. (NCI)"]}, {"conceptId": "C3371", "definition": "", "preferredTerm": "SKIN AND SUBCUTANEOUS TISSUE DISORDERS", "submissionValue": "CDISC System Organ Class", "synonyms": ["Any deviation from the normal structure or function of the skin or subcutaneous tissue that is manifested by a characteristic set of symptoms and signs.(NCI)"]}, {"conceptId": "C20188", "definition": "", "preferredTerm": "SOCIAL CIRCUMSTANCES", "submissionValue": "CDISC System Organ Class", "synonyms": ["A set of concepts that results from or is influenced by criteria or activities associated with the social environment of a person. (NCI)"]}, {"conceptId": "C25218", "definition": "", "preferredTerm": "SURGICAL AND MEDICAL PROCEDURES", "submissionValue": "CDISC System Organ Class", "synonyms": ["A particular course of action intended to achieve a result. (NCI)"]}, {"conceptId": "C35117", "definition": "", "preferredTerm": "VASCULAR DISORDERS", "submissionValue": "CDISC System Organ Class", "synonyms": ["Any deviation from the normal structure or function of the vascular system that is manifested by a characteristic set of symptoms and signs. (NCI)"]}]}, {"conceptId": "", "definition": "Common Terminology Criteria for Adverse Events", "extensible": "No", "name": "Common Terminology Criteria for Adverse Events", "preferredTerm": "TOXGR", "submissionValue": "Common Terminology Criteria for Adverse Events", "synonyms": ["A standard terminology developed to report adverse events occurring in cancer clinical trials. Common terminology criteria for adverse events (CTCAE) are used in study adverse event summaries and Investigational New Drug reports to the Food and Drug Administration. The CTCAE contain a grading scale for each adverse event term representing the severity of the event. (NCI)"], "terms": [{"conceptId": "C41338", "definition": "Grade 1; 1", "preferredTerm": "MILD", "submissionValue": "Common Terminology Criteria for Adverse Events", "synonyms": ["A type of adverse event that is usually transient and may require only minimal treatment or therapeutic intervention. The event does not generally interfere with usual activities of daily living."]}, {"conceptId": "C41339", "definition": "Grade 2; 2", "preferredTerm": "MODERATE", "submissionValue": "Common Terminology Criteria for Adverse Events", "synonyms": ["A type of adverse event that is usually alleviated with additional specific therapeutic intervention. The event interferes with usual activities of daily living, causing discomfort but poses no significant or permanent risk of harm to the research participant."]}, {"conceptId": "C41340", "definition": "Grade 3; 3", "preferredTerm": "SEVERE", "submissionValue": "Common Terminology Criteria for Adverse Events", "synonyms": ["A type of adverse event that requires intensive therapeutic intervention. The event interrupts usual activities of daily living, or significantly affects clinical status. The event possesses a significant risk of harm to the research participant and hospitalization may be required."]}, {"conceptId": "C41337", "definition": "Grade 4; 4", "preferredTerm": "LIFE THREATENING", "submissionValue": "Common Terminology Criteria for Adverse Events", "synonyms": ["An adverse event, and/or its immediate sequelae, which is associated with an imminent risk of death or which is associated with physical or mental disabilities that affect or limit the ability of a person to perform activities of daily living (eating, ambulation, toileting, etc.) See NCI Common Terminology Criteria for Adverse Events."]}, {"conceptId": "C48275", "definition": "Grade 5; 5", "preferredTerm": "FATAL", "submissionValue": "Common Terminology Criteria for Adverse Events", "synonyms": ["The termination of life as a result of an adverse event. (NCI)"]}]}, {"conceptId": "", "definition": "Control Type; Type of Control", "extensible": "Yes", "name": "Control Type", "preferredTerm": "TCNTRL", "submissionValue": "Control Type", "synonyms": ["Comparator against which the study treatment is evaluated (e.g., concurrent (placebo, no treatment, dose-response, active), external (historical, published literature)."], "terms": [{"conceptId": "C49649", "definition": "", "preferredTerm": "ACTIVE", "submissionValue": "Control Type", "synonyms": ["A type of control, which has a demonstrated effect, administered as a comparator, to subjects in a clinical trial. [From ICH E10]."]}, {"conceptId": "C41132", "definition": "", "preferredTerm": "NONE", "submissionValue": "Control Type", "synonyms": ["No person or thing, nobody, not any. (NCI)"]}, {"conceptId": "C49648", "definition": "", "preferredTerm": "PLACEBO", "submissionValue": "Control Type", "synonyms": ["Use of an inactive compound identical in appearance to drug or treatment being tested in experimental research, which may or may not be known to the physician and/or subject, administered to distinguish between drug action and suggestive effect of the drug or treatment under study. The effects of the active drug or treatment are compared to the effects of the placebo. (NCI)"]}]}, {"conceptId": "", "definition": "Country", "extensible": "No", "name": "Country", "preferredTerm": "COUNTRY", "submissionValue": "Country", "synonyms": ["A collective generic term that refers here to a wide variety of dependencies, areas of special sovereignty, uninhabited islands, and other entities in addition to the traditional countries or independent states. (NCI)"], "terms": [{"conceptId": "C17884", "definition": "ARUBA", "preferredTerm": "ABW", "submissionValue": "Country", "synonyms": ["Island in the Caribbean Sea, north of Venezuela."]}, {"conceptId": "C16267", "definition": "AFGHANISTAN", "preferredTerm": "AFG", "submissionValue": "Country", "synonyms": ["A country in Southern Asia, north and west of Pakistan, east of Iran."]}, {"conceptId": "C16292", "definition": "ANGOLA", "preferredTerm": "AGO", "submissionValue": "Country", "synonyms": ["A country in Southern Africa, bordering the South Atlantic Ocean, between Namibia and Democratic Republic of the Congo."]}, {"conceptId": "C20133", "definition": "ANGUILLA", "preferredTerm": "AIA", "submissionValue": "Country", "synonyms": ["An island in the Caribbean Sea, east of Puerto Rico."]}, {"conceptId": "C44481", "definition": "ALAND ISLANDS", "preferredTerm": "ALA", "submissionValue": "Country", "synonyms": ["An archipelago in the Baltic Sea at the entrance to the Gulf of Bothnia between Sweden and Finland."]}, {"conceptId": "C16271", "definition": "ALBANIA", "preferredTerm": "ALB", "submissionValue": "Country", "synonyms": ["A country in Southeastern Europe, bordering the Adriatic Sea and Ionian Sea, between Greece and Serbia and Montenegro."]}, {"conceptId": "C16289", "definition": "ANDORRA", "preferredTerm": "AND", "submissionValue": "Country", "synonyms": ["A country in Southwestern Europe, between France and Spain."]}, {"conceptId": "C16904", "definition": "NETHERLANDS ANTILLES", "preferredTerm": "ANT", "submissionValue": "Country", "synonyms": ["A country in the Caribbean, comprising two island groups in the Caribbean Sea - one includes Curacao and Bonaire north of Venezuela", " the other is east of the Virgin Islands."]}, {"conceptId": "C17232", "definition": "UNITED ARAB EMIRATES", "preferredTerm": "ARE", "submissionValue": "Country", "synonyms": ["A country in the Middle East, bordering the Gulf of Oman and the Persian Gulf, between Oman and Saudi Arabia."]}, {"conceptId": "C16305", "definition": "ARGENTINA", "preferredTerm": "ARG", "submissionValue": "Country", "synonyms": ["A country in Southern South America, bordering the South Atlantic Ocean, between Chile and Uruguay."]}, {"conceptId": "C16306", "definition": "ARMENIA", "preferredTerm": "ARM", "submissionValue": "Country", "synonyms": ["A country in Southwestern Asia, east of Turkey."]}, {"conceptId": "C17739", "definition": "AMERICAN SAMOA", "preferredTerm": "ASM", "submissionValue": "Country", "synonyms": ["A group of islands in the South Pacific Ocean, about half way between Hawaii and New Zealand."]}, {"conceptId": "C18007", "definition": "ANTARCTICA", "preferredTerm": "ATA", "submissionValue": "Country", "synonyms": ["The continent lying mostly south of the Antarctic Circle."]}, {"conceptId": "C20105", "definition": "FRENCH SOUTHERN TERRITORIES", "preferredTerm": "ATF", "submissionValue": "Country", "synonyms": ["Islands in the southern Indian Ocean, south of Africa, about equidistant between Africa, Antarctica, and Australia."]}, {"conceptId": "C16303", "definition": "ANTIGUA AND BARBUDA", "preferredTerm": "ATG", "submissionValue": "Country", "synonyms": ["Islands between the Caribbean Sea and the North Atlantic Ocean, east-southeast of Puerto Rico."]}, {"conceptId": "C16311", "definition": "AUSTRALIA", "preferredTerm": "AUS", "submissionValue": "Country", "synonyms": ["The continent between the Indian Ocean and the South Pacific Ocean."]}, {"conceptId": "C16312", "definition": "AUSTRIA", "preferredTerm": "AUT", "submissionValue": "Country", "synonyms": ["A country in Central Europe, north of Italy and Slovenia."]}, {"conceptId": "C16316", "definition": "AZERBAIJAN", "preferredTerm": "AZE", "submissionValue": "Country", "synonyms": ["A country in Southwestern Asia, bordering the Caspian Sea, between Iran and Russia."]}, {"conceptId": "C16371", "definition": "BURUNDI", "preferredTerm": "BDI", "submissionValue": "Country", "synonyms": ["A country in Central Africa, east of Democratic Republic of the Congo."]}, {"conceptId": "C16329", "definition": "BELGIUM", "preferredTerm": "BEL", "submissionValue": "Country", "synonyms": ["A country in Western Europe, bordering the North Sea, between France and the Netherlands."]}, {"conceptId": "C16333", "definition": "BENIN REPUBLIC", "preferredTerm": "BEN", "submissionValue": "Country", "synonyms": ["A country in Western Africa, bordering the North Atlantic Ocean, between Nigeria and Togo."]}, {"conceptId": "C16369", "definition": "BURKINA FASO", "preferredTerm": "BFA", "submissionValue": "Country", "synonyms": ["A country in Western Africa, north of Ghana."]}, {"conceptId": "C16323", "definition": "BANGLADESH", "preferredTerm": "BGD", "submissionValue": "Country", "synonyms": ["A country in Southern Asia, bordering the Bay of Bengal, between Burma and India."]}, {"conceptId": "C16368", "definition": "BULGARIA", "preferredTerm": "BGR", "submissionValue": "Country", "synonyms": ["A country in Southeastern Europe, bordering the Black Sea, between Romania and Turkey."]}, {"conceptId": "C16322", "definition": "BAHRAIN", "preferredTerm": "BHR", "submissionValue": "Country", "synonyms": ["An archipelago in the Persian Gulf, east of Saudi Arabia."]}, {"conceptId": "C16321", "definition": "BAHAMAS", "preferredTerm": "BHS", "submissionValue": "Country", "synonyms": ["A chain of islands in the North Atlantic Ocean, southeast of Florida."]}, {"conceptId": "C16361", "definition": "BOSNIA-HERZEGOVINA", "preferredTerm": "BIH", "submissionValue": "Country", "synonyms": ["A country in Southeastern Europe, bordering the Adriatic Sea and Croatia."]}, {"conceptId": "C16372", "definition": "BELARUS", "preferredTerm": "BLR", "submissionValue": "Country", "synonyms": ["A country in Eastern Europe, east of Poland."]}, {"conceptId": "C16331", "definition": "BELIZE", "preferredTerm": "BLZ", "submissionValue": "Country", "synonyms": ["A country in Central America, bordering the Caribbean Sea, between Guatemala and Mexico."]}, {"conceptId": "C16334", "definition": "BERMUDA", "preferredTerm": "BMU", "submissionValue": "Country", "synonyms": ["No Definition"]}, {"conceptId": "C16359", "definition": "BOLIVIA", "preferredTerm": "BOL", "submissionValue": "Country", "synonyms": ["A country in Central South America, southwest of Brazil."]}, {"conceptId": "C16364", "definition": "BRAZIL", "preferredTerm": "BRA", "submissionValue": "Country", "synonyms": ["A country in Eastern South America, bordering the Atlantic Ocean."]}, {"conceptId": "C16324", "definition": "BARBADOS", "preferredTerm": "BRB", "submissionValue": "Country", "synonyms": ["An island between the Caribbean Sea and the North Atlantic Ocean, northeast of Venezuela."]}, {"conceptId": "C16367", "definition": "BRUNEI", "preferredTerm": "BRN", "submissionValue": "Country", "synonyms": ["A country in Southeastern Asia, bordering the South China Sea and Malaysia."]}, {"conceptId": "C16336", "definition": "BHUTAN", "preferredTerm": "BTN", "submissionValue": "Country", "synonyms": ["A country in Southern Asia, between China and India."]}, {"conceptId": "C20104", "definition": "BOUVET ISLAND", "preferredTerm": "BVT", "submissionValue": "Country", "synonyms": ["An island in the South Atlantic Ocean, south-southwest of the Cape of Good Hope (South Africa)."]}, {"conceptId": "C16363", "definition": "BOTSWANA", "preferredTerm": "BWA", "submissionValue": "Country", "synonyms": ["A country in Southern Africa, north of South Africa."]}, {"conceptId": "C16409", "definition": "CENTRAL AFRICAN REPUBLIC", "preferredTerm": "CAF", "submissionValue": "Country", "synonyms": ["A country in Central Africa, north of Democratic Republic of the Congo."]}, {"conceptId": "C16380", "definition": "CANADA", "preferredTerm": "CAN", "submissionValue": "Country", "synonyms": ["A country in Northern North America, bordering the North Atlantic Ocean on the east, North Pacific Ocean on the west, and the Arctic Ocean on the north, north of the conterminous US."]}, {"conceptId": "C16445", "definition": "COCOS (KEELING) ISLANDS", "preferredTerm": "CCK", "submissionValue": "Country", "synonyms": ["A group of islands in the Indian Ocean, south of Indonesia, about halfway from Australia to Sri Lanka."]}, {"conceptId": "C17181", "definition": "SWITZERLAND", "preferredTerm": "CHE", "submissionValue": "Country", "synonyms": ["A country in Central Europe, east of France, north of Italy."]}, {"conceptId": "C16427", "definition": "CHILE", "preferredTerm": "CHL", "submissionValue": "Country", "synonyms": ["A country in Southern South America, bordering the South Atlantic Ocean and South Pacific Ocean, between Argentina and Peru."]}, {"conceptId": "C16428", "definition": "CHINA", "preferredTerm": "CHN", "submissionValue": "Country", "synonyms": ["A country in Eastern Asia, bordering the East China Sea, Korea Bay, Yellow Sea, and South China Sea, between North Korea and Vietnam."]}, {"conceptId": "C16762", "definition": "COTE D'IVOIRE", "preferredTerm": "CIV", "submissionValue": "Country", "synonyms": ["A country in Western Africa, bordering the North Atlantic Ocean, between Ghana and Liberia."]}, {"conceptId": "C16379", "definition": "CAMEROON", "preferredTerm": "CMR", "submissionValue": "Country", "synonyms": ["A country in Western Africa, bordering the Bight of Biafra, between Equatorial Guinea and Nigeria."]}, {"conceptId": "C17266", "definition": "DEMOCRATIC REPUBLIC OF THE CONGO", "preferredTerm": "COD", "submissionValue": "Country", "synonyms": ["A country in Central Africa, northeast of Angola."]}, {"conceptId": "C16467", "definition": "CONGO", "preferredTerm": "COG", "submissionValue": "Country", "synonyms": ["A country in Western Africa, bordering the South Atlantic Ocean, between Angola and Gabon."]}, {"conceptId": "C16469", "definition": "COOK ISLANDS", "preferredTerm": "COK", "submissionValue": "Country", "synonyms": ["A group of islands in the South Pacific Ocean, about one-half of the way from Hawaii to New Zealand."]}, {"conceptId": "C16449", "definition": "COLOMBIA", "preferredTerm": "COL", "submissionValue": "Country", "synonyms": ["A country in Northern South America, bordering the Caribbean Sea, between Panama and Venezuela, and bordering the North Pacific Ocean, between Ecuador and Panama."]}, {"conceptId": "C16458", "definition": "COMOROS", "preferredTerm": "COM", "submissionValue": "Country", "synonyms": ["A group of islands in the Mozambique Channel, about two-thirds of the way between northern Madagascar and northern Mozambique."]}, {"conceptId": "C16382", "definition": "CAPE VERDE", "preferredTerm": "CPV", "submissionValue": "Country", "synonyms": ["A group of islands in the North Atlantic Ocean, west of Senegal."]}, {"conceptId": "C16470", "definition": "COSTA RICA", "preferredTerm": "CRI", "submissionValue": "Country", "synonyms": ["A country in Central America, bordering both the Caribbean Sea and the North Pacific Ocean, between Nicaragua and Panama."]}, {"conceptId": "C16477", "definition": "CUBA", "preferredTerm": "CUB", "submissionValue": "Country", "synonyms": ["An island between the Caribbean Sea and the North Atlantic Ocean, 150 km south of Key West, Florida."]}, {"conceptId": "C44482", "definition": "CHRISTMAS ISLAND", "preferredTerm": "CXR", "submissionValue": "Country", "synonyms": ["An Australian-administered island in the eastern Indian Ocean south of Java, Indonesia."]}, {"conceptId": "C16391", "definition": "CAYMAN ISLANDS", "preferredTerm": "CYM", "submissionValue": "Country", "synonyms": ["An island group in the Caribbean Sea, nearly one-half of the way from Cuba to Honduras."]}, {"conceptId": "C16480", "definition": "CYPRUS", "preferredTerm": "CYP", "submissionValue": "Country", "synonyms": ["An island in the Mediterranean Sea, south of Turkey."]}, {"conceptId": "C17668", "definition": "CZECH REPUBLIC", "preferredTerm": "CZE", "submissionValue": "Country", "synonyms": ["A country in Central Europe, southeast of Germany."]}, {"conceptId": "C16636", "definition": "GERMANY", "preferredTerm": "DEU", "submissionValue": "Country", "synonyms": ["A country in Central Europe, bordering the Baltic Sea and the North Sea, between the Netherlands and Poland, south of Denmark."]}, {"conceptId": "C16506", "definition": "DJIBOUTI", "preferredTerm": "DJI", "submissionValue": "Country", "synonyms": ["A country in Eastern Africa, bordering the Gulf of Aden and the Red Sea, between Eritrea and Somalia."]}, {"conceptId": "C16519", "definition": "DOMINICA", "preferredTerm": "DMA", "submissionValue": "Country", "synonyms": ["An island between the Caribbean Sea and the North Atlantic Ocean, about one-half of the way from Puerto Rico to Trinidad and Tobago."]}, {"conceptId": "C16496", "definition": "DENMARK", "preferredTerm": "DNK", "submissionValue": "Country", "synonyms": ["A country in Northern Europe, bordering the Baltic Sea and the North Sea, on a peninsula north of Germany (Jutland)", " also includes two major islands (Sjaelland and Fyn)."]}, {"conceptId": "C16520", "definition": "DOMINICAN REPUBLIC", "preferredTerm": "DOM", "submissionValue": "Country", "synonyms": ["A country comprising the eastern two-thirds of the island of Hispaniola, between the Caribbean Sea and the North Atlantic Ocean, east of Haiti."]}, {"conceptId": "C16274", "definition": "ALGERIA", "preferredTerm": "DZA", "submissionValue": "Country", "synonyms": ["A country in Northern Africa, bordering the Mediterranean Sea, between Morocco and Tunisia."]}, {"conceptId": "C16528", "definition": "ECUADOR", "preferredTerm": "ECU", "submissionValue": "Country", "synonyms": ["A country in Western South America, bordering the Pacific Ocean at the Equator, between Colombia and Peru."]}, {"conceptId": "C16530", "definition": "EGYPT", "preferredTerm": "EGY", "submissionValue": "Country", "synonyms": ["A country in Northern Africa, bordering the Mediterranean Sea, between Libya and the Gaza Strip."]}, {"conceptId": "C16558", "definition": "ERITREA", "preferredTerm": "ERI", "submissionValue": "Country", "synonyms": ["A country in Eastern Africa, bordering the Red Sea, between Djibouti and Sudan."]}, {"conceptId": "C20113", "definition": "WESTERN SAHARA", "preferredTerm": "ESH", "submissionValue": "Country", "synonyms": ["A country in Northern Africa, bordering the North Atlantic Ocean, between Mauritania and Morocco."]}, {"conceptId": "C17152", "definition": "SPAIN", "preferredTerm": "ESP", "submissionValue": "Country", "synonyms": ["A country in Southwestern Europe, bordering the Bay of Biscay, Mediterranean Sea, North Atlantic Ocean, and Pyrenees Mountains, southwest of France."]}, {"conceptId": "C16562", "definition": "ESTONIA", "preferredTerm": "EST", "submissionValue": "Country", "synonyms": ["A country in Eastern Europe, bordering the Baltic Sea and Gulf of Finland, between Latvia and Russia."]}, {"conceptId": "C16563", "definition": "ETHIOPIA", "preferredTerm": "ETH", "submissionValue": "Country", "synonyms": ["A country in Eastern Africa, west of Somalia."]}, {"conceptId": "C16584", "definition": "FINLAND", "preferredTerm": "FIN", "submissionValue": "Country", "synonyms": ["A country in Northern Europe, bordering the Baltic Sea, Gulf of Bothnia, and Gulf of Finland, between Sweden and Russia."]}, {"conceptId": "C16582", "definition": "FIJI", "preferredTerm": "FJI", "submissionValue": "Country", "synonyms": ["An island group in the South Pacific Ocean, about two-thirds of the way from Hawaii to New Zealand."]}, {"conceptId": "C17954", "definition": "FALKLAND ISLANDS", "preferredTerm": "FLK", "submissionValue": "Country", "synonyms": ["Islands in the South Atlantic Ocean, east of southern Argentina."]}, {"conceptId": "C16592", "definition": "FRANCE", "preferredTerm": "FRA", "submissionValue": "Country", "synonyms": ["A country in Western Europe, bordering the Bay of Biscay and English Channel, between Belgium and Spain, southeast of the UK", " bordering the Mediterranean Sea, between Italy and Spain."]}, {"conceptId": "C16573", "definition": "FAROE ISLANDS", "preferredTerm": "FRO", "submissionValue": "Country", "synonyms": ["An island group between the Norwegian Sea and the North Atlantic Ocean, about one-half of the way from Iceland to Norway."]}, {"conceptId": "C17881", "definition": "MICRONESIA, FEDERATED STATES OF", "preferredTerm": "FSM", "submissionValue": "Country", "synonyms": ["An island group in the North Pacific Ocean, about three-quarters of the way from Hawaii to Indonesia."]}, {"conceptId": "C16596", "definition": "GABON", "preferredTerm": "GAB", "submissionValue": "Country", "synonyms": ["A country in Western Africa, bordering the Atlantic Ocean at the Equator, between Republic of the Congo and Equatorial Guinea."]}, {"conceptId": "C17233", "definition": "UNITED KINGDOM", "preferredTerm": "GBR", "submissionValue": "Country", "synonyms": ["A country in Western Europe, comprising islands, including the northern one-sixth of the island of Ireland, between the North Atlantic Ocean and the North Sea, northwest of France."]}, {"conceptId": "C16634", "definition": "GEORGIA", "preferredTerm": "GEO", "submissionValue": "Country", "synonyms": ["A country in Southwestern Asia, bordering the Black Sea, between Turkey and Russia."]}, {"conceptId": "C64375", "definition": "GUERNSEY", "preferredTerm": "GGY", "submissionValue": "Country", "synonyms": ["The island of Guernsey and the other Channel Islands represent the last remnants of the medieval Dukedom of Normandy, which held sway in both France and England. Guernsey is a British crown dependency, but is not part of the UK."]}, {"conceptId": "C26330", "definition": "GHANA", "preferredTerm": "GHA", "submissionValue": "Country", "synonyms": ["A country in Western Africa, bordering the Gulf of Guinea, between Cote d'Ivoire and Togo."]}, {"conceptId": "C16638", "definition": "GIBRALTAR", "preferredTerm": "GIB", "submissionValue": "Country", "synonyms": ["A dependency in Southwestern Europe, bordering the Strait of Gibraltar, on the southern coast of Spain."]}, {"conceptId": "C16655", "definition": "GUINEA", "preferredTerm": "GIN", "submissionValue": "Country", "synonyms": ["A country in Western Africa, bordering the North Atlantic Ocean, between Guinea-Bissau and Sierra Leone."]}, {"conceptId": "C16651", "definition": "GUADELOUPE", "preferredTerm": "GLP", "submissionValue": "Country", "synonyms": ["Islands in the eastern Caribbean Sea, southeast of Puerto Rico."]}, {"conceptId": "C16598", "definition": "GAMBIA", "preferredTerm": "GMB", "submissionValue": "Country", "synonyms": ["A country in Western Africa, bordering the North Atlantic Ocean and Senegal."]}, {"conceptId": "C16656", "definition": "GUINEA-BISSAU", "preferredTerm": "GNB", "submissionValue": "Country", "synonyms": ["A country in Western Africa, bordering the North Atlantic Ocean, between Guinea and Senegal."]}, {"conceptId": "C16557", "definition": "EQUATORIAL GUINEA", "preferredTerm": "GNQ", "submissionValue": "Country", "synonyms": ["A country in Western Africa, bordering the Bight of Biafra, between Cameroon and Gabon", " composed of a mainland portion and five inhabited islands."]}, {"conceptId": "C16645", "definition": "GREECE", "preferredTerm": "GRC", "submissionValue": "Country", "synonyms": ["A country in Southern Europe, bordering the Aegean Sea, Ionian Sea, and the Mediterranean Sea, between Albania and Turkey."]}, {"conceptId": "C16647", "definition": "GRENADA", "preferredTerm": "GRD", "submissionValue": "Country", "synonyms": ["An island between the Caribbean Sea and Atlantic Ocean, north of Trinidad and Tobago."]}, {"conceptId": "C16646", "definition": "GREENLAND", "preferredTerm": "GRL", "submissionValue": "Country", "synonyms": ["An island between the Arctic Ocean and the North Atlantic Ocean, northeast of Canada."]}, {"conceptId": "C16654", "definition": "GUATEMALA", "preferredTerm": "GTM", "submissionValue": "Country", "synonyms": ["A country in Central America, bordering the Caribbean Sea, between Honduras and Belize and bordering the North Pacific Ocean, between El Salvador and Mexico."]}, {"conceptId": "C16593", "definition": "FRENCH GUIANA", "preferredTerm": "GUF", "submissionValue": "Country", "synonyms": ["A country in Northern South America, bordering the North Atlantic Ocean, between Brazil and Suriname."]}, {"conceptId": "C16652", "definition": "GUAM", "preferredTerm": "GUM", "submissionValue": "Country", "synonyms": ["Island in the North Pacific Ocean, about three-quarters of the way from Hawaii to the Philippines."]}, {"conceptId": "C16657", "definition": "GUYANA", "preferredTerm": "GUY", "submissionValue": "Country", "synonyms": ["A country in Northern South America, bordering the North Atlantic Ocean, between Suriname and Venezuela."]}, {"conceptId": "C16695", "definition": "HKG; HONG KONG", "preferredTerm": "HKG", "submissionValue": "Country", "synonyms": ["A special administrative region of China, bordering the South China Sea and China."]}, {"conceptId": "C20106", "definition": "HEARD ISLAND AND MCDONALD ISLANDS", "preferredTerm": "HMD", "submissionValue": "Country", "synonyms": ["Islands in the Indian Ocean, about two-thirds of the way from Madagascar to Antarctica."]}, {"conceptId": "C16694", "definition": "HONDURAS", "preferredTerm": "HND", "submissionValue": "Country", "synonyms": ["A country in Central America, bordering the Caribbean Sea, between Guatemala and Nicaragua and bordering the North Pacific Ocean, between El Salvador and Nicaragua."]}, {"conceptId": "C16474", "definition": "CROATIA", "preferredTerm": "HRV", "submissionValue": "Country", "synonyms": ["A country in Southeastern Europe, bordering the Adriatic Sea, between Bosnia and Herzegovina and Slovenia."]}, {"conceptId": "C16660", "definition": "HAITI", "preferredTerm": "HTI", "submissionValue": "Country", "synonyms": ["A country comprising the western one-third of the island of Hispaniola, between the Caribbean Sea and the North Atlantic Ocean, west of the Dominican Republic."]}, {"conceptId": "C16699", "definition": "HUNGARY", "preferredTerm": "HUN", "submissionValue": "Country", "synonyms": ["A country in Central Europe, northwest of Romania."]}, {"conceptId": "C16728", "definition": "INDONESIA", "preferredTerm": "IDN", "submissionValue": "Country", "synonyms": ["A country in Southeastern Asia, comprising the archipelago between the Indian Ocean and the Pacific Ocean."]}, {"conceptId": "C16727", "definition": "INDIA", "preferredTerm": "IND", "submissionValue": "Country", "synonyms": ["A country in Southern Asia, bordering the Arabian Sea and the Bay of Bengal, between Burma and Pakistan."]}, {"conceptId": "C16365", "definition": "BRITISH INDIAN OCEAN TERRITORY", "preferredTerm": "IOT", "submissionValue": "Country", "synonyms": ["An archipelago in the Indian Ocean, about one-half the way from Africa to Indonesia."]}, {"conceptId": "C16757", "definition": "IRELAND", "preferredTerm": "IRL", "submissionValue": "Country", "synonyms": ["A country in Western Europe, occupying five-sixths of the island of Ireland in the North Atlantic Ocean, west of Great Britain."]}, {"conceptId": "C16755", "definition": "IRAN", "preferredTerm": "IRN", "submissionValue": "Country", "synonyms": ["A country in the Middle East, bordering the Gulf of Oman, the Persian Gulf, and the Caspian Sea, between Iraq and Pakistan."]}, {"conceptId": "C16756", "definition": "IRAQ", "preferredTerm": "IRQ", "submissionValue": "Country", "synonyms": ["A country in the Middle East, bordering the Persian Gulf, between Iran and Kuwait."]}, {"conceptId": "C16704", "definition": "ICELAND", "preferredTerm": "ISL", "submissionValue": "Country", "synonyms": ["A country in Northern Europe, island between the Greenland Sea and the North Atlantic Ocean, northwest of the UK."]}, {"conceptId": "C16760", "definition": "ISRAEL", "preferredTerm": "ISR", "submissionValue": "Country", "synonyms": ["A country in the Middle East, bordering the Mediterranean Sea, between Egypt and Lebanon."]}, {"conceptId": "C16761", "definition": "ITALY", "preferredTerm": "ITA", "submissionValue": "Country", "synonyms": ["A country in Southern Europe, occupying a peninsula extending into the central Mediterranean Sea, northeast of Tunisia."]}, {"conceptId": "C16763", "definition": "JAMAICA", "preferredTerm": "JAM", "submissionValue": "Country", "synonyms": ["An island in the Caribbean Sea, south of Cuba."]}, {"conceptId": "C16765", "definition": "JORDAN", "preferredTerm": "JOR", "submissionValue": "Country", "synonyms": ["A country in the Middle East, northwest of Saudi Arabia."]}, {"conceptId": "C16764", "definition": "JAPAN", "preferredTerm": "JPN", "submissionValue": "Country", "synonyms": ["A country in Eastern Asia, occupying an island chain between the North Pacific Ocean and the Sea of Japan, east of the Korean Peninsula."]}, {"conceptId": "C64374", "definition": "JERSEY", "preferredTerm": "JRE", "submissionValue": "Country", "synonyms": ["Jersey and the other Channel Islands represent the last remnants of the medieval Dukedom of Normandy that held sway in both France and England. Jersey is a British crown dependency, but is not part of the UK."]}, {"conceptId": "C20107", "definition": "KAZAKHSTAN", "preferredTerm": "KAZ", "submissionValue": "Country", "synonyms": ["A country in Central Asia, northwest of China."]}, {"conceptId": "C16769", "definition": "KENYA", "preferredTerm": "KEN", "submissionValue": "Country", "synonyms": ["A country in Eastern Africa, bordering the Indian Ocean, between Somalia and Tanzania."]}, {"conceptId": "C16771", "definition": "KYRGYZSTAN", "preferredTerm": "KGZ", "submissionValue": "Country", "synonyms": ["A country in Central Asia, west of China."]}, {"conceptId": "C16378", "definition": "CAMBODIA", "preferredTerm": "KHM", "submissionValue": "Country", "synonyms": ["A country in Southeastern Asia, bordering the Gulf of Thailand, between Thailand, Vietnam, and Laos."]}, {"conceptId": "C16639", "definition": "KIRIBATI", "preferredTerm": "KIR", "submissionValue": "Country", "synonyms": ["A group of 33 coral atolls in the Pacific Ocean, straddling the equator", " the capital Tarawa is about one-half of the way from Hawaii to Australia."]}, {"conceptId": "C17885", "definition": "SAINT KITTS AND NEVIS", "preferredTerm": "KNA", "submissionValue": "Country", "synonyms": ["Islands in the Caribbean Sea, about one-third of the way from Puerto Rico to Trinidad and Tobago."]}, {"conceptId": "C16774", "definition": "SOUTH KOREA", "preferredTerm": "KOR", "submissionValue": "Country", "synonyms": ["A country in Eastern Asia, occupying the southern half of the Korean Peninsula, bordering the Sea of Japan and the Yellow Sea."]}, {"conceptId": "C16775", "definition": "KUWAIT", "preferredTerm": "KWT", "submissionValue": "Country", "synonyms": ["A country in the Middle East, bordering the Persian Gulf, between Iraq and Saudi Arabia."]}, {"conceptId": "C16780", "definition": "LAO PEOPLE'S DEMOCRATIC REPUBLIC", "preferredTerm": "LAO", "submissionValue": "Country", "synonyms": ["A country in Southeastern Asia, northeast of Thailand, west of Vietnam."]}, {"conceptId": "C16784", "definition": "LEBANON", "preferredTerm": "LBN", "submissionValue": "Country", "synonyms": ["A country in the Middle East, bordering the Mediterranean Sea, between Israel and Syria."]}, {"conceptId": "C16791", "definition": "LIBERIA", "preferredTerm": "LBR", "submissionValue": "Country", "synonyms": ["A country in Western Africa, bordering the North Atlantic Ocean, between Cote d'Ivoire and Sierra Leone."]}, {"conceptId": "C16793", "definition": "LIBYAN ARAB JAMAHIRIYA", "preferredTerm": "LBY", "submissionValue": "Country", "synonyms": ["A country in Northern Africa, bordering the Mediterranean Sea, between Egypt and Tunisia."]}, {"conceptId": "C17113", "definition": "SAINT LUCIA", "preferredTerm": "LCA", "submissionValue": "Country", "synonyms": ["A country in the Caribbean, occupying an island between the Caribbean Sea and North Atlantic Ocean, north of Trinidad and Tobago."]}, {"conceptId": "C16794", "definition": "LIECHTENSTEIN", "preferredTerm": "LIE", "submissionValue": "Country", "synonyms": ["A country in Central Europe, between Austria and Switzerland."]}, {"conceptId": "C17163", "definition": "SRI LANKA", "preferredTerm": "LKA", "submissionValue": "Country", "synonyms": ["A country in Southern Asia, occupying an island in the Indian Ocean, south of India."]}, {"conceptId": "C16787", "definition": "LESOTHO", "preferredTerm": "LSO", "submissionValue": "Country", "synonyms": ["A country in Southern Africa, an enclave of South Africa."]}, {"conceptId": "C16799", "definition": "LITHUANIA", "preferredTerm": "LTU", "submissionValue": "Country", "synonyms": ["A country in Eastern Europe, bordering the Baltic Sea, between Latvia and Russia."]}, {"conceptId": "C16803", "definition": "LUXEMBOURG", "preferredTerm": "LUX", "submissionValue": "Country", "synonyms": ["A country in Western Europe, between France, Belgium, and Germany."]}, {"conceptId": "C16783", "definition": "LATVIA", "preferredTerm": "LVA", "submissionValue": "Country", "synonyms": ["A country in Eastern Europe, bordering the Baltic Sea, between Estonia and Lithuania."]}, {"conceptId": "C16807", "definition": "MACAO", "preferredTerm": "MAC", "submissionValue": "Country", "synonyms": ["A country in Eastern Asia, bordering the South China Sea and China."]}, {"conceptId": "C16878", "definition": "MOROCCO", "preferredTerm": "MAR", "submissionValue": "Country", "synonyms": ["A country in Northern Africa, bordering the North Atlantic Ocean and the Mediterranean Sea, between Algeria and Western Sahara."]}, {"conceptId": "C16874", "definition": "MONACO", "preferredTerm": "MCO", "submissionValue": "Country", "synonyms": ["A country in Western Europe, bordering the Mediterranean Sea on the southern coast of France, near the border with Italy."]}, {"conceptId": "C16871", "definition": "MOLDOVA, REPUBLIC OF", "preferredTerm": "MDA", "submissionValue": "Country", "synonyms": ["A country in Eastern Europe, northeast of Romania."]}, {"conceptId": "C16808", "definition": "MADAGASCAR", "preferredTerm": "MDG", "submissionValue": "Country", "synonyms": ["A country in Southern Africa, occupying an island in the Indian Ocean, east of Mozambique."]}, {"conceptId": "C16815", "definition": "MALDIVES", "preferredTerm": "MDV", "submissionValue": "Country", "synonyms": ["A country in Southern Asia, occupying a group of atolls in the Indian Ocean, south-southwest of India."]}, {"conceptId": "C16850", "definition": "MEXICO", "preferredTerm": "MEX", "submissionValue": "Country", "synonyms": ["A country in Central America, bordering the Caribbean Sea and the Gulf of Mexico, between Belize and the US and bordering the North Pacific Ocean, between Guatemala and the US."]}, {"conceptId": "C16822", "definition": "MARSHALL ISLANDS", "preferredTerm": "MHL", "submissionValue": "Country", "synonyms": ["A group of atolls and reefs in the North Pacific Ocean, about one-half of the way from Hawaii to Australia."]}, {"conceptId": "C17654", "definition": "REPUBLIC OF MACEDONIA", "preferredTerm": "MKD", "submissionValue": "Country", "synonyms": ["A country in Southeastern Europe, north of Greece."]}, {"conceptId": "C16816", "definition": "MALI", "preferredTerm": "MLI", "submissionValue": "Country", "synonyms": ["A country in Western Africa, southwest of Algeria."]}, {"conceptId": "C16817", "definition": "MALTA", "preferredTerm": "MLT", "submissionValue": "Country", "synonyms": ["A country in Southern Europe, occupying islands in the Mediterranean Sea, south of Sicily (Italy)."]}, {"conceptId": "C16370", "definition": "MYANMAR", "preferredTerm": "MMR", "submissionValue": "Country", "synonyms": ["A country in Southeastern Asia, bordering the Andaman Sea and the Bay of Bengal, between Bangladesh and Thailand."]}, {"conceptId": "C64378", "definition": "MONTENEGRO", "preferredTerm": "MNE", "submissionValue": "Country", "synonyms": ["A republic in Southeastern Europe, bordering the Adriatic Sea, between Albania and Bosnia and Herzegovina. Formerly part of Serbia and Montenegro (Federation Republic of Yugoslavia)."]}, {"conceptId": "C16875", "definition": "MONGOLIA", "preferredTerm": "MNG", "submissionValue": "Country", "synonyms": ["A country in Northern Asia, between China and Russia."]}, {"conceptId": "C17882", "definition": "NORTHERN MARIANA ISLANDS", "preferredTerm": "MNP", "submissionValue": "Country", "synonyms": ["A country in the Pacific, comprising islands in the North Pacific Ocean, about three-quarters of the way from Hawaii to the Philippines."]}, {"conceptId": "C16882", "definition": "MOZAMBIQUE", "preferredTerm": "MOZ", "submissionValue": "Country", "synonyms": ["A country in Southern Africa, bordering the Mozambique Channel, between South Africa and Tanzania."]}, {"conceptId": "C16826", "definition": "MAURITANIA", "preferredTerm": "MRT", "submissionValue": "Country", "synonyms": ["A country in Northern Africa, bordering the North Atlantic Ocean, between Senegal and Western Sahara."]}, {"conceptId": "C16876", "definition": "MONTSERRAT", "preferredTerm": "MSR", "submissionValue": "Country", "synonyms": ["A country in the Caribbean, occupying an island in the Caribbean Sea, southeast of Puerto Rico."]}, {"conceptId": "C16823", "definition": "MARTINIQUE", "preferredTerm": "MTQ", "submissionValue": "Country", "synonyms": ["An island in the Caribbean Sea, north of Trinidad and Tobago."]}, {"conceptId": "C16827", "definition": "MAURITIUS", "preferredTerm": "MUS", "submissionValue": "Country", "synonyms": ["A country in Southern Africa, occupying an island in the Indian Ocean, east of Madagascar."]}, {"conceptId": "C16813", "definition": "MALAWI", "preferredTerm": "MWI", "submissionValue": "Country", "synonyms": ["A country in Southern Africa, east of Zambia."]}, {"conceptId": "C16814", "definition": "MALAYSIA", "preferredTerm": "MYS", "submissionValue": "Country", "synonyms": ["A country in Southeastern Asia, occupying a peninsula and the northern one-third of the island of Borneo, bordering Indonesia and the South China Sea, south of Vietnam."]}, {"conceptId": "C16828", "definition": "MAYOTTE", "preferredTerm": "MYT", "submissionValue": "Country", "synonyms": ["A country in Southern Africa, occupying an island in the Mozambique Channel, about one-half of the way from northern Madagascar to northern Mozambique."]}, {"conceptId": "C16891", "definition": "NAMIBIA", "preferredTerm": "NAM", "submissionValue": "Country", "synonyms": ["A country in Southern Africa, bordering the South Atlantic Ocean, between Angola and South Africa."]}, {"conceptId": "C16913", "definition": "NEW CALEDONIA", "preferredTerm": "NCL", "submissionValue": "Country", "synonyms": ["A country in the Pacific, comprised of islands in the South Pacific Ocean, east of Australia."]}, {"conceptId": "C16916", "definition": "NIGER", "preferredTerm": "NER", "submissionValue": "Country", "synonyms": ["A country in Western Africa, southeast of Algeria."]}, {"conceptId": "C16919", "definition": "NORFOLK ISLAND", "preferredTerm": "NFK", "submissionValue": "Country", "synonyms": ["A country in the Pacific, occupying an island in the South Pacific Ocean, east of Australia."]}, {"conceptId": "C16917", "definition": "NIGERIA", "preferredTerm": "NGA", "submissionValue": "Country", "synonyms": ["A country in Western Africa, bordering the Gulf of Guinea, between Benin and Cameroon."]}, {"conceptId": "C16915", "definition": "NICARAGUA", "preferredTerm": "NIC", "submissionValue": "Country", "synonyms": ["A country in Central America, bordering both the Caribbean Sea and the North Pacific Ocean, between Costa Rica and Honduras."]}, {"conceptId": "C16918", "definition": "NIUE", "preferredTerm": "NIU", "submissionValue": "Country", "synonyms": ["A country in the Pacific, occupying an island in the South Pacific Ocean, east of Tonga."]}, {"conceptId": "C16903", "definition": "NETHERLANDS", "preferredTerm": "NLD", "submissionValue": "Country", "synonyms": ["A country in Western Europe, bordering the North Sea, between Belgium and Germany."]}, {"conceptId": "C16920", "definition": "NORWAY", "preferredTerm": "NOR", "submissionValue": "Country", "synonyms": ["A country in Northern Europe, bordering the North Sea and the North Atlantic Ocean, west of Sweden."]}, {"conceptId": "C16901", "definition": "NEPAL", "preferredTerm": "NPL", "submissionValue": "Country", "synonyms": ["A country in Southern Asia, between China and India."]}, {"conceptId": "C16896", "definition": "NAURU", "preferredTerm": "NRU", "submissionValue": "Country", "synonyms": ["A country in Oceania, occupying an island in the South Pacific Ocean, south of the Marshall Islands."]}, {"conceptId": "C16914", "definition": "NEW ZEALAND", "preferredTerm": "NZL", "submissionValue": "Country", "synonyms": ["A country in the Pacific, comprised of islands in the South Pacific Ocean, southeast of Australia."]}, {"conceptId": "C16933", "definition": "OMAN", "preferredTerm": "OMN", "submissionValue": "Country", "synonyms": ["A country in the Middle East, bordering the Arabian Sea, Gulf of Oman, and Persian Gulf, between Yemen and the United Arab Emirates."]}, {"conceptId": "C16949", "definition": "PAKISTAN", "preferredTerm": "PAK", "submissionValue": "Country", "synonyms": ["A country in Southern Asia, bordering the Arabian Sea, between India on the east and Iran and Afghanistan on the west and China in the north."]}, {"conceptId": "C16951", "definition": "PANAMA", "preferredTerm": "PAN", "submissionValue": "Country", "synonyms": ["A country in Central America, bordering both the Caribbean Sea and the North Pacific Ocean, between Colombia and Costa Rica."]}, {"conceptId": "C16993", "definition": "PITCAIRN", "preferredTerm": "PCN", "submissionValue": "Country", "synonyms": ["A country in the Pacific, comprised of islands in the South Pacific Ocean, about midway between Peru and New Zealand."]}, {"conceptId": "C16972", "definition": "PERU", "preferredTerm": "PER", "submissionValue": "Country", "synonyms": ["A country in Western South America, bordering the South Pacific Ocean, between Chile and Ecuador."]}, {"conceptId": "C16978", "definition": "PHILIPPINES", "preferredTerm": "PHL", "submissionValue": "Country", "synonyms": ["A country in Southeastern Asia, comprised of an archipelago between the Philippine Sea and the South China Sea, east of Vietnam."]}, {"conceptId": "C17733", "definition": "PALAU", "preferredTerm": "PLW", "submissionValue": "Country", "synonyms": ["A country in the Pacific, comprising a group of islands in the North Pacific Ocean, southeast of the Philippines."]}, {"conceptId": "C16952", "definition": "PAPUA NEW GUINEA", "preferredTerm": "PNG", "submissionValue": "Country", "synonyms": ["A country in Southeastern Asia, comprising a group of islands and including the eastern half of the island of New Guinea, between the Coral Sea and the South Pacific Ocean, east of Indonesia."]}, {"conceptId": "C17002", "definition": "POLAND", "preferredTerm": "POL", "submissionValue": "Country", "synonyms": ["A country in Central Europe, east of Germany."]}, {"conceptId": "C17043", "definition": "PUERTO RICO", "preferredTerm": "PRI", "submissionValue": "Country", "synonyms": ["An island between the Caribbean Sea and the North Atlantic Ocean, east of the Dominican Republic."]}, {"conceptId": "C16773", "definition": "NORTH KOREA", "preferredTerm": "PRK", "submissionValue": "Country", "synonyms": ["A country in Eastern Asia, occupying the northern half of the Korean Peninsula, bordering the Korea Bay and the Sea of Japan, between China and South Korea."]}, {"conceptId": "C17006", "definition": "PORTUGAL", "preferredTerm": "PRT", "submissionValue": "Country", "synonyms": ["A country in Southwestern Europe, bordering the North Atlantic Ocean, west of Spain."]}, {"conceptId": "C16953", "definition": "PARAGUAY", "preferredTerm": "PRY", "submissionValue": "Country", "synonyms": ["A country in Central South America, northeast of Argentina."]}, {"conceptId": "C20110", "definition": "PALESTINIAN TERRITORY, OCCUPIED", "preferredTerm": "PSE", "submissionValue": "Country", "synonyms": ["A collective name for the West Bank and the Gaza Strip, two territories in Palestine."]}, {"conceptId": "C16594", "definition": "FRENCH POLYNESIA", "preferredTerm": "PYF", "submissionValue": "Country", "synonyms": ["An archipelago in the South Pacific Ocean, about one-half of the way from South America to Australia."]}, {"conceptId": "C17045", "definition": "QATAR", "preferredTerm": "QAT", "submissionValue": "Country", "synonyms": ["A country in the Middle East, occupying a peninsula bordering the Persian Gulf and Saudi Arabia."]}, {"conceptId": "C17095", "definition": "REUNION", "preferredTerm": "REU", "submissionValue": "Country", "synonyms": ["A country in Southern Africa, occupying an island in the Indian Ocean, east of Madagascar."]}, {"conceptId": "C17108", "definition": "ROMANIA", "preferredTerm": "ROU", "submissionValue": "Country", "synonyms": ["A country in Southeastern Europe, bordering the Black Sea, between Bulgaria and Ukraine."]}, {"conceptId": "C17111", "definition": "RUSSIAN FEDERATION", "preferredTerm": "RUS", "submissionValue": "Country", "synonyms": ["A country in Northern Asia (that part west of the Urals is sometimes included with Europe), bordering the Arctic Ocean, between Europe and the North Pacific Ocean."]}, {"conceptId": "C17112", "definition": "RWANDA", "preferredTerm": "RWA", "submissionValue": "Country", "synonyms": ["A country in Central Africa, east of Democratic Republic of the Congo."]}, {"conceptId": "C17117", "definition": "SAUDI ARABIA", "preferredTerm": "SAU", "submissionValue": "Country", "synonyms": ["A country in the Middle East, bordering the Persian Gulf and the Red Sea, north of Yemen."]}, {"conceptId": "C64377", "definition": "SERBIA", "preferredTerm": "SCG", "submissionValue": "Country", "synonyms": ["A republic in Southeastern Europe, bordering the Adriatic Sea, between Albania and Bosnia and Herzegovina. Formerly part of Serbia and Montenegro (Federation Republic of Yugoslavia)."]}, {"conceptId": "C17170", "definition": "SUDAN", "preferredTerm": "SDN", "submissionValue": "Country", "synonyms": ["A country in Northern Africa, bordering the Red Sea, between Egypt and Eritrea."]}, {"conceptId": "C17121", "definition": "SENEGAL", "preferredTerm": "SEN", "submissionValue": "Country", "synonyms": ["A country in Western Africa, bordering the North Atlantic Ocean, between Guinea-Bissau and Mauritania."]}, {"conceptId": "C17134", "definition": "SINGAPORE", "preferredTerm": "SGP", "submissionValue": "Country", "synonyms": ["A country in Southeastern Asia, comprised of islands between Malaysia and Indonesia."]}, {"conceptId": "C20111", "definition": "SOUTH GEORGIA AND THE SOUTH SANDWICH ISLANDS", "preferredTerm": "SGS", "submissionValue": "Country", "synonyms": ["A group of islands in the South Atlantic Ocean, east of the tip of South America."]}, {"conceptId": "C17164", "definition": "SAINT HELENA", "preferredTerm": "SHN", "submissionValue": "Country", "synonyms": ["Islands in the South Atlantic Ocean, about midway between South America and Africa."]}, {"conceptId": "C17178", "definition": "SVALBARD AND JAN MAYEN", "preferredTerm": "SJM", "submissionValue": "Country", "synonyms": ["Islands between the Arctic Ocean, Barents Sea, Greenland Sea, and Norwegian Sea, northeast of Iceland and north of Norway."]}, {"conceptId": "C17148", "definition": "SOLOMON ISLANDS", "preferredTerm": "SLB", "submissionValue": "Country", "synonyms": ["A group of islands in the South Pacific Ocean, east of Papua New Guinea."]}, {"conceptId": "C17130", "definition": "SIERRA LEONE", "preferredTerm": "SLE", "submissionValue": "Country", "synonyms": ["A country in Western Africa, bordering the North Atlantic Ocean, between Guinea and Liberia."]}, {"conceptId": "C16532", "definition": "EL SALVADOR", "preferredTerm": "SLV", "submissionValue": "Country", "synonyms": ["A country in Central America, bordering the North Pacific Ocean, between Guatemala and Honduras."]}, {"conceptId": "C17115", "definition": "SAN MARINO", "preferredTerm": "SMR", "submissionValue": "Country", "synonyms": ["A country in Southern Europe, an enclave in central Italy."]}, {"conceptId": "C17149", "definition": "SOMALIA", "preferredTerm": "SOM", "submissionValue": "Country", "synonyms": ["A country in Eastern Africa, bordering the Gulf of Aden and the Indian Ocean, east of Ethiopia."]}, {"conceptId": "C17165", "definition": "SAINT PIERRE AND MIQUELON", "preferredTerm": "SPM", "submissionValue": "Country", "synonyms": ["A country in Northern North America, comprised of islands in the North Atlantic Ocean, south of Newfoundland (Canada)."]}, {"conceptId": "C17116", "definition": "SAO TOME AND PRINCIPE", "preferredTerm": "STP", "submissionValue": "Country", "synonyms": ["A country in Western Africa, comprised of islands in the Gulf of Guinea, straddling the Equator, west of Gabon."]}, {"conceptId": "C17175", "definition": "SURINAME", "preferredTerm": "SUR", "submissionValue": "Country", "synonyms": ["A country in Northern South America, bordering the North Atlantic Ocean, between French Guiana and Guyana."]}, {"conceptId": "C17669", "definition": "SLOVAKIA", "preferredTerm": "SVK", "submissionValue": "Country", "synonyms": ["A country in Central Europe, south of Poland."]}, {"conceptId": "C17138", "definition": "SLOVENIA", "preferredTerm": "SVN", "submissionValue": "Country", "synonyms": ["A country in Central Europe, bordering the Adriatic Sea, between Austria and Croatia."]}, {"conceptId": "C17180", "definition": "SWEDEN", "preferredTerm": "SWE", "submissionValue": "Country", "synonyms": ["A country in Northern Europe, bordering the Baltic Sea, Gulf of Bothnia, Kattegat, and Skagerrak, between Finland and Norway."]}, {"conceptId": "C17179", "definition": "SWAZILAND", "preferredTerm": "SWZ", "submissionValue": "Country", "synonyms": ["A country in Southern Africa, between Mozambique and South Africa."]}, {"conceptId": "C17129", "definition": "SEYCHELLES", "preferredTerm": "SYC", "submissionValue": "Country", "synonyms": ["A country in Eastern Africa, comprised of a group of islands in the Indian Ocean, northeast of Madagascar."]}, {"conceptId": "C17182", "definition": "SYRIAN ARAB REPUBLIC", "preferredTerm": "SYR", "submissionValue": "Country", "synonyms": ["A country in the Middle East, bordering the Mediterranean Sea, between Lebanon and Turkey."]}, {"conceptId": "C17224", "definition": "TURKS AND CAICOS ISLANDS", "preferredTerm": "TCA", "submissionValue": "Country", "synonyms": ["Two island groups in the North Atlantic Ocean, southeast of The Bahamas."]}, {"conceptId": "C16412", "definition": "CHAD", "preferredTerm": "TCD", "submissionValue": "Country", "synonyms": ["A country in Central Africa, south of Libya."]}, {"conceptId": "C17202", "definition": "TOGO", "preferredTerm": "TGO", "submissionValue": "Country", "synonyms": ["A country in Western Africa, bordering the Bight of Benin, between Benin and Ghana."]}, {"conceptId": "C17192", "definition": "THAILAND", "preferredTerm": "THA", "submissionValue": "Country", "synonyms": ["A country in Southeastern Asia, bordering the Andaman Sea and the Gulf of Thailand, southeast of Burma."]}, {"conceptId": "C17183", "definition": "TAJIKISTAN", "preferredTerm": "TJK", "submissionValue": "Country", "synonyms": ["A country in Central Asia, west of China."]}, {"conceptId": "C17704", "definition": "TOKELAU", "preferredTerm": "TKL", "submissionValue": "Country", "synonyms": ["A group of three atolls in the South Pacific Ocean, about one-half of the way from Hawaii to New Zealand."]}, {"conceptId": "C17223", "definition": "TURKMENISTAN", "preferredTerm": "TKM", "submissionValue": "Country", "synonyms": ["A country in Central Asia, bordering the Caspian Sea, between Iran and Kazakhstan."]}, {"conceptId": "C17200", "definition": "TIMOR-LESTE", "preferredTerm": "TLS", "submissionValue": "Country", "synonyms": ["A country in Southeastern Asia, northwest of Australia in the Lesser Sunda Islands at the eastern end of the Indonesian archipelago. East Timor includes the eastern half of the island of Timor, the Oecussi (Ambeno) region on the northwest portion of the island of Timor, and the islands of Pulau Atauro and Pulau Jaco."]}, {"conceptId": "C17205", "definition": "TONGA", "preferredTerm": "TON", "submissionValue": "Country", "synonyms": ["An archipelago in the South Pacific Ocean, about two-thirds of the way from Hawaii to New Zealand."]}, {"conceptId": "C17217", "definition": "TRINIDAD AND TOBAGO", "preferredTerm": "TTO", "submissionValue": "Country", "synonyms": ["Islands between the Caribbean Sea and the North Atlantic Ocean, northeast of Venezuela."]}, {"conceptId": "C17221", "definition": "TUNISIA", "preferredTerm": "TUN", "submissionValue": "Country", "synonyms": ["A country in Northern Africa, bordering the Mediterranean Sea, between Algeria and Libya."]}, {"conceptId": "C17222", "definition": "TURKEY", "preferredTerm": "TUR", "submissionValue": "Country", "synonyms": ["A country in southeastern Europe and southwestern Asia (that portion of Turkey west of the Bosporus is geographically part of Europe), bordering the Black Sea, between Bulgaria and Georgia, and bordering the Aegean Sea and the Mediterranean Sea, between Greece and Syria."]}, {"conceptId": "C17225", "definition": "TUVALU", "preferredTerm": "TUV", "submissionValue": "Country", "synonyms": ["An island group consisting of nine coral atolls in the South Pacific Ocean, about one-half of the way from Hawaii to Australia."]}, {"conceptId": "C17184", "definition": "TAIWAN", "preferredTerm": "TWN", "submissionValue": "Country", "synonyms": ["A group of islands bordering the East China Sea, Philippine Sea, South China Sea, and Taiwan Strait, north of the Philippines, off the southeastern coast of China."]}, {"conceptId": "C17185", "definition": "TANZANIA, UNITED REPUBLIC OF", "preferredTerm": "TZA", "submissionValue": "Country", "synonyms": ["A country in Eastern Africa, bordering the Indian Ocean, between Kenya and Mozambique."]}, {"conceptId": "C17228", "definition": "UGANDA", "preferredTerm": "UGA", "submissionValue": "Country", "synonyms": ["A country in Eastern Africa, west of Kenya."]}, {"conceptId": "C17229", "definition": "UKRAINE", "preferredTerm": "UKR", "submissionValue": "Country", "synonyms": ["A country in Eastern Europe, bordering the Black Sea, between Poland and Russia."]}, {"conceptId": "C20112", "definition": "UNITED STATES MINOR OUTLYING ISLANDS", "preferredTerm": "UMI", "submissionValue": "Country", "synonyms": ["The U.S. Minor Outlying Islands consist of Baker Island, Howland Island, Jarvis Island, Johnston Atoll, Kingman Reef, Midway Island, Navassa Island, Palmyra Atoll, and Wake Island (Wake Atoll)."]}, {"conceptId": "C17244", "definition": "URUGUAY", "preferredTerm": "URY", "submissionValue": "Country", "synonyms": ["A country in Southern South America, bordering the South Atlantic Ocean, between Argentina and Brazil."]}, {"conceptId": "C17234", "definition": "UNITED STATES", "preferredTerm": "USA", "submissionValue": "Country", "synonyms": ["A country in North America, bordering both the North Atlantic Ocean and the North Pacific Ocean, between Canada and Mexico."]}, {"conceptId": "C17246", "definition": "UZBEKISTAN", "preferredTerm": "UZB", "submissionValue": "Country", "synonyms": ["A country in Central Asia, north of Afghanistan."]}, {"conceptId": "C17249", "definition": "VATICAN CITY STATE", "preferredTerm": "VAT", "submissionValue": "Country", "synonyms": ["An enclave of Rome (Italy)."]}, {"conceptId": "C17114", "definition": "SAINT VINCENT AND THE GRENADINES", "preferredTerm": "VCT", "submissionValue": "Country", "synonyms": ["A country in the Caribbean, comprised of islands in the Caribbean Sea, north of Trinidad and Tobago."]}, {"conceptId": "C17250", "definition": "VENEZUELA", "preferredTerm": "VEN", "submissionValue": "Country", "synonyms": ["A country in Northern South America, bordering the Caribbean Sea and the North Atlantic Ocean, between Colombia and Guyana."]}, {"conceptId": "C17653", "definition": "VIRGIN ISLANDS, BRITISH", "preferredTerm": "VGB", "submissionValue": "Country", "synonyms": ["Islands between the Caribbean Sea and the North Atlantic Ocean, east of Puerto Rico."]}, {"conceptId": "C17255", "definition": "VIRGIN ISLANDS, U.S.", "preferredTerm": "VIR", "submissionValue": "Country", "synonyms": ["Islands between the Caribbean Sea and the North Atlantic Ocean, east of Puerto Rico."]}, {"conceptId": "C17252", "definition": "VIETNAM", "preferredTerm": "VNM", "submissionValue": "Country", "synonyms": ["A country in Southeastern Asia, bordering the Gulf of Thailand, Gulf of Tonkin, and South China Sea, alongside China, Laos, and Cambodia."]}, {"conceptId": "C17247", "definition": "VANUATU", "preferredTerm": "VUT", "submissionValue": "Country", "synonyms": ["A group of islands in the South Pacific Ocean, about three-quarters of the way from Hawaii to Australia."]}, {"conceptId": "C17259", "definition": "WALLIS AND FUTUNA", "preferredTerm": "WLF", "submissionValue": "Country", "synonyms": ["Islands in the South Pacific Ocean, about two-thirds of the way from Hawaii to New Zealand."]}, {"conceptId": "C17740", "definition": "SAMOA", "preferredTerm": "WSM", "submissionValue": "Country", "synonyms": ["A group of islands in the South Pacific Ocean, about one-half of the way from Hawaii to New Zealand."]}, {"conceptId": "C17264", "definition": "YEMEN", "preferredTerm": "YEM", "submissionValue": "Country", "synonyms": ["A country in the Middle East, bordering the Arabian Sea, Gulf of Aden, and Red Sea, between Oman and Saudi Arabia."]}, {"conceptId": "C17151", "definition": "SOUTH AFRICA", "preferredTerm": "ZAF", "submissionValue": "Country", "synonyms": ["A country in Southern Africa, at the southern tip of the continent of Africa."]}, {"conceptId": "C17267", "definition": "ZAMBIA", "preferredTerm": "ZMB", "submissionValue": "Country", "synonyms": ["A country in Southern Africa, east of Angola."]}, {"conceptId": "C17268", "definition": "ZIMBABWE", "preferredTerm": "ZWE", "submissionValue": "Country", "synonyms": ["A country in Southern Africa, between South Africa and Zambia."]}]}, {"conceptId": "", "definition": "Diagnosis Group", "extensible": "Yes", "name": "Diagnosis Group", "preferredTerm": "TDIGRP", "submissionValue": "Diagnosis Group", "synonyms": ["A grouping of individuals on the basis of a shared procedure or disease, or lack thereof (e.g. healthy volunteers, type 2 diabetic subjects, subjects with renal cell cancer). Standardized naming systems are available that define the groups within which a subject should be placed. (NCI)"], "terms": [{"conceptId": "C49651", "definition": "", "preferredTerm": "HEALTHY SUBJECTS", "submissionValue": "Diagnosis Group", "synonyms": ["An individual who is or becomes a participant in a research study and has no significant health-related issues. (NCI)"]}]}, {"conceptId": "", "definition": "Dictionary Name; Name of Dictionary", "extensible": "Yes", "name": "Dictionary Name", "preferredTerm": "DICTNAM", "submissionValue": "Dictionary Name", "synonyms": ["A name given to a reference source that lists words and gives their meaning. (NCI)"], "terms": [{"conceptId": "C49471", "definition": "Coding Symbols for a Thesaurus of Adverse Reaction Terms", "preferredTerm": "COSTART", "submissionValue": "Dictionary Name", "synonyms": ["A terminology developed and used by the Food and Drug Administration (FDA) for the coding, filing and retrieving of post marketing adverse reaction reports. (NCI)"]}, {"conceptId": "C49474", "definition": "International Classification of Diseases", "preferredTerm": "ICD", "submissionValue": "Dictionary Name", "synonyms": ["A system of categories to which morbid entries are assigned according to established criteria. Included is the entire range of conditions in a manageable number of categories, grouped to facilitate mortality reporting. It is produced by the World Health Organization (from ICD-10, p1). The Clinical Modifications, produced by the United States Dept. of Health and Human Services, are larger extensions used for morbidity and general epidemiological purposes, primarily in the U.S. (MSH2005_2004_10_12)"]}, {"conceptId": "C49476", "definition": "Logical Observation Identifiers Names and Codes", "preferredTerm": "LOINC", "submissionValue": "Dictionary Name", "synonyms": ["Published by The Regenstrief Institute, the Logical Observation Identifiers Names and Codes covers clinical and clinical laboratory terminology. (NCI)"]}, {"conceptId": "C43820", "definition": "Medical Dictionary for Regulatory Activities", "preferredTerm": "MedDRA", "submissionValue": "Dictionary Name", "synonyms": ["MedDRA is an international medical terminology designed to support the classification, retrieval, presentation, and communication of medical information throughout the medical product regulatory cycle. MedDRA was developed under the auspices of the International Conference on Harmonisation of Technical Requirements for Registration of Pharmaceuticals for Human Use (ICH). The MedDRA Maintenance and Support Services Organization (MSSO) holds a contract with the International Federation of Pharmaceutical Manufacturers Associations (IFPMA) to maintain and support the implementation of the terminology. (NCI)"]}, {"conceptId": "C53489", "definition": "Systematized Nomenclature of Medicine", "preferredTerm": "SNOMED", "submissionValue": "Dictionary Name", "synonyms": ["A multiaxial, hierarchical classification system for diseases in man developed by the College of American Pathologists. (NCI)"]}, {"conceptId": "C49468", "definition": "World Health Organization Adverse Reaction Terms", "preferredTerm": "WHOART", "submissionValue": "Dictionary Name", "synonyms": ["A terminology implemented by the World Health Organization to describe adverse reactions to a prescribed medication or treatment regimen. (NCI)"]}, {"conceptId": "C49475", "definition": "World Health Organization Drug Dictionary", "preferredTerm": "WHODD", "submissionValue": "Dictionary Name", "synonyms": ["A reference source of drugs and drug associated information maintained by the World Health Organization. (NCI)"]}]}, {"conceptId": "", "definition": "Not Done", "extensible": "No", "name": "Not Done", "preferredTerm": "ND", "submissionValue": "Not Done", "synonyms": ["Indicates a task, process or examination that has either not been initiated or completed. (NCI)"], "terms": [{"conceptId": "C49484", "definition": "", "preferredTerm": "NOT DONE", "submissionValue": "Not Done", "synonyms": ["Indicates a task, process or examination that has either not been initiated or completed. (NCI)"]}]}, {"conceptId": "", "definition": "Patient Ethnic Group", "extensible": "Yes", "name": "Patient Ethnic Group", "preferredTerm": "ETHNIC", "submissionValue": "Patient Ethnic Group", "synonyms": ["A social group characterized by a distinctive social and cultural tradition maintained from generation to generation, a common history and origin and a sense of identification with the group", " members of the group have distinctive features in their way of life, shared experiences and often a common genetic heritage", " these features may be reflected in their experience of health and disease. (NCI)"], "terms": [{"conceptId": "C17459", "definition": "", "preferredTerm": "HISPANIC OR LATINO", "submissionValue": "Patient Ethnic Group", "synonyms": ["A person of Mexican, Puerto Rican, Cuban, Central or South American or other Spanish culture or origin, regardless of race. (NCI)"]}, {"conceptId": "C41222", "definition": "", "preferredTerm": "NOT HISPANIC OR LATINO", "submissionValue": "Patient Ethnic Group", "synonyms": ["A person not of Cuban, Mexican, Puerto Rican, South or Central American, or other Spanish culture or origin, regardless of race. An arbitrary ethnic classification. (NCI)"]}, {"conceptId": "C43234", "definition": "Not reported", "preferredTerm": "NOT REPORTED", "submissionValue": "Patient Ethnic Group", "synonyms": ["Not provided or available"]}, {"conceptId": "C17998", "definition": "U; Unknown", "preferredTerm": "UNKNOWN", "submissionValue": "Patient Ethnic Group", "synonyms": ["Not known, not observed, not recorded, or refused. (NCI)"]}]}, {"conceptId": "", "definition": "Pharmaceutical Dosage Form; Dose Form", "extensible": "Yes", "name": "Pharmaceutical Dosage Form", "preferredTerm": "FRM", "submissionValue": "Pharmaceutical Dosage Form", "synonyms": ["The form of the completed pharmaceutical product, e.g. tablet, capsule, injection, elixir, suppository. Dosage form can have a significant effect on the onset, duration and intensity of the pharmacological action of a drug. A pharmaceutical dosage form controls the rate at which the drug is released into the biological fluids. This release rate affects its intrinsic absorption pattern and therefore, the bioavailability of the drug."], "terms": [{"conceptId": "C42887", "definition": "", "preferredTerm": "AEROSOL", "submissionValue": "Pharmaceutical Dosage Form", "synonyms": ["A product that is packaged under pressure and contains therapeutically active ingredients that are released upon activation of an appropriate valve system", " it is intended for topical application to the skin as well as local application into the nose (nasal aerosols), mouth (lingual aerosols), or lungs (inhalation aerosols). (FDA)"]}, {"conceptId": "C42888", "definition": "", "preferredTerm": "AEROSOL, FOAM", "submissionValue": "Pharmaceutical Dosage Form", "synonyms": ["A dosage form containing one or more active ingredients, surfactants, aqueous or non-aqueous liquids, and the propellants", " if the propellant is in the internal (discontinuous) phase (i.e., of the oil-in-water type), a stable foam is discharged, and if the propellant is in the external (continuous) phase (i.e., of the water-in-oil type), a spray or a quick-breaking foam is discharged. (FDA)"]}, {"conceptId": "C42960", "definition": "", "preferredTerm": "AEROSOL, METERED", "submissionValue": "Pharmaceutical Dosage Form", "synonyms": ["A pressurized dosage form consisting of metered dose valves which allow for the delivery of a uniform quantity of spray upon each activation. (NCI)"]}, {"conceptId": "C42971", "definition": "", "preferredTerm": "AEROSOL, POWDER", "submissionValue": "Pharmaceutical Dosage Form", "synonyms": ["A product that is packaged under pressure and contains therapeutically active ingredients, in the form of a powder, that are released upon activation of an appropriate valve system. (NCI)"]}, {"conceptId": "C42889", "definition": "", "preferredTerm": "AEROSOL, SPRAY", "submissionValue": "Pharmaceutical Dosage Form", "synonyms": ["An aerosol product which utilizes a compressed gas as the propellant to provide the force necessary to expel the product as a wet spray", " it is applicable to solutions of medicinal agents in aqueous solvents. (NCI)"]}, {"conceptId": "C42892", "definition": "", "preferredTerm": "BAR, CHEWABLE", "submissionValue": "Pharmaceutical Dosage Form", "synonyms": ["A solid dosage form usually in the form of a rectangle that is meant to be chewed. (NCI)"]}, {"conceptId": "C42890", "definition": "", "preferredTerm": "BEAD", "submissionValue": "Pharmaceutical Dosage Form", "synonyms": ["A solid dosage form in the shape of a small ball. (NCI)"]}, {"conceptId": "C43451", "definition": "", "preferredTerm": "BEAD, IMPLANT, EXTENDED RELEASE", "submissionValue": "Pharmaceutical Dosage Form", "synonyms": ["A small sterile solid mass consisting of a highly purified drug intended for implantation in the body which would allow at least a reduction in dosing frequency as compared to that drug presented as a conventional dosage form. (NCI)"]}, {"conceptId": "C42891", "definition": "", "preferredTerm": "BLOCK", "submissionValue": "Pharmaceutical Dosage Form", "synonyms": ["Solid dosage form, usually in the shape of a square or rectangle. (NCI)"]}, {"conceptId": "C25158", "definition": "", "preferredTerm": "CAPSULE", "submissionValue": "Pharmaceutical Dosage Form", "synonyms": ["A solid pharmaceutical dosage form that contains medicinal agent within either a hard or soft soluble container or shell, usually used for the oral administration of medicine. The shells are made of a suitable form of gelatin or other substance. (NCI)"]}, {"conceptId": "C42895", "definition": "", "preferredTerm": "CAPSULE, COATED", "submissionValue": "Pharmaceutical Dosage Form", "synonyms": ["A solid dosage form in which the drug is enclosed within either a hard or soft soluble container or \"shell\" made from a suitable form of gelatin", " additionally, the capsule is covered in a designated coating. (NCI)"]}, {"conceptId": "C42896", "definition": "", "preferredTerm": "CAPSULE, COATED PELLETS", "submissionValue": "Pharmaceutical Dosage Form", "synonyms": ["A solid dosage form in which the drug is enclosed within either a hard or soft soluble container or \"shell\" made from a suitable form of gelatin", " the drug itself is in the form of granules to which varying amounts of coating have been applied. (NCI)"]}, {"conceptId": "C42917", "definition": "", "preferredTerm": "CAPSULE, COATED, EXTENDED RELEASE", "submissionValue": "Pharmaceutical Dosage Form", "synonyms": ["A solid dosage form in which the drug is enclosed within either a hard or soft soluble container or \"shell\" made from a suitable form of gelatin", " additionally, the capsule is covered in a designated coating, and which releases a drug (or drugs) in such a manner to allow at least a reduction in dosing frequency as compared to that drug (or drugs) presented as a conventional dosage form. (NCI)"]}, {"conceptId": "C42902", "definition": "", "preferredTerm": "CAPSULE, DELAYED RELEASE", "submissionValue": "Pharmaceutical Dosage Form", "synonyms": ["A solid dosage form in which the drug is enclosed within either a hard or soft soluble container made from a suitable form of gelatin, and which releases a drug (or drugs) at a time other than promptly after administration. Enteric-coated articles are delayed release dosage forms. (NCI)"]}, {"conceptId": "C42904", "definition": "", "preferredTerm": "CAPSULE, DELAYED RELEASE PELLETS", "submissionValue": "Pharmaceutical Dosage Form", "synonyms": ["A solid dosage form in which the drug is enclosed within either a hard or soft soluble container or \"shell\" made from a suitable form of gelatin", " the drug itself is in the form of granules to which enteric coating has been applied, thus delaying release of the drug until its passage into the intestines. (NCI)"]}, {"conceptId": "C42916", "definition": "", "preferredTerm": "CAPSULE, EXTENDED RELEASE", "submissionValue": "Pharmaceutical Dosage Form", "synonyms": ["A solid dosage form in which the drug is enclosed within either a hard or soft soluble container made from a suitable form of gelatin, and which releases a drug (or drugs) in such a manner to allow a reduction in dosing frequency as compared to that drug (or drugs) presented as a conventional dosage form. (NCI)"]}, {"conceptId": "C42928", "definition": "", "preferredTerm": "CAPSULE, FILM COATED, EXTENDED RELEASE", "submissionValue": "Pharmaceutical Dosage Form", "synonyms": ["A solid dosage form in which the drug is enclosed within either a hard or soft soluble container or \"shell\" made from a suitable form of gelatin", " additionally, the capsule is covered in a designated film coating, and which releases a drug (or drugs) in such a manner to allow at least a reduction in dosing frequency as compared to that drug (or drugs) presented as a conventional dosage form. (NCI)"]}, {"conceptId": "C42936", "definition": "", "preferredTerm": "CAPSULE, GELATIN COATED", "submissionValue": "Pharmaceutical Dosage Form", "synonyms": ["A solid dosage form in which the drug is enclosed within either a hard or soft soluble container made from a suitable form of gelatin", " through a banding process, the capsule is coated with additional layers of gelatin so as to form a complete seal. (NCI)"]}, {"conceptId": "C42954", "definition": "", "preferredTerm": "CAPSULE, LIQUID FILLED", "submissionValue": "Pharmaceutical Dosage Form", "synonyms": ["A solid dosage form in which the drug is enclosed within a soluble, gelatin shell which is plasticized by the addition of a polyol, such as sorbitol or glycerin, and is therefore of a somewhat thicker consistency than that of a hard shell capsule", " typically, the active ingredients are dissolved or suspended in a liquid vehicle. (NCI)"]}, {"conceptId": "C45414", "definition": "", "preferredTerm": "CEMENT", "submissionValue": "Pharmaceutical Dosage Form", "synonyms": ["A substance that serves to produce solid union between two surfaces. (NCI)"]}, {"conceptId": "C42678", "definition": "", "preferredTerm": "CIGARETTE", "submissionValue": "Pharmaceutical Dosage Form", "synonyms": ["A narrow tube filled with material that is capable to burn with release of therapeutically-active substance(s) during the process of smoking. Cigarette is a very efficient drug-delivery inhaler system for fast-acting substances.(FDA)"]}, {"conceptId": "C60884", "definition": "", "preferredTerm": "CLOTH", "submissionValue": "Pharmaceutical Dosage Form", "synonyms": ["A large piece of relatively flat, absorbent material that contains a drug. It is typically used for applying medication or for cleansing. (FDA)"]}, {"conceptId": "C60891", "definition": "", "preferredTerm": "CONCENTRATE", "submissionValue": "Pharmaceutical Dosage Form", "synonyms": ["A liquid preparation of increased strength and reduced volume which is usually diluted prior to administration. (NCI)"]}, {"conceptId": "C42900", "definition": "", "preferredTerm": "CONE", "submissionValue": "Pharmaceutical Dosage Form", "synonyms": ["A solid dosage form bounded by a circular base and the surface formed by line segments joining every point of the boundary of the base to a common vertex. A cone (usually containing antibiotics) is normally placed below the gingiva after a dental extraction. (NCI)"]}, {"conceptId": "C42919", "definition": "", "preferredTerm": "CORE, EXTENDED RELEASE", "submissionValue": "Pharmaceutical Dosage Form", "synonyms": ["An ocular system placed in the eye from which the drug diffuses through a membrane at a constant rate over a specified period. (NCI)"]}, {"conceptId": "C28944", "definition": "", "preferredTerm": "CREAM", "submissionValue": "Pharmaceutical Dosage Form", "synonyms": ["A semisolid emulsion of either the oil-in-water or the water-in-oil type, ordinarily intended for topical use. (NCI)"]}, {"conceptId": "C60897", "definition": "", "preferredTerm": "CREAM, AUGMENTED", "submissionValue": "Pharmaceutical Dosage Form", "synonyms": ["A cream dosage form that enhances drug delivery. Augmentation does not refer to the strength of the drug in the dosage form. NOTE: CDER has decided to refrain from expanding the use of this dosage form due to difficulties in setting specific criteria that must be met to be considered augmented. (FDA)"]}, {"conceptId": "C42901", "definition": "", "preferredTerm": "CRYSTAL", "submissionValue": "Pharmaceutical Dosage Form", "synonyms": ["A naturally produced angular solid of definite form in which the ultimate units from which it is built up are systematically arranged", " they are usually evenly spaced on a regular space lattice."]}, {"conceptId": "C45415", "definition": "", "preferredTerm": "CULTURE", "submissionValue": "Pharmaceutical Dosage Form", "synonyms": ["The propagation of microorganisms or of living tissue cells in special media conducive to their growth. (NCI)"]}, {"conceptId": "C47890", "definition": "", "preferredTerm": "DIAPHRAGM", "submissionValue": "Pharmaceutical Dosage Form", "synonyms": ["A device usually dome-shaped, worn during copulation over the cervical mouth for prevention of conception or infection. (NCI)"]}, {"conceptId": "C43525", "definition": "", "preferredTerm": "DISC", "submissionValue": "Pharmaceutical Dosage Form", "synonyms": ["A circular plate-like organ or structure. (FDA)"]}, {"conceptId": "C42679", "definition": "", "preferredTerm": "DOUCHE", "submissionValue": "Pharmaceutical Dosage Form", "synonyms": ["A liquid preparation, intended for the irrigative cleansing of the vagina, that is prepared from powders, liquid solutions, or liquid concentrates and contains one or more chemical substances dissolved in a suitable solvent or mutually miscible solvents. (NCI)"]}, {"conceptId": "C42763", "definition": "", "preferredTerm": "DRESSING", "submissionValue": "Pharmaceutical Dosage Form", "synonyms": ["The application of various materials for protecting a wound.(FDA)"]}, {"conceptId": "C17423", "definition": "", "preferredTerm": "DRUG DELIVERY SYSTEM", "submissionValue": "Pharmaceutical Dosage Form", "synonyms": ["Modern technology, distributed with or as a part of a drug product that allows for the uniform release or targeting of drugs to the body. (FDA)"]}, {"conceptId": "C42912", "definition": "", "preferredTerm": "ELIXIR", "submissionValue": "Pharmaceutical Dosage Form", "synonyms": ["A clear, pleasantly flavored, sweetened hydroalcoholic liquid containing dissolved medicinal agents", " it is intended for oral use. (NCI)"]}, {"conceptId": "C42913", "definition": "", "preferredTerm": "EMULSION", "submissionValue": "Pharmaceutical Dosage Form", "synonyms": ["A dosage form consisting of a two-phase system comprised of at least two immiscible liquids (1), one of which is dispersed as droplets (internal or dispersed phase) within the other liquid (external or continuous phase), generally stabilized with one or more emulsifying agents. Note 1: A liquid is pourable", " it flows and conforms to its container at room temperature. It displays Newtonian or pseudoplastic flow behavior. Note 2: Emulsion is used as a dosage form term unless a more specific term is applicable, e.g. cream, lotion, ointment. (NCI)"]}, {"conceptId": "C42915", "definition": "", "preferredTerm": "ENEMA", "submissionValue": "Pharmaceutical Dosage Form", "synonyms": ["A rectal preparation for therapeutic, diagnostic, or nutritive purposes. (NCI)"]}, {"conceptId": "C42929", "definition": "", "preferredTerm": "EXTRACT", "submissionValue": "Pharmaceutical Dosage Form", "synonyms": ["A concentrated preparation of vegetable or animal drugs obtained by removal of the active constituents of the respective drugs with a suitable menstrua, evaporation of all or nearly all of the solvent, and adjustment of the residual masses or powders to the prescribed standards. (NCI)"]}, {"conceptId": "C60926", "definition": "", "preferredTerm": "FIBER, EXTENDED RELEASE", "submissionValue": "Pharmaceutical Dosage Form", "synonyms": ["A slender and elongated solid thread-like substance that delivers drug in such a manner to allow a reduction in dosing frequency as compared to that drug (or drugs) presented as a conventional dosage form. (FDA)"]}, {"conceptId": "C42932", "definition": "", "preferredTerm": "FILM", "submissionValue": "Pharmaceutical Dosage Form", "synonyms": ["A thin layer or coating. (NCI)"]}, {"conceptId": "C42920", "definition": "", "preferredTerm": "FILM, EXTENDED RELEASE", "submissionValue": "Pharmaceutical Dosage Form", "synonyms": ["A drug delivery system in the form of a film that releases the drug over an extended period in such a way as to maintain constant drug levels in the blood or target tissue. (NCI)"]}, {"conceptId": "C42984", "definition": "", "preferredTerm": "FILM, SOLUBLE", "submissionValue": "Pharmaceutical Dosage Form", "synonyms": ["A thin layer or coating which is susceptible to being dissolved when in contact with a liquid. (NCI)"]}, {"conceptId": "C60927", "definition": "", "preferredTerm": "FOR SOLUTION", "submissionValue": "Pharmaceutical Dosage Form", "synonyms": ["A product, usually a solid, intended for solution prior to administration. (FDA)"]}, {"conceptId": "C60928", "definition": "", "preferredTerm": "FOR SUSPENSION", "submissionValue": "Pharmaceutical Dosage Form", "synonyms": ["A product, usually a solid, intended for suspension prior to administration. (FDA)"]}, {"conceptId": "C60929", "definition": "", "preferredTerm": "FOR SUSPENSION, EXTENDED RELEASE", "submissionValue": "Pharmaceutical Dosage Form", "synonyms": ["A product, usually a solid, intended for suspension prior to administration", " once the suspension is administered, the drug will be released at a constant rate over a specified period. (FDA)"]}, {"conceptId": "C42933", "definition": "", "preferredTerm": "GAS", "submissionValue": "Pharmaceutical Dosage Form", "synonyms": ["Any elastic aeriform fluid in which the molecules are separated from one another and have free paths. (NCI)"]}, {"conceptId": "C42934", "definition": "", "preferredTerm": "GEL", "submissionValue": "Pharmaceutical Dosage Form", "synonyms": ["A semisolid (1) dosage form that contains a gelling agent to provide stiffness to a solution or a colloidal dispersion (2). A gel may contain suspended particles. Note 1: A semisolid is not pourable", " it does not flow or conform to its container at room temperature. It does not flow at low shear stress and generally exhibits plastic flow behavior. Note 2: A colloidal dispersion is a system in which particles of colloidal dimension (i.e., typically between 1 nm and 1 micrometer) are distributed uniformly throughout a liquid. (NCI)"]}, {"conceptId": "C42906", "definition": "", "preferredTerm": "GEL, DENTIFRICE", "submissionValue": "Pharmaceutical Dosage Form", "synonyms": ["A combination of a dentifrice (formulation intended to clean and/or polish the teeth, and which may contain certain additional agents), and a gel. It is used with a toothbrush for the purpose of cleaning and polishing the teeth. (NCI)"]}, {"conceptId": "C60930", "definition": "", "preferredTerm": "GEL, METERED", "submissionValue": "Pharmaceutical Dosage Form", "synonyms": ["A gel preparation, with metered dose valves, which allow for the delivery of a uniform quantity of gel upon each activation. (FDA)"]}, {"conceptId": "C48193", "definition": "", "preferredTerm": "GENERATOR", "submissionValue": "Pharmaceutical Dosage Form", "synonyms": ["An apparatus for the formation of vapor or gas from a liquid or solid by heat or chemical action. The term GENERATOR also applies to radioactive columns from which radionuclides are provided. (NCI)"]}, {"conceptId": "C42937", "definition": "", "preferredTerm": "GLOBULE", "submissionValue": "Pharmaceutical Dosage Form", "synonyms": ["Also called pellets or pilules, are made of pure sucrose, lactose, or other polysaccharides. They are formed into small globular masses of various sizes, and are medicated by placing them in a vial and adding the liquid drug attenuation in the proportion not less than one percent (v/w). After shaking, the medicated globules are dried at temperatures not to exceed 40 degrees Centigrade. (NCI)"]}, {"conceptId": "C45416", "definition": "", "preferredTerm": "GRAFT", "submissionValue": "Pharmaceutical Dosage Form", "synonyms": ["A slip of skin or of other tissue for implantation. (NCI)"]}, {"conceptId": "C42938", "definition": "", "preferredTerm": "GRANULE", "submissionValue": "Pharmaceutical Dosage Form", "synonyms": ["A small particle or grain. (NCI)"]}, {"conceptId": "C42903", "definition": "", "preferredTerm": "GRANULE, DELAYED RELEASE", "submissionValue": "Pharmaceutical Dosage Form", "synonyms": ["A small medicinal particle or grain to which an enteric or other coating has been applied, thus delaying release of the drug until its passage into the intestines. (NCI)"]}, {"conceptId": "C42909", "definition": "", "preferredTerm": "GRANULE, EFFERVESCENT", "submissionValue": "Pharmaceutical Dosage Form", "synonyms": ["A small particle or grain containing a medicinal agent in a dry mixture usually composed of sodium bicarbonate, citric acid, and tartaric acid which, when in contact with water, has the capability to release gas, resulting in effervescence. (NCI)"]}, {"conceptId": "C42939", "definition": "", "preferredTerm": "GRANULE, FOR SOLUTION", "submissionValue": "Pharmaceutical Dosage Form", "synonyms": ["A small medicinal particle or grain made available in its more stable dry form, to be reconstituted with solvent just before dispensing", " the granules are so prepared to contain not only the medicinal agent, but the colorants, flavorants, and any other desired pharmaceutic ingredient. (NCI)"]}, {"conceptId": "C42940", "definition": "", "preferredTerm": "GRANULE, FOR SUSPENSION", "submissionValue": "Pharmaceutical Dosage Form", "synonyms": ["A small medicinal particle or grain made available in its more stable dry form, to be reconstituted with solvent just before dispensing to form a suspension", " the granules are so prepared to contain not only the medicinal agent, but the colorants, flavorants, and any other desired pharmaceutic ingredient. (NCI)"]}, {"conceptId": "C42921", "definition": "", "preferredTerm": "GRANULE, FOR SUSPENSION, EXTENDED RELEASE", "submissionValue": "Pharmaceutical Dosage Form", "synonyms": ["A small medicinal particle or grain made available in its more stable dry form, to be reconstituted with solvent just before dispensing to form a suspension", " the extended release system achieves slow release of the drug over an extended period of time and maintains constant drug levels in the blood or target tissue. (NCI)"]}, {"conceptId": "C42941", "definition": "", "preferredTerm": "GUM", "submissionValue": "Pharmaceutical Dosage Form", "synonyms": ["A mucilaginous excretion from various plants. (NCI)"]}, {"conceptId": "C42894", "definition": "", "preferredTerm": "GUM, CHEWING", "submissionValue": "Pharmaceutical Dosage Form", "synonyms": ["A sweetened and flavored insoluble plastic material of various shapes which when chewed, releases a drug substance into the oral cavity. (NCI)"]}, {"conceptId": "C42978", "definition": "", "preferredTerm": "GUM, RESIN", "submissionValue": "Pharmaceutical Dosage Form", "synonyms": ["Natural mixture of gum and resin, usually obtained as exudations from plants. (NCI)"]}, {"conceptId": "C42942", "definition": "", "preferredTerm": "IMPLANT", "submissionValue": "Pharmaceutical Dosage Form", "synonyms": ["A material containing drug intended to be inserted securely and deeply in a living site for growth, slow release, or formation of an organic union. (NCI)"]}, {"conceptId": "C42944", "definition": "", "preferredTerm": "INHALANT", "submissionValue": "Pharmaceutical Dosage Form", "synonyms": ["A special class of inhalations consisting of a drug or combination of drugs, that by virtue of their high vapor pressure, can be carried by an air current into the nasal passage where they exert their effect", " the container from which the inhalant generally is administered is known as an inhaler. (NCI)"]}, {"conceptId": "C60931", "definition": "", "preferredTerm": "INJECTABLE, LIPOSOMAL", "submissionValue": "Pharmaceutical Dosage Form", "synonyms": ["An injection, which either consists of or forms liposomes (a lipid bilayer vesicle usually composed of phospholipids which is used to encapsulate an active drug substance). (FDA)"]}, {"conceptId": "C42946", "definition": "", "preferredTerm": "INJECTION", "submissionValue": "Pharmaceutical Dosage Form", "synonyms": ["A sterile preparation intended for parenteral use", " five distinct classes of injections exist as defined by the USP. (NCI)"]}, {"conceptId": "C42914", "definition": "", "preferredTerm": "INJECTION, EMULSION", "submissionValue": "Pharmaceutical Dosage Form", "synonyms": ["An emulsion consisting of a sterile, pyrogen-free preparation intended to be administered parenterally.(FDA)"]}, {"conceptId": "C42950", "definition": "", "preferredTerm": "INJECTION, LIPID COMPLEX", "submissionValue": "Pharmaceutical Dosage Form", "synonyms": ["[definition pending](FDA)"]}, {"conceptId": "C42974", "definition": "", "preferredTerm": "INJECTION, POWDER, FOR SOLUTION", "submissionValue": "Pharmaceutical Dosage Form", "synonyms": ["A sterile preparation intended for reconstitution to form a solution for parenteral use. (NCI)"]}, {"conceptId": "C42976", "definition": "", "preferredTerm": "INJECTION, POWDER, FOR SUSPENSION", "submissionValue": "Pharmaceutical Dosage Form", "synonyms": ["A sterile preparation intended for reconstitution to form a suspension for parenteral use. (NCI)"]}, {"conceptId": "C42977", "definition": "", "preferredTerm": "INJECTION, POWDER, FOR SUSPENSION, EXTENDED RELEASE", "submissionValue": "Pharmaceutical Dosage Form", "synonyms": ["A dried preparation intended for reconstitution to form a suspension for parenteral use which has been formulated in a manner to allow at least a reduction in dosing frequency as compared to that drug presented as a conventional dosage form (e.g., as a solution).(FDA)"]}, {"conceptId": "C42959", "definition": "", "preferredTerm": "INJECTION, POWDER, LYOPHILIZED, FOR LIPOSOMAL SUSPENSION", "submissionValue": "Pharmaceutical Dosage Form", "synonyms": ["A sterile freeze dried preparation intended for reconstitution for parenteral use which has been formulated in a manner that would allow liposomes (a lipid bilayer vesicle usually composed of phospholipids which is used to encapsulate an active drug substance, either within a lipid bilayer or in an aqueous space) to be formed upon reconstitution. (NCI)"]}, {"conceptId": "C42957", "definition": "", "preferredTerm": "INJECTION, POWDER, LYOPHILIZED, FOR SOLUTION", "submissionValue": "Pharmaceutical Dosage Form", "synonyms": ["A dosage form intended for the solution prepared by lyophilization ('freeze drying'), a process which involves the removal of water from products in the frozen state at extremely low pressures", " this is intended for subsequent addition of liquid to create a solution that conforms in all respects to the requirements for Injections. (NCI)"]}, {"conceptId": "C42958", "definition": "", "preferredTerm": "INJECTION, POWDER, LYOPHILIZED, FOR SUSPENSION", "submissionValue": "Pharmaceutical Dosage Form", "synonyms": ["A liquid preparation, intended for parenteral use, that contains solids suspended in a suitable fluid medium and conforms in all respects to the requirements for Sterile Suspensions", " the medicinal agents intended for the suspension are prepared by lyophilization (\"freeze drying\"), a process which involves the removal of water from products in the frozen state at extremely low pressures. (NCI)"]}, {"conceptId": "C42956", "definition": "", "preferredTerm": "INJECTION, POWDER, LYOPHILIZED, FOR SUSPENSION, EXTENDED RELEASE", "submissionValue": "Pharmaceutical Dosage Form", "synonyms": ["A sterile freeze dried preparation intended for reconstitution for parenteral use which has been formulated in a manner to allow at least a reduction in dosing frequency as compared to that drug presented as a conventional dosage form (e.g., as a solution). (NCI)"]}, {"conceptId": "C42945", "definition": "", "preferredTerm": "INJECTION, SOLUTION", "submissionValue": "Pharmaceutical Dosage Form", "synonyms": ["A liquid preparation containing one or more drug substances dissolved in a suitable solvent or mixture of mutually miscible solvents that is suitable for injection. (NCI)"]}, {"conceptId": "C42899", "definition": "", "preferredTerm": "INJECTION, SOLUTION, CONCENTRATE", "submissionValue": "Pharmaceutical Dosage Form", "synonyms": ["A sterile preparation for parenteral use which, upon the addition of suitable solvents, yields a solution conforming in all respects to the requirements for Injections. (NCI)"]}, {"conceptId": "C42995", "definition": "", "preferredTerm": "INJECTION, SUSPENSION", "submissionValue": "Pharmaceutical Dosage Form", "synonyms": ["A liquid preparation, suitable for injection, which consists of solid particles dispersed throughout a liquid phase in which the particles are not soluble. It can also consist of an oil phase dispersed throughout an aqueous phase, or vice-versa. (NCI)"]}, {"conceptId": "C42926", "definition": "", "preferredTerm": "INJECTION, SUSPENSION, EXTENDED RELEASE", "submissionValue": "Pharmaceutical Dosage Form", "synonyms": ["A sterile preparation intended for parenteral use which has been formulated in a manner to allow at least a reduction in dosing frequency as compared to that drug presented as a conventional dosage form (e.g., as a solution or a prompt drug-releasing, conventional solid dosage form). (NCI)"]}, {"conceptId": "C42951", "definition": "", "preferredTerm": "INJECTION, SUSPENSION, LIPOSOMAL", "submissionValue": "Pharmaceutical Dosage Form", "synonyms": ["A liquid parenteral pharmaceutical dosage form structured as a multilamellar composition of concentric phospholipid spheres that encapsulate the drug (drug delivery systems) separated by layers of water. Drug release is facilitated and controlled by in vivo erosion of the liposomes. To further increase the in vivo circulation time, liposomes in some preparations are covalently derivatized with PEG to produce PEGylated or stealth liposomes. Covalent attachment of drugs to the outer surface of liposomes can potentially serve as a delayed-release product. (NCI)"]}, {"conceptId": "C42988", "definition": "", "preferredTerm": "INJECTION, SUSPENSION, SONICATED", "submissionValue": "Pharmaceutical Dosage Form", "synonyms": ["A liquid preparation, suitable for injection, which consists of solid particles dispersed throughout a liquid phase in which the particles are not soluble. In addition, the product is sonicated while a gas is bubbled through the suspension, and this results in the formation of microspheres by the solid particles. (NCI)"]}, {"conceptId": "C60933", "definition": "", "preferredTerm": "INSERT", "submissionValue": "Pharmaceutical Dosage Form", "synonyms": ["A specially formulated and shaped non-encapsulated solid preparation intended to be placed into a non-rectal orifice of the body, where drug is released, generally for localized effects. (FDA)"]}, {"conceptId": "C42922", "definition": "", "preferredTerm": "INSERT, EXTENDED RELEASE", "submissionValue": "Pharmaceutical Dosage Form", "synonyms": ["A specially formulated and shaped solid preparation (e.g., ring, tablet, or stick) intended to be placed in the vagina by special inserters, where the medication is released, generally for localized effects", " the extended release preparation is designed to allow a reduction in dosing frequency. (NCI)"]}, {"conceptId": "C47915", "definition": "", "preferredTerm": "INTRAUTERINE DEVICE", "submissionValue": "Pharmaceutical Dosage Form", "synonyms": ["A device inserted and left in the uterus to prevent effective conception. (NCI)"]}, {"conceptId": "C42947", "definition": "", "preferredTerm": "IRRIGANT", "submissionValue": "Pharmaceutical Dosage Form", "synonyms": ["A sterile solution intended to bathe or flush open wounds or body cavities", " they're used topically, never parenterally. (NCI)"]}, {"conceptId": "C42948", "definition": "", "preferredTerm": "JELLY", "submissionValue": "Pharmaceutical Dosage Form", "synonyms": ["A class of gels--semisolid systems which consist of suspensions made up of either small inorganic particles or large organic molecules interpenetrated by a liquid--in which the structural coherent matrix contains a high portion of liquid, usually water. (NCI)"]}, {"conceptId": "C47916", "definition": "", "preferredTerm": "KIT", "submissionValue": "Pharmaceutical Dosage Form", "synonyms": ["A packaged collection of related material. (NCI)"]}, {"conceptId": "C45413", "definition": "", "preferredTerm": "LINER, DENTAL", "submissionValue": "Pharmaceutical Dosage Form", "synonyms": ["A material applied to the inside of the dental cavity, for protection or insulation of the surface.(FDA)"]}, {"conceptId": "C42949", "definition": "", "preferredTerm": "LINIMENT", "submissionValue": "Pharmaceutical Dosage Form", "synonyms": ["A solution or mixture of various substances in oil, alcoholic solutions of soap, or emulsions intended for external application. (NCI)"]}, {"conceptId": "C42952", "definition": "", "preferredTerm": "LIPSTICK", "submissionValue": "Pharmaceutical Dosage Form", "synonyms": ["A waxy solid, usually colored cosmetic, in stick form for the lips. (NCI)"]}, {"conceptId": "C42953", "definition": "", "preferredTerm": "LIQUID", "submissionValue": "Pharmaceutical Dosage Form", "synonyms": ["A dosage form consisting of a pure chemical in its liquid state. This dosage form term should not be applied to solutions. Note: A liquid is pourable", " it flows and conforms to its container at room temperature. It displays Newtonian or pseudoplastic flow behavior.(FDA)"]}, {"conceptId": "C60934", "definition": "", "preferredTerm": "LIQUID, EXTENDED RELEASE", "submissionValue": "Pharmaceutical Dosage Form", "synonyms": ["A liquid that delivers a drug in such a manner to allow a reduction in dosing frequency as compared to that drug (or drugs) presented as a conventional dosage form. (FDA)"]}, {"conceptId": "C29167", "definition": "", "preferredTerm": "LOTION", "submissionValue": "Pharmaceutical Dosage Form", "synonyms": ["An emulsion, liquid (1) dosage form. This dosage form is generally for external application to the skin (2). Note 1: A liquid is pourable", " it flows and conforms to its container at room temperature. It displays Newtonian or pseudoplastic flow behavior. Note 2: Previously the definition of a lotion was: The term lotion has been used to categorize many topical suspensions, solutions, and emulsions intended for application to the skin. The current definition of a lotion is restricted to an emulsion. (FDA)"]}, {"conceptId": "C60957", "definition": "", "preferredTerm": "LOTION. AUGMENTED", "submissionValue": "Pharmaceutical Dosage Form", "synonyms": ["A lotion dosage form that enhances drug delivery. Augmentation does not refer to the strength of the drug in the dosage form. NOTE: CDER has decided to refrain from expanding the use of this dosage form due to difficulties in setting specific criteria that must be met to be considered augmented. (FDA)"]}, {"conceptId": "C60958", "definition": "", "preferredTerm": "LOTION/SHAMPOO", "submissionValue": "Pharmaceutical Dosage Form", "synonyms": ["A lotion dosage form which has a soap or detergent that is usually used to clean the hair and scalp", " it is often used as a vehicle for dermatologic agents. (FDA)"]}, {"conceptId": "C42955", "definition": "", "preferredTerm": "LOZENGE", "submissionValue": "Pharmaceutical Dosage Form", "synonyms": ["A solid preparation containing one or more medicaments, usually in a flavored, sweetened base which is intended to dissolve or disintegrate slowly in the mouth. A lollipop is a lozenge on a stick.(FDA)"]}, {"conceptId": "C29269", "definition": "", "preferredTerm": "MOUTHWASH", "submissionValue": "Pharmaceutical Dosage Form", "synonyms": ["An aqueous solution which is most often used for its deodorant, refreshing, or antiseptic effect. (NCI)"]}, {"conceptId": "C48624", "definition": "", "preferredTerm": "NOT APPLICABLE", "submissionValue": "Pharmaceutical Dosage Form", "synonyms": ["The use of a dosage form term is not relevant or appropriate. (NCI)"]}, {"conceptId": "C42965", "definition": "", "preferredTerm": "OIL", "submissionValue": "Pharmaceutical Dosage Form", "synonyms": ["An unctuous, combustible substance which is liquid, or easily liquefiable, on warming, and is soluble in ether but insoluble in water. Such substances, depending on their origin, are classified as animal, mineral, or vegetable oils. (NCI)"]}, {"conceptId": "C42966", "definition": "", "preferredTerm": "OINTMENT", "submissionValue": "Pharmaceutical Dosage Form", "synonyms": ["A suspension or emulsion, semisolid (1) dosage form, usually containing < 20% water and volatiles (2) and > 50% hydrocarbons, waxes, or polyols as the vehicle. This dosage form is generally for external application to the skin or mucous membranes. Note 1: A semisolid is not pourable", " it does not flow or conform to its container at room temperature. It does not flow at low shear stress and generally exhibits plastic flow behavior. Note 2: Percent water and volatiles are measured by a loss on drying test in which the sample is heated at 105 degrees C until constant weight is achieved. (NCI)"]}, {"conceptId": "C60984", "definition": "", "preferredTerm": "OINTMENT, AUGMENTED", "submissionValue": "Pharmaceutical Dosage Form", "synonyms": ["An ointment dosage form that enhances drug delivery. Augmentation does not refer to the strength of the drug in the dosage form. NOTE: CDER has decided to refrain from expanding the use of this dosage form due to difficulties in setting specific criteria that must be met to be considered augmented. (FDA)"]}, {"conceptId": "C47887", "definition": "", "preferredTerm": "PACKING", "submissionValue": "Pharmaceutical Dosage Form", "synonyms": ["A material, usually covered by or impregnated with a drug, that is inserted into a body cavity or between the tooth enamel and the gingival margin.(FDA)"]}, {"conceptId": "C42967", "definition": "", "preferredTerm": "PASTE", "submissionValue": "Pharmaceutical Dosage Form", "synonyms": ["A semisolid dosage form, containing a large proportion (20 - 50%) of solids finely dispersed in a fatty vehicle. This dosage form is generally for external application to the skin or mucous membranes. Note: A semisolid is not pourable", " it does not flow or conform to its container at room temperature. It does not flow at low shear stress and generally exhibits plastic flow behavior. (NCI)"]}, {"conceptId": "C42907", "definition": "", "preferredTerm": "PASTE, DENTIFRICE", "submissionValue": "Pharmaceutical Dosage Form", "synonyms": ["A paste formulation intended to clean and/or polish the teeth, and which may contain certain additional agents. (NCI)"]}, {"conceptId": "C60985", "definition": "", "preferredTerm": "PASTILLE", "submissionValue": "Pharmaceutical Dosage Form", "synonyms": ["An aromatic preparation, often with a pleasing flavor, usually intended to dissolve in the mouth. (FDA)"]}, {"conceptId": "C42968", "definition": "", "preferredTerm": "PATCH", "submissionValue": "Pharmaceutical Dosage Form", "synonyms": ["A drug delivery system that often contains an adhesive backing that is usually applied to an external site on the body. Its ingredients either passively diffuse from, or are actively transported from, some portion of the patch. Depending upon the patch, the ingredients are either delivered to the outer surface of the body or into the body. A patch is sometimes synonymous with the terms Extended Release Film and System. (NCI)"]}, {"conceptId": "C42923", "definition": "", "preferredTerm": "PATCH, EXTENDED RELEASE", "submissionValue": "Pharmaceutical Dosage Form", "synonyms": ["A drug delivery system in the form of a patch that releases the drug in such a manner that a reduction in dosing frequency compared to that drug presented as a conventional dosage form (e.g., a solution or a prompt drug-releasing, conventional solid dosage form). (NCI)"]}, {"conceptId": "C42911", "definition": "", "preferredTerm": "PATCH, EXTENDED RELEASE, ELECTRICALLY CONTROLLED", "submissionValue": "Pharmaceutical Dosage Form", "synonyms": ["A drug delivery system in the form of a patch which is controlled by an electric current that releases the drug in such a manner that a reduction in dosing frequency compared to that drug presented as a conventional dosage form (e.g., a solution or a prompt drug-releasing, conventional solid dosage form). (NCI)"]}, {"conceptId": "C42969", "definition": "", "preferredTerm": "PELLET", "submissionValue": "Pharmaceutical Dosage Form", "synonyms": ["A small sterile solid mass consisting of a highly purified drug (with or without excipients) made by the formation of granules, or by compression and molding. (NCI)"]}, {"conceptId": "C42943", "definition": "", "preferredTerm": "PELLET, IMPLANTABLE", "submissionValue": "Pharmaceutical Dosage Form", "synonyms": ["A small sterile solid mass consisting of a highly purified drug (with or without excipients) made by the formation of granules, or by compression and molding", " they are intended for implantation in the body (usually subcutaneously) for the purpose of providing continuous release of the drug over long periods of time. (NCI)"]}, {"conceptId": "C42918", "definition": "", "preferredTerm": "PELLETS, COATED, EXTENDED RELEASE", "submissionValue": "Pharmaceutical Dosage Form", "synonyms": ["A solid dosage form in which the drug itself is in the form of granules to which varying amounts of coating have been applied, and which releases a drug (or drugs) in such a manner to allow a reduction in dosing frequency as compared to that drug (or drugs) presented as a conventional dosage form. (NCI)"]}, {"conceptId": "C25394", "definition": "", "preferredTerm": "PILL", "submissionValue": "Pharmaceutical Dosage Form", "synonyms": ["A dose of medicine in the form of a small pellet. (NCI)"]}, {"conceptId": "C42970", "definition": "", "preferredTerm": "PLASTER", "submissionValue": "Pharmaceutical Dosage Form", "synonyms": ["Substance intended for external application made of such materials and of such consistency as to adhere to the skin and attach to a dressing", " plasters are intended to afford protection and support and/or to furnish an occlusion and macerating action and to bring medication into close contact with the skin. (NCI)"]}, {"conceptId": "C47913", "definition": "", "preferredTerm": "POULTICE", "submissionValue": "Pharmaceutical Dosage Form", "synonyms": ["A soft, moist mass of meal, herbs, seed, etc., usually applied hot in cloth that consists of gruel-like consistency. (NCI)"]}, {"conceptId": "C42972", "definition": "", "preferredTerm": "POWDER", "submissionValue": "Pharmaceutical Dosage Form", "synonyms": ["An intimate mixture of dry, finely divided drugs and/or chemicals that may be intended for internal or external use. (NCI)"]}, {"conceptId": "C42908", "definition": "", "preferredTerm": "POWDER, DENTIFRICE", "submissionValue": "Pharmaceutical Dosage Form", "synonyms": ["A powder formulation intended to clean and/or polish the teeth, and which may contain certain additional agents. (NCI)"]}, {"conceptId": "C42973", "definition": "", "preferredTerm": "POWDER, FOR SOLUTION", "submissionValue": "Pharmaceutical Dosage Form", "synonyms": ["An intimate mixture of dry, finely divided drugs and/or chemicals, which, upon the addition of suitable vehicles, yields a solution. (NCI)"]}, {"conceptId": "C42975", "definition": "", "preferredTerm": "POWDER, FOR SUSPENSION", "submissionValue": "Pharmaceutical Dosage Form", "synonyms": ["An intimate mixture of dry, finely divided drugs and/or chemicals, which, upon the addition of suitable vehicles, yields a suspension (a liquid preparation containing the solid particles dispersed in the liquid vehicle). (NCI)"]}, {"conceptId": "C42961", "definition": "", "preferredTerm": "POWDER, METERED", "submissionValue": "Pharmaceutical Dosage Form", "synonyms": ["A powder dosage form that is situated inside a container that has a mechanism to deliver a specified quantity. (NCI)"]}, {"conceptId": "C60988", "definition": "", "preferredTerm": "RING", "submissionValue": "Pharmaceutical Dosage Form", "synonyms": ["A small circular object with a vacant circular center that is usually intended to be placed in the body by special inserters, where the medication is released, generally for localized effects. (FDA)"]}, {"conceptId": "C42979", "definition": "", "preferredTerm": "RINSE", "submissionValue": "Pharmaceutical Dosage Form", "synonyms": ["A liquid used to cleanse by flushing. (NCI)"]}, {"conceptId": "C42980", "definition": "", "preferredTerm": "SALVE", "submissionValue": "Pharmaceutical Dosage Form", "synonyms": ["A thick ointment or cerate (a fat or wax based preparation with a consistency between an ointment and a plaster). (NCI)"]}, {"conceptId": "C42981", "definition": "", "preferredTerm": "SHAMPOO", "submissionValue": "Pharmaceutical Dosage Form", "synonyms": ["A liquid soap or detergent used to clean the hair and scalp and is often used as a vehicle for dermatologic agents. (NCI)"]}, {"conceptId": "C42982", "definition": "", "preferredTerm": "SHAMPOO, SUSPENSION", "submissionValue": "Pharmaceutical Dosage Form", "synonyms": ["A liquid soap or detergent containing one or more solid, insoluble substances dispersed in a liquid vehicle that is used to clean the hair and scalp and is often used as a vehicle for dermatologic agents. (NCI)"]}, {"conceptId": "C42983", "definition": "", "preferredTerm": "SOAP", "submissionValue": "Pharmaceutical Dosage Form", "synonyms": ["Any compound of one or more fatty acids, or their equivalents, with an alkali", " soap is detergent and is much employed in liniments, enemas, and in making pills. It is also a mild aperient, antacid and antiseptic. (NCI)"]}, {"conceptId": "C42986", "definition": "", "preferredTerm": "SOLUTION", "submissionValue": "Pharmaceutical Dosage Form", "synonyms": ["A clear, homogeneous liquid dosage form that contains one or more chemical substances dissolved in a solvent or mixture of mutually miscible solvents. Note: A liquid is pourable", " it flows and conforms to its container at room temperature. It displays Newtonian or pseudoplastic flow behavior. (NCI)"]}, {"conceptId": "C42898", "definition": "", "preferredTerm": "SOLUTION, CONCENTRATE", "submissionValue": "Pharmaceutical Dosage Form", "synonyms": ["A liquid preparation (i.e., a substance that flows readily in its natural state) that contains a drug dissolved in a suitable solvent or mixture of mutually miscible solvents", " the drug has been strengthened by the evaporation of its non-active parts. (NCI)"]}, {"conceptId": "C42987", "definition": "", "preferredTerm": "SOLUTION, FOR SLUSH", "submissionValue": "Pharmaceutical Dosage Form", "synonyms": ["A solution for the preparation of an iced saline slush, which is administered by irrigation and used to induce regional hypothermia (in conditions such as certain open heart and kidney surgical procedures) by its direct application. (NCI)"]}, {"conceptId": "C60994", "definition": "", "preferredTerm": "SOLUTION, GEL FORMING / DROPS", "submissionValue": "Pharmaceutical Dosage Form", "synonyms": ["A solution, which after usually being administered in a drop-wise fashion, forms a gel. (FDA)"]}, {"conceptId": "C42935", "definition": "", "preferredTerm": "SOLUTION, GEL FORMING, EXTENDED RELEASE", "submissionValue": "Pharmaceutical Dosage Form", "synonyms": ["A solution that forms a gel when it comes in contact with ocular fluid, and which allows at least a reduction in dosing frequency"]}, {"conceptId": "C60992", "definition": "", "preferredTerm": "SOLUTION/ DROPS", "submissionValue": "Pharmaceutical Dosage Form", "synonyms": ["A solution which is usually administered in a drop-wise fashion. (FDA)"]}, {"conceptId": "C47912", "definition": "", "preferredTerm": "SPONGE", "submissionValue": "Pharmaceutical Dosage Form", "synonyms": ["A porous, interlacing, absorbent material that contains a drug. It is typically used for applying or introducing medication, or for cleansing. A sponge usually retains its shape.(FDA)"]}, {"conceptId": "C42989", "definition": "", "preferredTerm": "SPRAY", "submissionValue": "Pharmaceutical Dosage Form", "synonyms": ["A liquid minutely divided as by a jet of air or steam. (NCI)"]}, {"conceptId": "C42962", "definition": "", "preferredTerm": "SPRAY, METERED", "submissionValue": "Pharmaceutical Dosage Form", "synonyms": ["A non-pressurized dosage form consisting of valves which allow the dispensing of a specified quantity of spray upon each activation. (NCI)"]}, {"conceptId": "C42990", "definition": "", "preferredTerm": "SPRAY, SUSPENSION", "submissionValue": "Pharmaceutical Dosage Form", "synonyms": ["A liquid preparation containing solid particles dispersed in a liquid vehicle and in the form of coarse droplets or as finely divided solids to be applied locally, most usually to the nasal-pharyngeal tract, or topically to the skin. (NCI)"]}, {"conceptId": "C42991", "definition": "", "preferredTerm": "STICK", "submissionValue": "Pharmaceutical Dosage Form", "synonyms": ["A dosage form prepared in a relatively long and slender often cylindrical form. (NCI)"]}, {"conceptId": "C47914", "definition": "", "preferredTerm": "STRIP", "submissionValue": "Pharmaceutical Dosage Form", "synonyms": ["A long narrow piece of material."]}, {"conceptId": "C42993", "definition": "", "preferredTerm": "SUPPOSITORY", "submissionValue": "Pharmaceutical Dosage Form", "synonyms": ["A solid body of various weights and shapes, adapted for introduction into the rectal, vaginal, or urethral orifice of the human body", " they usually melt, soften, or dissolve at body temperature. (NCI)"]}, {"conceptId": "C42924", "definition": "", "preferredTerm": "SUPPOSITORY, EXTENDED RELEASE", "submissionValue": "Pharmaceutical Dosage Form", "synonyms": ["A drug delivery system in the form of a suppository that allows at least a reduction in dosing frequency. (NCI)"]}, {"conceptId": "C42994", "definition": "", "preferredTerm": "SUSPENSION", "submissionValue": "Pharmaceutical Dosage Form", "synonyms": ["A liquid dosage form that contains solid particles dispersed in a liquid vehicle. Note: A liquid is pourable", " it flows and conforms to its container at room temperature. It displays Newtonian or pseudoplastic flow behavior.(FDA)"]}, {"conceptId": "C42925", "definition": "", "preferredTerm": "SUSPENSION, EXTENDED RELEASE", "submissionValue": "Pharmaceutical Dosage Form", "synonyms": ["A liquid preparation consisting of solid particles dispersed throughout a liquid phase in which the particles are not soluble", " the suspension has been formulated in a manner to allow at least a reduction in dosing frequency as compared to that drug presented as a conventional dosage form (e.g., as a solution or a prompt drug-releasing, conventional solid dosage form). (NCI)"]}, {"conceptId": "C60995", "definition": "", "preferredTerm": "SUSPENSION/DROPS", "submissionValue": "Pharmaceutical Dosage Form", "synonyms": ["A suspension which is usually administered in a dropwise fashion. (FDA)"]}, {"conceptId": "C47889", "definition": "", "preferredTerm": "SUTURE", "submissionValue": "Pharmaceutical Dosage Form", "synonyms": ["A strand or fiber used to hold wound edges in apposition during healing. (NCI)"]}, {"conceptId": "C47898", "definition": "", "preferredTerm": "SWAB", "submissionValue": "Pharmaceutical Dosage Form", "synonyms": ["A small piece of relatively flat absorbent material that contains a drug. A swab may also be attached to one end of a small stick. A swab is typically used for applying medication or for cleansing. (NCI)"]}, {"conceptId": "C42996", "definition": "", "preferredTerm": "SYRUP", "submissionValue": "Pharmaceutical Dosage Form", "synonyms": ["An oral solution containing high concentrations of sucrose or other sugars", " the term has also been used to include any other liquid dosage form prepared in a sweet and viscid vehicle, including oral suspensions. (NCI)"]}, {"conceptId": "C42998", "definition": "", "preferredTerm": "TABLET", "submissionValue": "Pharmaceutical Dosage Form", "synonyms": ["A solid dosage form containing medicinal substances with or without suitable diluents. (NCI)"]}, {"conceptId": "C42893", "definition": "", "preferredTerm": "TABLET, CHEWABLE", "submissionValue": "Pharmaceutical Dosage Form", "synonyms": ["A solid dosage form containing medicinal substances with or without suitable diluents that is intended to be chewed, producing a pleasant tasting residue in the oral cavity that is easily swallowed and does not leave a bitter or unpleasant after-taste. (NCI)"]}, {"conceptId": "C42897", "definition": "", "preferredTerm": "TABLET, COATED", "submissionValue": "Pharmaceutical Dosage Form", "synonyms": ["A solid dosage form that contains medicinal substances with or without suitable diluents and is covered with a designated coating. (NCI)"]}, {"conceptId": "C60997", "definition": "", "preferredTerm": "TABLET, COATED PARTICLES", "submissionValue": "Pharmaceutical Dosage Form", "synonyms": ["A solid dosage form containing a conglomerate of medicinal particles that have each been covered with a coating. (FDA)"]}, {"conceptId": "C42905", "definition": "", "preferredTerm": "TABLET, DELAYED RELEASE", "submissionValue": "Pharmaceutical Dosage Form", "synonyms": ["A solid dosage form which releases a drug (or drugs) at a time other than promptly after administration. Enteric-coated articles are delayed release dosage forms. (NCI)"]}, {"conceptId": "C42997", "definition": "", "preferredTerm": "TABLET, DELAYED RELEASE PARTICLES", "submissionValue": "Pharmaceutical Dosage Form", "synonyms": ["A solid dosage form containing a conglomerate of medicinal particles that have been covered with a coating which releases a drug (or drugs) at a time other than promptly after administration. Enteric-coated articles are delayed release dosage forms. (NCI)"]}, {"conceptId": "C42910", "definition": "", "preferredTerm": "TABLET, EFFERVESCENT", "submissionValue": "Pharmaceutical Dosage Form", "synonyms": ["A solid dosage form containing mixtures of acids (e.g., citric acid, tartaric acid) and sodium bicarbonate, which release carbon dioxide when dissolved in water", " it is intended to be dissolved or dispersed in water before administration.(FDA)"]}, {"conceptId": "C42927", "definition": "", "preferredTerm": "TABLET, EXTENDED RELEASE", "submissionValue": "Pharmaceutical Dosage Form", "synonyms": ["A solid dosage form containing a drug which allows at least a reduction in dosing frequency as compared to that drug presented in conventional dosage form. (NCI)"]}, {"conceptId": "C42931", "definition": "", "preferredTerm": "TABLET, FILM COATED", "submissionValue": "Pharmaceutical Dosage Form", "synonyms": ["A solid dosage form that contains medicinal substances with or without suitable diluents and is coated with a thin layer of a water-insoluble or water-soluble polymer. (NCI)"]}, {"conceptId": "C42930", "definition": "", "preferredTerm": "TABLET, FILM COATED, EXTENDED RELEASE", "submissionValue": "Pharmaceutical Dosage Form", "synonyms": ["A solid dosage form that contains medicinal substances with or without suitable diluents and is coated with a thin layer of a water-insoluble or water-soluble polymer", " the tablet is formulated in such manner as to make the contained medicament available over an extended period of time following ingestion. (NCI)"]}, {"conceptId": "C61004", "definition": "", "preferredTerm": "TABLET, FOR SOLUTION", "submissionValue": "Pharmaceutical Dosage Form", "synonyms": ["A tablet that forms a solution when placed in a liquid. (FDA)"]}, {"conceptId": "C61005", "definition": "", "preferredTerm": "TABLET, FOR SUSPENSION; TABLET, DISPERSIBLE", "submissionValue": "Pharmaceutical Dosage Form", "synonyms": ["A tablet that forms a suspension when placed in a liquid (formerly referred to as a Dispersible Tablet)."]}, {"conceptId": "C42964", "definition": "", "preferredTerm": "TABLET, MULTILAYER", "submissionValue": "Pharmaceutical Dosage Form", "synonyms": ["A solid dosage form containing medicinal substances that have been compressed to form a multiple-layered tablet or a tablet-within-a-tablet, the inner tablet being the core and the outer portion being the shell. (NCI)"]}, {"conceptId": "C42963", "definition": "", "preferredTerm": "TABLET, MULTILAYER, EXTENDED RELEASE", "submissionValue": "Pharmaceutical Dosage Form", "synonyms": ["A solid dosage form containing medicinal substances that have been compressed to form a multiple-layered tablet or a tablet-within-a-tablet, the inner tablet being the core and the outer portion being the shell, which, additionally, is covered in a designated coating", " the tablet is formulated in such manner as to allow at least a reduction in dosing frequency as compared to that drug presented as a conventional dosage form. (NCI)"]}, {"conceptId": "C42999", "definition": "", "preferredTerm": "TABLET, ORALLY DISINTEGRATING", "submissionValue": "Pharmaceutical Dosage Form", "synonyms": ["A solid dosage form containing medicinal substances which disintegrates rapidly, usually within a matter of seconds, when placed upon the tongue. (NCI)"]}, {"conceptId": "C61006", "definition": "", "preferredTerm": "TABLET, ORALLY DISINTEGRATING, DELAYED RELEASE", "submissionValue": "Pharmaceutical Dosage Form", "synonyms": ["A solid dosage form containing medicinal substances which disintegrates rapidly, usually within a matter of seconds, when placed upon the tongue, but which releases a drug (or drugs) at a time other than promptly after administration. (FDA)"]}, {"conceptId": "C42985", "definition": "", "preferredTerm": "TABLET, SOLUBLE", "submissionValue": "Pharmaceutical Dosage Form", "synonyms": ["A solid dosage form that contains medicinal substances with or without suitable diluents and possesses the ability to dissolve in fluids. (NCI)"]}, {"conceptId": "C42992", "definition": "", "preferredTerm": "TABLET, SUGAR COATED", "submissionValue": "Pharmaceutical Dosage Form", "synonyms": ["A solid dosage form that contains medicinal substances with or without suitable diluents and is coated with a colored or an uncolored water-soluble sugar. (NCI)"]}, {"conceptId": "C47892", "definition": "", "preferredTerm": "TAMPON", "submissionValue": "Pharmaceutical Dosage Form", "synonyms": ["A plug made of cotton, sponge, or oakum variously used in surgery to plug the nose, vagina, etc., for the control of hemorrhage or the absorption of secretions. (NCI)"]}, {"conceptId": "C47897", "definition": "", "preferredTerm": "TAPE", "submissionValue": "Pharmaceutical Dosage Form", "synonyms": ["A narrow woven fabric, or a narrow extruded synthetic (such as plastic), usually with an adhesive on one or both sides. (NCI)"]}, {"conceptId": "C43000", "definition": "", "preferredTerm": "TINCTURE", "submissionValue": "Pharmaceutical Dosage Form", "synonyms": ["An alcoholic or hydroalcoholic solution prepared from vegetable materials or from chemical substances. (NCI)"]}, {"conceptId": "C43001", "definition": "", "preferredTerm": "TROCHE", "submissionValue": "Pharmaceutical Dosage Form", "synonyms": ["A discoid-shaped solid containing the medicinal agent in a suitably flavored base", " troches are placed in the mouth where they slowly dissolve, liberating the active ingredients. (NCI)"]}, {"conceptId": "C43002", "definition": "", "preferredTerm": "UNASSIGNED", "submissionValue": "Pharmaceutical Dosage Form", "synonyms": ["A dosage form has yet to be assigned. (NCI)"]}, {"conceptId": "C43003", "definition": "", "preferredTerm": "WAFER", "submissionValue": "Pharmaceutical Dosage Form", "synonyms": ["A thin slice of material containing a medicinal agent. (NCI)"]}]}, {"conceptId": "", "definition": "Completion/Reason for Non-Completion", "extensible": "Yes", "name": "Completion/Reason for Non-Completion", "preferredTerm": "NCOMPLT", "submissionValue": "Completion/Reason for Non-Completion", "synonyms": ["The reason that a subject was discontinued from a clinical trial."], "terms": [{"conceptId": "C41331", "definition": "", "preferredTerm": "ADVERSE EVENT", "submissionValue": "Completion/Reason for Non-Completion", "synonyms": ["Any untoward medical occurrence in a patient or clinical investigation subject administered a pharmaceutical product and which does not necessarily have a causal relationship with this treatment. An adverse event (AE) can therefore be any unintended sign (including an abnormal laboratory finding), symptom, or disease temporally associated with the use of a medicinal (investigational) product, whether or not related to the medicinal (investigational) product. NOTE: For further information, see the ICH Guideline for Clinical Safety Data Management: Definitions and Standards for Expedited Reporting. [Modified from ICH E2A] Synonyms: side effect, adverse experience. See also serious adverse event, serious adverse experience. (CDISC glossary)"]}, {"conceptId": "C25250", "definition": "", "preferredTerm": "COMPLETED", "submissionValue": "Completion/Reason for Non-Completion", "synonyms": ["To possess every necessary or normal part or component or step", " having come or been brought to a conclusion. (NCI)"]}, {"conceptId": "C28554", "definition": "", "preferredTerm": "DEATH", "submissionValue": "Completion/Reason for Non-Completion", "synonyms": ["The absence of life or state of being dead. (NCI)"]}, {"conceptId": "C48226", "definition": "", "preferredTerm": "LACK OF EFFICACY", "submissionValue": "Completion/Reason for Non-Completion", "synonyms": ["The lack of expected or desired effect related to a therapy. (NCI)"]}, {"conceptId": "C48227", "definition": "", "preferredTerm": "LOST TO FOLLOW-UP", "submissionValue": "Completion/Reason for Non-Completion", "synonyms": ["The loss or lack of continuation of follow-up after a study has officially closed. See Follow-up. (NCI)"]}, {"conceptId": "C49631", "definition": "", "preferredTerm": "NON-COMPLIANCE WITH STUDY DRUG", "submissionValue": "Completion/Reason for Non-Completion", "synonyms": ["An indication that a subject has not agreed with or followed the instructions related to the study medication. (NCI)"]}, {"conceptId": "C17649", "definition": "Other", "preferredTerm": "OTHER", "submissionValue": "Completion/Reason for Non-Completion", "synonyms": ["Different than the one(s) previously specified or mentioned. (NCI)"]}, {"conceptId": "C48250", "definition": "", "preferredTerm": "PHYSICIAN DECISION", "submissionValue": "Completion/Reason for Non-Completion", "synonyms": ["A position, opinion or judgment reached after consideration by a physician with reference to subject. (NCI)"]}, {"conceptId": "C25742", "definition": "", "preferredTerm": "PREGNANCY", "submissionValue": "Completion/Reason for Non-Completion", "synonyms": ["Pregnancy is the state or condition of having a developing embryo or fetus in the body (uterus), after union of an ovum and spermatozoon, during the period from conception to birth. (NCI)"]}, {"conceptId": "C35571", "definition": "", "preferredTerm": "PROGRESSIVE DISEASE", "submissionValue": "Completion/Reason for Non-Completion", "synonyms": ["A disease process that is increasing in scope or severity. (NCI)"]}, {"conceptId": "C48251", "definition": "", "preferredTerm": "PROTOCOL VIOLATION", "submissionValue": "Completion/Reason for Non-Completion", "synonyms": ["An event or decision that stands in contrast to the guidelines set out by the protocol. (NCI)"]}, {"conceptId": "C25746", "definition": "", "preferredTerm": "RECOVERY", "submissionValue": "Completion/Reason for Non-Completion", "synonyms": ["A healing process and/or an outcome implying relative health. The term is typically used in the context of direct and indirect effects of sickness or injury. (NCI)"]}, {"conceptId": "C49628", "definition": "", "preferredTerm": "SCREEN FAILURE", "submissionValue": "Completion/Reason for Non-Completion", "synonyms": ["The potential subject who does not meet one or more criteria required for participation in a trial."]}, {"conceptId": "C49632", "definition": "", "preferredTerm": "STUDY TERMINATED BY SPONSOR", "submissionValue": "Completion/Reason for Non-Completion", "synonyms": ["An indication that a clinical study was stopped by its sponsor. (NCI)"]}, {"conceptId": "C49633", "definition": "", "preferredTerm": "TECHNICAL PROBLEMS", "submissionValue": "Completion/Reason for Non-Completion", "synonyms": ["A problem with some technical aspect of a clinical study, usually related to an instrument. (NCI)"]}, {"conceptId": "C49634", "definition": "", "preferredTerm": "WITHDRAWAL BY SUBJECT", "submissionValue": "Completion/Reason for Non-Completion", "synonyms": ["An indication that a study participant has removed itself from the study. (NCI)"]}]}, {"conceptId": "", "definition": "Relation to Reference Period", "extensible": "No", "name": "Relation to Reference Period", "preferredTerm": "STENRF", "submissionValue": "Relation to Reference Period", "synonyms": ["The name of a code list that contains terms that reference timepoints within and without a defined time period."], "terms": [{"conceptId": "C38008", "definition": "", "preferredTerm": "AFTER", "submissionValue": "Relation to Reference Period", "synonyms": ["The time period following a point or another period of time. (NCI)"]}, {"conceptId": "C25629", "definition": "", "preferredTerm": "BEFORE", "submissionValue": "Relation to Reference Period", "synonyms": ["Earlier in time or order. (NCI)"]}, {"conceptId": "C25490", "definition": "", "preferredTerm": "DURING", "submissionValue": "Relation to Reference Period", "synonyms": ["At some point in a given period of time. (NCI)"]}, {"conceptId": "C49640", "definition": "", "preferredTerm": "DURING/AFTER", "submissionValue": "Relation to Reference Period", "synonyms": ["Within a certain period of time or after a certain point or period in time. (NCI)"]}, {"conceptId": "C17998", "definition": "U; Unknown", "preferredTerm": "UNKNOWN", "submissionValue": "Relation to Reference Period", "synonyms": ["Not known, not observed, not recorded, or refused. (NCI)"]}]}, {"conceptId": "", "definition": "Route of Administration", "extensible": "Yes", "name": "Route of Administration", "preferredTerm": "ROUTE", "submissionValue": "Route of Administration", "synonyms": ["The course by which a substance was administered in order to reach the site of action in the body."], "terms": [{"conceptId": "C38192", "definition": "", "preferredTerm": "AURICULAR (OTIC)", "submissionValue": "Route of Administration", "synonyms": ["Administration to or by way of the ear.(FDA)"]}, {"conceptId": "C38193", "definition": "", "preferredTerm": "BUCCAL", "submissionValue": "Route of Administration", "synonyms": ["Administration directed toward the cheek, generally from within the mouth.(FDA)"]}, {"conceptId": "C38194", "definition": "", "preferredTerm": "CONJUNCTIVAL", "submissionValue": "Route of Administration", "synonyms": ["Administration to the conjunctiva, the delicate membrane that lines the eyelids and covers the exposed surface of the eyeball.(FDA)"]}, {"conceptId": "C38675", "definition": "", "preferredTerm": "CUTANEOUS", "submissionValue": "Route of Administration", "synonyms": ["Administration to the skin.(FDA)"]}, {"conceptId": "C38197", "definition": "", "preferredTerm": "DENTAL", "submissionValue": "Route of Administration", "synonyms": ["Administration to a tooth or teeth.(FDA)"]}, {"conceptId": "C38633", "definition": "", "preferredTerm": "ELECTRO-OSMOSIS", "submissionValue": "Route of Administration", "synonyms": ["Administration of through the diffusion of substance through a membrane in an electric field.(FDA)"]}, {"conceptId": "C38205", "definition": "", "preferredTerm": "ENDOCERVICAL", "submissionValue": "Route of Administration", "synonyms": ["Administration within the canal of the cervix uteri. Synonymous with the term intracervical.(FDA)"]}, {"conceptId": "C38206", "definition": "", "preferredTerm": "ENDOSINUSIAL", "submissionValue": "Route of Administration", "synonyms": ["Administration within the nasal sinuses of the head.(FDA)"]}, {"conceptId": "C38208", "definition": "", "preferredTerm": "ENDOTRACHEAL", "submissionValue": "Route of Administration", "synonyms": ["Administration directly into the trachea. Synonymous with the term intratracheal.(FDA)"]}, {"conceptId": "C38209", "definition": "", "preferredTerm": "ENTERAL", "submissionValue": "Route of Administration", "synonyms": ["Administration directly into the intestines.(FDA)"]}, {"conceptId": "C38210", "definition": "", "preferredTerm": "EPIDURAL", "submissionValue": "Route of Administration", "synonyms": ["Administration upon or over the dura mater.(FDA)"]}, {"conceptId": "C38211", "definition": "", "preferredTerm": "EXTRA-AMNIOTIC", "submissionValue": "Route of Administration", "synonyms": ["Administration to the outside of the membrane enveloping the fetus.(FDA)"]}, {"conceptId": "C38212", "definition": "", "preferredTerm": "EXTRACORPOREAL", "submissionValue": "Route of Administration", "synonyms": ["Administration outside of the body.(FDA)"]}, {"conceptId": "C38200", "definition": "", "preferredTerm": "HEMODIALYSIS", "submissionValue": "Route of Administration", "synonyms": ["Administration through hemodialysate fluid.(FDA)"]}, {"conceptId": "C38215", "definition": "", "preferredTerm": "INFILTRATION", "submissionValue": "Route of Administration", "synonyms": ["Administration that results in substances passing into tissue spaces or into cells.(FDA)"]}, {"conceptId": "C38219", "definition": "", "preferredTerm": "INTERSTITIAL", "submissionValue": "Route of Administration", "synonyms": ["Administration to or in the interstices of a tissue.(FDA)"]}, {"conceptId": "C38220", "definition": "", "preferredTerm": "INTRA-ABDOMINAL", "submissionValue": "Route of Administration", "synonyms": ["Administration within the abdomen.(FDA)"]}, {"conceptId": "C38221", "definition": "", "preferredTerm": "INTRA-AMNIOTIC", "submissionValue": "Route of Administration", "synonyms": ["Administration within the amnion.(FDA)"]}, {"conceptId": "C38222", "definition": "", "preferredTerm": "INTRA-ARTERIAL", "submissionValue": "Route of Administration", "synonyms": ["Administration within an artery or arteries.(FDA)"]}, {"conceptId": "C38223", "definition": "", "preferredTerm": "INTRA-ARTICULAR", "submissionValue": "Route of Administration", "synonyms": ["Administration within a joint.(FDA)"]}, {"conceptId": "C38224", "definition": "", "preferredTerm": "INTRABILIARY", "submissionValue": "Route of Administration", "synonyms": ["Administration within the bile, bile ducts or gallbladder.(FDA)"]}, {"conceptId": "C38225", "definition": "", "preferredTerm": "INTRABRONCHIAL", "submissionValue": "Route of Administration", "synonyms": ["Administration within a bronchus.(FDA)"]}, {"conceptId": "C38226", "definition": "", "preferredTerm": "INTRABURSAL", "submissionValue": "Route of Administration", "synonyms": ["Administration within a bursa.(FDA)"]}, {"conceptId": "C38227", "definition": "", "preferredTerm": "INTRACARDIAC", "submissionValue": "Route of Administration", "synonyms": ["Administration within the heart.(FDA)"]}, {"conceptId": "C38228", "definition": "", "preferredTerm": "INTRACARTILAGINOUS", "submissionValue": "Route of Administration", "synonyms": ["Administration within a cartilage", " endochondral.(FDA)"]}, {"conceptId": "C38229", "definition": "", "preferredTerm": "INTRACAUDAL", "submissionValue": "Route of Administration", "synonyms": ["Administration within the cauda equina.(FDA)"]}, {"conceptId": "C38230", "definition": "", "preferredTerm": "INTRACAVERNOUS", "submissionValue": "Route of Administration", "synonyms": ["Administration within a pathologic cavity, such as occurs in the lung in tuberculosis.(FDA)"]}, {"conceptId": "C38231", "definition": "", "preferredTerm": "INTRACAVITARY", "submissionValue": "Route of Administration", "synonyms": ["Administration within a non-pathologic cavity, such as that of the cervix, uterus, or penis, or such as that is formed as the result of a wound.(FDA)"]}, {"conceptId": "C38232", "definition": "", "preferredTerm": "INTRACEREBRAL", "submissionValue": "Route of Administration", "synonyms": ["Administration within the cerebrum.(FDA)"]}, {"conceptId": "C38233", "definition": "", "preferredTerm": "INTRACISTERNAL", "submissionValue": "Route of Administration", "synonyms": ["Administration within the cisterna magna cerebellomedularis.(FDA)"]}, {"conceptId": "C38234", "definition": "", "preferredTerm": "INTRACORNEAL", "submissionValue": "Route of Administration", "synonyms": ["Administration within the cornea (the transparent structure forming the anterior part of the fibrous tunic of the eye).(FDA)"]}, {"conceptId": "C38217", "definition": "", "preferredTerm": "INTRACORONAL, DENTAL", "submissionValue": "Route of Administration", "synonyms": ["Administration of a drug within a portion of a tooth which is covered by enamel and which is separated from the roots by a slightly constricted region known as the neck.(FDA)"]}, {"conceptId": "C38218", "definition": "", "preferredTerm": "INTRACORONARY", "submissionValue": "Route of Administration", "synonyms": ["Administration within the coronary arteries.(FDA)"]}, {"conceptId": "C38235", "definition": "", "preferredTerm": "INTRACORPORUS CAVERNOSUM", "submissionValue": "Route of Administration", "synonyms": ["Administration within the dilatable spaces of the corporus cavernosa of the penis.(FDA)"]}, {"conceptId": "C38238", "definition": "", "preferredTerm": "INTRADERMAL", "submissionValue": "Route of Administration", "synonyms": ["Administration within the dermis.(FDA)"]}, {"conceptId": "C38239", "definition": "", "preferredTerm": "INTRADISCAL", "submissionValue": "Route of Administration", "synonyms": ["Administration within a disc.(FDA)"]}, {"conceptId": "C38240", "definition": "", "preferredTerm": "INTRADUCTAL", "submissionValue": "Route of Administration", "synonyms": ["Administration within the duct of a gland.(FDA)"]}, {"conceptId": "C38241", "definition": "", "preferredTerm": "INTRADUODENAL", "submissionValue": "Route of Administration", "synonyms": ["Administration within the duodenum.(FDA)"]}, {"conceptId": "C38242", "definition": "", "preferredTerm": "INTRADURAL", "submissionValue": "Route of Administration", "synonyms": ["Administration within or beneath the dura.(FDA)"]}, {"conceptId": "C38243", "definition": "", "preferredTerm": "INTRAEPIDERMAL", "submissionValue": "Route of Administration", "synonyms": ["Administration within the epidermis.(FDA)"]}, {"conceptId": "C38245", "definition": "", "preferredTerm": "INTRAESOPHAGEAL", "submissionValue": "Route of Administration", "synonyms": ["Administration within the esophagus.(FDA)"]}, {"conceptId": "C38246", "definition": "", "preferredTerm": "INTRAGASTRIC", "submissionValue": "Route of Administration", "synonyms": ["Administration within the stomach.(FDA)"]}, {"conceptId": "C38247", "definition": "", "preferredTerm": "INTRAGINGIVAL", "submissionValue": "Route of Administration", "synonyms": ["Administration within the gingivae.(FDA)"]}, {"conceptId": "C38249", "definition": "", "preferredTerm": "INTRAILEAL", "submissionValue": "Route of Administration", "synonyms": ["Administration within the distal portion of the small intestine, from the jejunum to the cecum.(FDA)"]}, {"conceptId": "C38250", "definition": "", "preferredTerm": "INTRALESIONAL", "submissionValue": "Route of Administration", "synonyms": ["Administration within or introduced directly into a localized lesion.(FDA)"]}, {"conceptId": "C38251", "definition": "", "preferredTerm": "INTRALUMINAL", "submissionValue": "Route of Administration", "synonyms": ["Administration within the lumen of a tube.(FDA)"]}, {"conceptId": "C38252", "definition": "", "preferredTerm": "INTRALYMPHATIC", "submissionValue": "Route of Administration", "synonyms": ["Administration within the lymph.(FDA)"]}, {"conceptId": "C38253", "definition": "", "preferredTerm": "INTRAMEDULLARY", "submissionValue": "Route of Administration", "synonyms": ["Administration within the marrow cavity of a bone.(FDA)"]}, {"conceptId": "C38254", "definition": "", "preferredTerm": "INTRAMENINGEAL", "submissionValue": "Route of Administration", "synonyms": ["Administration within the meninges (the three membranes that envelope the brain and spinal cord).(FDA)"]}, {"conceptId": "C28161", "definition": "", "preferredTerm": "INTRAMUSCULAR", "submissionValue": "Route of Administration", "synonyms": ["Administration within a muscle. (FDA)"]}, {"conceptId": "C38255", "definition": "", "preferredTerm": "INTRAOCULAR", "submissionValue": "Route of Administration", "synonyms": ["Administration within the eye.(FDA)"]}, {"conceptId": "C38256", "definition": "", "preferredTerm": "INTRAOVARIAN", "submissionValue": "Route of Administration", "synonyms": ["Administration within the ovary.(FDA)"]}, {"conceptId": "C38257", "definition": "", "preferredTerm": "INTRAPERICARDIAL", "submissionValue": "Route of Administration", "synonyms": ["Administration within the pericardium.(FDA)"]}, {"conceptId": "C38258", "definition": "", "preferredTerm": "INTRAPERITONEAL", "submissionValue": "Route of Administration", "synonyms": ["Administration within the peritoneal cavity.(FDA)"]}, {"conceptId": "C38259", "definition": "", "preferredTerm": "INTRAPLEURAL", "submissionValue": "Route of Administration", "synonyms": ["Administration within the pleura.(FDA)"]}, {"conceptId": "C38260", "definition": "", "preferredTerm": "INTRAPROSTATIC", "submissionValue": "Route of Administration", "synonyms": ["Administration within the prostate gland.(FDA)"]}, {"conceptId": "C38261", "definition": "", "preferredTerm": "INTRAPULMONARY", "submissionValue": "Route of Administration", "synonyms": ["Administration within the lungs or its bronchi.(FDA)"]}, {"conceptId": "C38262", "definition": "", "preferredTerm": "INTRASINAL", "submissionValue": "Route of Administration", "synonyms": ["Administration within the nasal or periorbital sinuses.(FDA)"]}, {"conceptId": "C38263", "definition": "", "preferredTerm": "INTRASPINAL", "submissionValue": "Route of Administration", "synonyms": ["Administration within the vertebral column.(FDA)"]}, {"conceptId": "C38264", "definition": "", "preferredTerm": "INTRASYNOVIAL", "submissionValue": "Route of Administration", "synonyms": ["Administration within the synovial cavity of a joint.(FDA)"]}, {"conceptId": "C38265", "definition": "", "preferredTerm": "INTRATENDINOUS", "submissionValue": "Route of Administration", "synonyms": ["Administration within a tendon.(FDA)"]}, {"conceptId": "C38266", "definition": "", "preferredTerm": "INTRATESTICULAR", "submissionValue": "Route of Administration", "synonyms": ["Administration within the testicle.(FDA)"]}, {"conceptId": "C38267", "definition": "", "preferredTerm": "INTRATHECAL", "submissionValue": "Route of Administration", "synonyms": ["Administration within the cerebrospinal fluid at any level of the cerebrospinal axis, including injection into the cerebral ventricles.(FDA)"]}, {"conceptId": "C38207", "definition": "", "preferredTerm": "INTRATHORACIC", "submissionValue": "Route of Administration", "synonyms": ["Administration within the thorax (internal to the ribs)", " synonymous with the term endothoracic.(FDA)"]}, {"conceptId": "C38268", "definition": "", "preferredTerm": "INTRATUBULAR", "submissionValue": "Route of Administration", "synonyms": ["Administration within the tubules of an organ.(FDA)"]}, {"conceptId": "C38269", "definition": "Intratumor Route of Administration", "preferredTerm": "INTRATUMOR", "submissionValue": "Route of Administration", "synonyms": ["Administration within a tumor.(FDA)"]}, {"conceptId": "C38270", "definition": "", "preferredTerm": "INTRATYMPANIC", "submissionValue": "Route of Administration", "synonyms": ["Administration within the auris media.(FDA)"]}, {"conceptId": "C38272", "definition": "", "preferredTerm": "INTRAUTERINE", "submissionValue": "Route of Administration", "synonyms": ["Administration within the uterus.(FDA)"]}, {"conceptId": "C38273", "definition": "", "preferredTerm": "INTRAVASCULAR", "submissionValue": "Route of Administration", "synonyms": ["Administration within a vessel or vessels.(FDA)"]}, {"conceptId": "C38276", "definition": "", "preferredTerm": "INTRAVENOUS", "submissionValue": "Route of Administration", "synonyms": ["Administration within or into a vein or veins.(FDA)"]}, {"conceptId": "C38274", "definition": "", "preferredTerm": "INTRAVENOUS BOLUS", "submissionValue": "Route of Administration", "synonyms": ["Administration within or into a vein or veins all at once.(FDA)"]}, {"conceptId": "C38279", "definition": "", "preferredTerm": "INTRAVENOUS DRIP", "submissionValue": "Route of Administration", "synonyms": ["Administration within or into a vein or veins over a sustained period of time.(FDA)"]}, {"conceptId": "C38277", "definition": "", "preferredTerm": "INTRAVENTRICULAR", "submissionValue": "Route of Administration", "synonyms": ["Administration within a ventricle.(FDA)"]}, {"conceptId": "C38278", "definition": "", "preferredTerm": "INTRAVESICAL", "submissionValue": "Route of Administration", "synonyms": ["Administration within the bladder.(FDA)"]}, {"conceptId": "C38280", "definition": "", "preferredTerm": "INTRAVITREAL", "submissionValue": "Route of Administration", "synonyms": ["Administration within the vitreous body of the eye.(FDA)"]}, {"conceptId": "C38203", "definition": "", "preferredTerm": "IONTOPHORESIS", "submissionValue": "Route of Administration", "synonyms": ["Administration by means of an electric current where ions of soluble salts migrate into the tissues of the body.(FDA)"]}, {"conceptId": "C38281", "definition": "", "preferredTerm": "IRRIGATION", "submissionValue": "Route of Administration", "synonyms": ["Administration to bathe or flush open wounds or body cavities.(FDA)"]}, {"conceptId": "C38282", "definition": "", "preferredTerm": "LARYNGEAL", "submissionValue": "Route of Administration", "synonyms": ["Administration directly upon the larynx.(FDA)"]}, {"conceptId": "C38284", "definition": "", "preferredTerm": "NASAL", "submissionValue": "Route of Administration", "synonyms": ["Administration to the nose", " administered by way of the nose.(FDA)"]}, {"conceptId": "C38285", "definition": "", "preferredTerm": "NASOGASTRIC", "submissionValue": "Route of Administration", "synonyms": ["Administration through the nose and into the stomach, usually by means of a tube.(FDA)"]}, {"conceptId": "C48623", "definition": "", "preferredTerm": "NOT APPLICABLE", "submissionValue": "Route of Administration", "synonyms": ["Routes of administration are not applicable.(FDA)"]}, {"conceptId": "C38286", "definition": "", "preferredTerm": "OCCLUSIVE DRESSING TECHNIQUE", "submissionValue": "Route of Administration", "synonyms": ["Administration by the topical route which is then covered by a dressing which occludes the area.(FDA)"]}, {"conceptId": "C38287", "definition": "", "preferredTerm": "OPHTHALMIC", "submissionValue": "Route of Administration", "synonyms": ["Administration to the external eye.(FDA)"]}, {"conceptId": "C38288", "definition": "", "preferredTerm": "ORAL", "submissionValue": "Route of Administration", "synonyms": ["Administration to or by way of the mouth.(FDA)"]}, {"conceptId": "C38289", "definition": "", "preferredTerm": "OROPHARYNGEAL", "submissionValue": "Route of Administration", "synonyms": ["Administration directly to the mouth and pharynx.(FDA)"]}, {"conceptId": "C38290", "definition": "", "preferredTerm": "OTHER", "submissionValue": "Route of Administration", "synonyms": ["Administration is different from others on this list.(FDA)"]}, {"conceptId": "C38291", "definition": "", "preferredTerm": "PARENTERAL", "submissionValue": "Route of Administration", "synonyms": ["Administration by injection, infusion, or implantation.(FDA)"]}, {"conceptId": "C38676", "definition": "", "preferredTerm": "PERCUTANEOUS", "submissionValue": "Route of Administration", "synonyms": ["Administration through the skin.(FDA)"]}, {"conceptId": "C38292", "definition": "", "preferredTerm": "PERIARTICULAR", "submissionValue": "Route of Administration", "synonyms": ["Administration around a joint.(FDA)"]}, {"conceptId": "C38677", "definition": "", "preferredTerm": "PERIDURAL", "submissionValue": "Route of Administration", "synonyms": ["Administration to the outside of the dura mater of the spinal cord.(FDA)"]}, {"conceptId": "C38293", "definition": "", "preferredTerm": "PERINEURAL", "submissionValue": "Route of Administration", "synonyms": ["Administration surrounding a nerve or nerves.(FDA)"]}, {"conceptId": "C38294", "definition": "", "preferredTerm": "PERIODONTAL", "submissionValue": "Route of Administration", "synonyms": ["Administration around a tooth.(FDA)"]}, {"conceptId": "C38295", "definition": "", "preferredTerm": "RECTAL", "submissionValue": "Route of Administration", "synonyms": ["Administration to the rectum.(FDA)"]}, {"conceptId": "C38216", "definition": "", "preferredTerm": "RESPIRATORY (INHALATION)", "submissionValue": "Route of Administration", "synonyms": ["Administration within the respiratory tract by inhaling orally or nasally for local or systemic effect.(FDA)"]}, {"conceptId": "C38296", "definition": "", "preferredTerm": "RETROBULBAR", "submissionValue": "Route of Administration", "synonyms": ["Administration behind the pons or behind the eyeball.(FDA)"]}, {"conceptId": "C38198", "definition": "", "preferredTerm": "SOFT TISSUE", "submissionValue": "Route of Administration", "synonyms": ["Administration into any soft tissue.(FDA)"]}, {"conceptId": "C38297", "definition": "", "preferredTerm": "SUBARACHNOID", "submissionValue": "Route of Administration", "synonyms": ["Administration beneath the arachnoid.(FDA)"]}, {"conceptId": "C38298", "definition": "", "preferredTerm": "SUBCONJUNCTIVAL", "submissionValue": "Route of Administration", "synonyms": ["Administration beneath the conjunctiva.(FDA)"]}, {"conceptId": "C38299", "definition": "", "preferredTerm": "SUBCUTANEOUS", "submissionValue": "Route of Administration", "synonyms": ["Administration beneath the skin", " hypodermic. Synonymous with the term SUBDERMAL.(FDA)"]}, {"conceptId": "C38300", "definition": "", "preferredTerm": "SUBLINGUAL", "submissionValue": "Route of Administration", "synonyms": ["Administration beneath the tongue.(FDA)"]}, {"conceptId": "C38301", "definition": "", "preferredTerm": "SUBMUCOSAL", "submissionValue": "Route of Administration", "synonyms": ["Administration beneath the mucous membrane.(FDA)"]}, {"conceptId": "C38304", "definition": "", "preferredTerm": "TOPICAL", "submissionValue": "Route of Administration", "synonyms": ["Administration to a particular spot on the outer surface of the body. The E2B term TRANSMAMMARY is a subset of the term TOPICAL.(FDA)"]}, {"conceptId": "C38305", "definition": "", "preferredTerm": "TRANSDERMAL", "submissionValue": "Route of Administration", "synonyms": ["Administration through the dermal layer of the skin to the systemic circulation by diffusion.(FDA)"]}, {"conceptId": "C38283", "definition": "", "preferredTerm": "TRANSMUCOSAL", "submissionValue": "Route of Administration", "synonyms": ["Administration across the mucosa.(FDA)"]}, {"conceptId": "C38307", "definition": "", "preferredTerm": "TRANSPLACENTAL", "submissionValue": "Route of Administration", "synonyms": ["Administration through or across the placenta.(FDA)"]}, {"conceptId": "C38308", "definition": "", "preferredTerm": "TRANSTRACHEAL", "submissionValue": "Route of Administration", "synonyms": ["Administration through the wall of the trachea.(FDA)"]}, {"conceptId": "C38309", "definition": "", "preferredTerm": "TRANSTYMPANIC", "submissionValue": "Route of Administration", "synonyms": ["Administration across or through the tympanic cavity.(FDA)"]}, {"conceptId": "C38310", "definition": "", "preferredTerm": "UNASSIGNED", "submissionValue": "Route of Administration", "synonyms": ["Route of administration has not yet been assigned.(FDA)"]}, {"conceptId": "C38311", "definition": "", "preferredTerm": "UNKNOWN", "submissionValue": "Route of Administration", "synonyms": ["Route of administration is unknown.(FDA)"]}, {"conceptId": "C38312", "definition": "", "preferredTerm": "URETERAL", "submissionValue": "Route of Administration", "synonyms": ["Administration into the ureter.(FDA)"]}, {"conceptId": "C38271", "definition": "", "preferredTerm": "URETHRAL", "submissionValue": "Route of Administration", "synonyms": ["Administration into the urethra.(FDA)"]}, {"conceptId": "C38313", "definition": "", "preferredTerm": "VAGINAL", "submissionValue": "Route of Administration", "synonyms": ["Administration into the vagina.(FDA)"]}]}, {"conceptId": "", "definition": "Severity/Intensity Scale for Adverse Events", "extensible": "No", "name": "Severity/Intensity Scale for Adverse Events", "preferredTerm": "AESEV", "submissionValue": "Severity/Intensity Scale for Adverse Events", "synonyms": ["A scale that defines the degree or state of disease existing in a patient as a result of the occurrence of an adverse event. (NCI)"], "terms": [{"conceptId": "C41338", "definition": "Grade 1; 1", "preferredTerm": "MILD", "submissionValue": "Severity/Intensity Scale for Adverse Events", "synonyms": ["A type of adverse event that is usually transient and may require only minimal treatment or therapeutic intervention. The event does not generally interfere with usual activities of daily living."]}, {"conceptId": "C41339", "definition": "Grade 2; 2", "preferredTerm": "MODERATE", "submissionValue": "Severity/Intensity Scale for Adverse Events", "synonyms": ["A type of adverse event that is usually alleviated with additional specific therapeutic intervention. The event interferes with usual activities of daily living, causing discomfort but poses no significant or permanent risk of harm to the research participant."]}, {"conceptId": "C41340", "definition": "Grade 3; 3", "preferredTerm": "SEVERE", "submissionValue": "Severity/Intensity Scale for Adverse Events", "synonyms": ["A type of adverse event that requires intensive therapeutic intervention. The event interrupts usual activities of daily living, or significantly affects clinical status. The event possesses a significant risk of harm to the research participant and hospitalization may be required."]}]}, {"conceptId": "", "definition": "Sex", "extensible": "No", "name": "Sex", "preferredTerm": "SEX", "submissionValue": "Sex", "synonyms": ["The assemblage of physical properties or qualities by which male is distinguished from female", " the physical difference between male and female", " the distinguishing peculiarity of male or female. (NCI)"], "terms": [{"conceptId": "C16576", "definition": "Female", "preferredTerm": "F", "submissionValue": "Sex", "synonyms": ["A person who belongs to the sex that normally produces ova. The term is used to indicate biological sex distinctions, or cultural gender role distinctions, or both. (NCI)"]}, {"conceptId": "C20197", "definition": "Male", "preferredTerm": "M", "submissionValue": "Sex", "synonyms": ["A person who belongs to the sex that normally produces sperm. The term is used to indicate biological sex distinctions, cultural gender role distinctions, or both. (NCI)"]}, {"conceptId": "C17998", "definition": "U; Unknown", "preferredTerm": "UNKNOWN", "submissionValue": "Sex", "synonyms": ["Not known, not observed, not recorded, or refused. (NCI)"]}, {"conceptId": "C45908", "definition": "Undifferentiated", "preferredTerm": "UN", "submissionValue": "Sex", "synonyms": ["A person (one of unisexual specimens) who is born with genitalia and/or secondary sexual characteristics of indeterminate sex, or which combine features of both sexes. (NCI)"]}]}, {"conceptId": "", "definition": "Sex of Participants", "extensible": "No", "name": "Sex of Participants", "preferredTerm": "SEXPOP", "submissionValue": "Sex of Participants", "synonyms": ["The specific sex, either male, female, or mixed of the subject group being studied. (NCI)"], "terms": [{"conceptId": "C49636", "definition": "", "preferredTerm": "BOTH", "submissionValue": "Sex of Participants", "synonyms": ["One and the other", " relating to or being two in conjunction. (NCI)"]}, {"conceptId": "C16576", "definition": "Female", "preferredTerm": "F", "submissionValue": "Sex of Participants", "synonyms": ["A person who belongs to the sex that normally produces ova. The term is used to indicate biological sex distinctions, or cultural gender role distinctions, or both. (NCI)"]}, {"conceptId": "C20197", "definition": "Male", "preferredTerm": "M", "submissionValue": "Sex of Participants", "synonyms": ["A person who belongs to the sex that normally produces sperm. The term is used to indicate biological sex distinctions, cultural gender role distinctions, or both. (NCI)"]}]}, {"conceptId": "", "definition": "Size", "extensible": "Yes", "name": "Size", "preferredTerm": "SIZE", "submissionValue": "Size", "synonyms": ["The physical magnitude of something. (NCI)"], "terms": [{"conceptId": "C49508", "definition": "", "preferredTerm": "LARGE", "submissionValue": "Size", "synonyms": ["Of considerable or relatively great size, extent, or capacity. (NCI)"]}, {"conceptId": "C49507", "definition": "", "preferredTerm": "MEDIUM", "submissionValue": "Size", "synonyms": ["Mid-way between small and large in number, quantity, magnitude or extent. (NCI)"]}, {"conceptId": "C25376", "definition": "", "preferredTerm": "SMALL", "submissionValue": "Size", "synonyms": ["Limited in number, quantity, magnitude or extent. (NCI)"]}]}, {"conceptId": "", "definition": "Domain Abbreviation", "extensible": "Yes", "name": "Domain Abbreviation", "preferredTerm": "DOMAIN", "submissionValue": "Domain Abbreviation", "synonyms": ["A unique, 2-character domain code used in the regulatory submission process. The domain abbreviation is used consistently throughout the submission, i.e. in the dataset name, as the value of the domain variable within the dataset, and as a prefix for most variable names in the dataset. (CDISC Glossary)"], "terms": [{"conceptId": "C49563", "definition": "Analysis Dataset", "preferredTerm": "AD", "submissionValue": "Domain Abbreviation", "synonyms": ["Datasets used for statistical analysis and reporting by the sponsor. These are submitted in addition to the data tabulation datasets."]}, {"conceptId": "C49562", "definition": "Adverse Events", "preferredTerm": "AE", "submissionValue": "Domain Abbreviation", "synonyms": ["Adverse events may be captured either as free text or a pre-specified list of terms."]}, {"conceptId": "C49565", "definition": "Autopsy", "preferredTerm": "AU", "submissionValue": "Domain Abbreviation", "synonyms": ["Additional data about deaths, specific to findings from autopsies."]}, {"conceptId": "C49566", "definition": "Bone Mineral Density (BMD) Data", "preferredTerm": "BM", "submissionValue": "Domain Abbreviation", "synonyms": ["Findings resulting from evaluations of bone mineral density."]}, {"conceptId": "C49567", "definition": "Biopsy", "preferredTerm": "BR", "submissionValue": "Domain Abbreviation", "synonyms": ["Findings resulting from biopsies."]}, {"conceptId": "C49568", "definition": "Concomitant Meds", "preferredTerm": "CM", "submissionValue": "Domain Abbreviation", "synonyms": ["Case report form (CRF) data that captures the Concomitant and Prior Medications/Therapies used by the subject. Examples are the Concomitant Medications/Therapies given on an as needed basis and the usual Background Medications/Therapies given for a condition."]}, {"conceptId": "C49569", "definition": "Comments", "preferredTerm": "CO", "submissionValue": "Domain Abbreviation", "synonyms": ["The Comments dataset accommodates two sources of comments: 1) those collected alongside other data on topical case report form (CRF) pages such as Adverse Events and 2) those collected on a separate page specifically dedicated to comments."]}, {"conceptId": "C49578", "definition": "Drug Accountability", "preferredTerm": "DA", "submissionValue": "Domain Abbreviation", "synonyms": ["Data regarding the accountability of study drug, such as information on the receipt, dispensing, return, and packaging."]}, {"conceptId": "C49570", "definition": "Disease Characteristics", "preferredTerm": "DC", "submissionValue": "Domain Abbreviation", "synonyms": ["Data related to the characteristics of a specific disease state under study for a subject."]}, {"conceptId": "C49572", "definition": "Demographics", "preferredTerm": "DM", "submissionValue": "Domain Abbreviation", "synonyms": ["The Demographics domain includes a set of essential standard variables that describe each subject in a clinical study. It is the parent domain for all other observations for human clinical subjects"]}, {"conceptId": "C49576", "definition": "Disposition", "preferredTerm": "DS", "submissionValue": "Domain Abbreviation", "synonyms": ["A subject domain utilized for the submission of information encompassing and representing data, vocabulary or records related to disposition. (NCI)"]}, {"conceptId": "C49585", "definition": "Protocol Deviations", "preferredTerm": "DV", "submissionValue": "Domain Abbreviation", "synonyms": ["The intent of the domain is to capture protocol violations and deviations during the course of the study and will store only those criteria violation by or deviated from by the subject and not a response to each violation or deviation."]}, {"conceptId": "C49625", "definition": "Electroencephalogram", "preferredTerm": "EE", "submissionValue": "Domain Abbreviation", "synonyms": ["Findings resulting from electroencephalogram (EEG) tests."]}, {"conceptId": "C49626", "definition": "Electrocardiogram", "preferredTerm": "EG", "submissionValue": "Domain Abbreviation", "synonyms": ["Findings related to the collection of ECG data, including position of the subject, method of evaluation, all cycle measurements and all findings from the ECG including an overall interpretation if collected or derived."]}, {"conceptId": "C49587", "definition": "Exposure", "preferredTerm": "EX", "submissionValue": "Domain Abbreviation", "synonyms": ["The Exposure domain model records the details of a subject's exposure to protocol-specified study treatment. Study treatment may be any intervention that is prospectively defined as a test material within a study, and is typically but not always supplied to the subject."]}, {"conceptId": "C49588", "definition": "Family History", "preferredTerm": "FH", "submissionValue": "Domain Abbreviation", "synonyms": ["A subject domain utilized for the submission of information encompassing and representing data, vocabulary or records related to family history. (NCI)"]}, {"conceptId": "C49589", "definition": "Healthcare Resource Utilization", "preferredTerm": "HU", "submissionValue": "Domain Abbreviation", "synonyms": ["Healthcare resource utilization data such as subject visits to physicians, hospitalizations, and nursing home stays."]}, {"conceptId": "C61536", "definition": "Inclusion/Exclusion", "preferredTerm": "IE", "submissionValue": "Domain Abbreviation", "synonyms": ["The intent of the domain model is to only collect those criteria that cause the subject to be in violation of the inclusion/exclusion criteria not a response to each criterion."]}, {"conceptId": "C49592", "definition": "Laboratory Data", "preferredTerm": "LB", "submissionValue": "Domain Abbreviation", "synonyms": ["Laboratory test findings including, but is not limited to hematology, clinical chemistry and urinalysis data. This domain does not include microbiology or pharmacokinetic data, which are stored in separate domains."]}, {"conceptId": "C49602", "definition": "Microbiology", "preferredTerm": "MB", "submissionValue": "Domain Abbreviation", "synonyms": ["Microbiology specimen findings, including gram stain results, and organisms found."]}, {"conceptId": "C49603", "definition": "Medical History", "preferredTerm": "MH", "submissionValue": "Domain Abbreviation", "synonyms": ["The medical history dataset includes the subject's prior history at the start of the trial. Examples of subject medical history information could include general medical history, gynecological history, and primary diagnosis."]}, {"conceptId": "C49604", "definition": "Meal Data", "preferredTerm": "ML", "submissionValue": "Domain Abbreviation", "synonyms": ["Information regarding the subject's meal consumption, such as fluid intake, amounts, form (solid or liquid state), frequency, etc., typically used for pharmacokinetic analysis."]}, {"conceptId": "C61531", "definition": "Microbiology Susceptibility", "preferredTerm": "MS", "submissionValue": "Domain Abbreviation", "synonyms": ["This includes microbiology susceptibility test results, plus results of any other organism-related tests."]}, {"conceptId": "C49605", "definition": "Organ Measurements", "preferredTerm": "OM", "submissionValue": "Domain Abbreviation", "synonyms": ["Findings from organ measurement evaluations."]}, {"conceptId": "C49606", "definition": "Pharmacokinetic Concentration", "preferredTerm": "PC", "submissionValue": "Domain Abbreviation", "synonyms": ["Concentrations of drugs/metabolites in fluids or tissues as a function of time."]}, {"conceptId": "C49608", "definition": "Physical Exam", "preferredTerm": "PE", "submissionValue": "Domain Abbreviation", "synonyms": ["Findings collected during a physical examination of the subject. It has findings that are discovered that are related to body systems. Does not include vital signs measurements, which are stored in the vital signs domain."]}, {"conceptId": "C61529", "definition": "Pharmacogenomics", "preferredTerm": "PG", "submissionValue": "Domain Abbreviation", "synonyms": ["Pharmacogenomics findings that initially focus on genotype and gene expression data."]}, {"conceptId": "C49607", "definition": "Pharmacokinetic Parameters", "preferredTerm": "PP", "submissionValue": "Domain Abbreviation", "synonyms": ["Pharmacokinetic parameters derived from pharmacokinetic concentration-time (PC) data."]}, {"conceptId": "C49609", "definition": "Questionnaires", "preferredTerm": "QS", "submissionValue": "Domain Abbreviation", "synonyms": ["Questionnaire data may include, but are not limited to the following: subject reported outcomes, validated or non-validated questionnaires, and validated or non-validated diaries (i.e. data with a common topicality)."]}, {"conceptId": "C49610", "definition": "Subject Characteristics", "preferredTerm": "SC", "submissionValue": "Domain Abbreviation", "synonyms": ["The subject characteristics domain is for data not collected in other domains that is subject-related. Examples: subject initials, other race details, eye color, childbearing status, etc."]}, {"conceptId": "C49616", "definition": "Subject Element", "preferredTerm": "SE", "submissionValue": "Domain Abbreviation", "synonyms": ["The subject element table describes the actual order of elements followed by the subject, together with the start date/time and end date/time for each element."]}, {"conceptId": "C49611", "definition": "Surgery", "preferredTerm": "SG", "submissionValue": "Domain Abbreviation", "synonyms": ["Surgical information."]}, {"conceptId": "C49612", "definition": "Skin Test", "preferredTerm": "SK", "submissionValue": "Domain Abbreviation", "synonyms": ["Findings from diagnostic skin tests."]}, {"conceptId": "C49613", "definition": "Sleep Polysomnography Data", "preferredTerm": "SL", "submissionValue": "Domain Abbreviation", "synonyms": ["Findings from diagnostic sleep tests (polysomnography)."]}, {"conceptId": "C49614", "definition": "Stress (Exercise) Test Data", "preferredTerm": "ST", "submissionValue": "Domain Abbreviation", "synonyms": ["Findings from exercise stress tests."]}, {"conceptId": "C49615", "definition": "Substance Use", "preferredTerm": "SU", "submissionValue": "Domain Abbreviation", "synonyms": ["The intent of the domain is to capture substance use information that may be used to assess the efficacy and/or safety of therapies that look to mitigate the effects of chronic substance use."]}, {"conceptId": "C49617", "definition": "Subject Visits", "preferredTerm": "SV", "submissionValue": "Domain Abbreviation", "synonyms": ["The subject visits table describes the actual start and end data/time for each visit of each individual subject."]}, {"conceptId": "C49618", "definition": "Trial Arms", "preferredTerm": "TA", "submissionValue": "Domain Abbreviation", "synonyms": ["The trial arms table describes each planned arm in the trial. An arm is described as an ordered sequence of elements."]}, {"conceptId": "C49619", "definition": "TE; Trial Elements", "preferredTerm": "TE", "submissionValue": "Domain Abbreviation", "synonyms": ["The trial elements table describes the element code that is unique for each element, the element description, and the rules for starting and ending an element."]}, {"conceptId": "C49620", "definition": "Trial Inclusion/Exclusion Criteria", "preferredTerm": "TI", "submissionValue": "Domain Abbreviation", "synonyms": ["The trial summary information domain is not subject oriented. It contains one record for each of the inclusion and exclusion criteria for the trial."]}, {"conceptId": "C53483", "definition": "Trial Summary", "preferredTerm": "TS", "submissionValue": "Domain Abbreviation", "synonyms": ["The trial summary information domain is not subject oriented. It contains one record for each trial summary characteristic."]}, {"conceptId": "C49621", "definition": "Trial Visits", "preferredTerm": "TV", "submissionValue": "Domain Abbreviation", "synonyms": ["The trial visits table describes the planned order and number of visits in the study within each arm."]}, {"conceptId": "C49622", "definition": "Vital Signs", "preferredTerm": "VS", "submissionValue": "Domain Abbreviation", "synonyms": ["Measurements including but not limited to blood pressure, temperature, respiration, body surface area, BMI, height and weight."]}]}, {"conceptId": "", "definition": "Trial Blinding Schema", "extensible": "Yes", "name": "Trial Blinding Schema", "preferredTerm": "TBLIND", "submissionValue": "Trial Blinding Schema", "synonyms": ["The name of a code list that contains terms to define the type of blinding for the trial. (NCI)"], "terms": [{"conceptId": "C15228", "definition": "", "preferredTerm": "DOUBLE BLIND", "submissionValue": "Trial Blinding Schema", "synonyms": ["A study in which neither the subject nor the investigator nor the research team interacting with the subject or data during the trial knows what treatment a subject is receiving. (CDISC glossary)"]}, {"conceptId": "C49659", "definition": "", "preferredTerm": "OPEN LABEL", "submissionValue": "Trial Blinding Schema", "synonyms": ["A trial in which subjects and investigators know which product each subject is receiving", " opposite of a blinded or double-blind study. (CDISC glossary)"]}, {"conceptId": "C28233", "definition": "", "preferredTerm": "SINGLE BLIND", "submissionValue": "Trial Blinding Schema", "synonyms": ["A study in which one party, either the investigator or the subject, does not know which medication or placebo is administered to the subject", " also called singlemasked study. (CDISC glossary)"]}]}, {"conceptId": "", "definition": "Trial Indication Type", "extensible": "Yes", "name": "Trial Indication Type", "preferredTerm": "TINDTP", "submissionValue": "Trial Indication Type", "synonyms": ["The name of a code list that contains terms to define the type of trial, e.g. cure or prevention. (NCI)"], "terms": [{"conceptId": "C49654", "definition": "", "preferredTerm": "CURE", "submissionValue": "Trial Indication Type", "synonyms": ["A type of study protocol designed to evaluate intervention(s) aimed to cure a disease or condition. (NCI)"]}, {"conceptId": "C49653", "definition": "", "preferredTerm": "DIAGNOSIS", "submissionValue": "Trial Indication Type", "synonyms": ["A type of study protocol designed to evaluate intervention(s) aimed at identifying a disease or condition. (NCI)"]}, {"conceptId": "C49655", "definition": "", "preferredTerm": "MITIGATION", "submissionValue": "Trial Indication Type", "synonyms": ["A type of study designed to identify actions necessary to eliminate or reduce the risk to human life or well-being as a result of a particular medication or treatment regimen. (NCI)"]}, {"conceptId": "C49657", "definition": "", "preferredTerm": "PREVENTION", "submissionValue": "Trial Indication Type", "synonyms": ["A type of study designed to identify actions necessary to permanently eliminate or reduce the long-term risk to human life as a result of a particular medication or treatment regimen."]}, {"conceptId": "C49656", "definition": "", "preferredTerm": "TREATMENT", "submissionValue": "Trial Indication Type", "synonyms": ["A type of study protocol designed to evaluate intervention(s) for treatment of disease, syndrome or condition."]}]}, {"conceptId": "", "definition": "Trial Phase", "extensible": "Yes", "name": "Trial Phase", "preferredTerm": "TPHASE", "submissionValue": "Trial Phase", "synonyms": ["Clinical trials are broken into three or four phases: Phase I tests a new drug or treatment for safety in a small group", " Phase II expands the study to a larger group of people", " Phase III expands the study to an even larger group of people to measure whether the treatment actually benefits patients, and whether its benefits exceed its risks", " and Phase IV takes place after the drug or treatment has been licensed and marketed. (NCI)"], "terms": [{"conceptId": "C15600", "definition": "Trial Phase 1; 1", "preferredTerm": "Phase I Trial", "submissionValue": "Trial Phase", "synonyms": ["The initial introduction of an investigational new drug into humans. Phase 1 studies are typically closely monitored and may be conducted in patients or normal volunteer subjects. NOTE: These studies are designed to determine the metabolism and pharmacologic actions of the drug in humans, the side effects associated with increasing doses, and, if possible, to gain early evidence on effectiveness. During Phase 1, sufficient information about the drug's pharmacokinetics and pharmacological effects should be obtained to permit the design of well-controlled, scientifically valid, Phase 2 studies. The total number of subjects and patients included in Phase I studies varies with the drug, but is generally in the range of 20 to 80. Phase 1 studies also include studies of drug metabolism, structure-activity relationships, and mechanism of action in humans, as well as studies in which investigational drugs are used as research tools to explore biological phenomena or disease processes. [After FDA CDER Handbook, ICH E8] (CDISC glossary)"]}, {"conceptId": "C15693", "definition": "Trial Phase 1-2; 1-2", "preferredTerm": "Phase I/II Trial", "submissionValue": "Trial Phase", "synonyms": ["A class of clinical study that combines elements characteristic of traditional Phase I and Phase II trials. See also Phase I, Phase II."]}, {"conceptId": "C15601", "definition": "Trial Phase 2; 2", "preferredTerm": "Phase II Trial", "submissionValue": "Trial Phase", "synonyms": ["Phase 2. Controlled clinical studies conducted to evaluate the effectiveness of the drug for a particular indication or indications in patients with the disease or condition under study and to determine the common short-term side effects and risks associated with the drug. NOTE: Phase 2 studies are typically well controlled, closely monitored, and conducted in a relatively small number of patients, usually involving no more than several hundred subjects. [After FDA CDER Handbook, ICH E8] (CDISC glossary)"]}, {"conceptId": "C15694", "definition": "Trial Phase 2-3; 2-3", "preferredTerm": "Phase II/III Trial", "submissionValue": "Trial Phase", "synonyms": ["A class of clinical study that combines elements characteristic of traditional Phase II and Phase III trials."]}, {"conceptId": "C49686", "definition": "Trial Phase 2A; 2A", "preferredTerm": "Phase IIa Trial", "submissionValue": "Trial Phase", "synonyms": ["A clinical research protocol generally referred to as a pilot or feasibility trial that aims to prove the concept of the new intervention in question. (NCI)"]}, {"conceptId": "C49688", "definition": "Trial Phase 2B; 2B", "preferredTerm": "Phase IIb Trial", "submissionValue": "Trial Phase", "synonyms": ["A clinical research protocol generally referred to as a well-controlled and pivotal trial that aims to prove the mechanism of action of the new intervention in question. A pivotal study will generally be well-controlled, randomized, of adequate size, and whenever possible, double-blind. (NCI)"]}, {"conceptId": "C15602", "definition": "Trial Phase 3; 3", "preferredTerm": "Phase III Trial", "submissionValue": "Trial Phase", "synonyms": ["Phase 3. Studies are expanded controlled and uncontrolled trials. They are performed after preliminary evidence suggesting effectiveness of the drug has been obtained, and are intended to gather the additional information about effectiveness and safety that is needed to confirm efficacy and evaluate the overall benefit-risk relationship of the drug and to provide an adequate basis for physician labeling. NOTE: Phase 3 studies usually include from several hundred to several thousand subjects. [After FDA CDER Handbook, ICH E8] (CDISC glossary)"]}, {"conceptId": "C49687", "definition": "Trial Phase 3A; 3A", "preferredTerm": "Phase IIIa Trial", "submissionValue": "Trial Phase", "synonyms": ["A classification typically assigned retrospectively to a Phase III trial upon determination by regulatory authorities of a need for a Phase III B trial."]}, {"conceptId": "C49689", "definition": "Trial Phase 3B; 3B", "preferredTerm": "Phase IIIb Trial", "submissionValue": "Trial Phase", "synonyms": ["A subcategory of Phase III trials done near the time of approval to elicit additional findings. NOTE: Dossier review may continue while associated Phase IIIB trials are conducted. These trials may be required as a condition of regulatory authority approval."]}, {"conceptId": "C15603", "definition": "Trial Phase 4; 4", "preferredTerm": "Phase IV Trial", "submissionValue": "Trial Phase", "synonyms": ["Phase 4. Postmarketing (Phase 4) studies to delineate additional information about the drug's risks, benefits, and optimal use that may be requested by regulatory authorities in conjunction with marketing approval. NOTE: These studies could include, but would not be limited to, studying different doses or schedules of administration than were used in Phase 2 studies, use of the drug in other patient populations or other stages of the disease, or use of the drug over a longer period of time. [After FDA CDER Handbook, ICH E8] (CDISC glossary)"]}, {"conceptId": "C47865", "definition": "Trial Phase 5; 5", "preferredTerm": "Phase V Trial", "submissionValue": "Trial Phase", "synonyms": ["Postmarketing surveillance is sometimes referred to as Phase V."]}, {"conceptId": "C48660", "definition": "", "preferredTerm": "NOT APPLICABLE", "submissionValue": "Trial Phase", "synonyms": ["Determination of a value is not relevant in the current context. (NCI)"]}]}, {"conceptId": "", "definition": "Trial Summary Parameter Test Code", "extensible": "Yes", "name": "Trial Summary Parameter Test Code", "preferredTerm": "TSPARMCD", "submissionValue": "Trial Summary Parameter Test Code", "synonyms": ["Individual characteristics of a clinical trial, e.g. description of trial design, trial blinding schema, and primary objective of trial. (NCI)"], "terms": [{"conceptId": "C49703", "definition": "Added on to Existing Treatments", "preferredTerm": "ADDON", "submissionValue": "Trial Summary Parameter Test Code", "synonyms": ["The addition of a therapeutic product to the existing regimen in a clinical trial, where both entities remain as discrete products."]}, {"conceptId": "C49700", "definition": "Adverse Event Dictionary", "preferredTerm": "AEDICT", "submissionValue": "Trial Summary Parameter Test Code", "synonyms": ["A reference source that provides meanings of words related to adverse events. (NCI)"]}, {"conceptId": "C49694", "definition": "Planned Maximum Age of Subjects", "preferredTerm": "AGEMAX", "submissionValue": "Trial Summary Parameter Test Code", "synonyms": ["The anticipated maximum age of the subjects to be entered in a clinical trial. (NCI)"]}, {"conceptId": "C49693", "definition": "Planned Minimum Age of Subjects", "preferredTerm": "AGEMIN", "submissionValue": "Trial Summary Parameter Test Code", "synonyms": ["The anticipated minimum age of the subjects to be entered in a clinical trial. (NCI)"]}, {"conceptId": "C20587", "definition": "Age Span", "preferredTerm": "AGESPAN", "submissionValue": "Trial Summary Parameter Test Code", "synonyms": ["Subgroups of populations based on age. (NCI)"]}, {"conceptId": "C50400", "definition": "Age Unit", "preferredTerm": "AGEU", "submissionValue": "Trial Summary Parameter Test Code", "synonyms": ["Those units of time that are routinely used to express the age of a person. (NCI)"]}, {"conceptId": "C25488", "definition": "Dose per Administration", "preferredTerm": "DOSE", "submissionValue": "Trial Summary Parameter Test Code", "synonyms": ["The amount of drug administered to a patient or test subject at one time or the total quantity administered. [AMA Manual of Style] (CDISC Glossary)"]}, {"conceptId": "C49701", "definition": "Drug Dictionary", "preferredTerm": "DRUGDICT", "submissionValue": "Trial Summary Parameter Test Code", "synonyms": ["A reference source that provides meanings of words related to drugs. (NCI)"]}, {"conceptId": "C49697", "definition": "Trial Length", "preferredTerm": "LENGTH", "submissionValue": "Trial Summary Parameter Test Code", "synonyms": ["The anticipated length of a clinical trial measured as a unit of time. (NCI)"]}, {"conceptId": "C49702", "definition": "Medical History Dictionary", "preferredTerm": "MHDICT", "submissionValue": "Trial Summary Parameter Test Code", "synonyms": ["A reference source that provides meanings of words related to medical history. (NCI)"]}, {"conceptId": "C49692", "definition": "Planned Number of Subjects", "preferredTerm": "PLANSUB", "submissionValue": "Trial Summary Parameter Test Code", "synonyms": ["The number of subjects entered in a clinical trial. (NCI)"]}, {"conceptId": "C25196", "definition": "Trial is Randomized", "preferredTerm": "RANDOM", "submissionValue": "Trial Summary Parameter Test Code", "synonyms": ["The process of assigning trial subjects to treatment or control groups using an element of chance to determine the assignments in order to reduce bias. NOTE: Unequal randomization is used to allocate subjects into groups at a differential rate", " for example, three subjects may be assigned to a treatment group for every one assigned to the control group. [ICH E6 1.48] See also balanced study. (CDISC glossary)"]}, {"conceptId": "C38114", "definition": "Route of Administration", "preferredTerm": "ROUTE", "submissionValue": "Trial Summary Parameter Test Code", "synonyms": ["The course by which a substance was administered in order to reach the site of action in the body."]}, {"conceptId": "C49696", "definition": "Sex of Participants", "preferredTerm": "SEXPOP", "submissionValue": "Trial Summary Parameter Test Code", "synonyms": ["The specific sex, either male, female, or mixed of the subject group being studied. (NCI)"]}, {"conceptId": "C4