{"codelists": [{"conceptId": "", "definition": "Action Taken with Study Treatment", "extensible": "No", "name": "Action Taken with Study Treatment", "preferredTerm": "Action Taken with Study Treatment", "submissionValue": "Action Taken with Study Treatment", "synonyms": ["CDISC SDTM Action Taken with Study Treatment Terminology"], "terms": [{"conceptId": "C49503", "definition": "An indication that a medication schedule was modified by addition; either by changing the frequency, strength or amount. (NCI)", "preferredTerm": "", "submissionValue": "Action Taken with Study Treatment", "synonyms": ["Dose Increased"]}, {"conceptId": "C49504", "definition": "An indication that a medication schedule was maintained. (NCI)", "preferredTerm": "", "submissionValue": "Action Taken with Study Treatment", "synonyms": ["Dose Not Changed"]}, {"conceptId": "C49505", "definition": "An indication that a medication schedule was modified by subtraction, either by changing the frequency, strength or amount. (NCI)", "preferredTerm": "", "submissionValue": "Action Taken with Study Treatment", "synonyms": ["Dose Reduced"]}, {"conceptId": "C49501", "definition": "An indication that a medication schedule was modified by temporarily terminating a prescribed regimen of medication. (NCI)", "preferredTerm": "", "submissionValue": "Action Taken with Study Treatment", "synonyms": ["Drug Interrupted"]}, {"conceptId": "C49502", "definition": "An indication that a medication schedule was modified through termination of a prescribed regimen of medication. (NCI)", "preferredTerm": "", "submissionValue": "Action Taken with Study Treatment", "synonyms": ["Drug Withdrawn"]}, {"conceptId": "C48660", "definition": "Determination of a value is not relevant in the current context. (NCI)", "preferredTerm": "", "submissionValue": "Action Taken with Study Treatment", "synonyms": ["Not Applicable"]}, {"conceptId": "C17998", "definition": "Not known, not observed, not recorded, or refused. (NCI)", "preferredTerm": "U; Unknown", "submissionValue": "Action Taken with Study Treatment", "synonyms": ["Unknown"]}]}, {"conceptId": "", "definition": "A condition or event that is attributed to the adverse event and is the result or conclusion of the adverse event. (NCI)", "extensible": "No", "name": "Outcome of Event", "preferredTerm": "Outcome of Event", "submissionValue": "Outcome of Event", "synonyms": ["CDISC SDTM Adverse Event Outcome Terminology"], "terms": [{"conceptId": "C48275", "definition": "The termination of life as a result of an adverse event. (NCI)", "preferredTerm": "Grade 5; 5", "submissionValue": "Outcome of Event", "synonyms": ["Death Related to Adverse Event"]}, {"conceptId": "C49494", "definition": "One of the possible results of an adverse event outcome that indicates that the event has not improved or recuperated. (NCI)", "preferredTerm": "", "submissionValue": "Outcome of Event", "synonyms": ["Not Recovered or Not Resolved"]}, {"conceptId": "C49498", "definition": "One of the possible results of an adverse event outcome that indicates that the event has improved or recuperated. (NCI)", "preferredTerm": "", "submissionValue": "Outcome of Event", "synonyms": ["Recovered or Resolved"]}, {"conceptId": "C49495", "definition": "One of the possible results of an adverse event outcome where the subject recuperated but retained pathological conditions resulting from the prior disease or injury. (NCI)", "preferredTerm": "", "submissionValue": "Outcome of Event", "synonyms": ["Recovered or Resolved with Sequelae"]}, {"conceptId": "C49496", "definition": "One of the possible results of an adverse event outcome that indicates that the event is improving. (NCI)", "preferredTerm": "", "submissionValue": "Outcome of Event", "synonyms": ["Recovering or Resolving"]}, {"conceptId": "C17998", "definition": "Not known, not observed, not recorded, or refused. (NCI)", "preferredTerm": "U; Unknown", "submissionValue": "Outcome of Event", "synonyms": ["Unknown"]}]}, {"conceptId": "", "definition": "Subgroups of populations based on age. (NCI)", "extensible": "Yes", "name": "Age Span", "preferredTerm": "Age Span", "submissionValue": "Age Span", "synonyms": ["CDISC SDTM Age Group Terminology"], "terms": [{"conceptId": "C27954", "definition": "A juvenile between the onset of puberty and maturity; in the state of development between puberty and maturity. (NCI)", "preferredTerm": "", "submissionValue": "Age Span", "synonyms": ["Adolescent"]}, {"conceptId": "C49685", "definition": "A person from 18 years to 65 years of age. (NCI)", "preferredTerm": "", "submissionValue": "Age Span", "synonyms": ["Adult 18-65 Years Old"]}, {"conceptId": "C49683", "definition": "A person from 2 years to 11 years of age. (NCI)", "preferredTerm": "", "submissionValue": "Age Span", "synonyms": ["Children 2-11 Years Old"]}, {"conceptId": "C16268", "definition": "An age group comprised by people 65 years of age and older. (NCI)", "preferredTerm": "", "submissionValue": "Age Span", "synonyms": ["Elderly"]}, {"conceptId": "C49641", "definition": "The period of time during which the embryo or fetus is present in the uterus of the female. Also describes the location of the embryo or fetus as being in the uterus in contrast to outside the uterus (ex utero). (NCI)", "preferredTerm": "", "submissionValue": "Age Span", "synonyms": ["In Utero"]}, {"conceptId": "C49643", "definition": "A person from 28 days to 23 months of age. (NCI)", "preferredTerm": "", "submissionValue": "Age Span", "synonyms": ["Infant And Toddler"]}, {"conceptId": "C16731", "definition": "An infant during the first month after birth. (NCI)", "preferredTerm": "", "submissionValue": "Age Span", "synonyms": ["Newborn"]}, {"conceptId": "C49642", "definition": "An infant born prior to completion of the normal gestation period. (NCI)", "preferredTerm": "", "submissionValue": "Age Span", "synonyms": ["Preterm Newborn Infant"]}]}, {"conceptId": "", "definition": "Those units of time that are routinely used to express the age of a person. (NCI)", "extensible": "No", "name": "Age Unit", "preferredTerm": "Age Unit", "submissionValue": "Age Unit", "synonyms": ["CDISC SDTM Age Unit Terminology"], "terms": [{"conceptId": "C25301", "definition": "The time for Earth to make a complete rotation on its axis; ordinarily divided into twenty-four hours. This also refers to a specific day. (NCI)", "preferredTerm": "", "submissionValue": "Age Unit", "synonyms": ["Day"]}, {"conceptId": "C25529", "definition": "A unit measure of time equal to 3,600 seconds or 60 minutes. It is approximately 1/24 of a median day. (NCI)", "preferredTerm": "", "submissionValue": "Age Unit", "synonyms": ["Hour"]}, {"conceptId": "C29846", "definition": "One of the 12 divisions of a year as determined by a calendar. It corresponds to the unit of time of approximately to one cycle of the moon's phases, about 30 days or 4 weeks. (NCI)", "preferredTerm": "", "submissionValue": "Age Unit", "synonyms": ["Month"]}, {"conceptId": "C29844", "definition": "Any period of seven consecutive days. (NCI)", "preferredTerm": "", "submissionValue": "Age Unit", "synonyms": ["Week"]}, {"conceptId": "C29848", "definition": "The period of time that it takes for Earth to make a complete revolution around the sun, approximately 365 days; a specific one year period. (NCI)", "preferredTerm": "", "submissionValue": "Age Unit", "synonyms": ["Year"]}]}, {"conceptId": "", "definition": "A collection of criteria on which subjects are evaluated and that must be met by all study subjects. (NCI)", "extensible": "No", "name": "Category for Inclusion/Exclusion", "preferredTerm": "Category for Inclusion/Exclusion", "submissionValue": "Category for Inclusion/Exclusion", "synonyms": ["CDISC SDTM Category of Inclusion And Or Exclusion Terminology"], "terms": [{"conceptId": "C25370", "definition": "List of characteristics in a protocol, any one of which may exclude a potential subject from participation in a study. (CDISC glossary)", "preferredTerm": "", "submissionValue": "Category for Inclusion/Exclusion", "synonyms": ["Exclusion"]}, {"conceptId": "C25532", "definition": "The criteria in a protocol that prospective subjects must meet to be eligible for participation in a study. NOTE: Exclusion and inclusion criteria define the study population. See also exclusion criteria. (CDISC glossary)", "preferredTerm": "", "submissionValue": "Category for Inclusion/Exclusion", "synonyms": ["Inclusion"]}]}, {"conceptId": "", "definition": "Terms at the highest level of the CDISC system organ class terminology.", "extensible": "No", "name": "CDISC System Organ Class", "preferredTerm": "CDISC System Organ Class", "submissionValue": "CDISC System Organ Class", "synonyms": ["CDISC SDTM System Organ Class Terminology"], "terms": [{"conceptId": "C35814", "definition": "Any deviation from the normal structure or function of the blood or lymphatic system that is manifested by a characteristic set of symptoms and signs. (NCI)", "preferredTerm": "", "submissionValue": "CDISC System Organ Class", "synonyms": ["Hematopoietic and Lymphoid System Disorder"]}, {"conceptId": "C3079", "definition": "Any deviation from the normal structure or function of the cardiac system that is manifested by a characteristic set of symptoms and signs. (NCI)", "preferredTerm": "", "submissionValue": "CDISC System Organ Class", "synonyms": ["Heart Disorder"]}, {"conceptId": "C49399", "definition": "A class of disorders that encompasses conditions resulting from a congenital, familial hereditary trait or genetic abnormality as is manifested by a characteristic set of symptoms and signs. (NCI)", "preferredTerm": "", "submissionValue": "CDISC System Organ Class", "synonyms": ["Congenital, Familial and Genetic Disorder Class"]}, {"conceptId": "C49400", "definition": "Any deviation from the normal structure or function of the ear or labyrinth that is manifested by a characteristic set of symptoms and signs. (NCI)", "preferredTerm": "", "submissionValue": "CDISC System Organ Class", "synonyms": ["Ear and Labyrinth Disorder Class"]}, {"conceptId": "C3009", "definition": "Any deviation from the normal structure or function of the endocrine system that is manifested by a characteristic set of symptoms and signs. (NCI)", "preferredTerm": "", "submissionValue": "CDISC System Organ Class", "synonyms": ["Endocrine Disorder"]}, {"conceptId": "C26767", "definition": "Any deviation from the normal structure or function of the eye that is manifested by a characteristic set of symptoms and signs. (NCI)", "preferredTerm": "", "submissionValue": "CDISC System Organ Class", "synonyms": ["Eye Disorder"]}, {"conceptId": "C2990", "definition": "Diseases of the digestive tract (oral cavity to anus) and associated organs (salivary glands, liver, pancreas). (NCI)", "preferredTerm": "", "submissionValue": "CDISC System Organ Class", "synonyms": ["Gastrointestinal Disorder"]}, {"conceptId": "C49401", "definition": "A class of disorders that encompasses conditions of a general kind that result from a disease, the treatment of disease or administration of treatment at a particular site and are manifested by a characteristic set of symptoms and signs. (NCI)", "preferredTerm": "", "submissionValue": "CDISC System Organ Class", "synonyms": ["General Disorders and Administration Site Conditions Class"]}, {"conceptId": "C3959", "definition": "Any deviation from the normal structure or function of the liver or biliary tract that is manifested by a characteristic set of symptoms and signs. (NCI)", "preferredTerm": "", "submissionValue": "CDISC System Organ Class", "synonyms": ["Liver and Biliary Tract Disorder"]}, {"conceptId": "C3507", "definition": "A disorder resulting from an abnormality in the immune system. -- 2003 (NCI)", "preferredTerm": "", "submissionValue": "CDISC System Organ Class", "synonyms": ["Immune System Disorder"]}, {"conceptId": "C26726", "definition": "A disorder resulting from the presence and activity of a microbial, viral, or parasitic agent. It can be transmitted by direct or indirect contact. -- 2003 (NCI)", "preferredTerm": "", "submissionValue": "CDISC System Organ Class", "synonyms": ["Infectious Disorder"]}, {"conceptId": "C49402", "definition": "A class of disorders that encompasses conditions resulting from an injury, poisoning or procedure. (NCI)", "preferredTerm": "", "submissionValue": "CDISC System Organ Class", "synonyms": ["Injury, Poisoning and Procedural Complication Class"]}, {"conceptId": "C41198", "definition": "The act or process of a systematic and thorough examination; research, study; the process of inquiring into or following up, intended to develop facts. (NCI)", "preferredTerm": "", "submissionValue": "CDISC System Organ Class", "synonyms": ["Investigation"]}, {"conceptId": "C49403", "definition": "A class of disorders that encompasses conditions occurring as a result of metabolic dysfunction or deviation from the normal nutritional requirements. (NCI)", "preferredTerm": "", "submissionValue": "CDISC System Organ Class", "synonyms": ["Metabolism and Nutrition Disorder Class"]}, {"conceptId": "C27574", "definition": "Any deviation from the normal structure or function of the musculoskeletal or connective tissue that is manifested by a characteristic set of symptoms and signs. (NCI)", "preferredTerm": "", "submissionValue": "CDISC System Organ Class", "synonyms": ["Connective and Soft Tissue Disorder"]}, {"conceptId": "C3262", "definition": "An abnormal tissue growth resulted from uncontrolled cell proliferation. Benign neoplastic cells resemble normal cells without exhibiting significant cytologic atypia, while malignant ones exhibit overt signs such as dysplastic features, atypical mitotic figures, necrosis, nuclear pleomorphism, and anaplasia. Representative examples of benign neoplasms include papillomas, cystadenomas, and lipomas; malignant neoplasms include carcinomas, sarcomas, lymphomas, and leukemias. -- 2004 (NCI)", "preferredTerm": "", "submissionValue": "CDISC System Organ Class", "synonyms": ["Neoplasm"]}, {"conceptId": "C26835", "definition": "Any deviation from the normal structure or function of the nervous system that is manifested by a characteristic set of symptoms and signs. (NCI)", "preferredTerm": "", "submissionValue": "CDISC System Organ Class", "synonyms": ["Nervous System Disorder"]}, {"conceptId": "C49404", "definition": "A class of conditions associated with pregnancy, puerperium and perinatal status. (NCI)", "preferredTerm": "", "submissionValue": "CDISC System Organ Class", "synonyms": ["Pregnancy, Puerperium and Perinatal Condition Class"]}, {"conceptId": "C2893", "definition": "Any deviation from the normal structure or function of the brain and a psychiatric condition, that results in an impairment of an individual's normal cognitive, emotional, or behavioral functioning, and is caused by physiological or psychosocial factors. (NCI)", "preferredTerm": "", "submissionValue": "CDISC System Organ Class", "synonyms": ["Psychiatric Disorder"]}, {"conceptId": "C3430", "definition": "Disorders of any part of the urologic system. (NCI)", "preferredTerm": "", "submissionValue": "CDISC System Organ Class", "synonyms": ["Urinary System Disorder"]}, {"conceptId": "C49405", "definition": "Any deviation from the normal structure or function of the reproductive system or breast that is manifested by a characteristic set of symptoms and signs. (NCI)", "preferredTerm": "", "submissionValue": "CDISC System Organ Class", "synonyms": ["Reproductive System and Breast Disorder Class"]}, {"conceptId": "C27669", "definition": "Any deviation from the normal structure or function of the respiratory system including the thorax and mediastinum that is manifested by a characteristic set of symptoms and signs. (NCI)", "preferredTerm": "", "submissionValue": "CDISC System Organ Class", "synonyms": ["Respiratory and Thoracic Disorder"]}, {"conceptId": "C3371", "definition": "Any deviation from the normal structure or function of the skin or subcutaneous tissue that is manifested by a characteristic set of symptoms and signs.(NCI)", "preferredTerm": "", "submissionValue": "CDISC System Organ Class", "synonyms": ["Skin Disorder"]}, {"conceptId": "C20188", "definition": "A set of concepts that results from or is influenced by criteria or activities associated with the social environment of a person. (NCI)", "preferredTerm": "", "submissionValue": "CDISC System Organ Class", "synonyms": ["Social Circumstances"]}, {"conceptId": "C25218", "definition": "A particular course of action intended to achieve a result. (NCI)", "preferredTerm": "", "submissionValue": "CDISC System Organ Class", "synonyms": ["Procedure"]}, {"conceptId": "C35117", "definition": "Any deviation from the normal structure or function of the vascular system that is manifested by a characteristic set of symptoms and signs. (NCI)", "preferredTerm": "", "submissionValue": "CDISC System Organ Class", "synonyms": ["Vascular Disorder"]}]}, {"conceptId": "", "definition": "A standard terminology developed to report adverse events occurring in cancer clinical trials. Common terminology criteria for adverse events (CTCAE) are used in study adverse event summaries and Investigational New Drug reports to the Food and Drug Administration. The CTCAE contain a grading scale for each adverse event term representing the severity of the event. (NCI)", "extensible": "No", "name": "Common Terminology Criteria for Adverse Events", "preferredTerm": "Common Terminology Criteria for Adverse Events", "submissionValue": "Common Terminology Criteria for Adverse Events", "synonyms": ["CDISC SDTM Common Terminology Criteria for Adverse Event Grade Terminology"], "terms": [{"conceptId": "C41338", "definition": "A type of adverse event that is usually transient and may require only minimal treatment or therapeutic intervention. The event does not generally interfere with usual activities of daily living.", "preferredTerm": "Grade 1; 1", "submissionValue": "Common Terminology Criteria for Adverse Events", "synonyms": ["Mild Adverse Event"]}, {"conceptId": "C41339", "definition": "A type of adverse event that is usually alleviated with additional specific therapeutic intervention. The event interferes with usual activities of daily living, causing discomfort but poses no significant or permanent risk of harm to the research participant.", "preferredTerm": "Grade 2; 2", "submissionValue": "Common Terminology Criteria for Adverse Events", "synonyms": ["Moderate Adverse Event"]}, {"conceptId": "C41340", "definition": "A type of adverse event that interrupts usual activities of daily living, or significantly affects clinical status, or may require intensive therapeutic intervention.", "preferredTerm": "Grade 3; 3", "submissionValue": "Common Terminology Criteria for Adverse Events", "synonyms": ["Severe Adverse Event"]}, {"conceptId": "C41337", "definition": "An adverse event, and/or its immediate sequelae, which is associated with an imminent risk of death or which is associated with physical or mental disabilities that affect or limit the ability of a person to perform activities of daily living (eating, ambulation, toileting, etc.) See NCI Common Terminology Criteria for Adverse Events.", "preferredTerm": "Grade 4; 4", "submissionValue": "Common Terminology Criteria for Adverse Events", "synonyms": ["Life Threatening or Disabling Adverse Event"]}, {"conceptId": "C48275", "definition": "The termination of life as a result of an adverse event. (NCI)", "preferredTerm": "Grade 5; 5", "submissionValue": "Common Terminology Criteria for Adverse Events", "synonyms": ["Death Related to Adverse Event"]}]}, {"conceptId": "", "definition": "The version 4.0 standard terminology developed to report adverse events occurring in cancer clinical trials. Common terminology criteria for adverse events (CTCAE) are used to study adverse event summaries and Investigational New Drug reports to the Food and Drug Administration. The CTCAE contain a grading scale for each adverse event term representing the severity of the event. (NCI)", "extensible": "No", "name": "Common Terminology Criteria for Adverse Events V4.0", "preferredTerm": "Common Terminology Criteria for Adverse Events V4.0", "submissionValue": "Common Terminology Criteria for Adverse Events V4.0", "synonyms": ["CDISC SDTM Common Terminology Criteria for Adverse Event Grade Terminology Version 4.0"], "terms": [{"conceptId": "C75533", "definition": "Grade 0 is universally defined as absence of Adverse Events or within normal limits or values.", "preferredTerm": "ABSENT; Grade 0: 0", "submissionValue": "Common Terminology Criteria for Adverse Events V4.0", "synonyms": ["Absent Adverse Event"]}, {"conceptId": "C84263", "definition": "An adverse event that is asymptomatic; or involves mild or minor symptoms; or is of marginal clinical relevance; or consists of clinical or diagnostic observations alone; or for which intervention is not indicated; or for which only non-prescription intervention is indicated.", "preferredTerm": "MILD; Grade 1; 1", "submissionValue": "Common Terminology Criteria for Adverse Events V4.0", "synonyms": ["Mild Adverse Event"]}, {"conceptId": "C84264", "definition": "An adverse event for which only minimal, local, or noninvasive intervention (e.g. packing, cautery) is indicated; or that limits instrumental activities of daily living (ADLs, e.g., shopping, laundry, transportation, or ability to conduct finances).", "preferredTerm": "MODERATE; Grade 2; 2", "submissionValue": "Common Terminology Criteria for Adverse Events V4.0", "synonyms": ["Moderate Adverse Event"]}, {"conceptId": "C84265", "definition": "An adverse event that is medically significant but not life-threatening; or for which inpatient care or prolongation of hospitalization are indicated; or that is an important medical event that does not result in hospitalization, but may jeopardize the patient or may require intervention either to prevent hospitalization, to prevent the AE from becoming life-threatening or causing death; or that is disabling; or that results in persistent or significant disability, incapacity, or limitation of self care activities of daily living (ADLs, e.g., getting in and out of bed, dressing, eating, getting around inside, bathing, or using the toilet).", "preferredTerm": "SEVERE; Grade 3; 3", "submissionValue": "Common Terminology Criteria for Adverse Events V4.0", "synonyms": ["Severe Adverse Event"]}, {"conceptId": "C84266", "definition": "An adverse event that has life-threatening consequences; for which urgent intervention is indicated; that puts the patient at risk of death at the time of the event if immediate intervention is not undertaken; or that causes blindness or deafness.", "preferredTerm": "LIFE THREATENING; Grade 4; 4", "submissionValue": "Common Terminology Criteria for Adverse Events V4.0", "synonyms": ["Life Threatening Adverse Event"]}, {"conceptId": "C48275", "definition": "The termination of life as a result of an adverse event. (NCI)", "preferredTerm": "FATAL; Grade 5; 5", "submissionValue": "Common Terminology Criteria for Adverse Events V4.0", "synonyms": ["Death Related to Adverse Event"]}]}, {"conceptId": "", "definition": "Comparator against which the study treatment is evaluated (e.g., concurrent (placebo, no treatment, dose-response, active), external (historical, published literature).", "extensible": "Yes", "name": "Control Type", "preferredTerm": "Control Type; Type of Control", "submissionValue": "Control Type", "synonyms": ["CDISC SDTM Control Type Terminology"], "terms": [{"conceptId": "C49649", "definition": "A type of control, which has a demonstrated effect, administered as a comparator, to subjects in a clinical trial. [From ICH E10].", "preferredTerm": "", "submissionValue": "Control Type", "synonyms": ["Active Control"]}, {"conceptId": "C41132", "definition": "No person or thing, nobody, not any. (NCI)", "preferredTerm": "", "submissionValue": "Control Type", "synonyms": ["None"]}, {"conceptId": "C49648", "definition": "Use of an inactive compound identical in appearance to drug or treatment being tested in experimental research, which may or may not be known to the physician and/or subject, administered to distinguish between drug action and suggestive effect of the drug or treatment under study. The effects of the active drug or treatment are compared to the effects of the placebo. (NCI)", "preferredTerm": "", "submissionValue": "Control Type", "synonyms": ["Placebo Control"]}]}, {"conceptId": "", "definition": "A collective generic term that refers here to a wide variety of dependencies, areas of special sovereignty, uninhabited islands, and other entities in addition to the traditional countries or independent states. (NCI)", "extensible": "No", "name": "Country", "preferredTerm": "Country", "submissionValue": "Country", "synonyms": ["CDISC SDTM Country Terminology"], "terms": [{"conceptId": "C17884", "definition": "Island in the Caribbean Sea, north of Venezuela.", "preferredTerm": "ARUBA", "submissionValue": "Country", "synonyms": ["Aruba"]}, {"conceptId": "C16267", "definition": "A country in Southern Asia, north and west of Pakistan, east of Iran.", "preferredTerm": "AFGHANISTAN", "submissionValue": "Country", "synonyms": ["Afghanistan"]}, {"conceptId": "C16292", "definition": "A country in Southern Africa, bordering the South Atlantic Ocean, between Namibia and Democratic Republic of the Congo.", "preferredTerm": "ANGOLA", "submissionValue": "Country", "synonyms": ["Angola"]}, {"conceptId": "C20133", "definition": "An island in the Caribbean Sea, east of Puerto Rico.", "preferredTerm": "ANGUILLA", "submissionValue": "Country", "synonyms": ["Anguilla"]}, {"conceptId": "C44481", "definition": "An archipelago in the Baltic Sea at the entrance to the Gulf of Bothnia between Sweden and Finland.", "preferredTerm": "ALAND ISLANDS", "submissionValue": "Country", "synonyms": ["Aland Islands"]}, {"conceptId": "C16271", "definition": "A country in Southeastern Europe, bordering the Adriatic Sea and Ionian Sea, between Greece and Serbia and Montenegro.", "preferredTerm": "ALBANIA", "submissionValue": "Country", "synonyms": ["Albania"]}, {"conceptId": "C16289", "definition": "A country in Southwestern Europe, between France and Spain.", "preferredTerm": "ANDORRA", "submissionValue": "Country", "synonyms": ["Andorra"]}, {"conceptId": "C16904", "definition": "A country in the Caribbean, comprising two island groups in the Caribbean Sea - one includes Curacao and Bonaire north of Venezuela; the other is east of the Virgin Islands.", "preferredTerm": "NETHERLANDS ANTILLES", "submissionValue": "Country", "synonyms": ["Netherlands Antilles"]}, {"conceptId": "C17232", "definition": "A country in the Middle East, bordering the Gulf of Oman and the Persian Gulf, between Oman and Saudi Arabia.", "preferredTerm": "UNITED ARAB EMIRATES", "submissionValue": "Country", "synonyms": ["United Arab Emirates"]}, {"conceptId": "C16305", "definition": "A country in Southern South America, bordering the South Atlantic Ocean, between Chile and Uruguay.", "preferredTerm": "ARGENTINA", "submissionValue": "Country", "synonyms": ["Argentina"]}, {"conceptId": "C16306", "definition": "A country in Southwestern Asia, east of Turkey.", "preferredTerm": "ARMENIA", "submissionValue": "Country", "synonyms": ["Armenia"]}, {"conceptId": "C17739", "definition": "A group of islands in the South Pacific Ocean, about half way between Hawaii and New Zealand.", "preferredTerm": "AMERICAN SAMOA", "submissionValue": "Country", "synonyms": ["American Samoa"]}, {"conceptId": "C18007", "definition": "The continent lying mostly south of the Antarctic Circle.", "preferredTerm": "ANTARCTICA", "submissionValue": "Country", "synonyms": ["Antarctica"]}, {"conceptId": "C20105", "definition": "Islands in the southern Indian Ocean, south of Africa, about equidistant between Africa, Antarctica, and Australia.", "preferredTerm": "FRENCH SOUTHERN TERRITORIES", "submissionValue": "Country", "synonyms": ["French Southern Territories"]}, {"conceptId": "C16303", "definition": "Islands between the Caribbean Sea and the North Atlantic Ocean, east-southeast of Puerto Rico.", "preferredTerm": "ANTIGUA AND BARBUDA", "submissionValue": "Country", "synonyms": ["Antigua and Barbuda"]}, {"conceptId": "C16311", "definition": "The continent between the Indian Ocean and the South Pacific Ocean.", "preferredTerm": "AUSTRALIA", "submissionValue": "Country", "synonyms": ["Australia"]}, {"conceptId": "C16312", "definition": "A country in Central Europe, north of Italy and Slovenia.", "preferredTerm": "AUSTRIA", "submissionValue": "Country", "synonyms": ["Austria"]}, {"conceptId": "C16316", "definition": "A country in Southwestern Asia, bordering the Caspian Sea, between Iran and Russia.", "preferredTerm": "AZERBAIJAN", "submissionValue": "Country", "synonyms": ["Azerbaijan"]}, {"conceptId": "C16371", "definition": "A country in Central Africa, east of Democratic Republic of the Congo.", "preferredTerm": "BURUNDI", "submissionValue": "Country", "synonyms": ["Burundi"]}, {"conceptId": "C16329", "definition": "A country in Western Europe, bordering the North Sea, between France and the Netherlands.", "preferredTerm": "BELGIUM", "submissionValue": "Country", "synonyms": ["Belgium"]}, {"conceptId": "C16333", "definition": "A country in Western Africa, bordering the North Atlantic Ocean, between Nigeria and Togo.", "preferredTerm": "BENIN REPUBLIC", "submissionValue": "Country", "synonyms": ["Benin Republic"]}, {"conceptId": "C16369", "definition": "A country in Western Africa, north of Ghana.", "preferredTerm": "BURKINA FASO", "submissionValue": "Country", "synonyms": ["Burkina Faso"]}, {"conceptId": "C16323", "definition": "A country in Southern Asia, bordering the Bay of Bengal, between Burma and India.", "preferredTerm": "BANGLADESH", "submissionValue": "Country", "synonyms": ["Bangladesh"]}, {"conceptId": "C16368", "definition": "A country in Southeastern Europe, bordering the Black Sea, between Romania and Turkey.", "preferredTerm": "BULGARIA", "submissionValue": "Country", "synonyms": ["Bulgaria"]}, {"conceptId": "C16322", "definition": "An archipelago in the Persian Gulf, east of Saudi Arabia.", "preferredTerm": "BAHRAIN", "submissionValue": "Country", "synonyms": ["Bahrain"]}, {"conceptId": "C16321", "definition": "A chain of islands in the North Atlantic Ocean, southeast of Florida.", "preferredTerm": "BAHAMAS", "submissionValue": "Country", "synonyms": ["Bahamas"]}, {"conceptId": "C16361", "definition": "A country in Southeastern Europe, bordering the Adriatic Sea and Croatia.", "preferredTerm": "BOSNIA-HERZEGOVINA", "submissionValue": "Country", "synonyms": ["Bosnia-Herzegovina"]}, {"conceptId": "C83609", "definition": "An island in the Caribbean sea, between Saint Martin and Saint Kitts and Nevis.", "preferredTerm": "SAINT BARTHELEMY", "submissionValue": "Country", "synonyms": ["Saint Barthelemy"]}, {"conceptId": "C16372", "definition": "A country in Eastern Europe, east of Poland.", "preferredTerm": "BELARUS", "submissionValue": "Country", "synonyms": ["Belarus"]}, {"conceptId": "C16331", "definition": "A country in Central America, bordering the Caribbean Sea, between Guatemala and Mexico.", "preferredTerm": "BELIZE", "submissionValue": "Country", "synonyms": ["Belize"]}, {"conceptId": "C16334", "definition": "A group of islands in the North Atlantic Ocean, east of South Carolina.", "preferredTerm": "BERMUDA", "submissionValue": "Country", "synonyms": ["Bermuda"]}, {"conceptId": "C16359", "definition": "A country in Central South America, southwest of Brazil.", "preferredTerm": "BOLIVIA", "submissionValue": "Country", "synonyms": ["Bolivia"]}, {"conceptId": "C16364", "definition": "A country in Eastern South America, bordering the Atlantic Ocean.", "preferredTerm": "BRAZIL", "submissionValue": "Country", "synonyms": ["Brazil"]}, {"conceptId": "C16324", "definition": "An island between the Caribbean Sea and the North Atlantic Ocean, northeast of Venezuela.", "preferredTerm": "BARBADOS", "submissionValue": "Country", "synonyms": ["Barbados"]}, {"conceptId": "C16367", "definition": "A country in Southeastern Asia, bordering the South China Sea and Malaysia.", "preferredTerm": "BRUNEI", "submissionValue": "Country", "synonyms": ["Brunei Darussalam"]}, {"conceptId": "C16336", "definition": "A country in Southern Asia, between China and India.", "preferredTerm": "BHUTAN", "submissionValue": "Country", "synonyms": ["Bhutan"]}, {"conceptId": "C20104", "definition": "An island in the South Atlantic Ocean, south-southwest of the Cape of Good Hope (South Africa).", "preferredTerm": "BOUVET ISLAND", "submissionValue": "Country", "synonyms": ["Bouvet Island"]}, {"conceptId": "C16363", "definition": "A country in Southern Africa, north of South Africa.", "preferredTerm": "BOTSWANA", "submissionValue": "Country", "synonyms": ["Botswana"]}, {"conceptId": "C16409", "definition": "A country in Central Africa, north of Democratic Republic of the Congo.", "preferredTerm": "CENTRAL AFRICAN REPUBLIC", "submissionValue": "Country", "synonyms": ["Central African Republic"]}, {"conceptId": "C16380", "definition": "A country in Northern North America, bordering the North Atlantic Ocean on the east, North Pacific Ocean on the west, and the Arctic Ocean on the north, north of the conterminous US.", "preferredTerm": "CANADA", "submissionValue": "Country", "synonyms": ["Canada"]}, {"conceptId": "C16445", "definition": "A group of islands in the Indian Ocean, south of Indonesia, about halfway from Australia to Sri Lanka.", "preferredTerm": "COCOS (KEELING) ISLANDS", "submissionValue": "Country", "synonyms": ["Cocos (Keeling) Islands"]}, {"conceptId": "C17181", "definition": "A country in Central Europe, east of France, north of Italy.", "preferredTerm": "SWITZERLAND", "submissionValue": "Country", "synonyms": ["Switzerland"]}, {"conceptId": "C16427", "definition": "A country in Southern South America, bordering the South Atlantic Ocean and South Pacific Ocean, between Argentina and Peru.", "preferredTerm": "CHILE", "submissionValue": "Country", "synonyms": ["Chile"]}, {"conceptId": "C16428", "definition": "A country in Eastern Asia, bordering the East China Sea, Korea Bay, Yellow Sea, and South China Sea, between North Korea and Vietnam.", "preferredTerm": "CHINA", "submissionValue": "Country", "synonyms": ["China"]}, {"conceptId": "C16762", "definition": "A country in Western Africa, bordering the North Atlantic Ocean, between Ghana and Liberia.", "preferredTerm": "COTE D'IVOIRE", "submissionValue": "Country", "synonyms": ["Cote d'Ivoire"]}, {"conceptId": "C16379", "definition": "A country in Western Africa, bordering the Bight of Biafra, between Equatorial Guinea and Nigeria.", "preferredTerm": "CAMEROON", "submissionValue": "Country", "synonyms": ["Cameroon"]}, {"conceptId": "C17266", "definition": "A country in Central Africa, northeast of Angola.", "preferredTerm": "DEMOCRATIC REPUBLIC OF THE CONGO", "submissionValue": "Country", "synonyms": ["Democratic Republic of the Congo"]}, {"conceptId": "C16467", "definition": "A country in Western Africa, bordering the South Atlantic Ocean, between Angola and Gabon.", "preferredTerm": "CONGO", "submissionValue": "Country", "synonyms": ["Congo"]}, {"conceptId": "C16469", "definition": "A group of islands in the South Pacific Ocean, about one-half of the way from Hawaii to New Zealand.", "preferredTerm": "COOK ISLANDS", "submissionValue": "Country", "synonyms": ["Cook Islands"]}, {"conceptId": "C16449", "definition": "A country in Northern South America, bordering the Caribbean Sea, between Panama and Venezuela, and bordering the North Pacific Ocean, between Ecuador and Panama.", "preferredTerm": "COLOMBIA", "submissionValue": "Country", "synonyms": ["Colombia"]}, {"conceptId": "C16458", "definition": "A group of islands in the Mozambique Channel, about two-thirds of the way between northern Madagascar and northern Mozambique.", "preferredTerm": "COMOROS", "submissionValue": "Country", "synonyms": ["Comoros"]}, {"conceptId": "C16382", "definition": "A group of islands in the North Atlantic Ocean, west of Senegal.", "preferredTerm": "CAPE VERDE", "submissionValue": "Country", "synonyms": ["Cape Verde"]}, {"conceptId": "C16470", "definition": "A country in Central America, bordering both the Caribbean Sea and the North Pacific Ocean, between Nicaragua and Panama.", "preferredTerm": "COSTA RICA", "submissionValue": "Country", "synonyms": ["Costa Rica"]}, {"conceptId": "C16477", "definition": "An island between the Caribbean Sea and the North Atlantic Ocean, 150 km south of Key West, Florida.", "preferredTerm": "CUBA", "submissionValue": "Country", "synonyms": ["Cuba"]}, {"conceptId": "C44482", "definition": "An Australian-administered island in the eastern Indian Ocean south of Java, Indonesia.", "preferredTerm": "CHRISTMAS ISLAND", "submissionValue": "Country", "synonyms": ["Christmas Island"]}, {"conceptId": "C16391", "definition": "An island group in the Caribbean Sea, nearly one-half of the way from Cuba to Honduras.", "preferredTerm": "CAYMAN ISLANDS", "submissionValue": "Country", "synonyms": ["Cayman Islands"]}, {"conceptId": "C16480", "definition": "An island in the Mediterranean Sea, south of Turkey.", "preferredTerm": "CYPRUS", "submissionValue": "Country", "synonyms": ["Cyprus"]}, {"conceptId": "C17668", "definition": "A country in Central Europe, southeast of Germany.", "preferredTerm": "CZECH REPUBLIC", "submissionValue": "Country", "synonyms": ["Czech Republic"]}, {"conceptId": "C16636", "definition": "A country in Central Europe, bordering the Baltic Sea and the North Sea, between the Netherlands and Poland, south of Denmark.", "preferredTerm": "GERMANY", "submissionValue": "Country", "synonyms": ["Germany"]}, {"conceptId": "C16506", "definition": "A country in Eastern Africa, bordering the Gulf of Aden and the Red Sea, between Eritrea and Somalia.", "preferredTerm": "DJIBOUTI", "submissionValue": "Country", "synonyms": ["Djibouti"]}, {"conceptId": "C16519", "definition": "An island between the Caribbean Sea and the North Atlantic Ocean, about one-half of the way from Puerto Rico to Trinidad and Tobago.", "preferredTerm": "DOMINICA", "submissionValue": "Country", "synonyms": ["Dominica"]}, {"conceptId": "C16496", "definition": "A country in Northern Europe, bordering the Baltic Sea and the North Sea, on a peninsula north of Germany (Jutland); also includes two major islands (Sjaelland and Fyn).", "preferredTerm": "DENMARK", "submissionValue": "Country", "synonyms": ["Denmark"]}, {"conceptId": "C16520", "definition": "A country comprising the eastern two-thirds of the island of Hispaniola, between the Caribbean Sea and the North Atlantic Ocean, east of Haiti.", "preferredTerm": "DOMINICAN REPUBLIC", "submissionValue": "Country", "synonyms": ["Dominican Republic"]}, {"conceptId": "C16274", "definition": "A country in Northern Africa, bordering the Mediterranean Sea, between Morocco and Tunisia.", "preferredTerm": "ALGERIA", "submissionValue": "Country", "synonyms": ["Algeria"]}, {"conceptId": "C16528", "definition": "A country in Western South America, bordering the Pacific Ocean at the Equator, between Colombia and Peru.", "preferredTerm": "ECUADOR", "submissionValue": "Country", "synonyms": ["Ecuador"]}, {"conceptId": "C16530", "definition": "A country in Northern Africa, bordering the Mediterranean Sea, between Libya and the Gaza Strip.", "preferredTerm": "EGYPT", "submissionValue": "Country", "synonyms": ["Egypt"]}, {"conceptId": "C16558", "definition": "A country in Eastern Africa, bordering the Red Sea, between Djibouti and Sudan.", "preferredTerm": "ERITREA", "submissionValue": "Country", "synonyms": ["Eritrea"]}, {"conceptId": "C20113", "definition": "A country in Northern Africa, bordering the North Atlantic Ocean, between Mauritania and Morocco.", "preferredTerm": "WESTERN SAHARA", "submissionValue": "Country", "synonyms": ["Western Sahara"]}, {"conceptId": "C17152", "definition": "A country in Southwestern Europe, bordering the Bay of Biscay, Mediterranean Sea, North Atlantic Ocean, and Pyrenees Mountains, southwest of France.", "preferredTerm": "SPAIN", "submissionValue": "Country", "synonyms": ["Spain"]}, {"conceptId": "C16562", "definition": "A country in Eastern Europe, bordering the Baltic Sea and Gulf of Finland, between Latvia and Russia.", "preferredTerm": "ESTONIA", "submissionValue": "Country", "synonyms": ["Estonia"]}, {"conceptId": "C16563", "definition": "A country in Eastern Africa, west of Somalia.", "preferredTerm": "ETHIOPIA", "submissionValue": "Country", "synonyms": ["Ethiopia"]}, {"conceptId": "C16584", "definition": "A country in Northern Europe, bordering the Baltic Sea, Gulf of Bothnia, and Gulf of Finland, between Sweden and Russia.", "preferredTerm": "FINLAND", "submissionValue": "Country", "synonyms": ["Finland"]}, {"conceptId": "C16582", "definition": "An island group in the South Pacific Ocean, about two-thirds of the way from Hawaii to New Zealand.", "preferredTerm": "FIJI", "submissionValue": "Country", "synonyms": ["Fiji"]}, {"conceptId": "C17954", "definition": "Islands in the South Atlantic Ocean, east of southern Argentina.", "preferredTerm": "FALKLAND ISLANDS", "submissionValue": "Country", "synonyms": ["Falkland Islands"]}, {"conceptId": "C16592", "definition": "A country in Western Europe, bordering the Bay of Biscay and English Channel, between Belgium and Spain, southeast of the UK; bordering the Mediterranean Sea, between Italy and Spain.", "preferredTerm": "FRANCE", "submissionValue": "Country", "synonyms": ["France"]}, {"conceptId": "C16573", "definition": "An island group between the Norwegian Sea and the North Atlantic Ocean, about one-half of the way from Iceland to Norway.", "preferredTerm": "FAROE ISLANDS", "submissionValue": "Country", "synonyms": ["Faroe Islands"]}, {"conceptId": "C17881", "definition": "An island group in the North Pacific Ocean, about three-quarters of the way from Hawaii to Indonesia.", "preferredTerm": "MICRONESIA, FEDERATED STATES OF", "submissionValue": "Country", "synonyms": ["Federated States of Micronesia"]}, {"conceptId": "C16596", "definition": "A country in Western Africa, bordering the Atlantic Ocean at the Equator, between Republic of the Congo and Equatorial Guinea.", "preferredTerm": "GABON", "submissionValue": "Country", "synonyms": ["Gabon"]}, {"conceptId": "C17233", "definition": "A country in Western Europe, comprising islands, including the northern one-sixth of the island of Ireland, between the North Atlantic Ocean and the North Sea, northwest of France.", "preferredTerm": "UNITED KINGDOM", "submissionValue": "Country", "synonyms": ["United Kingdom"]}, {"conceptId": "C16634", "definition": "A country in Southwestern Asia, bordering the Black Sea, between Turkey and Russia.", "preferredTerm": "GEORGIA", "submissionValue": "Country", "synonyms": ["Georgia"]}, {"conceptId": "C64375", "definition": "The island of Guernsey and the other Channel Islands represent the last remnants of the medieval Dukedom of Normandy, which held sway in both France and England. Guernsey is a British crown dependency, but is not part of the UK.", "preferredTerm": "GUERNSEY", "submissionValue": "Country", "synonyms": ["Guernsey"]}, {"conceptId": "C26330", "definition": "A country in Western Africa, bordering the Gulf of Guinea, between Cote d'Ivoire and Togo.", "preferredTerm": "GHANA", "submissionValue": "Country", "synonyms": ["Ghana"]}, {"conceptId": "C16638", "definition": "A dependency in Southwestern Europe, bordering the Strait of Gibraltar, on the southern coast of Spain.", "preferredTerm": "GIBRALTAR", "submissionValue": "Country", "synonyms": ["Gibraltar"]}, {"conceptId": "C16655", "definition": "A country in Western Africa, bordering the North Atlantic Ocean, between Guinea-Bissau and Sierra Leone.", "preferredTerm": "GUINEA", "submissionValue": "Country", "synonyms": ["Guinea"]}, {"conceptId": "C16651", "definition": "Islands in the eastern Caribbean Sea, southeast of Puerto Rico.", "preferredTerm": "GUADELOUPE", "submissionValue": "Country", "synonyms": ["Guadeloupe"]}, {"conceptId": "C16598", "definition": "A country in Western Africa, bordering the North Atlantic Ocean and Senegal.", "preferredTerm": "GAMBIA", "submissionValue": "Country", "synonyms": ["Gambia"]}, {"conceptId": "C16656", "definition": "A country in Western Africa, bordering the North Atlantic Ocean, between Guinea and Senegal.", "preferredTerm": "GUINEA-BISSAU", "submissionValue": "Country", "synonyms": ["Guinea-Bissau"]}, {"conceptId": "C16557", "definition": "A country in Western Africa, bordering the Bight of Biafra, between Cameroon and Gabon; composed of a mainland portion and five inhabited islands.", "preferredTerm": "EQUATORIAL GUINEA", "submissionValue": "Country", "synonyms": ["Equatorial Guinea"]}, {"conceptId": "C16645", "definition": "A country in Southern Europe, bordering the Aegean Sea, Ionian Sea, and the Mediterranean Sea, between Albania and Turkey.", "preferredTerm": "GREECE", "submissionValue": "Country", "synonyms": ["Greece"]}, {"conceptId": "C16647", "definition": "An island between the Caribbean Sea and Atlantic Ocean, north of Trinidad and Tobago.", "preferredTerm": "GRENADA", "submissionValue": "Country", "synonyms": ["Grenada"]}, {"conceptId": "C16646", "definition": "An island between the Arctic Ocean and the North Atlantic Ocean, northeast of Canada.", "preferredTerm": "GREENLAND", "submissionValue": "Country", "synonyms": ["Greenland"]}, {"conceptId": "C16654", "definition": "A country in Central America, bordering the Caribbean Sea, between Honduras and Belize and bordering the North Pacific Ocean, between El Salvador and Mexico.", "preferredTerm": "GUATEMALA", "submissionValue": "Country", "synonyms": ["Guatemala"]}, {"conceptId": "C16593", "definition": "A country in Northern South America, bordering the North Atlantic Ocean, between Brazil and Suriname.", "preferredTerm": "FRENCH GUIANA", "submissionValue": "Country", "synonyms": ["French Guiana"]}, {"conceptId": "C16652", "definition": "Island in the North Pacific Ocean, about three-quarters of the way from Hawaii to the Philippines.", "preferredTerm": "GUAM", "submissionValue": "Country", "synonyms": ["Guam"]}, {"conceptId": "C16657", "definition": "A country in Northern South America, bordering the North Atlantic Ocean, between Suriname and Venezuela.", "preferredTerm": "GUYANA", "submissionValue": "Country", "synonyms": ["Guyana"]}, {"conceptId": "C16695", "definition": "A special administrative region of China, bordering the South China Sea and China.", "preferredTerm": "HKG; HONG KONG", "submissionValue": "Country", "synonyms": ["Hong Kong"]}, {"conceptId": "C20106", "definition": "Islands in the Indian Ocean, about two-thirds of the way from Madagascar to Antarctica.", "preferredTerm": "HEARD ISLAND AND MCDONALD ISLANDS", "submissionValue": "Country", "synonyms": ["Heard Island and McDonald Islands"]}, {"conceptId": "C16694", "definition": "A country in Central America, bordering the Caribbean Sea, between Guatemala and Nicaragua and bordering the North Pacific Ocean, between El Salvador and Nicaragua.", "preferredTerm": "HONDURAS", "submissionValue": "Country", "synonyms": ["Honduras"]}, {"conceptId": "C16474", "definition": "A country in Southeastern Europe, bordering the Adriatic Sea, between Bosnia and Herzegovina and Slovenia.", "preferredTerm": "CROATIA", "submissionValue": "Country", "synonyms": ["Croatia"]}, {"conceptId": "C16660", "definition": "A country comprising the western one-third of the island of Hispaniola, between the Caribbean Sea and the North Atlantic Ocean, west of the Dominican Republic.", "preferredTerm": "HAITI", "submissionValue": "Country", "synonyms": ["Haiti"]}, {"conceptId": "C16699", "definition": "A country in Central Europe, northwest of Romania.", "preferredTerm": "HUNGARY", "submissionValue": "Country", "synonyms": ["Hungary"]}, {"conceptId": "C16728", "definition": "A country in Southeastern Asia, comprising the archipelago between the Indian Ocean and the Pacific Ocean.", "preferredTerm": "INDONESIA", "submissionValue": "Country", "synonyms": ["Indonesia"]}, {"conceptId": "C16727", "definition": "A country in Southern Asia, bordering the Arabian Sea and the Bay of Bengal, between Burma and Pakistan.", "preferredTerm": "INDIA", "submissionValue": "Country", "synonyms": ["India"]}, {"conceptId": "C44480", "definition": "An island in the Irish Sea, between Great Britain and Ireland.", "preferredTerm": "ISLE OF MAN", "submissionValue": "Country", "synonyms": ["Isle of Man"]}, {"conceptId": "C16365", "definition": "An archipelago in the Indian Ocean, about one-half the way from Africa to Indonesia.", "preferredTerm": "BRITISH INDIAN OCEAN TERRITORY", "submissionValue": "Country", "synonyms": ["British Indian Ocean Territory"]}, {"conceptId": "C16757", "definition": "A country in Western Europe, occupying five-sixths of the island of Ireland in the North Atlantic Ocean, west of Great Britain.", "preferredTerm": "IRELAND", "submissionValue": "Country", "synonyms": ["Ireland"]}, {"conceptId": "C16755", "definition": "A country in the Middle East, bordering the Gulf of Oman, the Persian Gulf, and the Caspian Sea, between Iraq and Pakistan.", "preferredTerm": "IRAN", "submissionValue": "Country", "synonyms": ["Iran"]}, {"conceptId": "C16756", "definition": "A country in the Middle East, bordering the Persian Gulf, between Iran and Kuwait.", "preferredTerm": "IRAQ", "submissionValue": "Country", "synonyms": ["Iraq"]}, {"conceptId": "C16704", "definition": "A country in Northern Europe, island between the Greenland Sea and the North Atlantic Ocean, northwest of the UK.", "preferredTerm": "ICELAND", "submissionValue": "Country", "synonyms": ["Iceland"]}, {"conceptId": "C16760", "definition": "A country in the Middle East, bordering the Mediterranean Sea, between Egypt and Lebanon.", "preferredTerm": "ISRAEL", "submissionValue": "Country", "synonyms": ["Israel"]}, {"conceptId": "C16761", "definition": "A country in Southern Europe, occupying a peninsula extending into the central Mediterranean Sea, northeast of Tunisia.", "preferredTerm": "ITALY", "submissionValue": "Country", "synonyms": ["Italy"]}, {"conceptId": "C16763", "definition": "An island in the Caribbean Sea, south of Cuba.", "preferredTerm": "JAMAICA", "submissionValue": "Country", "synonyms": ["Jamaica"]}, {"conceptId": "C16765", "definition": "A country in the Middle East, northwest of Saudi Arabia.", "preferredTerm": "JORDAN", "submissionValue": "Country", "synonyms": ["Jordan"]}, {"conceptId": "C16764", "definition": "A country in Eastern Asia, occupying an island chain between the North Pacific Ocean and the Sea of Japan, east of the Korean Peninsula.", "preferredTerm": "JAPAN", "submissionValue": "Country", "synonyms": ["Japan"]}, {"conceptId": "C64374", "definition": "Jersey and the other Channel Islands represent the last remnants of the medieval Dukedom of Normandy that held sway in both France and England. Jersey is a British crown dependency, but is not part of the UK.", "preferredTerm": "JERSEY", "submissionValue": "Country", "synonyms": ["Jersey"]}, {"conceptId": "C20107", "definition": "A country in Central Asia, northwest of China.", "preferredTerm": "KAZAKHSTAN", "submissionValue": "Country", "synonyms": ["Kazakhstan"]}, {"conceptId": "C16769", "definition": "A country in Eastern Africa, bordering the Indian Ocean, between Somalia and Tanzania.", "preferredTerm": "KENYA", "submissionValue": "Country", "synonyms": ["Kenya"]}, {"conceptId": "C16771", "definition": "A country in Central Asia, west of China.", "preferredTerm": "KYRGYZSTAN", "submissionValue": "Country", "synonyms": ["Kyrgyzstan"]}, {"conceptId": "C16378", "definition": "A country in Southeastern Asia, bordering the Gulf of Thailand, between Thailand, Vietnam, and Laos.", "preferredTerm": "CAMBODIA", "submissionValue": "Country", "synonyms": ["Cambodia"]}, {"conceptId": "C16639", "definition": "A group of 33 coral atolls in the Pacific Ocean, straddling the equator; the capital Tarawa is about one-half of the way from Hawaii to Australia.", "preferredTerm": "KIRIBATI", "submissionValue": "Country", "synonyms": ["Kiribati"]}, {"conceptId": "C17885", "definition": "Islands in the Caribbean Sea, about one-third of the way from Puerto Rico to Trinidad and Tobago.", "preferredTerm": "SAINT KITTS AND NEVIS", "submissionValue": "Country", "synonyms": ["Saint Kitts and Nevis"]}, {"conceptId": "C16774", "definition": "A country in Eastern Asia, occupying the southern half of the Korean Peninsula, bordering the Sea of Japan and the Yellow Sea.", "preferredTerm": "SOUTH KOREA", "submissionValue": "Country", "synonyms": ["South Korea"]}, {"conceptId": "C16775", "definition": "A country in the Middle East, bordering the Persian Gulf, between Iraq and Saudi Arabia.", "preferredTerm": "KUWAIT", "submissionValue": "Country", "synonyms": ["Kuwait"]}, {"conceptId": "C16780", "definition": "A country in Southeastern Asia, northeast of Thailand, west of Vietnam.", "preferredTerm": "LAO PEOPLE'S DEMOCRATIC REPUBLIC", "submissionValue": "Country", "synonyms": ["Lao People's Democratic Republic"]}, {"conceptId": "C16784", "definition": "A country in the Middle East, bordering the Mediterranean Sea, between Israel and Syria.", "preferredTerm": "LEBANON", "submissionValue": "Country", "synonyms": ["Lebanon"]}, {"conceptId": "C16791", "definition": "A country in Western Africa, bordering the North Atlantic Ocean, between Cote d'Ivoire and Sierra Leone.", "preferredTerm": "LIBERIA", "submissionValue": "Country", "synonyms": ["Liberia"]}, {"conceptId": "C16793", "definition": "A country in Northern Africa, bordering the Mediterranean Sea, between Egypt and Tunisia.", "preferredTerm": "LIBYAN ARAB JAMAHIRIYA", "submissionValue": "Country", "synonyms": ["Libyan Arab Jamahiriya"]}, {"conceptId": "C17113", "definition": "A country in the Caribbean, occupying an island between the Caribbean Sea and North Atlantic Ocean, north of Trinidad and Tobago.", "preferredTerm": "SAINT LUCIA", "submissionValue": "Country", "synonyms": ["Saint Lucia"]}, {"conceptId": "C16794", "definition": "A country in Central Europe, between Austria and Switzerland.", "preferredTerm": "LIECHTENSTEIN", "submissionValue": "Country", "synonyms": ["Liechtenstein"]}, {"conceptId": "C17163", "definition": "A country in Southern Asia, occupying an island in the Indian Ocean, south of India.", "preferredTerm": "SRI LANKA", "submissionValue": "Country", "synonyms": ["Sri Lanka"]}, {"conceptId": "C16787", "definition": "A country in Southern Africa, an enclave of South Africa.", "preferredTerm": "LESOTHO", "submissionValue": "Country", "synonyms": ["Lesotho"]}, {"conceptId": "C16799", "definition": "A country in Eastern Europe, bordering the Baltic Sea, between Latvia and Russia.", "preferredTerm": "LITHUANIA", "submissionValue": "Country", "synonyms": ["Lithuania"]}, {"conceptId": "C16803", "definition": "A country in Western Europe, between France, Belgium, and Germany.", "preferredTerm": "LUXEMBOURG", "submissionValue": "Country", "synonyms": ["Luxembourg"]}, {"conceptId": "C16783", "definition": "A country in Eastern Europe, bordering the Baltic Sea, between Estonia and Lithuania.", "preferredTerm": "LATVIA", "submissionValue": "Country", "synonyms": ["Latvia"]}, {"conceptId": "C16807", "definition": "A country in Eastern Asia, bordering the South China Sea and China.", "preferredTerm": "MACAO", "submissionValue": "Country", "synonyms": ["Macao"]}, {"conceptId": "C83610", "definition": "An island in the Caribbean sea, between Anguilla and Saint Barthelemy.", "preferredTerm": "SAINT MARTIN, FRENCH", "submissionValue": "Country", "synonyms": ["Saint Martin, French"]}, {"conceptId": "C16878", "definition": "A country in Northern Africa, bordering the North Atlantic Ocean and the Mediterranean Sea, between Algeria and Western Sahara.", "preferredTerm": "MOROCCO", "submissionValue": "Country", "synonyms": ["Morocco"]}, {"conceptId": "C16874", "definition": "A country in Western Europe, bordering the Mediterranean Sea on the southern coast of France, near the border with Italy.", "preferredTerm": "MONACO", "submissionValue": "Country", "synonyms": ["Monaco"]}, {"conceptId": "C16871", "definition": "A country in Eastern Europe, northeast of Romania.", "preferredTerm": "MOLDOVA, REPUBLIC OF", "submissionValue": "Country", "synonyms": ["Moldova"]}, {"conceptId": "C16808", "definition": "A country in Southern Africa, occupying an island in the Indian Ocean, east of Mozambique.", "preferredTerm": "MADAGASCAR", "submissionValue": "Country", "synonyms": ["Madagascar"]}, {"conceptId": "C16815", "definition": "A country in Southern Asia, occupying a group of atolls in the Indian Ocean, south-southwest of India.", "preferredTerm": "MALDIVES", "submissionValue": "Country", "synonyms": ["Maldives"]}, {"conceptId": "C16850", "definition": "A country in Central America, bordering the Caribbean Sea and the Gulf of Mexico, between Belize and the US and bordering the North Pacific Ocean, between Guatemala and the US.", "preferredTerm": "MEXICO", "submissionValue": "Country", "synonyms": ["Mexico"]}, {"conceptId": "C16822", "definition": "A group of atolls and reefs in the North Pacific Ocean, about one-half of the way from Hawaii to Australia.", "preferredTerm": "MARSHALL ISLANDS", "submissionValue": "Country", "synonyms": ["Marshall Islands"]}, {"conceptId": "C17654", "definition": "A country in Southeastern Europe, north of Greece.", "preferredTerm": "REPUBLIC OF MACEDONIA", "submissionValue": "Country", "synonyms": ["Republic of Macedonia"]}, {"conceptId": "C16816", "definition": "A country in Western Africa, southwest of Algeria.", "preferredTerm": "MALI", "submissionValue": "Country", "synonyms": ["Mali"]}, {"conceptId": "C16817", "definition": "A country in Southern Europe, occupying islands in the Mediterranean Sea, south of Sicily (Italy).", "preferredTerm": "MALTA", "submissionValue": "Country", "synonyms": ["Malta"]}, {"conceptId": "C16370", "definition": "A country in Southeastern Asia, bordering the Andaman Sea and the Bay of Bengal, between Bangladesh and Thailand.", "preferredTerm": "MYANMAR", "submissionValue": "Country", "synonyms": ["Myanmar"]}, {"conceptId": "C64378", "definition": "A republic in Southeastern Europe, bordering the Adriatic Sea, between Albania and Bosnia and Herzegovina. Formerly part of Serbia and Montenegro (Federation Republic of Yugoslavia).", "preferredTerm": "MONTENEGRO", "submissionValue": "Country", "synonyms": ["Montenegro"]}, {"conceptId": "C16875", "definition": "A country in Northern Asia, between China and Russia.", "preferredTerm": "MONGOLIA", "submissionValue": "Country", "synonyms": ["Mongolia"]}, {"conceptId": "C17882", "definition": "A country in the Pacific, comprising islands in the North Pacific Ocean, about three-quarters of the way from Hawaii to the Philippines.", "preferredTerm": "NORTHERN MARIANA ISLANDS", "submissionValue": "Country", "synonyms": ["Northern Mariana Islands"]}, {"conceptId": "C16882", "definition": "A country in Southern Africa, bordering the Mozambique Channel, between South Africa and Tanzania.", "preferredTerm": "MOZAMBIQUE", "submissionValue": "Country", "synonyms": ["Mozambique"]}, {"conceptId": "C16826", "definition": "A country in Northern Africa, bordering the North Atlantic Ocean, between Senegal and Western Sahara.", "preferredTerm": "MAURITANIA", "submissionValue": "Country", "synonyms": ["Mauritania"]}, {"conceptId": "C16876", "definition": "A country in the Caribbean, occupying an island in the Caribbean Sea, southeast of Puerto Rico.", "preferredTerm": "MONTSERRAT", "submissionValue": "Country", "synonyms": ["Montserrat"]}, {"conceptId": "C16823", "definition": "An island in the Caribbean Sea, north of Trinidad and Tobago.", "preferredTerm": "MARTINIQUE", "submissionValue": "Country", "synonyms": ["Martinique"]}, {"conceptId": "C16827", "definition": "A country in Southern Africa, occupying an island in the Indian Ocean, east of Madagascar.", "preferredTerm": "MAURITIUS", "submissionValue": "Country", "synonyms": ["Mauritius"]}, {"conceptId": "C16813", "definition": "A country in Southern Africa, east of Zambia.", "preferredTerm": "MALAWI", "submissionValue": "Country", "synonyms": ["Malawi"]}, {"conceptId": "C16814", "definition": "A country in Southeastern Asia, occupying a peninsula and the northern one-third of the island of Borneo, bordering Indonesia and the South China Sea, south of Vietnam.", "preferredTerm": "MALAYSIA", "submissionValue": "Country", "synonyms": ["Malaysia"]}, {"conceptId": "C16828", "definition": "A country in Southern Africa, occupying an island in the Mozambique Channel, about one-half of the way from northern Madagascar to northern Mozambique.", "preferredTerm": "MAYOTTE", "submissionValue": "Country", "synonyms": ["Mayotte"]}, {"conceptId": "C16891", "definition": "A country in Southern Africa, bordering the South Atlantic Ocean, between Angola and South Africa.", "preferredTerm": "NAMIBIA", "submissionValue": "Country", "synonyms": ["Namibia"]}, {"conceptId": "C16913", "definition": "A country in the Pacific, comprised of islands in the South Pacific Ocean, east of Australia.", "preferredTerm": "NEW CALEDONIA", "submissionValue": "Country", "synonyms": ["New Caledonia"]}, {"conceptId": "C16916", "definition": "A country in Western Africa, southeast of Algeria.", "preferredTerm": "NIGER", "submissionValue": "Country", "synonyms": ["Niger"]}, {"conceptId": "C16919", "definition": "A country in the Pacific, occupying an island in the South Pacific Ocean, east of Australia.", "preferredTerm": "NORFOLK ISLAND", "submissionValue": "Country", "synonyms": ["Norfolk Island"]}, {"conceptId": "C16917", "definition": "A country in Western Africa, bordering the Gulf of Guinea, between Benin and Cameroon.", "preferredTerm": "NIGERIA", "submissionValue": "Country", "synonyms": ["Nigeria"]}, {"conceptId": "C16915", "definition": "A country in Central America, bordering both the Caribbean Sea and the North Pacific Ocean, between Costa Rica and Honduras.", "preferredTerm": "NICARAGUA", "submissionValue": "Country", "synonyms": ["Nicaragua"]}, {"conceptId": "C16918", "definition": "A country in the Pacific, occupying an island in the South Pacific Ocean, east of Tonga.", "preferredTerm": "NIUE", "submissionValue": "Country", "synonyms": ["Niue"]}, {"conceptId": "C16903", "definition": "A country in Western Europe, bordering the North Sea, between Belgium and Germany.", "preferredTerm": "NETHERLANDS", "submissionValue": "Country", "synonyms": ["Netherlands"]}, {"conceptId": "C16920", "definition": "A country in Northern Europe, bordering the North Sea and the North Atlantic Ocean, west of Sweden.", "preferredTerm": "NORWAY", "submissionValue": "Country", "synonyms": ["Norway"]}, {"conceptId": "C16901", "definition": "A country in Southern Asia, between China and India.", "preferredTerm": "NEPAL", "submissionValue": "Country", "synonyms": ["Nepal"]}, {"conceptId": "C16896", "definition": "A country in Oceania, occupying an island in the South Pacific Ocean, south of the Marshall Islands.", "preferredTerm": "NAURU", "submissionValue": "Country", "synonyms": ["Nauru"]}, {"conceptId": "C16914", "definition": "A country in the Pacific, comprised of islands in the South Pacific Ocean, southeast of Australia.", "preferredTerm": "NEW ZEALAND", "submissionValue": "Country", "synonyms": ["New Zealand"]}, {"conceptId": "C16933", "definition": "A country in the Middle East, bordering the Arabian Sea, Gulf of Oman, and Persian Gulf, between Yemen and the United Arab Emirates.", "preferredTerm": "OMAN", "submissionValue": "Country", "synonyms": ["Oman"]}, {"conceptId": "C16949", "definition": "A country in Southern Asia, bordering the Arabian Sea, between India on the east and Iran and Afghanistan on the west and China in the north.", "preferredTerm": "PAKISTAN", "submissionValue": "Country", "synonyms": ["Pakistan"]}, {"conceptId": "C16951", "definition": "A country in Central America, bordering both the Caribbean Sea and the North Pacific Ocean, between Colombia and Costa Rica.", "preferredTerm": "PANAMA", "submissionValue": "Country", "synonyms": ["Panama"]}, {"conceptId": "C16993", "definition": "A country in the Pacific, comprised of islands in the South Pacific Ocean, about midway between Peru and New Zealand.", "preferredTerm": "PITCAIRN", "submissionValue": "Country", "synonyms": ["Pitcairn Island"]}, {"conceptId": "C16972", "definition": "A country in Western South America, bordering the South Pacific Ocean, between Chile and Ecuador.", "preferredTerm": "PERU", "submissionValue": "Country", "synonyms": ["Peru"]}, {"conceptId": "C16978", "definition": "A country in Southeastern Asia, comprised of an archipelago between the Philippine Sea and the South China Sea, east of Vietnam.", "preferredTerm": "PHILIPPINES", "submissionValue": "Country", "synonyms": ["Philippines"]}, {"conceptId": "C17733", "definition": "A country in the Pacific, comprising a group of islands in the North Pacific Ocean, southeast of the Philippines.", "preferredTerm": "PALAU", "submissionValue": "Country", "synonyms": ["Palau"]}, {"conceptId": "C16952", "definition": "A country in Southeastern Asia, comprising a group of islands and including the eastern half of the island of New Guinea, between the Coral Sea and the South Pacific Ocean, east of Indonesia.", "preferredTerm": "PAPUA NEW GUINEA", "submissionValue": "Country", "synonyms": ["Papua New Guinea"]}, {"conceptId": "C17002", "definition": "A country in Central Europe, east of Germany.", "preferredTerm": "POLAND", "submissionValue": "Country", "synonyms": ["Poland"]}, {"conceptId": "C17043", "definition": "An island between the Caribbean Sea and the North Atlantic Ocean, east of the Dominican Republic.", "preferredTerm": "PUERTO RICO", "submissionValue": "Country", "synonyms": ["Puerto Rico"]}, {"conceptId": "C16773", "definition": "A country in Eastern Asia, occupying the northern half of the Korean Peninsula, bordering the Korea Bay and the Sea of Japan, between China and South Korea.", "preferredTerm": "NORTH KOREA", "submissionValue": "Country", "synonyms": ["North Korea"]}, {"conceptId": "C17006", "definition": "A country in Southwestern Europe, bordering the North Atlantic Ocean, west of Spain.", "preferredTerm": "PORTUGAL", "submissionValue": "Country", "synonyms": ["Portugal"]}, {"conceptId": "C16953", "definition": "A country in Central South America, northeast of Argentina.", "preferredTerm": "PARAGUAY", "submissionValue": "Country", "synonyms": ["Paraguay"]}, {"conceptId": "C20110", "definition": "A collective name for the West Bank and the Gaza Strip, two territories in Palestine.", "preferredTerm": "PALESTINIAN TERRITORY, OCCUPIED", "submissionValue": "Country", "synonyms": ["Palestinian Territory, Occupied"]}, {"conceptId": "C16594", "definition": "An archipelago in the South Pacific Ocean, about one-half of the way from South America to Australia.", "preferredTerm": "FRENCH POLYNESIA", "submissionValue": "Country", "synonyms": ["French Polynesia"]}, {"conceptId": "C17045", "definition": "A country in the Middle East, occupying a peninsula bordering the Persian Gulf and Saudi Arabia.", "preferredTerm": "QATAR", "submissionValue": "Country", "synonyms": ["Qatar"]}, {"conceptId": "C17095", "definition": "A country in Southern Africa, occupying an island in the Indian Ocean, east of Madagascar.", "preferredTerm": "REUNION", "submissionValue": "Country", "synonyms": ["Reunion"]}, {"conceptId": "C17108", "definition": "A country in Southeastern Europe, bordering the Black Sea, between Bulgaria and Ukraine.", "preferredTerm": "ROMANIA", "submissionValue": "Country", "synonyms": ["Romania"]}, {"conceptId": "C17111", "definition": "A country in Northern Asia (that part west of the Urals is sometimes included with Europe), bordering the Arctic Ocean, between Europe and the North Pacific Ocean.", "preferredTerm": "RUSSIAN FEDERATION", "submissionValue": "Country", "synonyms": ["Russia"]}, {"conceptId": "C17112", "definition": "A country in Central Africa, east of Democratic Republic of the Congo.", "preferredTerm": "RWANDA", "submissionValue": "Country", "synonyms": ["Rwanda"]}, {"conceptId": "C17117", "definition": "A country in the Middle East, bordering the Persian Gulf and the Red Sea, north of Yemen.", "preferredTerm": "SAUDI ARABIA", "submissionValue": "Country", "synonyms": ["Saudi Arabia"]}, {"conceptId": "C64377", "definition": "A republic in Southeastern Europe, bordering the Adriatic Sea, between Albania and Bosnia and Herzegovina. Formerly part of Serbia and Montenegro (Federation Republic of Yugoslavia).", "preferredTerm": "SERBIA", "submissionValue": "Country", "synonyms": ["Serbia"]}, {"conceptId": "C17170", "definition": "A country in Northern Africa, bordering the Red Sea, between Egypt and Eritrea.", "preferredTerm": "SUDAN", "submissionValue": "Country", "synonyms": ["Sudan"]}, {"conceptId": "C17121", "definition": "A country in Western Africa, bordering the North Atlantic Ocean, between Guinea-Bissau and Mauritania.", "preferredTerm": "SENEGAL", "submissionValue": "Country", "synonyms": ["Senegal"]}, {"conceptId": "C17134", "definition": "A country in Southeastern Asia, comprised of islands between Malaysia and Indonesia.", "preferredTerm": "SINGAPORE", "submissionValue": "Country", "synonyms": ["Singapore"]}, {"conceptId": "C20111", "definition": "A group of islands in the South Atlantic Ocean, east of the tip of South America.", "preferredTerm": "SOUTH GEORGIA AND THE SOUTH SANDWICH ISLANDS", "submissionValue": "Country", "synonyms": ["South Georgia and the South Sandwich Islands"]}, {"conceptId": "C17164", "definition": "Islands in the South Atlantic Ocean, about midway between South America and Africa.", "preferredTerm": "SAINT HELENA", "submissionValue": "Country", "synonyms": ["Saint Helena"]}, {"conceptId": "C17178", "definition": "Islands between the Arctic Ocean, Barents Sea, Greenland Sea, and Norwegian Sea, northeast of Iceland and north of Norway.", "preferredTerm": "SVALBARD AND JAN MAYEN", "submissionValue": "Country", "synonyms": ["Svalbard and Jan Mayen"]}, {"conceptId": "C17148", "definition": "A group of islands in the South Pacific Ocean, east of Papua New Guinea.", "preferredTerm": "SOLOMON ISLANDS", "submissionValue": "Country", "synonyms": ["Solomon Islands"]}, {"conceptId": "C17130", "definition": "A country in Western Africa, bordering the North Atlantic Ocean, between Guinea and Liberia.", "preferredTerm": "SIERRA LEONE", "submissionValue": "Country", "synonyms": ["Sierra Leone"]}, {"conceptId": "C16532", "definition": "A country in Central America, bordering the North Pacific Ocean, between Guatemala and Honduras.", "preferredTerm": "EL SALVADOR", "submissionValue": "Country", "synonyms": ["El Salvador"]}, {"conceptId": "C17115", "definition": "A country in Southern Europe, an enclave in central Italy.", "preferredTerm": "SAN MARINO", "submissionValue": "Country", "synonyms": ["San Marino"]}, {"conceptId": "C17149", "definition": "A country in Eastern Africa, bordering the Gulf of Aden and the Indian Ocean, east of Ethiopia.", "preferredTerm": "SOMALIA", "submissionValue": "Country", "synonyms": ["Somalia"]}, {"conceptId": "C17165", "definition": "A country in Northern North America, comprised of islands in the North Atlantic Ocean, south of Newfoundland (Canada).", "preferredTerm": "SAINT PIERRE AND MIQUELON", "submissionValue": "Country", "synonyms": ["Saint Pierre and Miquelon"]}, {"conceptId": "C17116", "definition": "A country in Western Africa, comprised of islands in the Gulf of Guinea, straddling the Equator, west of Gabon.", "preferredTerm": "SAO TOME AND PRINCIPE", "submissionValue": "Country", "synonyms": ["Sao Tome and Principe"]}, {"conceptId": "C17175", "definition": "A country in Northern South America, bordering the North Atlantic Ocean, between French Guiana and Guyana.", "preferredTerm": "SURINAME", "submissionValue": "Country", "synonyms": ["Suriname"]}, {"conceptId": "C17669", "definition": "A country in Central Europe, south of Poland.", "preferredTerm": "SLOVAKIA", "submissionValue": "Country", "synonyms": ["Slovakia"]}, {"conceptId": "C17138", "definition": "A country in Central Europe, bordering the Adriatic Sea, between Austria and Croatia.", "preferredTerm": "SLOVENIA", "submissionValue": "Country", "synonyms": ["Slovenia"]}, {"conceptId": "C17180", "definition": "A country in Northern Europe, bordering the Baltic Sea, Gulf of Bothnia, Kattegat, and Skagerrak, between Finland and Norway.", "preferredTerm": "SWEDEN", "submissionValue": "Country", "synonyms": ["Sweden"]}, {"conceptId": "C17179", "definition": "A country in Southern Africa, between Mozambique and South Africa.", "preferredTerm": "SWAZILAND", "submissionValue": "Country", "synonyms": ["Swaziland"]}, {"conceptId": "C17129", "definition": "A country in Eastern Africa, comprised of a group of islands in the Indian Ocean, northeast of Madagascar.", "preferredTerm": "SEYCHELLES", "submissionValue": "Country", "synonyms": ["Seychelles"]}, {"conceptId": "C17182", "definition": "A country in the Middle East, bordering the Mediterranean Sea, between Lebanon and Turkey.", "preferredTerm": "SYRIAN ARAB REPUBLIC", "submissionValue": "Country", "synonyms": ["Syria"]}, {"conceptId": "C17224", "definition": "Two island groups in the North Atlantic Ocean, southeast of The Bahamas.", "preferredTerm": "TURKS AND CAICOS ISLANDS", "submissionValue": "Country", "synonyms": ["Turks and Caicos Islands"]}, {"conceptId": "C16412", "definition": "A country in Central Africa, south of Libya.", "preferredTerm": "CHAD", "submissionValue": "Country", "synonyms": ["Chad"]}, {"conceptId": "C17202", "definition": "A country in Western Africa, bordering the Bight of Benin, between Benin and Ghana.", "preferredTerm": "TOGO", "submissionValue": "Country", "synonyms": ["Togo"]}, {"conceptId": "C17192", "definition": "A country in Southeastern Asia, bordering the Andaman Sea and the Gulf of Thailand, southeast of Burma.", "preferredTerm": "THAILAND", "submissionValue": "Country", "synonyms": ["Thailand"]}, {"conceptId": "C17183", "definition": "A country in Central Asia, west of China.", "preferredTerm": "TAJIKISTAN", "submissionValue": "Country", "synonyms": ["Tajikistan"]}, {"conceptId": "C17704", "definition": "A group of three atolls in the South Pacific Ocean, about one-half of the way from Hawaii to New Zealand.", "preferredTerm": "TOKELAU", "submissionValue": "Country", "synonyms": ["Tokelau"]}, {"conceptId": "C17223", "definition": "A country in Central Asia, bordering the Caspian Sea, between Iran and Kazakhstan.", "preferredTerm": "TURKMENISTAN", "submissionValue": "Country", "synonyms": ["Turkmenistan"]}, {"conceptId": "C17200", "definition": "A country in Southeastern Asia, northwest of Australia in the Lesser Sunda Islands at the eastern end of the Indonesian archipelago. East Timor includes the eastern half of the island of Timor, the Oecussi (Ambeno) region on the northwest portion of the island of Timor, and the islands of Pulau Atauro and Pulau Jaco.", "preferredTerm": "TIMOR-LESTE", "submissionValue": "Country", "synonyms": ["Timor-Leste"]}, {"conceptId": "C17205", "definition": "An archipelago in the South Pacific Ocean, about two-thirds of the way from Hawaii to New Zealand.", "preferredTerm": "TONGA", "submissionValue": "Country", "synonyms": ["Tonga"]}, {"conceptId": "C17217", "definition": "Islands between the Caribbean Sea and the North Atlantic Ocean, northeast of Venezuela.", "preferredTerm": "TRINIDAD AND TOBAGO", "submissionValue": "Country", "synonyms": ["Trinidad and Tobago"]}, {"conceptId": "C17221", "definition": "A country in Northern Africa, bordering the Mediterranean Sea, between Algeria and Libya.", "preferredTerm": "TUNISIA", "submissionValue": "Country", "synonyms": ["Tunisia"]}, {"conceptId": "C17222", "definition": "A country in southeastern Europe and southwestern Asia (that portion of Turkey west of the Bosporus is geographically part of Europe), bordering the Black Sea, between Bulgaria and Georgia, and bordering the Aegean Sea and the Mediterranean Sea, between Greece and Syria.", "preferredTerm": "TURKEY", "submissionValue": "Country", "synonyms": ["Turkey"]}, {"conceptId": "C17225", "definition": "An island group consisting of nine coral atolls in the South Pacific Ocean, about one-half of the way from Hawaii to Australia.", "preferredTerm": "TUVALU", "submissionValue": "Country", "synonyms": ["Tuvalu"]}, {"conceptId": "C17184", "definition": "A group of islands bordering the East China Sea, Philippine Sea, South China Sea, and Taiwan Strait, north of the Philippines, off the southeastern coast of China.", "preferredTerm": "TAIWAN", "submissionValue": "Country", "synonyms": ["Taiwan"]}, {"conceptId": "C17185", "definition": "A country in Eastern Africa, bordering the Indian Ocean, between Kenya and Mozambique.", "preferredTerm": "TANZANIA, UNITED REPUBLIC OF", "submissionValue": "Country", "synonyms": ["Tanzania"]}, {"conceptId": "C17228", "definition": "A country in Eastern Africa, west of Kenya.", "preferredTerm": "UGANDA", "submissionValue": "Country", "synonyms": ["Uganda"]}, {"conceptId": "C17229", "definition": "A country in Eastern Europe, bordering the Black Sea, between Poland and Russia.", "preferredTerm": "UKRAINE", "submissionValue": "Country", "synonyms": ["Ukraine"]}, {"conceptId": "C20112", "definition": "The U.S. Minor Outlying Islands consist of Baker Island, Howland Island, Jarvis Island, Johnston Atoll, Kingman Reef, Midway Island, Navassa Island, Palmyra Atoll, and Wake Island (Wake Atoll).", "preferredTerm": "UNITED STATES MINOR OUTLYING ISLANDS", "submissionValue": "Country", "synonyms": ["United States Minor Outlying Islands"]}, {"conceptId": "C17244", "definition": "A country in Southern South America, bordering the South Atlantic Ocean, between Argentina and Brazil.", "preferredTerm": "URUGUAY", "submissionValue": "Country", "synonyms": ["Uruguay"]}, {"conceptId": "C17234", "definition": "A country in North America, bordering both the North Atlantic Ocean and the North Pacific Ocean, between Canada and Mexico.", "preferredTerm": "UNITED STATES", "submissionValue": "Country", "synonyms": ["United States"]}, {"conceptId": "C17246", "definition": "A country in Central Asia, north of Afghanistan.", "preferredTerm": "UZBEKISTAN", "submissionValue": "Country", "synonyms": ["Uzbekistan"]}, {"conceptId": "C17249", "definition": "An enclave of Rome (Italy).", "preferredTerm": "VATICAN CITY STATE", "submissionValue": "Country", "synonyms": ["Holy See"]}, {"conceptId": "C17114", "definition": "A country in the Caribbean, comprised of islands in the Caribbean Sea, north of Trinidad and Tobago.", "preferredTerm": "SAINT VINCENT AND THE GRENADINES", "submissionValue": "Country", "synonyms": ["Saint Vincent and the Grenadines"]}, {"conceptId": "C17250", "definition": "A country in Northern South America, bordering the Caribbean Sea and the North Atlantic Ocean, between Colombia and Guyana.", "preferredTerm": "VENEZUELA", "submissionValue": "Country", "synonyms": ["Venezuela"]}, {"conceptId": "C17653", "definition": "Islands between the Caribbean Sea and the North Atlantic Ocean, east of Puerto Rico.", "preferredTerm": "VIRGIN ISLANDS, BRITISH", "submissionValue": "Country", "synonyms": ["British Virgin Islands"]}, {"conceptId": "C17255", "definition": "Islands between the Caribbean Sea and the North Atlantic Ocean, east of Puerto Rico.", "preferredTerm": "VIRGIN ISLANDS, U.S.", "submissionValue": "Country", "synonyms": ["United States Virgin Islands"]}, {"conceptId": "C17252", "definition": "A country in Southeastern Asia, bordering the Gulf of Thailand, Gulf of Tonkin, and South China Sea, alongside China, Laos, and Cambodia.", "preferredTerm": "VIETNAM", "submissionValue": "Country", "synonyms": ["Vietnam"]}, {"conceptId": "C17247", "definition": "A group of islands in the South Pacific Ocean, about three-quarters of the way from Hawaii to Australia.", "preferredTerm": "VANUATU", "submissionValue": "Country", "synonyms": ["Vanuatu"]}, {"conceptId": "C17259", "definition": "Islands in the South Pacific Ocean, about two-thirds of the way from Hawaii to New Zealand.", "preferredTerm": "WALLIS AND FUTUNA", "submissionValue": "Country", "synonyms": ["Wallis and Futuna Islands"]}, {"conceptId": "C17740", "definition": "A group of islands in the South Pacific Ocean, about one-half of the way from Hawaii to New Zealand.", "preferredTerm": "SAMOA", "submissionValue": "Country", "synonyms": ["Samoa"]}, {"conceptId": "C17264", "definition": "A country in the Middle East, bordering the Arabian Sea, Gulf of Aden, and Red Sea, between Oman and Saudi Arabia.", "preferredTerm": "YEMEN", "submissionValue": "Country", "synonyms": ["Yemen"]}, {"conceptId": "C17151", "definition": "A country in Southern Africa, at the southern tip of the continent of Africa.", "preferredTerm": "SOUTH AFRICA", "submissionValue": "Country", "synonyms": ["South Africa"]}, {"conceptId": "C17267", "definition": "A country in Southern Africa, east of Angola.", "preferredTerm": "ZAMBIA", "submissionValue": "Country", "synonyms": ["Zambia"]}, {"conceptId": "C17268", "definition": "A country in Southern Africa, between South Africa and Zambia.", "preferredTerm": "ZIMBABWE", "submissionValue": "Country", "synonyms": ["Zimbabwe"]}]}, {"conceptId": "", "definition": "A grouping of individuals on the basis of a shared procedure or disease, or lack thereof (e.g. healthy volunteers, type 2 diabetic subjects, subjects with renal cell cancer). Standardized naming systems are available that define the groups within which a subject should be placed. (NCI)", "extensible": "Yes", "name": "Diagnosis Group", "preferredTerm": "Diagnosis Group", "submissionValue": "Diagnosis Group", "synonyms": ["CDISC SDTM Diagnosis Group Terminology"], "terms": [{"conceptId": "C49651", "definition": "An individual who is or becomes a participant in a research study and has no significant health-related issues. (NCI)", "preferredTerm": "", "submissionValue": "Diagnosis Group", "synonyms": ["Healthy Subject"]}]}, {"conceptId": "", "definition": "A name given to a reference source that lists words and gives their meaning. (NCI)", "extensible": "Yes", "name": "Dictionary Name", "preferredTerm": "Dictionary Name; Name of Dictionary", "submissionValue": "Dictionary Name", "synonyms": ["CDISC SDTM Dictionary Name Terminology"], "terms": [{"conceptId": "C49471", "definition": "A terminology developed and used by the Food and Drug Administration (FDA) for the coding, filing and retrieving of post marketing adverse reaction reports. (NCI)", "preferredTerm": "Coding Symbols for a Thesaurus of Adverse Reaction Terms", "submissionValue": "Dictionary Name", "synonyms": ["Thesaurus of Adverse Reaction Term Coding Symbols"]}, {"conceptId": "C49474", "definition": "A system of categories to which morbid entries are assigned according to established criteria. Included is the entire range of conditions in a manageable number of categories, grouped to facilitate mortality reporting. It is produced by the World Health Organization (from ICD-10, p1). The Clinical Modifications, produced by the United States Dept. of Health and Human Services, are larger extensions used for morbidity and general epidemiological purposes, primarily in the U.S. (MSH2005_2004_10_12)", "preferredTerm": "International Classification of Diseases", "submissionValue": "Dictionary Name", "synonyms": ["International Classification of Diseases"]}, {"conceptId": "C49476", "definition": "Published by The Regenstrief Institute, the Logical Observation Identifiers Names and Codes covers clinical and clinical laboratory terminology. (NCI)", "preferredTerm": "Logical Observation Identifiers Names and Codes", "submissionValue": "Dictionary Name", "synonyms": ["Logical Observation Identifiers Names and Codes"]}, {"conceptId": "C43820", "definition": "MedDRA is an international medical terminology designed to support the classification, retrieval, presentation, and communication of medical information throughout the medical product regulatory cycle. MedDRA was developed under the auspices of the International Conference on Harmonisation of Technical Requirements for Registration of Pharmaceuticals for Human Use (ICH). The MedDRA Maintenance and Support Services Organization (MSSO) holds a contract with the International Federation of Pharmaceutical Manufacturers Associations (IFPMA) to maintain and support the implementation of the terminology. (NCI)", "preferredTerm": "Medical Dictionary for Regulatory Activities", "submissionValue": "Dictionary Name", "synonyms": ["MedDRA"]}, {"conceptId": "C53489", "definition": "A multiaxial, hierarchical classification system for diseases in man developed by the College of American Pathologists. (NCI)", "preferredTerm": "Systematized Nomenclature of Medicine", "submissionValue": "Dictionary Name", "synonyms": ["Systematized Nomenclature of Medicine"]}, {"conceptId": "C49468", "definition": "A terminology implemented by the World Health Organization to describe adverse reactions to a prescribed medication or treatment regimen. (NCI)", "preferredTerm": "World Health Organization Adverse Reaction Terms", "submissionValue": "Dictionary Name", "synonyms": ["World Health Organization Adverse Reaction Terminology"]}, {"conceptId": "C49475", "definition": "A reference source of drugs and drug associated information maintained by the World Health Organization. (NCI)", "preferredTerm": "World Health Organization Drug Dictionary", "submissionValue": "Dictionary Name", "synonyms": ["World Health Organization Drug Dictionary"]}]}, {"conceptId": "", "definition": "Indicates a task, process or examination that has either not been initiated or completed. (NCI)", "extensible": "No", "name": "Not Done", "preferredTerm": "Not Done", "submissionValue": "Not Done", "synonyms": ["CDISC SDTM Not Done Terminology"], "terms": [{"conceptId": "C49484", "definition": "Indicates a task, process or examination that has either not been initiated or completed. (NCI)", "preferredTerm": "", "submissionValue": "Not Done", "synonyms": ["Not Done"]}]}, {"conceptId": "", "definition": "A social group characterized by a distinctive social and cultural tradition maintained from generation to generation, a common history and origin and a sense of identification with the group; members of the group have distinctive features in their way of life, shared experiences and often a common genetic heritage; these features may be reflected in their experience of health and disease. (NCI)", "extensible": "Yes", "name": "Ethnic Group", "preferredTerm": "Ethnic Group", "submissionValue": "Ethnic Group", "synonyms": ["CDISC SDTM Ethnic Group Terminology"], "terms": [{"conceptId": "C17459", "definition": "A person of Mexican, Puerto Rican, Cuban, Central or South American or other Spanish culture or origin, regardless of race. (NCI)", "preferredTerm": "", "submissionValue": "Ethnic Group", "synonyms": ["Hispanic or Latino"]}, {"conceptId": "C41222", "definition": "A person not of Cuban, Mexican, Puerto Rican, South or Central American, or other Spanish culture or origin, regardless of race. An arbitrary ethnic classification. (NCI)", "preferredTerm": "", "submissionValue": "Ethnic Group", "synonyms": ["Not Hispanic or Latino"]}, {"conceptId": "C43234", "definition": "Not provided or available.", "preferredTerm": "Not reported", "submissionValue": "Ethnic Group", "synonyms": ["Not Stated"]}, {"conceptId": "C17998", "definition": "Not known, not observed, not recorded, or refused. (NCI)", "preferredTerm": "U; Unknown", "submissionValue": "Ethnic Group", "synonyms": ["Unknown"]}]}, {"conceptId": "", "definition": "The form of the completed pharmaceutical product, e.g. tablet, capsule, injection, elixir, suppository. Dosage form can have a significant effect on the onset, duration and intensity of the pharmacological action of a drug. A pharmaceutical dosage form controls the rate at which the drug is released into the biological fluids. This release rate affects its intrinsic absorption pattern and therefore, the bioavailability of the drug.", "extensible": "Yes", "name": "Pharmaceutical Dosage Form", "preferredTerm": "Pharmaceutical Dosage Form; Dose Form", "submissionValue": "Pharmaceutical Dosage Form", "synonyms": ["CDISC SDTM Pharmaceutical Dosage Form Terminology"], "terms": [{"conceptId": "C42887", "definition": "A product that is packaged under pressure and contains therapeutically active ingredients that are released upon activation of an appropriate valve system; it is intended for topical application to the skin as well as local application into the nose (nasal aerosols), mouth (lingual aerosols), or lungs (inhalation aerosols). (FDA)", "preferredTerm": "aer", "submissionValue": "Pharmaceutical Dosage Form", "synonyms": ["Aerosol Dosage Form"]}, {"conceptId": "C42888", "definition": "A dosage form containing one or more active ingredients, surfactants, aqueous or non-aqueous liquids, and the propellants; if the propellant is in the internal (discontinuous) phase (i.e., of the oil-in-water type), a stable foam is discharged, and if the propellant is in the external (continuous) phase (i.e., of the water-in-oil type), a spray or a quick-breaking foam is discharged. (FDA)", "preferredTerm": "", "submissionValue": "Pharmaceutical Dosage Form", "synonyms": ["Aerosol Foam Dosage Form"]}, {"conceptId": "C42960", "definition": "A pressurized dosage form consisting of metered dose valves which allow for the delivery of a uniform quantity of spray upon each activation. (NCI)", "preferredTerm": "", "submissionValue": "Pharmaceutical Dosage Form", "synonyms": ["Metered Aerosol Dosage Form"]}, {"conceptId": "C42971", "definition": "A product that is packaged under pressure and contains therapeutically active ingredients, in the form of a powder, that are released upon activation of an appropriate valve system. (NCI)", "preferredTerm": "", "submissionValue": "Pharmaceutical Dosage Form", "synonyms": ["Powder Aerosol Dosage Form"]}, {"conceptId": "C42889", "definition": "An aerosol product which utilizes a compressed gas as the propellant to provide the force necessary to expel the product as a wet spray; it is applicable to solutions of medicinal agents in aqueous solvents. (NCI)", "preferredTerm": "", "submissionValue": "Pharmaceutical Dosage Form", "synonyms": ["Aerosol Spray Dosage Form"]}, {"conceptId": "C42892", "definition": "A solid dosage form usually in the form of a rectangle that is meant to be chewed. (NCI)", "preferredTerm": "", "submissionValue": "Pharmaceutical Dosage Form", "synonyms": ["Chewable Bar Dosage Form"]}, {"conceptId": "C42890", "definition": "A solid dosage form in the shape of a small ball. (NCI)", "preferredTerm": "", "submissionValue": "Pharmaceutical Dosage Form", "synonyms": ["Bead Dosage Form"]}, {"conceptId": "C43451", "definition": "A small sterile solid mass consisting of a highly purified drug intended for implantation in the body which would allow at least a reduction in dosing frequency as compared to that drug presented as a conventional dosage form. (NCI)", "preferredTerm": "", "submissionValue": "Pharmaceutical Dosage Form", "synonyms": ["Extended Release Bead Implant Dosage Form"]}, {"conceptId": "C42891", "definition": "Solid dosage form, usually in the shape of a square or rectangle. (NCI)", "preferredTerm": "", "submissionValue": "Pharmaceutical Dosage Form", "synonyms": ["Block Dosage Form"]}, {"conceptId": "C25158", "definition": "A solid pharmaceutical dosage form that contains medicinal agent within either a hard or soft soluble container or shell, usually used for the oral administration of medicine. The shells are made of a suitable form of gelatin or other substance. (NCI)", "preferredTerm": "cap", "submissionValue": "Pharmaceutical Dosage Form", "synonyms": ["Capsule Dosage Form"]}, {"conceptId": "C42895", "definition": "A solid dosage form in which the drug is enclosed within either a hard or soft soluble container or \"shell\" made from a suitable form of gelatin; additionally, the capsule is covered in a designated coating. (NCI)", "preferredTerm": "", "submissionValue": "Pharmaceutical Dosage Form", "synonyms": ["Coated Capsule Dosage Form"]}, {"conceptId": "C42896", "definition": "A solid dosage form in which the drug is enclosed within either a hard or soft soluble container or \"shell\" made from a suitable form of gelatin; the drug itself is in the form of granules to which varying amounts of coating have been applied. (NCI)", "preferredTerm": "", "submissionValue": "Pharmaceutical Dosage Form", "synonyms": ["Coated Pellets in Capsule Dosage Form"]}, {"conceptId": "C42917", "definition": "A solid dosage form in which the drug is enclosed within either a hard or soft soluble container or \"shell\" made from a suitable form of gelatin; additionally, the capsule is covered in a designated coating, and which releases a drug (or drugs) in such a manner to allow at least a reduction in dosing frequency as compared to that drug (or drugs) presented as a conventional dosage form. (NCI)", "preferredTerm": "", "submissionValue": "Pharmaceutical Dosage Form", "synonyms": ["Extended Release Coated Capsule Dosage Form"]}, {"conceptId": "C42902", "definition": "A solid dosage form in which the drug is enclosed within either a hard or soft soluble container made from a suitable form of gelatin, and which releases a drug (or drugs) at a time other than promptly after administration. Enteric-coated articles are delayed release dosage forms. (NCI)", "preferredTerm": "", "submissionValue": "Pharmaceutical Dosage Form", "synonyms": ["Delayed Release Capsule Dosage Form"]}, {"conceptId": "C42904", "definition": "A solid dosage form in which the drug is enclosed within either a hard or soft soluble container or \"shell\" made from a suitable form of gelatin; the drug itself is in the form of granules to which enteric coating has been applied, thus delaying release of the drug until its passage into the intestines. (NCI)", "preferredTerm": "", "submissionValue": "Pharmaceutical Dosage Form", "synonyms": ["Delayed Release Pellets in Capsule Dosage Form"]}, {"conceptId": "C42916", "definition": "A solid dosage form in which the drug is enclosed within either a hard or soft soluble container made from a suitable form of gelatin, and which releases a drug (or drugs) in such a manner to allow a reduction in dosing frequency as compared to that drug (or drugs) presented as a conventional dosage form. (NCI)", "preferredTerm": "", "submissionValue": "Pharmaceutical Dosage Form", "synonyms": ["Extended Release Capsule Dosage Form"]}, {"conceptId": "C42928", "definition": "A solid dosage form in which the drug is enclosed within either a hard or soft soluble container or \"shell\" made from a suitable form of gelatin; additionally, the capsule is covered in a designated film coating, and which releases a drug (or drugs) in such a manner to allow at least a reduction in dosing frequency as compared to that drug (or drugs) presented as a conventional dosage form. (NCI)", "preferredTerm": "", "submissionValue": "Pharmaceutical Dosage Form", "synonyms": ["Extended Release Film Coated Capsule Dosage Form"]}, {"conceptId": "C42936", "definition": "A solid dosage form in which the drug is enclosed within either a hard or soft soluble container made from a suitable form of gelatin; through a banding process, the capsule is coated with additional layers of gelatin so as to form a complete seal. (NCI)", "preferredTerm": "", "submissionValue": "Pharmaceutical Dosage Form", "synonyms": ["Gelatin Coated Capsule Dosage Form"]}, {"conceptId": "C42954", "definition": "A solid dosage form in which the drug is enclosed within a soluble, gelatin shell which is plasticized by the addition of a polyol, such as sorbitol or glycerin, and is therefore of a somewhat thicker consistency than that of a hard shell capsule; typically, the active ingredients are dissolved or suspended in a liquid vehicle. (NCI)", "preferredTerm": "", "submissionValue": "Pharmaceutical Dosage Form", "synonyms": ["Liquid Filled Capsule Dosage Form"]}, {"conceptId": "C45414", "definition": "A substance that serves to produce solid union between two surfaces. (NCI)", "preferredTerm": "", "submissionValue": "Pharmaceutical Dosage Form", "synonyms": ["Cement Dosage Form"]}, {"conceptId": "C42678", "definition": "A narrow tube filled with material that is capable to burn with release of therapeutically-active substance(s) during the process of smoking. Cigarette is a very efficient drug-delivery inhaler system for fast-acting substances.(FDA)", "preferredTerm": "", "submissionValue": "Pharmaceutical Dosage Form", "synonyms": ["Cigarette Dosage Form"]}, {"conceptId": "C60884", "definition": "A large piece of relatively flat, absorbent material that contains a drug. It is typically used for applying medication or for cleansing. (FDA)", "preferredTerm": "", "submissionValue": "Pharmaceutical Dosage Form", "synonyms": ["Cloth Dosage Form"]}, {"conceptId": "C60891", "definition": "A liquid preparation of increased strength and reduced volume which is usually diluted prior to administration. (NCI)", "preferredTerm": "", "submissionValue": "Pharmaceutical Dosage Form", "synonyms": ["Concentrate Dosage Form"]}, {"conceptId": "C42900", "definition": "A solid dosage form bounded by a circular base and the surface formed by line segments joining every point of the boundary of the base to a common vertex. A cone (usually containing antibiotics) is normally placed below the gingiva after a dental extraction. (NCI)", "preferredTerm": "", "submissionValue": "Pharmaceutical Dosage Form", "synonyms": ["Cone Dosage Form"]}, {"conceptId": "C42919", "definition": "An ocular system placed in the eye from which the drug diffuses through a membrane at a constant rate over a specified period. (NCI)", "preferredTerm": "", "submissionValue": "Pharmaceutical Dosage Form", "synonyms": ["Extended Release Core Dosage Form"]}, {"conceptId": "C28944", "definition": "A semisolid emulsion of either the oil-in-water or the water-in-oil type, ordinarily intended for topical use. (NCI)", "preferredTerm": "", "submissionValue": "Pharmaceutical Dosage Form", "synonyms": ["Cream Dosage Form"]}, {"conceptId": "C60897", "definition": "A cream dosage form that enhances drug delivery. Augmentation does not refer to the strength of the drug in the dosage form. NOTE: CDER has decided to refrain from expanding the use of this dosage form due to difficulties in setting specific criteria that must be met to be considered augmented. (FDA)", "preferredTerm": "", "submissionValue": "Pharmaceutical Dosage Form", "synonyms": ["Augmented Cream Dosage Form"]}, {"conceptId": "C42901", "definition": "A naturally produced angular solid of definite form in which the ultimate units from which it is built up are systematically arranged; they are usually evenly spaced on a regular space lattice.", "preferredTerm": "", "submissionValue": "Pharmaceutical Dosage Form", "synonyms": ["Crystal Dosage Form"]}, {"conceptId": "C45415", "definition": "The propagation of microorganisms or of living tissue cells in special media conducive to their growth. (NCI)", "preferredTerm": "", "submissionValue": "Pharmaceutical Dosage Form", "synonyms": ["Culture Dosage Form"]}, {"conceptId": "C47890", "definition": "A device usually dome-shaped, worn during copulation over the cervical mouth for prevention of conception or infection. (NCI)", "preferredTerm": "", "submissionValue": "Pharmaceutical Dosage Form", "synonyms": ["Diaphragm Dosage Form"]}, {"conceptId": "C43525", "definition": "A circular plate-like organ or structure. (FDA)", "preferredTerm": "", "submissionValue": "Pharmaceutical Dosage Form", "synonyms": ["Disc Dosage Form"]}, {"conceptId": "C42679", "definition": "A liquid preparation, intended for the irrigative cleansing of the vagina, that is prepared from powders, liquid solutions, or liquid concentrates and contains one or more chemical substances dissolved in a suitable solvent or mutually miscible solvents. (NCI)", "preferredTerm": "", "submissionValue": "Pharmaceutical Dosage Form", "synonyms": ["Douche Dosage Form"]}, {"conceptId": "C42763", "definition": "The application of various materials for protecting a wound.(FDA)", "preferredTerm": "", "submissionValue": "Pharmaceutical Dosage Form", "synonyms": ["Dressing Dosage Form"]}, {"conceptId": "C17423", "definition": "Modern technology, distributed with or as a part of a drug product that allows for the uniform release or targeting of drugs to the body. (FDA)", "preferredTerm": "", "submissionValue": "Pharmaceutical Dosage Form", "synonyms": ["Drug Delivery System"]}, {"conceptId": "C42912", "definition": "A clear, pleasantly flavored, sweetened hydroalcoholic liquid containing dissolved medicinal agents; it is intended for oral use. (NCI)", "preferredTerm": "", "submissionValue": "Pharmaceutical Dosage Form", "synonyms": ["Elixir Dosage Form"]}, {"conceptId": "C42913", "definition": "A dosage form consisting of a two-phase system comprised of at least two immiscible liquids (1), one of which is dispersed as droplets (internal or dispersed phase) within the other liquid (external or continuous phase), generally stabilized with one or more emulsifying agents. Note 1: A liquid is pourable; it flows and conforms to its container at room temperature. It displays Newtonian or pseudoplastic flow behavior. Note 2: Emulsion is used as a dosage form term unless a more specific term is applicable, e.g. cream, lotion, ointment. (NCI)", "preferredTerm": "", "submissionValue": "Pharmaceutical Dosage Form", "synonyms": ["Emulsion Dosage Form"]}, {"conceptId": "C42915", "definition": "A rectal preparation for therapeutic, diagnostic, or nutritive purposes. (NCI)", "preferredTerm": "", "submissionValue": "Pharmaceutical Dosage Form", "synonyms": ["Enema Dosage Form"]}, {"conceptId": "C42929", "definition": "A concentrated preparation of vegetable or animal drugs obtained by removal of the active constituents of the respective drugs with a suitable menstrua, evaporation of all or nearly all of the solvent, and adjustment of the residual masses or powders to the prescribed standards. (NCI)", "preferredTerm": "", "submissionValue": "Pharmaceutical Dosage Form", "synonyms": ["Extract Dosage Form"]}, {"conceptId": "C60926", "definition": "A slender and elongated solid thread-like substance that delivers drug in such a manner to allow a reduction in dosing frequency as compared to that drug (or drugs) presented as a conventional dosage form. (FDA)", "preferredTerm": "", "submissionValue": "Pharmaceutical Dosage Form", "synonyms": ["Extended Release Fiber Dosage Form"]}, {"conceptId": "C42932", "definition": "A thin layer or coating. (NCI)", "preferredTerm": "", "submissionValue": "Pharmaceutical Dosage Form", "synonyms": ["Film Dosage Form"]}, {"conceptId": "C42920", "definition": "A drug delivery system in the form of a film that releases the drug over an extended period in such a way as to maintain constant drug levels in the blood or target tissue. (NCI)", "preferredTerm": "", "submissionValue": "Pharmaceutical Dosage Form", "synonyms": ["Extended Release Film Dosage Form"]}, {"conceptId": "C42984", "definition": "A thin layer or coating which is susceptible to being dissolved when in contact with a liquid. (NCI)", "preferredTerm": "", "submissionValue": "Pharmaceutical Dosage Form", "synonyms": ["Soluble Film Dosage Form"]}, {"conceptId": "C60927", "definition": "A product, usually a solid, intended for solution prior to administration. (FDA)", "preferredTerm": "", "submissionValue": "Pharmaceutical Dosage Form", "synonyms": ["Dosage Form For Solution"]}, {"conceptId": "C60928", "definition": "A product, usually a solid, intended for suspension prior to administration. (FDA)", "preferredTerm": "", "submissionValue": "Pharmaceutical Dosage Form", "synonyms": ["Dosage Form For Suspension"]}, {"conceptId": "C60929", "definition": "A product, usually a solid, intended for suspension prior to administration; once the suspension is administered, the drug will be released at a constant rate over a specified period. (FDA)", "preferredTerm": "", "submissionValue": "Pharmaceutical Dosage Form", "synonyms": ["Extended Release Dosage Form For Suspension"]}, {"conceptId": "C42933", "definition": "Any elastic aeriform fluid in which the molecules are separated from one another and have free paths. (NCI)", "preferredTerm": "", "submissionValue": "Pharmaceutical Dosage Form", "synonyms": ["Gas Dosage Form"]}, {"conceptId": "C42934", "definition": "A semisolid (1) dosage form that contains a gelling agent to provide stiffness to a solution or a colloidal dispersion (2). A gel may contain suspended particles. Note 1: A semisolid is not pourable; it does not flow or conform to its container at room temperature. It does not flow at low shear stress and generally exhibits plastic flow behavior. Note 2: A colloidal dispersion is a system in which particles of colloidal dimension (i.e., typically between 1 nm and 1 micrometer) are distributed uniformly throughout a liquid. (NCI)", "preferredTerm": "", "submissionValue": "Pharmaceutical Dosage Form", "synonyms": ["Gel Dosage Form"]}, {"conceptId": "C42906", "definition": "A combination of a dentifrice (formulation intended to clean and/or polish the teeth, and which may contain certain additional agents), and a gel. It is used with a toothbrush for the purpose of cleaning and polishing the teeth. (NCI)", "preferredTerm": "", "submissionValue": "Pharmaceutical Dosage Form", "synonyms": ["Dentifrice Gel Dosage Form"]}, {"conceptId": "C60930", "definition": "A gel preparation, with metered dose valves, which allow for the delivery of a uniform quantity of gel upon each activation. (FDA)", "preferredTerm": "", "submissionValue": "Pharmaceutical Dosage Form", "synonyms": ["Metered Gel Dosage Form"]}, {"conceptId": "C48193", "definition": "An apparatus for the formation of vapor or gas from a liquid or solid by heat or chemical action. The term GENERATOR also applies to radioactive columns from which radionuclides are provided. (NCI)", "preferredTerm": "", "submissionValue": "Pharmaceutical Dosage Form", "synonyms": ["Generator Dosage Form"]}, {"conceptId": "C42937", "definition": "Also called pellets or pilules, are made of pure sucrose, lactose, or other polysaccharides. They are formed into small globular masses of various sizes, and are medicated by placing them in a vial and adding the liquid drug attenuation in the proportion not less than one percent (v/w). After shaking, the medicated globules are dried at temperatures not to exceed 40 degrees Centigrade. (NCI)", "preferredTerm": "", "submissionValue": "Pharmaceutical Dosage Form", "synonyms": ["Globule Dosage Form"]}, {"conceptId": "C45416", "definition": "A slip of skin or of other tissue for implantation. (NCI)", "preferredTerm": "", "submissionValue": "Pharmaceutical Dosage Form", "synonyms": ["Graft Dosage Form"]}, {"conceptId": "C42938", "definition": "A small particle or grain. (NCI)", "preferredTerm": "", "submissionValue": "Pharmaceutical Dosage Form", "synonyms": ["Granule Dosage Form"]}, {"conceptId": "C42903", "definition": "A small medicinal particle or grain to which an enteric or other coating has been applied, thus delaying release of the drug until its passage into the intestines. (NCI)", "preferredTerm": "", "submissionValue": "Pharmaceutical Dosage Form", "synonyms": ["Delayed Release Granule Dosage Form"]}, {"conceptId": "C42909", "definition": "A small particle or grain containing a medicinal agent in a dry mixture usually composed of sodium bicarbonate, citric acid, and tartaric acid which, when in contact with water, has the capability to release gas, resulting in effervescence. (NCI)", "preferredTerm": "", "submissionValue": "Pharmaceutical Dosage Form", "synonyms": ["Effervescent Granule Dosage Form"]}, {"conceptId": "C42939", "definition": "A small medicinal particle or grain made available in its more stable dry form, to be reconstituted with solvent just before dispensing; the granules are so prepared to contain not only the medicinal agent, but the colorants, flavorants, and any other desired pharmaceutic ingredient. (NCI)", "preferredTerm": "", "submissionValue": "Pharmaceutical Dosage Form", "synonyms": ["Granule For Solution Dosage Form"]}, {"conceptId": "C42940", "definition": "A small medicinal particle or grain made available in its more stable dry form, to be reconstituted with solvent just before dispensing to form a suspension; the granules are so prepared to contain not only the medicinal agent, but the colorants, flavorants, and any other desired pharmaceutic ingredient. (NCI)", "preferredTerm": "", "submissionValue": "Pharmaceutical Dosage Form", "synonyms": ["Granule For Suspension Dosage Form"]}, {"conceptId": "C42921", "definition": "A small medicinal particle or grain made available in its more stable dry form, to be reconstituted with solvent just before dispensing to form a suspension; the extended release system achieves slow release of the drug over an extended period of time and maintains constant drug levels in the blood or target tissue. (NCI)", "preferredTerm": "", "submissionValue": "Pharmaceutical Dosage Form", "synonyms": ["Extended Release Granule For Suspension Dosage Form"]}, {"conceptId": "C42941", "definition": "A mucilaginous excretion from various plants. (NCI)", "preferredTerm": "", "submissionValue": "Pharmaceutical Dosage Form", "synonyms": ["Gum Dosage Form"]}, {"conceptId": "C42894", "definition": "A sweetened and flavored insoluble plastic material of various shapes which when chewed, releases a drug substance into the oral cavity. (NCI)", "preferredTerm": "", "submissionValue": "Pharmaceutical Dosage Form", "synonyms": ["Chewing Gum Dosage Form"]}, {"conceptId": "C42978", "definition": "Natural mixture of gum and resin, usually obtained as exudations from plants. (NCI)", "preferredTerm": "", "submissionValue": "Pharmaceutical Dosage Form", "synonyms": ["Resin Gum Dosage Form"]}, {"conceptId": "C42942", "definition": "A material containing drug intended to be inserted securely and deeply in a living site for growth, slow release, or formation of an organic union. (NCI)", "preferredTerm": "", "submissionValue": "Pharmaceutical Dosage Form", "synonyms": ["Implant Dosage Form"]}, {"conceptId": "C42944", "definition": "A special class of inhalations consisting of a drug or combination of drugs, that by virtue of their high vapor pressure, can be carried by an air current into the nasal passage where they exert their effect; the container from which the inhalant generally is administered is known as an inhaler. (NCI)", "preferredTerm": "", "submissionValue": "Pharmaceutical Dosage Form", "synonyms": ["Inhalant Dosage Form"]}, {"conceptId": "C60931", "definition": "An injection, which either consists of or forms liposomes (a lipid bilayer vesicle usually composed of phospholipids which is used to encapsulate an active drug substance). (FDA)", "preferredTerm": "", "submissionValue": "Pharmaceutical Dosage Form", "synonyms": ["Liposomal Injection Dosage Form"]}, {"conceptId": "C42946", "definition": "A sterile preparation intended for parenteral use; five distinct classes of injections exist as defined by the USP. (NCI)", "preferredTerm": "", "submissionValue": "Pharmaceutical Dosage Form", "synonyms": ["Injectable Dosage Form"]}, {"conceptId": "C42914", "definition": "An emulsion consisting of a sterile, pyrogen-free preparation intended to be administered parenterally.(FDA)", "preferredTerm": "", "submissionValue": "Pharmaceutical Dosage Form", "synonyms": ["Emulsion for Injection Dosage Form"]}, {"conceptId": "C42950", "definition": "[definition pending](FDA)", "preferredTerm": "", "submissionValue": "Pharmaceutical Dosage Form", "synonyms": ["Injectable Lipid Complex Dosage Form"]}, {"conceptId": "C42974", "definition": "A sterile preparation intended for reconstitution to form a solution for parenteral use. (NCI)", "preferredTerm": "", "submissionValue": "Pharmaceutical Dosage Form", "synonyms": ["Powder For Injectable Solution Dosage Form"]}, {"conceptId": "C42976", "definition": "A sterile preparation intended for reconstitution to form a suspension for parenteral use. (NCI)", "preferredTerm": "", "submissionValue": "Pharmaceutical Dosage Form", "synonyms": ["Powder For Injectable Suspension Dosage Form"]}, {"conceptId": "C42977", "definition": "A dried preparation intended for reconstitution to form a suspension for parenteral use which has been formulated in a manner to allow at least a reduction in dosing frequency as compared to that drug presented as a conventional dosage form (e.g., as a solution).(FDA)", "preferredTerm": "", "submissionValue": "Pharmaceutical Dosage Form", "synonyms": ["Powder For Injectable Extended Release Suspension Dosage Form"]}, {"conceptId": "C42959", "definition": "A sterile freeze dried preparation intended for reconstitution for parenteral use which has been formulated in a manner that would allow liposomes (a lipid bilayer vesicle usually composed of phospholipids which is used to encapsulate an active drug substance, either within a lipid bilayer or in an aqueous space) to be formed upon reconstitution. (NCI)", "preferredTerm": "", "submissionValue": "Pharmaceutical Dosage Form", "synonyms": ["Lyophilized Powder For Injectable Liposomal Suspension Dosage Form"]}, {"conceptId": "C42957", "definition": "A dosage form intended for the solution prepared by lyophilization ('freeze drying'), a process which involves the removal of water from products in the frozen state at extremely low pressures; this is intended for subsequent addition of liquid to create a solution that conforms in all respects to the requirements for Injections. (NCI)", "preferredTerm": "", "submissionValue": "Pharmaceutical Dosage Form", "synonyms": ["Lyophilized Powder For Injectable Solution Dosage Form"]}, {"conceptId": "C42958", "definition": "A liquid preparation, intended for parenteral use, that contains solids suspended in a suitable fluid medium and conforms in all respects to the requirements for Sterile Suspensions; the medicinal agents intended for the suspension are prepared by lyophilization (\"freeze drying\"), a process which involves the removal of water from products in the frozen state at extremely low pressures. (NCI)", "preferredTerm": "", "submissionValue": "Pharmaceutical Dosage Form", "synonyms": ["Lyophilized Powder For Injectable Suspension Dosage Form"]}, {"conceptId": "C42956", "definition": "A sterile freeze dried preparation intended for reconstitution for parenteral use which has been formulated in a manner to allow at least a reduction in dosing frequency as compared to that drug presented as a conventional dosage form (e.g., as a solution). (NCI)", "preferredTerm": "", "submissionValue": "Pharmaceutical Dosage Form", "synonyms": ["Lyophilized Powder For Extended Release Injectable Suspension Dosage Form"]}, {"conceptId": "C42945", "definition": "A liquid preparation containing one or more drug substances dissolved in a suitable solvent or mixture of mutually miscible solvents that is suitable for injection. (NCI)", "preferredTerm": "", "submissionValue": "Pharmaceutical Dosage Form", "synonyms": ["Injectable Solution Dosage Form"]}, {"conceptId": "C42899", "definition": "A sterile preparation for parenteral use which, upon the addition of suitable solvents, yields a solution conforming in all respects to the requirements for Injections. (NCI)", "preferredTerm": "", "submissionValue": "Pharmaceutical Dosage Form", "synonyms": ["Concentrate for Injectable Solution Dosage Form"]}, {"conceptId": "C42995", "definition": "A liquid preparation, suitable for injection, which consists of solid particles dispersed throughout a liquid phase in which the particles are not soluble. It can also consist of an oil phase dispersed throughout an aqueous phase, or vice-versa. (NCI)", "preferredTerm": "", "submissionValue": "Pharmaceutical Dosage Form", "synonyms": ["Injectable Suspension Dosage Form"]}, {"conceptId": "C42926", "definition": "A sterile preparation intended for parenteral use which has been formulated in a manner to allow at least a reduction in dosing frequency as compared to that drug presented as a conventional dosage form (e.g., as a solution or a prompt drug-releasing, conventional solid dosage form). (NCI)", "preferredTerm": "", "submissionValue": "Pharmaceutical Dosage Form", "synonyms": ["Injectable Extended Release Suspension Dosage Form"]}, {"conceptId": "C42951", "definition": "A liquid parenteral pharmaceutical dosage form structured as a multilamellar composition of concentric phospholipid spheres that encapsulate the drug (drug delivery systems) separated by layers of water. Drug release is facilitated and controlled by in vivo erosion of the liposomes. To further increase the in vivo circulation time, liposomes in some preparations are covalently derivatized with PEG to produce PEGylated or stealth liposomes. Covalent attachment of drugs to the outer surface of liposomes can potentially serve as a delayed-release product. (NCI)", "preferredTerm": "", "submissionValue": "Pharmaceutical Dosage Form", "synonyms": ["Injectable Liposomal Suspension Dosage Form"]}, {"conceptId": "C42988", "definition": "A liquid preparation, suitable for injection, which consists of solid particles dispersed throughout a liquid phase in which the particles are not soluble. In addition, the product is sonicated while a gas is bubbled through the suspension, and this results in the formation of microspheres by the solid particles. (NCI)", "preferredTerm": "", "submissionValue": "Pharmaceutical Dosage Form", "synonyms": ["Injectable Sonicated Suspension Dosage Form"]}, {"conceptId": "C60933", "definition": "A specially formulated and shaped non-encapsulated solid preparation intended to be placed into a non-rectal orifice of the body, where drug is released, generally for localized effects. (FDA)", "preferredTerm": "", "submissionValue": "Pharmaceutical Dosage Form", "synonyms": ["Insert Dosage Form"]}, {"conceptId": "C42922", "definition": "A specially formulated and shaped solid preparation (e.g., ring, tablet, or stick) intended to be placed in the vagina by special inserters, where the medication is released, generally for localized effects; the extended release preparation is designed to allow a reduction in dosing frequency. (NCI)", "preferredTerm": "", "submissionValue": "Pharmaceutical Dosage Form", "synonyms": ["Extended Release Insert Dosage Form"]}, {"conceptId": "C47915", "definition": "A device inserted and left in the uterus to prevent effective conception. (NCI)", "preferredTerm": "", "submissionValue": "Pharmaceutical Dosage Form", "synonyms": ["Intrauterine Device Dosage Form"]}, {"conceptId": "C42947", "definition": "A sterile solution intended to bathe or flush open wounds or body cavities; they're used topically, never parenterally. (NCI)", "preferredTerm": "", "submissionValue": "Pharmaceutical Dosage Form", "synonyms": ["Irrigant Dosage Form"]}, {"conceptId": "C42948", "definition": "A class of gels--semisolid systems which consist of suspensions made up of either small inorganic particles or large organic molecules interpenetrated by a liquid--in which the structural coherent matrix contains a high portion of liquid, usually water. (NCI)", "preferredTerm": "", "submissionValue": "Pharmaceutical Dosage Form", "synonyms": ["Jelly Dosage Form"]}, {"conceptId": "C47916", "definition": "A packaged collection of related material. (NCI)", "preferredTerm": "", "submissionValue": "Pharmaceutical Dosage Form", "synonyms": ["Kit Dosage Form"]}, {"conceptId": "C45413", "definition": "A material applied to the inside of the dental cavity, for protection or insulation of the surface.(FDA)", "preferredTerm": "", "submissionValue": "Pharmaceutical Dosage Form", "synonyms": ["Dental Liner Dosage Form"]}, {"conceptId": "C42949", "definition": "A solution or mixture of various substances in oil, alcoholic solutions of soap, or emulsions intended for external application. (NCI)", "preferredTerm": "", "submissionValue": "Pharmaceutical Dosage Form", "synonyms": ["Liniment Dosage Form"]}, {"conceptId": "C42952", "definition": "A waxy solid, usually colored cosmetic, in stick form for the lips. (NCI)", "preferredTerm": "", "submissionValue": "Pharmaceutical Dosage Form", "synonyms": ["Lipstick Dosage Form"]}, {"conceptId": "C42953", "definition": "A dosage form consisting of a pure chemical in its liquid state. This dosage form term should not be applied to solutions. Note: A liquid is pourable; it flows and conforms to its container at room temperature. It displays Newtonian or pseudoplastic flow behavior.(FDA)", "preferredTerm": "", "submissionValue": "Pharmaceutical Dosage Form", "synonyms": ["Liquid Dosage Form"]}, {"conceptId": "C60934", "definition": "A liquid that delivers a drug in such a manner to allow a reduction in dosing frequency as compared to that drug (or drugs) presented as a conventional dosage form. (FDA)", "preferredTerm": "", "submissionValue": "Pharmaceutical Dosage Form", "synonyms": ["Extended Release Liquid Dosage Form"]}, {"conceptId": "C29167", "definition": "An emulsion, liquid (1) dosage form. This dosage form is generally for external application to the skin (2). Note 1: A liquid is pourable; it flows and conforms to its container at room temperature. It displays Newtonian or pseudoplastic flow behavior. Note 2: Previously the definition of a lotion was: The term lotion has been used to categorize many topical suspensions, solutions, and emulsions intended for application to the skin. The current definition of a lotion is restricted to an emulsion. (FDA)", "preferredTerm": "", "submissionValue": "Pharmaceutical Dosage Form", "synonyms": ["Lotion Dosage Form"]}, {"conceptId": "C60957", "definition": "A lotion dosage form that enhances drug delivery. Augmentation does not refer to the strength of the drug in the dosage form. NOTE: CDER has decided to refrain from expanding the use of this dosage form due to difficulties in setting specific criteria that must be met to be considered augmented. (FDA)", "preferredTerm": "", "submissionValue": "Pharmaceutical Dosage Form", "synonyms": ["Augmented Lotion Dosage Form"]}, {"conceptId": "C60958", "definition": "A lotion dosage form which has a soap or detergent that is usually used to clean the hair and scalp; it is often used as a vehicle for dermatologic agents. (FDA)", "preferredTerm": "", "submissionValue": "Pharmaceutical Dosage Form", "synonyms": ["Lotion Shampoo Dosage Form"]}, {"conceptId": "C42955", "definition": "A solid preparation containing one or more medicaments, usually in a flavored, sweetened base which is intended to dissolve or disintegrate slowly in the mouth. A lollipop is a lozenge on a stick.(FDA)", "preferredTerm": "", "submissionValue": "Pharmaceutical Dosage Form", "synonyms": ["Lozenge Dosage Form"]}, {"conceptId": "C29269", "definition": "An aqueous solution which is most often used for its deodorant, refreshing, or antiseptic effect. (NCI)", "preferredTerm": "", "submissionValue": "Pharmaceutical Dosage Form", "synonyms": ["Mouthwash Dosage Form"]}, {"conceptId": "C48624", "definition": "The use of a dosage form term is not relevant or appropriate. (NCI)", "preferredTerm": "", "submissionValue": "Pharmaceutical Dosage Form", "synonyms": ["Dosage Form Not Applicable"]}, {"conceptId": "C42965", "definition": "An unctuous, combustible substance which is liquid, or easily liquefiable, on warming, and is soluble in ether but insoluble in water. Such substances, depending on their origin, are classified as animal, mineral, or vegetable oils. (NCI)", "preferredTerm": "", "submissionValue": "Pharmaceutical Dosage Form", "synonyms": ["Oil Dosage Form"]}, {"conceptId": "C42966", "definition": "A suspension or emulsion, semisolid (1) dosage form, usually containing < 20% water and volatiles (2) and > 50% hydrocarbons, waxes, or polyols as the vehicle. This dosage form is generally for external application to the skin or mucous membranes. Note 1: A semisolid is not pourable; it does not flow or conform to its container at room temperature. It does not flow at low shear stress and generally exhibits plastic flow behavior. Note 2: Percent water and volatiles are measured by a loss on drying test in which the sample is heated at 105 degrees C until constant weight is achieved. (NCI)", "preferredTerm": "oint", "submissionValue": "Pharmaceutical Dosage Form", "synonyms": ["Ointment Dosage Form"]}, {"conceptId": "C60984", "definition": "An ointment dosage form that enhances drug delivery. Augmentation does not refer to the strength of the drug in the dosage form. NOTE: CDER has decided to refrain from expanding the use of this dosage form due to difficulties in setting specific criteria that must be met to be considered augmented. (FDA)", "preferredTerm": "", "submissionValue": "Pharmaceutical Dosage Form", "synonyms": ["Augmented Ointment Dosage Form"]}, {"conceptId": "C47887", "definition": "A material, usually covered by or impregnated with a drug, that is inserted into a body cavity or between the tooth enamel and the gingival margin.(FDA)", "preferredTerm": "", "submissionValue": "Pharmaceutical Dosage Form", "synonyms": ["Packing Dosage Form"]}, {"conceptId": "C42967", "definition": "A semisolid dosage form, containing a large proportion (20 - 50%) of solids finely dispersed in a fatty vehicle. This dosage form is generally for external application to the skin or mucous membranes. Note: A semisolid is not pourable; it does not flow or conform to its container at room temperature. It does not flow at low shear stress and generally exhibits plastic flow behavior. (NCI)", "preferredTerm": "", "submissionValue": "Pharmaceutical Dosage Form", "synonyms": ["Paste Dosage Form"]}, {"conceptId": "C42907", "definition": "A paste formulation intended to clean and/or polish the teeth, and which may contain certain additional agents. (NCI)", "preferredTerm": "", "submissionValue": "Pharmaceutical Dosage Form", "synonyms": ["Dentifrice Paste Dosage Form"]}, {"conceptId": "C60985", "definition": "An aromatic preparation, often with a pleasing flavor, usually intended to dissolve in the mouth. (FDA)", "preferredTerm": "", "submissionValue": "Pharmaceutical Dosage Form", "synonyms": ["Pastille Dosage Form"]}, {"conceptId": "C42968", "definition": "A drug delivery system that often contains an adhesive backing that is usually applied to an external site on the body. Its ingredients either passively diffuse from, or are actively transported from, some portion of the patch. Depending upon the patch, the ingredients are either delivered to the outer surface of the body or into the body. A patch is sometimes synonymous with the terms Extended Release Film and System. (NCI)", "preferredTerm": "", "submissionValue": "Pharmaceutical Dosage Form", "synonyms": ["Patch Dosage Form"]}, {"conceptId": "C42923", "definition": "A drug delivery system in the form of a patch that releases the drug in such a manner that a reduction in dosing frequency compared to that drug presented as a conventional dosage form (e.g., a solution or a prompt drug-releasing, conventional solid dosage form). (NCI)", "preferredTerm": "", "submissionValue": "Pharmaceutical Dosage Form", "synonyms": ["Extended Release Patch Dosage Form"]}, {"conceptId": "C42911", "definition": "A drug delivery system in the form of a patch which is controlled by an electric current that releases the drug in such a manner that a reduction in dosing frequency compared to that drug presented as a conventional dosage form (e.g., a solution or a prompt drug-releasing, conventional solid dosage form). (NCI)", "preferredTerm": "", "submissionValue": "Pharmaceutical Dosage Form", "synonyms": ["Electrically Controlled Extended Release Patch Dosage Form"]}, {"conceptId": "C42969", "definition": "A small sterile solid mass consisting of a highly purified drug (with or without excipients) made by the formation of granules, or by compression and molding. (NCI)", "preferredTerm": "", "submissionValue": "Pharmaceutical Dosage Form", "synonyms": ["Pellet Dosage Form"]}, {"conceptId": "C42943", "definition": "A small sterile solid mass consisting of a highly purified drug (with or without excipients) made by the formation of granules, or by compression and molding; they are intended for implantation in the body (usually subcutaneously) for the purpose of providing continuous release of the drug over long periods of time. (NCI)", "preferredTerm": "", "submissionValue": "Pharmaceutical Dosage Form", "synonyms": ["Implantable Pellet Dosage Form"]}, {"conceptId": "C42918", "definition": "A solid dosage form in which the drug itself is in the form of granules to which varying amounts of coating have been applied, and which releases a drug (or drugs) in such a manner to allow a reduction in dosing frequency as compared to that drug (or drugs) presented as a conventional dosage form. (NCI)", "preferredTerm": "", "submissionValue": "Pharmaceutical Dosage Form", "synonyms": ["Extended Release Coated Pellets Dosage Form"]}, {"conceptId": "C25394", "definition": "A dose of medicine in the form of a small pellet. (NCI)", "preferredTerm": "", "submissionValue": "Pharmaceutical Dosage Form", "synonyms": ["Pill Dosage Form"]}, {"conceptId": "C42970", "definition": "Substance intended for external application made of such materials and of such consistency as to adhere to the skin and attach to a dressing; plasters are intended to afford protection and support and/or to furnish an occlusion and macerating action and to bring medication into close contact with the skin. (NCI)", "preferredTerm": "", "submissionValue": "Pharmaceutical Dosage Form", "synonyms": ["Plaster Dosage Form"]}, {"conceptId": "C47913", "definition": "A soft, moist mass of meal, herbs, seed, etc., usually applied hot in cloth that consists of gruel-like consistency. (NCI)", "preferredTerm": "", "submissionValue": "Pharmaceutical Dosage Form", "synonyms": ["Poultice Dosage Form"]}, {"conceptId": "C42972", "definition": "An intimate mixture of dry, finely divided drugs and/or chemicals that may be intended for internal or external use. (NCI)", "preferredTerm": "", "submissionValue": "Pharmaceutical Dosage Form", "synonyms": ["Powder Dosage Form"]}, {"conceptId": "C42908", "definition": "A powder formulation intended to clean and/or polish the teeth, and which may contain certain additional agents. (NCI)", "preferredTerm": "", "submissionValue": "Pharmaceutical Dosage Form", "synonyms": ["Dentifrice Powder Dosage Form"]}, {"conceptId": "C42973", "definition": "An intimate mixture of dry, finely divided drugs and/or chemicals, which, upon the addition of suitable vehicles, yields a solution. (NCI)", "preferredTerm": "", "submissionValue": "Pharmaceutical Dosage Form", "synonyms": ["Powder for Solution Dosage Form"]}, {"conceptId": "C42975", "definition": "An intimate mixture of dry, finely divided drugs and/or chemicals, which, upon the addition of suitable vehicles, yields a suspension (a liquid preparation containing the solid particles dispersed in the liquid vehicle). (NCI)", "preferredTerm": "", "submissionValue": "Pharmaceutical Dosage Form", "synonyms": ["Powder for Suspension Dosage Form"]}, {"conceptId": "C42961", "definition": "A powder dosage form that is situated inside a container that has a mechanism to deliver a specified quantity. (NCI)", "preferredTerm": "", "submissionValue": "Pharmaceutical Dosage Form", "synonyms": ["Metered Powder Dosage Form"]}, {"conceptId": "C60988", "definition": "A small circular object with a vacant circular center that is usually intended to be placed in the body by special inserters, where the medication is released, generally for localized effects. (FDA)", "preferredTerm": "", "submissionValue": "Pharmaceutical Dosage Form", "synonyms": ["Ring Dosage Form"]}, {"conceptId": "C42979", "definition": "A liquid used to cleanse by flushing. (NCI)", "preferredTerm": "", "submissionValue": "Pharmaceutical Dosage Form", "synonyms": ["Rinse Dosage Form"]}, {"conceptId": "C42980", "definition": "A thick ointment or cerate (a fat or wax based preparation with a consistency between an ointment and a plaster). (NCI)", "preferredTerm": "", "submissionValue": "Pharmaceutical Dosage Form", "synonyms": ["Salve Dosage Form"]}, {"conceptId": "C42981", "definition": "A liquid soap or detergent used to clean the hair and scalp and is often used as a vehicle for dermatologic agents. (NCI)", "preferredTerm": "", "submissionValue": "Pharmaceutical Dosage Form", "synonyms": ["Shampoo Dosage Form"]}, {"conceptId": "C42982", "definition": "A liquid soap or detergent containing one or more solid, insoluble substances dispersed in a liquid vehicle that is used to clean the hair and scalp and is often used as a vehicle for dermatologic agents. (NCI)", "preferredTerm": "", "submissionValue": "Pharmaceutical Dosage Form", "synonyms": ["Shampoo Suspension Dosage Form"]}, {"conceptId": "C42983", "definition": "Any compound of one or more fatty acids, or their equivalents, with an alkali; soap is detergent and is much employed in liniments, enemas, and in making pills. It is also a mild aperient, antacid and antiseptic. (NCI)", "preferredTerm": "", "submissionValue": "Pharmaceutical Dosage Form", "synonyms": ["Soap Dosage Form"]}, {"conceptId": "C42986", "definition": "A clear, homogeneous liquid dosage form that contains one or more chemical substances dissolved in a solvent or mixture of mutually miscible solvents. Note: A liquid is pourable; it flows and conforms to its container at room temperature. It displays Newtonian or pseudoplastic flow behavior. (NCI)", "preferredTerm": "", "submissionValue": "Pharmaceutical Dosage Form", "synonyms": ["Solution Dosage Form"]}, {"conceptId": "C42898", "definition": "A liquid preparation (i.e., a substance that flows readily in its natural state) that contains a drug dissolved in a suitable solvent or mixture of mutually miscible solvents; the drug has been strengthened by the evaporation of its non-active parts. (NCI)", "preferredTerm": "", "submissionValue": "Pharmaceutical Dosage Form", "synonyms": ["Concentrate for Solution Dosage Form"]}, {"conceptId": "C42987", "definition": "A solution for the preparation of an iced saline slush, which is administered by irrigation and used to induce regional hypothermia (in conditions such as certain open heart and kidney surgical procedures) by its direct application. (NCI)", "preferredTerm": "", "submissionValue": "Pharmaceutical Dosage Form", "synonyms": ["Solution For Slush Dosage Form"]}, {"conceptId": "C60994", "definition": "A solution, which after usually being administered in a drop-wise fashion, forms a gel. (FDA)", "preferredTerm": "", "submissionValue": "Pharmaceutical Dosage Form", "synonyms": ["Gel Forming Drops Solution Dosage Form"]}, {"conceptId": "C42935", "definition": "A solution that forms a gel when it comes in contact with ocular fluid, and which allows at least a reduction in dosing frequency. (FDA)", "preferredTerm": "", "submissionValue": "Pharmaceutical Dosage Form", "synonyms": ["Extended Release Gel Forming Solution Dosage Form"]}, {"conceptId": "C60992", "definition": "A solution which is usually administered in a drop-wise fashion. (FDA)", "preferredTerm": "", "submissionValue": "Pharmaceutical Dosage Form", "synonyms": ["Drops Solution Dosage Form"]}, {"conceptId": "C47912", "definition": "A porous, interlacing, absorbent material that contains a drug. It is typically used for applying or introducing medication, or for cleansing. A sponge usually retains its shape.(FDA)", "preferredTerm": "", "submissionValue": "Pharmaceutical Dosage Form", "synonyms": ["Sponge Dosage Form"]}, {"conceptId": "C42989", "definition": "A liquid minutely divided as by a jet of air or steam. (NCI)", "preferredTerm": "", "submissionValue": "Pharmaceutical Dosage Form", "synonyms": ["Spray Dosage Form"]}, {"conceptId": "C42962", "definition": "A non-pressurized dosage form consisting of valves which allow the dispensing of a specified quantity of spray upon each activation. (NCI)", "preferredTerm": "", "submissionValue": "Pharmaceutical Dosage Form", "synonyms": ["Metered Spray Dosage Form"]}, {"conceptId": "C42990", "definition": "A liquid preparation containing solid particles dispersed in a liquid vehicle and in the form of coarse droplets or as finely divided solids to be applied locally, most usually to the nasal-pharyngeal tract, or topically to the skin. (NCI)", "preferredTerm": "", "submissionValue": "Pharmaceutical Dosage Form", "synonyms": ["Spray Suspension Dosage Form"]}, {"conceptId": "C42991", "definition": "A dosage form prepared in a relatively long and slender often cylindrical form. (NCI)", "preferredTerm": "", "submissionValue": "Pharmaceutical Dosage Form", "synonyms": ["Stick Dosage Form"]}, {"conceptId": "C47914", "definition": "A long narrow piece of material.", "preferredTerm": "", "submissionValue": "Pharmaceutical Dosage Form", "synonyms": ["Strip Dosage Form"]}, {"conceptId": "C42993", "definition": "A solid body of various weights and shapes, adapted for introduction into the rectal, vaginal, or urethral orifice of the human body; they usually melt, soften, or dissolve at body temperature. (NCI)", "preferredTerm": "supp", "submissionValue": "Pharmaceutical Dosage Form", "synonyms": ["Suppository Dosage Form"]}, {"conceptId": "C42924", "definition": "A drug delivery system in the form of a suppository that allows at least a reduction in dosing frequency. (NCI)", "preferredTerm": "", "submissionValue": "Pharmaceutical Dosage Form", "synonyms": ["Extended Release Suppository Dosage Form"]}, {"conceptId": "C42994", "definition": "A liquid dosage form that contains solid particles dispersed in a liquid vehicle. Note: A liquid is pourable; it flows and conforms to its container at room temperature. It displays Newtonian or pseudoplastic flow behavior.(FDA)", "preferredTerm": "susp", "submissionValue": "Pharmaceutical Dosage Form", "synonyms": ["Suspension Dosage Form"]}, {"conceptId": "C42925", "definition": "A liquid preparation consisting of solid particles dispersed throughout a liquid phase in which the particles are not soluble; the suspension has been formulated in a manner to allow at least a reduction in dosing frequency as compared to that drug presented as a conventional dosage form (e.g., as a solution or a prompt drug-releasing, conventional solid dosage form). (NCI)", "preferredTerm": "", "submissionValue": "Pharmaceutical Dosage Form", "synonyms": ["Extended Release Suspension Dosage Form"]}, {"conceptId": "C60995", "definition": "A suspension which is usually administered in a dropwise fashion. (FDA)", "preferredTerm": "", "submissionValue": "Pharmaceutical Dosage Form", "synonyms": ["Drops Suspension Dosage Form"]}, {"conceptId": "C47889", "definition": "A strand or fiber used to hold wound edges in apposition during healing. (NCI)", "preferredTerm": "", "submissionValue": "Pharmaceutical Dosage Form", "synonyms": ["Suture Dosage Form"]}, {"conceptId": "C47898", "definition": "A small piece of relatively flat absorbent material that contains a drug. A swab may also be attached to one end of a small stick. A swab is typically used for applying medication or for cleansing. (NCI)", "preferredTerm": "", "submissionValue": "Pharmaceutical Dosage Form", "synonyms": ["Swab Dosage Form"]}, {"conceptId": "C42996", "definition": "An oral solution containing high concentrations of sucrose or other sugars; the term has also been used to include any other liquid dosage form prepared in a sweet and viscid vehicle, including oral suspensions. (NCI)", "preferredTerm": "", "submissionValue": "Pharmaceutical Dosage Form", "synonyms": ["Syrup Dosage Form"]}, {"conceptId": "C42998", "definition": "A solid dosage form containing medicinal substances with or without suitable diluents. (NCI)", "preferredTerm": "tab", "submissionValue": "Pharmaceutical Dosage Form", "synonyms": ["Tablet Dosage Form"]}, {"conceptId": "C42893", "definition": "A solid dosage form containing medicinal substances with or without suitable diluents that is intended to be chewed, producing a pleasant tasting residue in the oral cavity that is easily swallowed and does not leave a bitter or unpleasant after-taste. (NCI)", "preferredTerm": "", "submissionValue": "Pharmaceutical Dosage Form", "synonyms": ["Chewable Tablet Dosage Form"]}, {"conceptId": "C42897", "definition": "A solid dosage form that contains medicinal substances with or without suitable diluents and is covered with a designated coating. (NCI)", "preferredTerm": "", "submissionValue": "Pharmaceutical Dosage Form", "synonyms": ["Coated Tablet Dosage Form"]}, {"conceptId": "C60997", "definition": "A solid dosage form containing a conglomerate of medicinal particles that have each been covered with a coating. (FDA)", "preferredTerm": "", "submissionValue": "Pharmaceutical Dosage Form", "synonyms": ["Tablet Coated Particles Dosage Form"]}, {"conceptId": "C42905", "definition": "A solid dosage form which releases a drug (or drugs) at a time other than promptly after administration. Enteric-coated articles are delayed release dosage forms. (NCI)", "preferredTerm": "", "submissionValue": "Pharmaceutical Dosage Form", "synonyms": ["Delayed Release Tablet Dosage Form"]}, {"conceptId": "C42997", "definition": "A solid dosage form containing a conglomerate of medicinal particles that have been covered with a coating which releases a drug (or drugs) at a time other than promptly after administration. Enteric-coated articles are delayed release dosage forms. (NCI)", "preferredTerm": "", "submissionValue": "Pharmaceutical Dosage Form", "synonyms": ["Delayed Release Particles Tablet Dosage Form"]}, {"conceptId": "C42910", "definition": "A solid dosage form containing mixtures of acids (e.g., citric acid, tartaric acid) and sodium bicarbonate, which release carbon dioxide when dissolved in water; it is intended to be dissolved or dispersed in water before administration.(FDA)", "preferredTerm": "", "submissionValue": "Pharmaceutical Dosage Form", "synonyms": ["Effervescent Tablet Dosage Form"]}, {"conceptId": "C42927", "definition": "A solid dosage form containing a drug which allows at least a reduction in dosing frequency as compared to that drug presented in conventional dosage form. (NCI)", "preferredTerm": "", "submissionValue": "Pharmaceutical Dosage Form", "synonyms": ["Extended Release Tablet Dosage Form"]}, {"conceptId": "C42931", "definition": "A solid dosage form that contains medicinal substances with or without suitable diluents and is coated with a thin layer of a water-insoluble or water-soluble polymer. (NCI)", "preferredTerm": "", "submissionValue": "Pharmaceutical Dosage Form", "synonyms": ["Film Coated Tablet Dosage Form"]}, {"conceptId": "C42930", "definition": "A solid dosage form that contains medicinal substances with or without suitable diluents and is coated with a thin layer of a water-insoluble or water-soluble polymer; the tablet is formulated in such manner as to make the contained medicament available over an extended period of time following ingestion. (NCI)", "preferredTerm": "", "submissionValue": "Pharmaceutical Dosage Form", "synonyms": ["Film Coated Extended Release Tablet Dosage Form"]}, {"conceptId": "C61004", "definition": "A tablet that forms a solution when placed in a liquid. (FDA)", "preferredTerm": "", "submissionValue": "Pharmaceutical Dosage Form", "synonyms": ["Tablet For Solution Dosage Form"]}, {"conceptId": "C61005", "definition": "A tablet that forms a suspension when placed in a liquid (formerly referred to as a Dispersible Tablet).", "preferredTerm": "", "submissionValue": "Pharmaceutical Dosage Form", "synonyms": ["Tablet For Suspension Dosage Form"]}, {"conceptId": "C42964", "definition": "A solid dosage form containing medicinal substances that have been compressed to form a multiple-layered tablet or a tablet-within-a-tablet, the inner tablet being the core and the outer portion being the shell. (NCI)", "preferredTerm": "", "submissionValue": "Pharmaceutical Dosage Form", "synonyms": ["Multilayered Tablet Dosage Form"]}, {"conceptId": "C42963", "definition": "A solid dosage form containing medicinal substances that have been compressed to form a multiple-layered tablet or a tablet-within-a-tablet, the inner tablet being the core and the outer portion being the shell, which, additionally, is covered in a designated coating; the tablet is formulated in such manner as to allow at least a reduction in dosing frequency as compared to that drug presented as a conventional dosage form. (NCI)", "preferredTerm": "", "submissionValue": "Pharmaceutical Dosage Form", "synonyms": ["Multilayered Extended Release Tablet Dosage Form"]}, {"conceptId": "C42999", "definition": "A solid dosage form containing medicinal substances which disintegrates rapidly, usually within a matter of seconds, when placed upon the tongue. (NCI)", "preferredTerm": "", "submissionValue": "Pharmaceutical Dosage Form", "synonyms": ["Orally Disintegrating Tablet Dosage Form"]}, {"conceptId": "C61006", "definition": "A solid dosage form containing medicinal substances which disintegrates rapidly, usually within a matter of seconds, when placed upon the tongue, but which releases a drug (or drugs) at a time other than promptly after administration. (FDA)", "preferredTerm": "", "submissionValue": "Pharmaceutical Dosage Form", "synonyms": ["Tablet Orally Disintegrating Delayed Release Dosage Form"]}, {"conceptId": "C42985", "definition": "A solid dosage form that contains medicinal substances with or without suitable diluents and possesses the ability to dissolve in fluids. (NCI)", "preferredTerm": "", "submissionValue": "Pharmaceutical Dosage Form", "synonyms": ["Soluble Tablet Dosage Form"]}, {"conceptId": "C42992", "definition": "A solid dosage form that contains medicinal substances with or without suitable diluents and is coated with a colored or an uncolored water-soluble sugar. (NCI)", "preferredTerm": "", "submissionValue": "Pharmaceutical Dosage Form", "synonyms": ["Sugar Coated Tablet Dosage Form"]}, {"conceptId": "C47892", "definition": "A plug made of cotton, sponge, or oakum variously used in surgery to plug the nose, vagina, etc., for the control of hemorrhage or the absorption of secretions. (NCI)", "preferredTerm": "", "submissionValue": "Pharmaceutical Dosage Form", "synonyms": ["Tampon Dosage Form"]}, {"conceptId": "C47897", "definition": "A narrow woven fabric, or a narrow extruded synthetic (such as plastic), usually with an adhesive on one or both sides. (NCI)", "preferredTerm": "", "submissionValue": "Pharmaceutical Dosage Form", "synonyms": ["Tape Dosage Form"]}, {"conceptId": "C43000", "definition": "An alcoholic or hydroalcoholic solution prepared from vegetable materials or from chemical substances. (NCI)", "preferredTerm": "", "submissionValue": "Pharmaceutical Dosage Form", "synonyms": ["Tincture Dosage Form"]}, {"conceptId": "C43001", "definition": "A discoid-shaped solid containing the medicinal agent in a suitably flavored base; troches are placed in the mouth where they slowly dissolve, liberating the active ingredients. (NCI)", "preferredTerm": "", "submissionValue": "Pharmaceutical Dosage Form", "synonyms": ["Troche Dosage Form"]}, {"conceptId": "C43002", "definition": "A dosage form has yet to be assigned. (NCI)", "preferredTerm": "", "submissionValue": "Pharmaceutical Dosage Form", "synonyms": ["Unassigned Dosage Form"]}, {"conceptId": "C43003", "definition": "A thin slice of material containing a medicinal agent. (NCI)", "preferredTerm": "", "submissionValue": "Pharmaceutical Dosage Form", "synonyms": ["Wafer Dosage Form"]}]}, {"conceptId": "", "definition": "The status of the subject's completion of the study or a segment of the study, or the reason the subject discontinued the study or segment of the study.", "extensible": "Yes", "name": "Completion/Reason for Non-Completion", "preferredTerm": "Completion/Reason for Non-Completion", "submissionValue": "Completion/Reason for Non-Completion", "synonyms": ["CDISC SDTM Reason for Non-Completion Terminology"], "terms": [{"conceptId": "C41331", "definition": "Any untoward medical occurrence in a patient or clinical investigation subject administered a pharmaceutical product and which does not necessarily have a causal relationship with this treatment. An adverse event (AE) can therefore be any unintended sign (including an abnormal laboratory finding), symptom, or disease temporally associated with the use of a medicinal (investigational) product, whether or not related to the medicinal (investigational) product. NOTE: For further information, see the ICH Guideline for Clinical Safety Data Management: Definitions and Standards for Expedited Reporting. [Modified from ICH E2A] Synonyms: side effect, adverse experience. See also serious adverse event, serious adverse experience. (CDISC glossary)", "preferredTerm": "", "submissionValue": "Completion/Reason for Non-Completion", "synonyms": ["Adverse Event"]}, {"conceptId": "C25250", "definition": "To possess every necessary or normal part or component or step; having come or been brought to a conclusion. (NCI)", "preferredTerm": "", "submissionValue": "Completion/Reason for Non-Completion", "synonyms": ["Complete"]}, {"conceptId": "C28554", "definition": "The absence of life or state of being dead. (NCI)", "preferredTerm": "", "submissionValue": "Completion/Reason for Non-Completion", "synonyms": ["Death"]}, {"conceptId": "C48226", "definition": "The lack of expected or desired effect related to a therapy. (NCI)", "preferredTerm": "", "submissionValue": "Completion/Reason for Non-Completion", "synonyms": ["Lack of Efficacy"]}, {"conceptId": "C48227", "definition": "The loss or lack of continuation of a subject to follow-up.", "preferredTerm": "", "submissionValue": "Completion/Reason for Non-Completion", "synonyms": ["Lost To Follow-up"]}, {"conceptId": "C49631", "definition": "An indication that a subject has not agreed with or followed the instructions related to the study medication. (NCI)", "preferredTerm": "", "submissionValue": "Completion/Reason for Non-Completion", "synonyms": ["Non-Compliance With Study Drug"]}, {"conceptId": "C17649", "definition": "Different than the one(s) previously specified or mentioned. (NCI)", "preferredTerm": "Other", "submissionValue": "Completion/Reason for Non-Completion", "synonyms": ["Other"]}, {"conceptId": "C48250", "definition": "A position, opinion or judgment reached after consideration by a physician with reference to subject. (NCI)", "preferredTerm": "", "submissionValue": "Completion/Reason for Non-Completion", "synonyms": ["Physician Decision"]}, {"conceptId": "C25742", "definition": "Pregnancy is the state or condition of having a developing embryo or fetus in the body (uterus), after union of an ovum and spermatozoon, during the period from conception to birth. (NCI)", "preferredTerm": "", "submissionValue": "Completion/Reason for Non-Completion", "synonyms": ["Pregnancy"]}, {"conceptId": "C35571", "definition": "A disease process that is increasing in scope or severity. (NCI)", "preferredTerm": "", "submissionValue": "Completion/Reason for Non-Completion", "synonyms": ["Progressive Disease"]}, {"conceptId": "C48251", "definition": "An event or decision that stands in contrast to the guidelines set out by the protocol. (NCI)", "preferredTerm": "", "submissionValue": "Completion/Reason for Non-Completion", "synonyms": ["Protocol Violation"]}, {"conceptId": "C25746", "definition": "A healing process and/or an outcome implying relative health. The term is typically used in the context of direct and indirect effects of sickness or injury. (NCI)", "preferredTerm": "", "submissionValue": "Completion/Reason for Non-Completion", "synonyms": ["Recovery"]}, {"conceptId": "C49628", "definition": "The potential subject who does not meet one or more criteria required for participation in a trial.", "preferredTerm": "", "submissionValue": "Completion/Reason for Non-Completion", "synonyms": ["Trial Screen Failure"]}, {"conceptId": "C49632", "definition": "An indication that a clinical study was stopped by its sponsor. (NCI)", "preferredTerm": "", "submissionValue": "Completion/Reason for Non-Completion", "synonyms": ["Study Terminated By Sponsor"]}, {"conceptId": "C49633", "definition": "A problem with some technical aspect of a clinical study, usually related to an instrument. (NCI)", "preferredTerm": "", "submissionValue": "Completion/Reason for Non-Completion", "synonyms": ["Technical Problem"]}, {"conceptId": "C49634", "definition": "An indication that a study participant has removed itself from the study. (NCI)", "preferredTerm": "", "submissionValue": "Completion/Reason for Non-Completion", "synonyms": ["Withdrawal by Subject"]}]}, {"conceptId": "", "definition": "The relative relationship of a timepoint to a reference timepoint.", "extensible": "No", "name": "Relation to Reference Period", "preferredTerm": "Relation to Reference Period", "submissionValue": "Relation to Reference Period", "synonyms": ["CDISC SDTM Relation to Reference Period Terminology"], "terms": [{"conceptId": "C38008", "definition": "The time period following a point or another period of time. (NCI)", "preferredTerm": "", "submissionValue": "Relation to Reference Period", "synonyms": ["Status Post"]}, {"conceptId": "C25629", "definition": "Earlier in time or order. (NCI)", "preferredTerm": "", "submissionValue": "Relation to Reference Period", "synonyms": ["Prior"]}, {"conceptId": "C25490", "definition": "At some point in a given period of time. (NCI)", "preferredTerm": "", "submissionValue": "Relation to Reference Period", "synonyms": ["During"]}, {"conceptId": "C49640", "definition": "Within a certain period of time or after a certain point or period in time. (NCI)", "preferredTerm": "", "submissionValue": "Relation to Reference Period", "synonyms": ["During Or After"]}, {"conceptId": "C17998", "definition": "Not known, not observed, not recorded, or refused. (NCI)", "preferredTerm": "U; Unknown", "submissionValue": "Relation to Reference Period", "synonyms": ["Unknown"]}, {"conceptId": "C25456", "definition": "Occurring or operating at the same time.", "preferredTerm": "", "submissionValue": "Relation to Reference Period", "synonyms": ["Concurrent"]}, {"conceptId": "C53279", "definition": "Remain in force or carry on without letup; keep or maintain in unaltered condition; exist in time or space without stop or interruption. (NCI)", "preferredTerm": "Continuous", "submissionValue": "Relation to Reference Period", "synonyms": ["Continue"]}]}, {"conceptId": "", "definition": "The course by which a substance was administered in order to reach the site of action in the body.", "extensible": "Yes", "name": "Route of Administration", "preferredTerm": "Route of Administration", "submissionValue": "Route of Administration", "synonyms": ["CDISC SDTM Route of Administration Terminology"], "terms": [{"conceptId": "C38192", "definition": "Administration to or by way of the ear.(FDA)", "preferredTerm": "", "submissionValue": "Route of Administration", "synonyms": ["Auricular Route of Administration"]}, {"conceptId": "C38193", "definition": "Administration directed toward the cheek, generally from within the mouth.(FDA)", "preferredTerm": "", "submissionValue": "Route of Administration", "synonyms": ["Buccal Route of Administration"]}, {"conceptId": "C38194", "definition": "Administration to the conjunctiva, the delicate membrane that lines the eyelids and covers the exposed surface of the eyeball.(FDA)", "preferredTerm": "", "submissionValue": "Route of Administration", "synonyms": ["Conjunctival Route of Administration"]}, {"conceptId": "C38675", "definition": "Administration to the skin.(FDA)", "preferredTerm": "", "submissionValue": "Route of Administration", "synonyms": ["Cutaneous Route of Administration"]}, {"conceptId": "C38197", "definition": "Administration to a tooth or teeth.(FDA)", "preferredTerm": "", "submissionValue": "Route of Administration", "synonyms": ["Dental Route of Administration"]}, {"conceptId": "C38633", "definition": "Administration of through the diffusion of substance through a membrane in an electric field.(FDA)", "preferredTerm": "", "submissionValue": "Route of Administration", "synonyms": ["Electro-osmosis Route of Administration"]}, {"conceptId": "C38205", "definition": "Administration within the canal of the cervix uteri. Synonymous with the term intracervical.(FDA)", "preferredTerm": "", "submissionValue": "Route of Administration", "synonyms": ["Endocervical Route of Administration"]}, {"conceptId": "C38206", "definition": "Administration within the nasal sinuses of the head.(FDA)", "preferredTerm": "", "submissionValue": "Route of Administration", "synonyms": ["Endosinusial Route of Administration"]}, {"conceptId": "C38208", "definition": "Administration directly into the trachea. Synonymous with the term intratracheal.(FDA)", "preferredTerm": "", "submissionValue": "Route of Administration", "synonyms": ["Endotracheal Route of Administration"]}, {"conceptId": "C38209", "definition": "Administration directly into the intestines.(FDA)", "preferredTerm": "", "submissionValue": "Route of Administration", "synonyms": ["Enteral Route of Administration"]}, {"conceptId": "C38210", "definition": "Administration upon or over the dura mater.(FDA)", "preferredTerm": "", "submissionValue": "Route of Administration", "synonyms": ["Epidural Route of Administration"]}, {"conceptId": "C38211", "definition": "Administration to the outside of the membrane enveloping the fetus.(FDA)", "preferredTerm": "", "submissionValue": "Route of Administration", "synonyms": ["Extraamniotic Route of Administration"]}, {"conceptId": "C38212", "definition": "Administration outside of the body.(FDA)", "preferredTerm": "", "submissionValue": "Route of Administration", "synonyms": ["Extracorporeal Circulation Route of Administration"]}, {"conceptId": "C38200", "definition": "Administration through hemodialysate fluid.(FDA)", "preferredTerm": "", "submissionValue": "Route of Administration", "synonyms": ["Administration Via Hemodialysis"]}, {"conceptId": "C38215", "definition": "Administration that results in substances passing into tissue spaces or into cells.(FDA)", "preferredTerm": "", "submissionValue": "Route of Administration", "synonyms": ["Infiltration Route of Administration"]}, {"conceptId": "C38219", "definition": "Administration to or in the interstices of a tissue.(FDA)", "preferredTerm": "", "submissionValue": "Route of Administration", "synonyms": ["Interstitial Route of Administration"]}, {"conceptId": "C38220", "definition": "Administration within the abdomen.(FDA)", "preferredTerm": "", "submissionValue": "Route of Administration", "synonyms": ["Intraabdominal Route of Administration"]}, {"conceptId": "C38221", "definition": "Administration within the amnion.(FDA)", "preferredTerm": "", "submissionValue": "Route of Administration", "synonyms": ["Intraamniotic Route of Administration"]}, {"conceptId": "C38222", "definition": "Administration within an artery or arteries.(FDA)", "preferredTerm": "", "submissionValue": "Route of Administration", "synonyms": ["Intraarterial Route of Administration"]}, {"conceptId": "C38223", "definition": "Administration within a joint.(FDA)", "preferredTerm": "", "submissionValue": "Route of Administration", "synonyms": ["Intraarticular Route of Administration"]}, {"conceptId": "C38224", "definition": "Administration within the bile, bile ducts or gallbladder.(FDA)", "preferredTerm": "", "submissionValue": "Route of Administration", "synonyms": ["Intrabiliary Route of Administration"]}, {"conceptId": "C38225", "definition": "Administration within a bronchus.(FDA)", "preferredTerm": "", "submissionValue": "Route of Administration", "synonyms": ["Intrabronchial Route of Administration"]}, {"conceptId": "C38226", "definition": "Administration within a bursa.(FDA)", "preferredTerm": "", "submissionValue": "Route of Administration", "synonyms": ["Intrabursal Route of Administration"]}, {"conceptId": "C38227", "definition": "Administration within the heart.(FDA)", "preferredTerm": "", "submissionValue": "Route of Administration", "synonyms": ["Intracardiac Route of Administration"]}, {"conceptId": "C38228", "definition": "Administration within a cartilage; endochondral.(FDA)", "preferredTerm": "", "submissionValue": "Route of Administration", "synonyms": ["Intracartilaginous Route of Administration"]}, {"conceptId": "C38229", "definition": "Administration within the cauda equina.(FDA)", "preferredTerm": "", "submissionValue": "Route of Administration", "synonyms": ["Intracaudal Route of Administration"]}, {"conceptId": "C38230", "definition": "Administration within a pathologic cavity, such as occurs in the lung in tuberculosis.(FDA)", "preferredTerm": "", "submissionValue": "Route of Administration", "synonyms": ["Intracavernous Route of Administration"]}, {"conceptId": "C38231", "definition": "Administration within a non-pathologic cavity, such as that of the cervix, uterus, or penis, or such as that is formed as the result of a wound.(FDA)", "preferredTerm": "", "submissionValue": "Route of Administration", "synonyms": ["Intracavitary Route of Administration"]}, {"conceptId": "C38232", "definition": "Administration within the cerebrum.(FDA)", "preferredTerm": "", "submissionValue": "Route of Administration", "synonyms": ["Intracerebral Route of Administration"]}, {"conceptId": "C38233", "definition": "Administration within the cisterna magna cerebellomedularis.(FDA)", "preferredTerm": "", "submissionValue": "Route of Administration", "synonyms": ["Intracisternal Route of Administration"]}, {"conceptId": "C38234", "definition": "Administration within the cornea (the transparent structure forming the anterior part of the fibrous tunic of the eye).(FDA)", "preferredTerm": "", "submissionValue": "Route of Administration", "synonyms": ["Intracorneal Route of Administration"]}, {"conceptId": "C38217", "definition": "Administration of a drug within a portion of a tooth which is covered by enamel and which is separated from the roots by a slightly constricted region known as the neck.(FDA)", "preferredTerm": "", "submissionValue": "Route of Administration", "synonyms": ["Intracoronal Dental Route of Administration"]}, {"conceptId": "C38218", "definition": "Administration within the coronary arteries.(FDA)", "preferredTerm": "", "submissionValue": "Route of Administration", "synonyms": ["Intracoronary Route of Administration"]}, {"conceptId": "C38235", "definition": "Administration within the dilatable spaces of the corporus cavernosa of the penis.(FDA)", "preferredTerm": "", "submissionValue": "Route of Administration", "synonyms": ["Intracorporus Cavernosum Route of Administration"]}, {"conceptId": "C38238", "definition": "Administration within the dermis.(FDA)", "preferredTerm": "", "submissionValue": "Route of Administration", "synonyms": ["Intradermal Route of Administration"]}, {"conceptId": "C38239", "definition": "Administration within a disc.(FDA)", "preferredTerm": "", "submissionValue": "Route of Administration", "synonyms": ["Intradiscal Route of Administration"]}, {"conceptId": "C38240", "definition": "Administration within the duct of a gland.(FDA)", "preferredTerm": "", "submissionValue": "Route of Administration", "synonyms": ["Intraductal Route of Administration"]}, {"conceptId": "C38241", "definition": "Administration within the duodenum.(FDA)", "preferredTerm": "", "submissionValue": "Route of Administration", "synonyms": ["Intraduodenal Route of Administration"]}, {"conceptId": "C38242", "definition": "Administration within or beneath the dura.(FDA)", "preferredTerm": "", "submissionValue": "Route of Administration", "synonyms": ["Intradural Route of Administration"]}, {"conceptId": "C38243", "definition": "Administration within the epidermis.(FDA)", "preferredTerm": "", "submissionValue": "Route of Administration", "synonyms": ["Intraepidermal Route of Administration"]}, {"conceptId": "C38245", "definition": "Administration within the esophagus.(FDA)", "preferredTerm": "", "submissionValue": "Route of Administration", "synonyms": ["Intraesophageal Route of Administration"]}, {"conceptId": "C38246", "definition": "Administration within the stomach.(FDA)", "preferredTerm": "", "submissionValue": "Route of Administration", "synonyms": ["Intragastric Route of Administration"]}, {"conceptId": "C38247", "definition": "Administration within the gingivae.(FDA)", "preferredTerm": "", "submissionValue": "Route of Administration", "synonyms": ["Intragingival Route of Administration"]}, {"conceptId": "C38249", "definition": "Administration within the distal portion of the small intestine, from the jejunum to the cecum.(FDA)", "preferredTerm": "", "submissionValue": "Route of Administration", "synonyms": ["Intraileal Route of Administration"]}, {"conceptId": "C38250", "definition": "Administration within or introduced directly into a localized lesion.(FDA)", "preferredTerm": "", "submissionValue": "Route of Administration", "synonyms": ["Intralesional Route of Administration"]}, {"conceptId": "C38251", "definition": "Administration within the lumen of a tube.(FDA)", "preferredTerm": "", "submissionValue": "Route of Administration", "synonyms": ["Intraluminal Route of Administration"]}, {"conceptId": "C38252", "definition": "Administration within the lymph.(FDA)", "preferredTerm": "", "submissionValue": "Route of Administration", "synonyms": ["Intralymphatic Route of Administration"]}, {"conceptId": "C38253", "definition": "Administration within the marrow cavity of a bone.(FDA)", "preferredTerm": "", "submissionValue": "Route of Administration", "synonyms": ["Intramedullary Route of Administration"]}, {"conceptId": "C38254", "definition": "Administration within the meninges (the three membranes that envelope the brain and spinal cord).(FDA)", "preferredTerm": "", "submissionValue": "Route of Administration", "synonyms": ["Intrameningeal Route of Administration"]}, {"conceptId": "C28161", "definition": "Administration within a muscle. (FDA)", "preferredTerm": "", "submissionValue": "Route of Administration", "synonyms": ["Intramuscular Route of Administration"]}, {"conceptId": "C38255", "definition": "Administration within the eye.(FDA)", "preferredTerm": "", "submissionValue": "Route of Administration", "synonyms": ["Intraocular Route of Administration"]}, {"conceptId": "C38256", "definition": "Administration within the ovary.(FDA)", "preferredTerm": "", "submissionValue": "Route of Administration", "synonyms": ["Intraovarian Route of Administration"]}, {"conceptId": "C38257", "definition": "Administration within the pericardium.(FDA)", "preferredTerm": "", "submissionValue": "Route of Administration", "synonyms": ["Intrapericardial Route of Administration"]}, {"conceptId": "C38258", "definition": "Administration within the peritoneal cavity.(FDA)", "preferredTerm": "", "submissionValue": "Route of Administration", "synonyms": ["Intraperitoneal Route of Administration"]}, {"conceptId": "C38259", "definition": "Administration within the pleura.(FDA)", "preferredTerm": "", "submissionValue": "Route of Administration", "synonyms": ["Intrapleural Route of Administration"]}, {"conceptId": "C38260", "definition": "Administration within the prostate gland.(FDA)", "preferredTerm": "", "submissionValue": "Route of Administration", "synonyms": ["Intraprostatic Route of Administration"]}, {"conceptId": "C38261", "definition": "Administration within the lungs or its bronchi.(FDA)", "preferredTerm": "", "submissionValue": "Route of Administration", "synonyms": ["Intrapulmonary Route of Administration"]}, {"conceptId": "C38262", "definition": "Administration within the nasal or periorbital sinuses.(FDA)", "preferredTerm": "", "submissionValue": "Route of Administration", "synonyms": ["Intrasinal Route of Administration"]}, {"conceptId": "C38263", "definition": "Administration within the vertebral column.(FDA)", "preferredTerm": "", "submissionValue": "Route of Administration", "synonyms": ["Intraspinal Route of Administration"]}, {"conceptId": "C38264", "definition": "Administration within the synovial cavity of a joint.(FDA)", "preferredTerm": "", "submissionValue": "Route of Administration", "synonyms": ["Intrasynovial Route of Administration"]}, {"conceptId": "C38265", "definition": "Administration within a tendon.(FDA)", "preferredTerm": "", "submissionValue": "Route of Administration", "synonyms": ["Intratendinous Route of Administration"]}, {"conceptId": "C38266", "definition": "Administration within the testicle.(FDA)", "preferredTerm": "", "submissionValue": "Route of Administration", "synonyms": ["Intratesticular Route of Administration"]}, {"conceptId": "C38267", "definition": "Administration within the cerebrospinal fluid at any level of the cerebrospinal axis, including injection into the cerebral ventricles.(FDA)", "preferredTerm": "", "submissionValue": "Route of Administration", "synonyms": ["Intrathecal Route of Administration"]}, {"conceptId": "C38207", "definition": "Administration within the thorax (internal to the ribs); synonymous with the term endothoracic.(FDA)", "preferredTerm": "", "submissionValue": "Route of Administration", "synonyms": ["Endothoracic Route of Administration"]}, {"conceptId": "C38268", "definition": "Administration within the tubules of an organ.(FDA)", "preferredTerm": "", "submissionValue": "Route of Administration", "synonyms": ["Intratubular Route of Administration"]}, {"conceptId": "C38269", "definition": "Administration within a tumor.(FDA)", "preferredTerm": "Intratumor Route of Administration", "submissionValue": "Route of Administration", "synonyms": ["Intratumoral Route of Administration"]}, {"conceptId": "C38270", "definition": "Administration within the auris media.(FDA)", "preferredTerm": "", "submissionValue": "Route of Administration", "synonyms": ["Intratympanic Route of Administration"]}, {"conceptId": "C38272", "definition": "Administration within the uterus.(FDA)", "preferredTerm": "", "submissionValue": "Route of Administration", "synonyms": ["Intrauterine Route of Administration"]}, {"conceptId": "C38273", "definition": "Administration within a vessel or vessels.(FDA)", "preferredTerm": "", "submissionValue": "Route of Administration", "synonyms": ["Intravascular Route of Administration"]}, {"conceptId": "C38276", "definition": "Administration within or into a vein or veins.(FDA)", "preferredTerm": "", "submissionValue": "Route of Administration", "synonyms": ["Intravenous Route of Administration"]}, {"conceptId": "C38274", "definition": "Administration within or into a vein or veins all at once.(FDA)", "preferredTerm": "", "submissionValue": "Route of Administration", "synonyms": ["Intravenous Bolus"]}, {"conceptId": "C38279", "definition": "Administration within or into a vein or veins over a sustained period of time.(FDA)", "preferredTerm": "", "submissionValue": "Route of Administration", "synonyms": ["Intravenous Drip"]}, {"conceptId": "C38277", "definition": "Administration within a ventricle.(FDA)", "preferredTerm": "", "submissionValue": "Route of Administration", "synonyms": ["Intraventricular Route of Administration"]}, {"conceptId": "C38278", "definition": "Administration within the bladder.(FDA)", "preferredTerm": "", "submissionValue": "Route of Administration", "synonyms": ["Intravesical Route of Administration"]}, {"conceptId": "C38280", "definition": "Administration within the vitreous body of the eye.(FDA)", "preferredTerm": "", "submissionValue": "Route of Administration", "synonyms": ["Intravitreal Route of Administration"]}, {"conceptId": "C38203", "definition": "Administration by means of an electric current where ions of soluble salts migrate into the tissues of the body.(FDA)", "preferredTerm": "", "submissionValue": "Route of Administration", "synonyms": ["Iontophoresis Route of Administration"]}, {"conceptId": "C38281", "definition": "Administration to bathe or flush open wounds or body cavities.(FDA)", "preferredTerm": "", "submissionValue": "Route of Administration", "synonyms": ["Irrigation-Route of Administration"]}, {"conceptId": "C38282", "definition": "Administration directly upon the larynx.(FDA)", "preferredTerm": "", "submissionValue": "Route of Administration", "synonyms": ["Laryngeal Route of Administration"]}, {"conceptId": "C38284", "definition": "Administration to the nose; administered by way of the nose.(FDA)", "preferredTerm": "", "submissionValue": "Route of Administration", "synonyms": ["Nasal Route of Administration"]}, {"conceptId": "C38285", "definition": "Administration through the nose and into the stomach, usually by means of a tube.(FDA)", "preferredTerm": "", "submissionValue": "Route of Administration", "synonyms": ["Nasogastric Route of Administration"]}, {"conceptId": "C48623", "definition": "Routes of administration are not applicable.(FDA)", "preferredTerm": "", "submissionValue": "Route of Administration", "synonyms": ["Route of Administration Not Applicable"]}, {"conceptId": "C38286", "definition": "Administration by the topical route which is then covered by a dressing which occludes the area.(FDA)", "preferredTerm": "", "submissionValue": "Route of Administration", "synonyms": ["Occlusive Dressing Technique"]}, {"conceptId": "C38287", "definition": "Administration to the external eye.(FDA)", "preferredTerm": "", "submissionValue": "Route of Administration", "synonyms": ["Ophthalmic Route of Administration"]}, {"conceptId": "C38288", "definition": "Administration to or by way of the mouth.(FDA)", "preferredTerm": "PO", "submissionValue": "Route of Administration", "synonyms": ["Oral Route of Administration"]}, {"conceptId": "C38289", "definition": "Administration directly to the mouth and pharynx.(FDA)", "preferredTerm": "", "submissionValue": "Route of Administration", "synonyms": ["Oropharyngeal Route of Administration"]}, {"conceptId": "C38290", "definition": "Administration is different from others on this list.(FDA)", "preferredTerm": "", "submissionValue": "Route of Administration", "synonyms": ["Other Route of Administration"]}, {"conceptId": "C38291", "definition": "Administration by injection, infusion, or implantation.(FDA)", "preferredTerm": "", "submissionValue": "Route of Administration", "synonyms": ["Parenteral Route of Administration"]}, {"conceptId": "C38676", "definition": "Administration through the skin.(FDA)", "preferredTerm": "", "submissionValue": "Route of Administration", "synonyms": ["Percutaneous Route of Administration"]}, {"conceptId": "C38292", "definition": "Administration around a joint.(FDA)", "preferredTerm": "", "submissionValue": "Route of Administration", "synonyms": ["Periarticular Route of Administration"]}, {"conceptId": "C38677", "definition": "Administration to the outside of the dura mater of the spinal cord.(FDA)", "preferredTerm": "", "submissionValue": "Route of Administration", "synonyms": ["Peridural Route of Administration"]}, {"conceptId": "C38293", "definition": "Administration surrounding a nerve or nerves.(FDA)", "preferredTerm": "", "submissionValue": "Route of Administration", "synonyms": ["Perineural Route of Administration"]}, {"conceptId": "C38294", "definition": "Administration around a tooth.(FDA)", "preferredTerm": "", "submissionValue": "Route of Administration", "synonyms": ["Periodontal Route of Administration"]}, {"conceptId": "C38295", "definition": "Administration to the rectum.(FDA)", "preferredTerm": "", "submissionValue": "Route of Administration", "synonyms": ["Rectal Route of Administration"]}, {"conceptId": "C38216", "definition": "Administration within the respiratory tract by inhaling orally or nasally for local or systemic effect.(FDA)", "preferredTerm": "", "submissionValue": "Route of Administration", "synonyms": ["Inhalation Route of Administration"]}, {"conceptId": "C38296", "definition": "Administration behind the pons or behind the eyeball.(FDA)", "preferredTerm": "", "submissionValue": "Route of Administration", "synonyms": ["Retrobulbar Route of Administration"]}, {"conceptId": "C38198", "definition": "Administration into any soft tissue.(FDA)", "preferredTerm": "", "submissionValue": "Route of Administration", "synonyms": ["Soft Tissue Route Of Administration"]}, {"conceptId": "C38297", "definition": "Administration beneath the arachnoid.(FDA)", "preferredTerm": "", "submissionValue": "Route of Administration", "synonyms": ["Subarachnoid Route of Administration"]}, {"conceptId": "C38298", "definition": "Administration beneath the conjunctiva.(FDA)", "preferredTerm": "", "submissionValue": "Route of Administration", "synonyms": ["Subconjunctival Route of Administration"]}, {"conceptId": "C38299", "definition": "Administration beneath the skin; hypodermic. Synonymous with the term SUBDERMAL.(FDA)", "preferredTerm": "SC", "submissionValue": "Route of Administration", "synonyms": ["Subcutaneous Route of Administration"]}, {"conceptId": "C38300", "definition": "Administration beneath the tongue.(FDA)", "preferredTerm": "", "submissionValue": "Route of Administration", "synonyms": ["Sublingual Route of Administration"]}, {"conceptId": "C38301", "definition": "Administration beneath the mucous membrane.(FDA)", "preferredTerm": "", "submissionValue": "Route of Administration", "synonyms": ["Submucosal Route of Administration"]}, {"conceptId": "C38304", "definition": "Administration to a particular spot on the outer surface of the body. The E2B term TRANSMAMMARY is a subset of the term TOPICAL.(FDA)", "preferredTerm": "TOP", "submissionValue": "Route of Administration", "synonyms": ["Topical Route of Administration"]}, {"conceptId": "C38305", "definition": "Administration through the dermal layer of the skin to the systemic circulation by diffusion.(FDA)", "preferredTerm": "", "submissionValue": "Route of Administration", "synonyms": ["Transdermal Route of Administration"]}, {"conceptId": "C38283", "definition": "Administration across the mucosa.(FDA)", "preferredTerm": "", "submissionValue": "Route of Administration", "synonyms": ["Mucosal Route of Administration"]}, {"conceptId": "C38307", "definition": "Administration through or across the placenta.(FDA)", "preferredTerm": "", "submissionValue": "Route of Administration", "synonyms": ["Transplacental Route of Administration"]}, {"conceptId": "C38308", "definition": "Administration through the wall of the trachea.(FDA)", "preferredTerm": "", "submissionValue": "Route of Administration", "synonyms": ["Transtracheal Route of Administration"]}, {"conceptId": "C38309", "definition": "Administration across or through the tympanic cavity.(FDA)", "preferredTerm": "", "submissionValue": "Route of Administration", "synonyms": ["Transtympanic Route of Administration"]}, {"conceptId": "C38310", "definition": "Route of administration has not yet been assigned.(FDA)", "preferredTerm": "", "submissionValue": "Route of Administration", "synonyms": ["Unassigned Route of Administration"]}, {"conceptId": "C38311", "definition": "Route of administration is unknown.(FDA)", "preferredTerm": "", "submissionValue": "Route of Administration", "synonyms": ["Unknown Route of Administration"]}, {"conceptId": "C38312", "definition": "Administration into the ureter.(FDA)", "preferredTerm": "", "submissionValue": "Route of Administration", "synonyms": ["Ureteral Route of Administration"]}, {"conceptId": "C38271", "definition": "Administration into the urethra.(FDA)", "preferredTerm": "", "submissionValue": "Route of Administration", "synonyms": ["Intraurethral Route of Administration"]}, {"conceptId": "C38313", "definition": "Administration into the vagina.(FDA)", "preferredTerm": "", "submissionValue": "Route of Administration", "synonyms": ["Vaginal Route of Administration"]}, {"conceptId": "C78373", "definition": "Administration by way of food stuff. (NCI)", "preferredTerm": "", "submissionValue": "Route of Administration", "synonyms": ["Dietary Route of Administration"]}, {"conceptId": "C78374", "definition": "Administration through the mouth and into the stomach, usually by means of a tube. (NCI)", "preferredTerm": "", "submissionValue": "Route of Administration", "synonyms": ["Oral Gavage Route of Administration"]}]}, {"conceptId": "", "definition": "A scale that defines the degree or state of disease existing in a patient as a result of the occurrence of an adverse event. (NCI)", "extensible": "No", "name": "Severity/Intensity Scale for Adverse Events", "preferredTerm": "Severity/Intensity Scale for Adverse Events", "submissionValue": "Severity/Intensity Scale for Adverse Events", "synonyms": ["CDISC SDTM Severity Intensity Scale for Adverse Event Terminology"], "terms": [{"conceptId": "C41338", "definition": "A type of adverse event that is usually transient and may require only minimal treatment or therapeutic intervention. The event does not generally interfere with usual activities of daily living.", "preferredTerm": "Grade 1; 1", "submissionValue": "Severity/Intensity Scale for Adverse Events", "synonyms": ["Mild Adverse Event"]}, {"conceptId": "C41339", "definition": "A type of adverse event that is usually alleviated with additional specific therapeutic intervention. The event interferes with usual activities of daily living, causing discomfort but poses no significant or permanent risk of harm to the research participant.", "preferredTerm": "Grade 2; 2", "submissionValue": "Severity/Intensity Scale for Adverse Events", "synonyms": ["Moderate Adverse Event"]}, {"conceptId": "C41340", "definition": "A type of adverse event that interrupts usual activities of daily living, or significantly affects clinical status, or may require intensive therapeutic intervention.", "preferredTerm": "Grade 3; 3", "submissionValue": "Severity/Intensity Scale for Adverse Events", "synonyms": ["Severe Adverse Event"]}]}, {"conceptId": "", "definition": "The assemblage of physical properties or qualities by which male is distinguished from female; the physical difference between male and female; the distinguishing peculiarity of male or female. (NCI)", "extensible": "No", "name": "Sex", "preferredTerm": "Sex", "submissionValue": "Sex", "synonyms": ["CDISC SDTM Sex of Individual Terminology"], "terms": [{"conceptId": "C16576", "definition": "A person who belongs to the sex that normally produces ova. The term is used to indicate biological sex distinctions, or cultural gender role distinctions, or both. (NCI)", "preferredTerm": "Female", "submissionValue": "Sex", "synonyms": ["Female"]}, {"conceptId": "C20197", "definition": "A person who belongs to the sex that normally produces sperm. The term is used to indicate biological sex distinctions, cultural gender role distinctions, or both. (NCI)", "preferredTerm": "Male", "submissionValue": "Sex", "synonyms": ["Male"]}, {"conceptId": "C17998", "definition": "Not known, not observed, not recorded, or refused. (NCI)", "preferredTerm": "U; Unknown", "submissionValue": "Sex", "synonyms": ["Unknown"]}, {"conceptId": "C45908", "definition": "A person (one of unisexual specimens) who is born with genitalia and/or secondary sexual characteristics of indeterminate sex, or which combine features of both sexes. (NCI)", "preferredTerm": "Undifferentiated", "submissionValue": "Sex", "synonyms": ["Intersex"]}]}, {"conceptId": "", "definition": "The specific sex, either male, female, or mixed of the subject group being studied. (NCI)", "extensible": "No", "name": "Sex of Participants", "preferredTerm": "Sex of Participants", "submissionValue": "Sex of Participants", "synonyms": ["CDISC SDTM Sex of Study Group Terminology"], "terms": [{"conceptId": "C49636", "definition": "One and the other; relating to or being two in conjunction. (NCI)", "preferredTerm": "", "submissionValue": "Sex of Participants", "synonyms": ["Both"]}, {"conceptId": "C16576", "definition": "A person who belongs to the sex that normally produces ova. The term is used to indicate biological sex distinctions, or cultural gender role distinctions, or both. (NCI)", "preferredTerm": "Female", "submissionValue": "Sex of Participants", "synonyms": ["Female"]}, {"conceptId": "C20197", "definition": "A person who belongs to the sex that normally produces sperm. The term is used to indicate biological sex distinctions, cultural gender role distinctions, or both. (NCI)", "preferredTerm": "Male", "submissionValue": "Sex of Participants", "synonyms": ["Male"]}]}, {"conceptId": "", "definition": "The physical magnitude of something. (NCI)", "extensible": "Yes", "name": "Size", "preferredTerm": "Size", "submissionValue": "Size", "synonyms": ["CDISC SDTM Size Terminology"], "terms": [{"conceptId": "C49508", "definition": "Of considerable or relatively great size, extent, or capacity. (NCI)", "preferredTerm": "", "submissionValue": "Size", "synonyms": ["Large"]}, {"conceptId": "C49507", "definition": "Mid-way between small and large in number, quantity, magnitude or extent. (NCI)", "preferredTerm": "", "submissionValue": "Size", "synonyms": ["Medium"]}, {"conceptId": "C25376", "definition": "Limited in number, quantity, magnitude or extent. (NCI)", "preferredTerm": "", "submissionValue": "Size", "synonyms": ["Small"]}]}, {"conceptId": "", "definition": "A unique, 2-character domain code used in the regulatory submission process. The domain abbreviation is used consistently throughout the submission, i.e. in the dataset name, as the value of the domain variable within the dataset, and as a prefix for most variable names in the dataset. (CDISC Glossary)", "extensible": "Yes", "name": "Domain Abbreviation", "preferredTerm": "Domain Abbreviation", "submissionValue": "Domain Abbreviation", "synonyms": ["CDISC SDTM Submission Domain Abbreviation Terminology"], "terms": [{"conceptId": "C49563", "definition": "Datasets used for statistical analysis and reporting by the sponsor. These are submitted in addition to the data tabulation datasets.", "preferredTerm": "Analysis Dataset", "submissionValue": "Domain Abbreviation", "synonyms": ["Analysis Dataset Domain"]}, {"conceptId": "C49562", "definition": "Adverse events may be captured either as free text or a pre-specified list of terms.", "preferredTerm": "Adverse Events", "submissionValue": "Domain Abbreviation", "synonyms": ["Adverse Event Domain"]}, {"conceptId": "C49565", "definition": "Additional data about deaths, specific to findings from autopsies.", "preferredTerm": "Autopsy", "submissionValue": "Domain Abbreviation", "synonyms": ["Autopsy Domain"]}, {"conceptId": "C49566", "definition": "Findings resulting from evaluations of bone mineral density.", "preferredTerm": "Bone Measurements", "submissionValue": "Domain Abbreviation", "synonyms": ["Bone Measurements Domain"]}, {"conceptId": "C49567", "definition": "Findings resulting from biopsies.", "preferredTerm": "Biopsy", "submissionValue": "Domain Abbreviation", "synonyms": ["Biopsy Domain"]}, {"conceptId": "C85441", "definition": "A dataset used to capture clinical events of interest that would not be classified as adverse events.", "preferredTerm": "Clinical Events", "submissionValue": "Domain Abbreviation", "synonyms": ["Clinical Events Domain"]}, {"conceptId": "C49568", "definition": "Case report form (CRF) data that captures the Concomitant and Prior Medications/Therapies used by the subject. Examples are the Concomitant Medications/Therapies given on an as needed basis and the usual Background Medications/Therapies given for a condition.", "preferredTerm": "Concomitant Meds", "submissionValue": "Domain Abbreviation", "synonyms": ["Concomitant Medication Domain"]}, {"conceptId": "C49569", "definition": "The Comments dataset accommodates two sources of comments: 1) those collected alongside other data on topical case report form (CRF) pages such as Adverse Events and 2) those collected on a separate page specifically dedicated to comments.", "preferredTerm": "Comments", "submissionValue": "Domain Abbreviation", "synonyms": ["Comment Domain"]}, {"conceptId": "C49578", "definition": "Data regarding the accountability of study drug, such as information on the receipt, dispensing, return, and packaging.", "preferredTerm": "Drug Accountability", "submissionValue": "Domain Abbreviation", "synonyms": ["Drug Accountability Domain"]}, {"conceptId": "C49570", "definition": "Data related to the characteristics of a specific disease state under study for a subject.", "preferredTerm": "Disease Characteristics", "submissionValue": "Domain Abbreviation", "synonyms": ["Disease Characteristics Domain"]}, {"conceptId": "C49572", "definition": "The Demographics domain includes a set of essential standard variables that describe each subject in a clinical study. It is the parent domain for all other observations for human clinical subjects", "preferredTerm": "Demographics", "submissionValue": "Domain Abbreviation", "synonyms": ["Demographics Domain"]}, {"conceptId": "C49576", "definition": "A subject domain utilized for the submission of information encompassing and representing data, vocabulary or records related to disposition. (NCI)", "preferredTerm": "Disposition", "submissionValue": "Domain Abbreviation", "synonyms": ["Disposition Domain"]}, {"conceptId": "C49585", "definition": "The intent of the domain is to capture protocol violations and deviations during the course of the study and will store only those criteria violation by or deviated from by the subject and not a response to each violation or deviation.", "preferredTerm": "Protocol Deviations", "submissionValue": "Domain Abbreviation", "synonyms": ["Protocol Deviations Domain"]}, {"conceptId": "C49625", "definition": "Findings resulting from electroencephalogram (EEG) tests.", "preferredTerm": "Electroencephalogram", "submissionValue": "Domain Abbreviation", "synonyms": ["Electroencephalogram Domain"]}, {"conceptId": "C49626", "definition": "Findings related to the collection of ECG data, including position of the subject, method of evaluation, all cycle measurements and all findings from the ECG including an overall interpretation if collected or derived.", "preferredTerm": "Electrocardiogram", "submissionValue": "Domain Abbreviation", "synonyms": ["Electrocardiogram Domain"]}, {"conceptId": "C49587", "definition": "The Exposure domain model records the details of a subject's exposure to protocol-specified study treatment. Study treatment may be any intervention that is prospectively defined as a test material within a study, and is typically but not always supplied to the subject.", "preferredTerm": "Exposure", "submissionValue": "Domain Abbreviation", "synonyms": ["Exposure Domain"]}, {"conceptId": "C85442", "definition": "A dataset used to capture the findings about an event or intervention that cannot be represented within an event or intervention record or as a supplemental qualifier.", "preferredTerm": "Findings About Events or Interventions", "submissionValue": "Domain Abbreviation", "synonyms": ["Findings About Events or Interventions Domain"]}, {"conceptId": "C49588", "definition": "A subject domain utilized for the submission of information encompassing and representing data, vocabulary or records related to family history. (NCI)", "preferredTerm": "Family History", "submissionValue": "Domain Abbreviation", "synonyms": ["Family History Domain"]}, {"conceptId": "C49589", "definition": "Healthcare resource utilization data such as subject visits to physicians, hospitalizations, and nursing home stays.", "preferredTerm": "Healthcare Resource Utilization", "submissionValue": "Domain Abbreviation", "synonyms": ["Healthcare Resource Utilization Domain"]}, {"conceptId": "C61536", "definition": "The intent of the domain model is to only collect those criteria that cause the subject to be in violation of the inclusion/exclusion criteria not a response to each criterion.", "preferredTerm": "Inclusion/Exclusion", "submissionValue": "Domain Abbreviation", "synonyms": ["Inclusion Exclusion Domain"]}, {"conceptId": "C49592", "definition": "Laboratory test findings including, but is not limited to hematology, clinical chemistry and urinalysis data. This domain does not include microbiology or pharmacokinetic data, which are stored in separate domains.", "preferredTerm": "Laboratory Data", "submissionValue": "Domain Abbreviation", "synonyms": ["Laboratory Data Domain"]}, {"conceptId": "C49602", "definition": "Microbiology specimen findings, including gram stain results, and organisms found.", "preferredTerm": "Microbiology", "submissionValue": "Domain Abbreviation", "synonyms": ["Microbiology Specimen Domain"]}, {"conceptId": "C49603", "definition": "The medical history dataset includes the subject's prior history at the start of the trial. Examples of subject medical history information could include general medical history, gynecological history, and primary diagnosis.", "preferredTerm": "Medical History", "submissionValue": "Domain Abbreviation", "synonyms": ["Medical History Domain"]}, {"conceptId": "C49604", "definition": "Information regarding the subject's meal consumption, such as fluid intake, amounts, form (solid or liquid state), frequency, etc., typically used for pharmacokinetic analysis.", "preferredTerm": "Meal Data", "submissionValue": "Domain Abbreviation", "synonyms": ["Meal Data Domain"]}, {"conceptId": "C61531", "definition": "This includes microbiology susceptibility test results, plus results of any other organism-related tests.", "preferredTerm": "Microbiology Susceptibility", "submissionValue": "Domain Abbreviation", "synonyms": ["Microbiology Susceptibility Domain"]}, {"conceptId": "C49605", "definition": "Findings from organ measurement evaluations.", "preferredTerm": "Organ Measurements", "submissionValue": "Domain Abbreviation", "synonyms": ["Organ Measurement Domain"]}, {"conceptId": "C49606", "definition": "Concentrations of drugs/metabolites in fluids or tissues as a function of time.", "preferredTerm": "Pharmacokinetic Concentration", "submissionValue": "Domain Abbreviation", "synonyms": ["Pharmacokinetic Concentration Domain"]}, {"conceptId": "C49608", "definition": "Findings collected during a physical examination of the subject. It has findings that are discovered that are related to body systems. Does not include vital signs measurements, which are stored in the vital signs domain.", "preferredTerm": "Physical Exam", "submissionValue": "Domain Abbreviation", "synonyms": ["Physical Exam Domain"]}, {"conceptId": "C61529", "definition": "Pharmacogenomics findings that initially focus on genotype and gene expression data.", "preferredTerm": "Pharmacogenomics", "submissionValue": "Domain Abbreviation", "synonyms": ["Pharmacogenomics Domain"]}, {"conceptId": "C49607", "definition": "Pharmacokinetic parameters derived from pharmacokinetic concentration-time (PC) data.", "preferredTerm": "Pharmacokinetic Parameters", "submissionValue": "Domain Abbreviation", "synonyms": ["Pharmacokinetic Parameters Domain"]}, {"conceptId": "C49609", "definition": "Questionnaire data may include, but are not limited to the following: subject reported outcomes, validated or non-validated questionnaires, and validated or non-validated diaries (i.e. data with a common topicality).", "preferredTerm": "Questionnaires", "submissionValue": "Domain Abbreviation", "synonyms": ["Questionnaire Domain"]}, {"conceptId": "C49610", "definition": "The subject characteristics domain is for data not collected in other domains that is subject-related.", "preferredTerm": "Subject Characteristics", "submissionValue": "Domain Abbreviation", "synonyms": ["Subject Characteristics Domain"]}, {"conceptId": "C49616", "definition": "The subject element table describes the actual order of elements followed by the subject, together with the start date/time and end date/time for each element.", "preferredTerm": "Subject Element", "submissionValue": "Domain Abbreviation", "synonyms": ["Subject Element Domain"]}, {"conceptId": "C49611", "definition": "Surgical information.", "preferredTerm": "Surgery", "submissionValue": "Domain Abbreviation", "synonyms": ["Surgery Domain"]}, {"conceptId": "C49612", "definition": "Findings from diagnostic skin tests.", "preferredTerm": "Skin Test", "submissionValue": "Domain Abbreviation", "synonyms": ["Skin Test Domain"]}, {"conceptId": "C49613", "definition": "Findings from diagnostic sleep tests (polysomnography).", "preferredTerm": "Sleep Polysomnography Data", "submissionValue": "Domain Abbreviation", "synonyms": ["Sleep Polysomnography Domain"]}, {"conceptId": "C49614", "definition": "Findings from exercise stress tests.", "preferredTerm": "Stress (Exercise) Test Data", "submissionValue": "Domain Abbreviation", "synonyms": ["Stress Exercise Test Data Domain"]}, {"conceptId": "C49615", "definition": "The intent of the domain is to capture substance use information that may be used to assess the efficacy and/or safety of therapies that look to mitigate the effects of chronic substance use.", "preferredTerm": "Substance Use", "submissionValue": "Domain Abbreviation", "synonyms": ["Substance Use Domain"]}, {"conceptId": "C49617", "definition": "The subject visits table describes the actual start and end data/time for each visit of each individual subject.", "preferredTerm": "Subject Visits", "submissionValue": "Domain Abbreviation", "synonyms": ["Subject Visits Domain"]}, {"conceptId": "C49618", "definition": "The trial arms table describes each planned arm in the trial. An arm is described as an ordered sequence of elements.", "preferredTerm": "Trial Arms", "submissionValue": "Domain Abbreviation", "synonyms": ["Trial Arms Domain"]}, {"conceptId": "C49619", "definition": "The trial elements table describes the element code that is unique for each element, the element description, and the rules for starting and ending an element.", "preferredTerm": "TE; Trial Elements", "submissionValue": "Domain Abbreviation", "synonyms": ["Trial Elements Domain"]}, {"conceptId": "C49620", "definition": "The trial summary information domain is not subject oriented. It contains one record for each of the inclusion and exclusion criteria for the trial.", "preferredTerm": "Trial Inclusion/Exclusion Criteria", "submissionValue": "Domain Abbreviation", "synonyms": ["Trial Inclusion and Exclusion Criteria Domain"]}, {"conceptId": "C53483", "definition": "The trial summary information domain is not subject oriented. It contains one record for each trial summary characteristic.", "preferredTerm": "Trial Summary", "submissionValue": "Domain Abbreviation", "synonyms": ["Trial Summary Domain"]}, {"conceptId": "C49621", "definition": "The trial visits table describes the planned order and number of visits in the study within each arm.", "preferredTerm": "Trial Visits", "submissionValue": "Domain Abbreviation", "synonyms": ["Trial Visits Domain"]}, {"conceptId": "C49622", "definition": "Measurements including but not limited to blood pressure, temperature, respiration, body surface area, BMI, height and weight.", "preferred