{"codelists": [{"conceptId": "", "definition": "Those units of time that are routinely used to express the age of a subject.", "extensible": "No", "name": "Age Unit", "preferredTerm": "Age Unit", "submissionValue": "Age Unit", "synonyms": ["CDISC SDTM Age Unit Terminology"], "terms": [{"conceptId": "C25301", "definition": "The time for Earth to make a complete rotation on its axis; ordinarily divided into twenty-four hours. This also refers to a specific day. (NCI)", "preferredTerm": "", "submissionValue": "Age Unit", "synonyms": ["Day"]}, {"conceptId": "C25529", "definition": "A unit measure of time equal to 3,600 seconds or 60 minutes. It is approximately 1/24 of a median day. (NCI)", "preferredTerm": "Hour; hr", "submissionValue": "Age Unit", "synonyms": ["Hour"]}, {"conceptId": "C29846", "definition": "One of the 12 divisions of a year as determined by a calendar. It corresponds to the unit of time of approximately to one cycle of the moon's phases, about 30 days or 4 weeks. (NCI)", "preferredTerm": "", "submissionValue": "Age Unit", "synonyms": ["Month"]}, {"conceptId": "C29844", "definition": "Any period of seven consecutive days. (NCI)", "preferredTerm": "", "submissionValue": "Age Unit", "synonyms": ["Week"]}, {"conceptId": "C29848", "definition": "The period of time that it takes for Earth to make a complete revolution around the sun, approximately 365 days; a specific one year period. (NCI)", "preferredTerm": "", "submissionValue": "Age Unit", "synonyms": ["Year"]}]}, {"conceptId": "", "definition": "The terminology that includes concepts relevant to anatomical structure that consists of organs and organ subclasses responsible for certain body functions.", "extensible": "Yes", "name": "Body System", "preferredTerm": "Body System", "submissionValue": "Body System", "synonyms": ["CDISC SEND Body System Terminology"], "terms": [{"conceptId": "C35552", "definition": "Symptoms, physical examination results, and/or laboratory test results related to the cardiovascular system. (NCI)", "preferredTerm": "", "submissionValue": "Body System", "synonyms": ["Cardiovascular System Finding"]}, {"conceptId": "C36285", "definition": "Symptoms, physical examination results, and/or laboratory test results related to the endocrine system. (NCI)", "preferredTerm": "", "submissionValue": "Body System", "synonyms": ["Endocrine System Finding"]}, {"conceptId": "C36279", "definition": "Symptoms, physical examination results, and/or laboratory test results related to the gastrointestinal system. (NCI)", "preferredTerm": "", "submissionValue": "Body System", "synonyms": ["Gastrointestinal System Finding"]}, {"conceptId": "C36289", "definition": "Symptoms, physical examination results, and/or laboratory test results related to the hematopoietic system. (NCI)", "preferredTerm": "", "submissionValue": "Body System", "synonyms": ["Hematopoietic System Finding"]}, {"conceptId": "C39723", "definition": "Symptoms, physical examination results, and/or laboratory test results related to the immune system. (NCI)", "preferredTerm": "", "submissionValue": "Body System", "synonyms": ["Immune System Finding"]}, {"conceptId": "C36281", "definition": "Symptoms, physical examination results, and/or laboratory test results related to the integumentary system. (NCI)", "preferredTerm": "", "submissionValue": "Body System", "synonyms": ["Integumentary System Finding"]}, {"conceptId": "C36288", "definition": "Symptoms, physical examination results, and/or laboratory test results related to the musculoskeletal system, also including connective and soft tissue.", "preferredTerm": "", "submissionValue": "Body System", "synonyms": ["Connective and Soft Tissue Finding"]}, {"conceptId": "C36280", "definition": "Symptoms, physical examination results, and/or laboratory test results related to the nervous system. (NCI)", "preferredTerm": "", "submissionValue": "Body System", "synonyms": ["Nervous System Finding"]}, {"conceptId": "C36284", "definition": "Symptoms, physical examination results, and/or laboratory test results related to the reproductive system. (NCI)", "preferredTerm": "", "submissionValue": "Body System", "synonyms": ["Reproductive System Finding"]}, {"conceptId": "C45233", "definition": "Symptoms, physical examination results, and/or laboratory test results related to the respiratory system. (NCI)", "preferredTerm": "", "submissionValue": "Body System", "synonyms": ["Respiratory System Finding"]}, {"conceptId": "C36283", "definition": "Symptoms, physical examination results, and/or laboratory test results related to the organs of special sense. (NCI)", "preferredTerm": "", "submissionValue": "Body System", "synonyms": ["Eye and Ear Finding"]}, {"conceptId": "C36286", "definition": "Symptoms, physical examination results, and/or laboratory test results related to the urinary system.", "preferredTerm": "", "submissionValue": "Body System", "synonyms": ["Urinary Tract Finding"]}]}, {"conceptId": "", "definition": "Terminology for the test codes concerned with the increase in overall body mass.", "extensible": "Yes", "name": "Body Weight Gain Test Code", "preferredTerm": "Body Weight Gain Test Code", "submissionValue": "Body Weight Gain Test Code", "synonyms": ["CDISC SEND Body Weight Gain Test Code Terminology"], "terms": [{"conceptId": "C62754", "definition": "A change in overall body weight, relative to the beginning of the collection period.", "preferredTerm": "Body Weight Gain", "submissionValue": "Body Weight Gain Test Code", "synonyms": ["Weight Gain"]}, {"conceptId": "C90363", "definition": "The mean value of the amount of weight change over a period of time, relative to the beginning of the collection period.", "preferredTerm": "Average Body Weight Gain", "submissionValue": "Body Weight Gain Test Code", "synonyms": ["Average Body Weight Gain"]}, {"conceptId": "C90434", "definition": "The amount of weight change over a period of time in relation to the total weight, relative to the beginning of the collection period.", "preferredTerm": "Percentage Body Weight Gain", "submissionValue": "Body Weight Gain Test Code", "synonyms": ["Percentage Body Weight Gain"]}]}, {"conceptId": "", "definition": "Terminology for the test names concerned with the increase in overall body mass.", "extensible": "Yes", "name": "Body Weight Gain Test Name", "preferredTerm": "Body Weight Gain Test Name", "submissionValue": "Body Weight Gain Test Name", "synonyms": ["CDISC SEND Body Weight Gain Test Name Terminology"], "terms": [{"conceptId": "C90363", "definition": "The mean value of the amount of weight change over a period of time, relative to the beginning of the collection period.", "preferredTerm": "Average Body Weight Gain", "submissionValue": "Body Weight Gain Test Name", "synonyms": ["Average Body Weight Gain"]}, {"conceptId": "C62754", "definition": "A change in overall body weight, relative to the beginning of the collection period.", "preferredTerm": "Body Weight Gain", "submissionValue": "Body Weight Gain Test Name", "synonyms": ["Weight Gain"]}, {"conceptId": "C90434", "definition": "The amount of weight change over a period of time in relation to the total weight, relative to the beginning of the collection period.", "preferredTerm": "Percentage Body Weight Gain", "submissionValue": "Body Weight Gain Test Name", "synonyms": ["Percentage Body Weight Gain"]}]}, {"conceptId": "", "definition": "Terminology for the test codes concerned with the measurement of body mass.", "extensible": "Yes", "name": "Body Weight Test Code", "preferredTerm": "Body Weight Test Code", "submissionValue": "Body Weight Test Code", "synonyms": ["CDISC SEND Body Weight Test Code Terminology"], "terms": [{"conceptId": "C81328", "definition": "The weight of a subject. (NCI)", "preferredTerm": "Body Weight", "submissionValue": "Body Weight Test Code", "synonyms": ["Body Weight"]}, {"conceptId": "C90464", "definition": "The weight of a subject at a specified end point. (NCI)", "preferredTerm": "Terminal Body Weight", "submissionValue": "Body Weight Test Code", "synonyms": ["Terminal Body Weight"]}]}, {"conceptId": "", "definition": "Terminology for the test names concerned with the measurement of body mass.", "extensible": "Yes", "name": "Body Weight Test Name", "preferredTerm": "Body Weight Test Name", "submissionValue": "Body Weight Test Name", "synonyms": ["CDISC SEND Body Weight Test Name Terminology"], "terms": [{"conceptId": "C81328", "definition": "The weight of a subject. (NCI)", "preferredTerm": "Body Weight", "submissionValue": "Body Weight Test Name", "synonyms": ["Body Weight"]}, {"conceptId": "C90464", "definition": "The weight of a subject at a specified end point. (NCI)", "preferredTerm": "Terminal Body Weight", "submissionValue": "Body Weight Test Name", "synonyms": ["Terminal Body Weight"]}]}, {"conceptId": "", "definition": "Terminology related to classifications that describe and group clinical observations.", "extensible": "Yes", "name": "Category for Clinical Observation", "preferredTerm": "Category for Clinical Observation", "submissionValue": "Category for Clinical Observation", "synonyms": ["CDISC SEND Category for Clinical Observation Terminology"], "terms": [{"conceptId": "C3367", "definition": "Objective evidence of disease perceptible to the examiner (sign) and subjective evidence of disease perceived by the subject (symptom).", "preferredTerm": "Clinical Signs", "submissionValue": "Category for Clinical Observation", "synonyms": ["Finding"]}, {"conceptId": "C25478", "definition": "Of or relating to or located in the dermis. When used in the context of clinical observations, dermal may also include findings related to other components of the skin.", "preferredTerm": "Dermal", "submissionValue": "Category for Clinical Observation", "synonyms": ["Dermal"]}, {"conceptId": "C16939", "definition": "A medical specialty concerned with the structure and function of the eye and the medical and surgical treatment of its defects and diseases. (NCI)", "preferredTerm": "Ophthalmology", "submissionValue": "Category for Clinical Observation", "synonyms": ["Ophthalmology"]}, {"conceptId": "C20989", "definition": "A systemic evaluation of the body and its functions using visual inspection, palpation, percussion and auscultation. The purpose is to determine the presence or absence of physical signs of disease or abnormality for an individual's health assessment.", "preferredTerm": "Physical Exam", "submissionValue": "Category for Clinical Observation", "synonyms": ["Physical Examination"]}]}, {"conceptId": "", "definition": "Terminology related to the sense of awareness of self and of the environment.", "extensible": "Yes", "name": "Consciousness State", "preferredTerm": "Consciousness State", "submissionValue": "Consciousness State", "synonyms": ["CDISC SEND Consciousness State Terminology"], "terms": [{"conceptId": "C88434", "definition": "A level of awareness that can be described as being alert. (NCI)", "preferredTerm": "Conscious State", "submissionValue": "Consciousness State", "synonyms": ["Conscious State"]}, {"conceptId": "C78253", "definition": "A neurologic state characterized by decreased ability to perceive and respond. (NCI)", "preferredTerm": "Depressed Level of Consciousness", "submissionValue": "Consciousness State", "synonyms": ["Depressed Level Of Consciousness"]}, {"conceptId": "C88440", "definition": "A level of awareness that can be described as varied and intermittent periods of consciousness and unconsciousness.", "preferredTerm": "Semi-conscious State", "submissionValue": "Consciousness State", "synonyms": ["Semi-conscious"]}, {"conceptId": "C50635", "definition": "The neurologic status characterized by the occurrence of a loss of the ability to perceive and respond.", "preferredTerm": "Unconscious State; Loss of Consciousness", "submissionValue": "Consciousness State", "synonyms": ["Loss of Consciousness"]}, {"conceptId": "C90482", "definition": "The state of consciousness is not controlled. The possibility exists for having multiple conscious states over a period of time. (NCI)", "preferredTerm": "Unspecified State of Consciousness", "submissionValue": "Consciousness State", "synonyms": ["Unspecified State of Consciousness"]}]}, {"conceptId": "", "definition": "A collective generic term that refers here to a wide variety of dependencies, areas of special sovereignty, uninhabited islands, and other entities in addition to the traditional countries or independent states. (NCI)", "extensible": "No", "name": "Country", "preferredTerm": "Country", "submissionValue": "Country", "synonyms": ["CDISC SDTM Country Terminology"], "terms": [{"conceptId": "C17884", "definition": "Island in the Caribbean Sea, north of Venezuela. (NCI)", "preferredTerm": "ARUBA", "submissionValue": "Country", "synonyms": ["Aruba"]}, {"conceptId": "C16267", "definition": "A country in Southern Asia, north and west of Pakistan, east of Iran. (NCI)", "preferredTerm": "AFGHANISTAN", "submissionValue": "Country", "synonyms": ["Afghanistan"]}, {"conceptId": "C16292", "definition": "A country in Southern Africa, bordering the South Atlantic Ocean, between Namibia and Democratic Republic of the Congo. (NCI)", "preferredTerm": "ANGOLA", "submissionValue": "Country", "synonyms": ["Angola"]}, {"conceptId": "C20133", "definition": "An island in the Caribbean Sea, east of Puerto Rico. (NCI)", "preferredTerm": "ANGUILLA", "submissionValue": "Country", "synonyms": ["Anguilla"]}, {"conceptId": "C44481", "definition": "An archipelago in the Baltic Sea at the entrance to the Gulf of Bothnia between Sweden and Finland. (NCI)", "preferredTerm": "ALAND ISLANDS", "submissionValue": "Country", "synonyms": ["Aland Islands"]}, {"conceptId": "C16271", "definition": "A country in Southeastern Europe, bordering the Adriatic Sea and Ionian Sea, between Greece and Serbia and Montenegro. (NCI)", "preferredTerm": "ALBANIA", "submissionValue": "Country", "synonyms": ["Albania"]}, {"conceptId": "C16289", "definition": "A country in Southwestern Europe, between France and Spain. (NCI)", "preferredTerm": "ANDORRA", "submissionValue": "Country", "synonyms": ["Andorra"]}, {"conceptId": "C16904", "definition": "A country in the Caribbean, comprising two island groups in the Caribbean Sea - one includes Curacao and Bonaire north of Venezuela; the other is east of the Virgin Islands. (NCI)", "preferredTerm": "NETHERLANDS ANTILLES", "submissionValue": "Country", "synonyms": ["Netherlands Antilles"]}, {"conceptId": "C17232", "definition": "A country in the Middle East, bordering the Gulf of Oman and the Persian Gulf, between Oman and Saudi Arabia. (NCI)", "preferredTerm": "UNITED ARAB EMIRATES", "submissionValue": "Country", "synonyms": ["United Arab Emirates"]}, {"conceptId": "C16305", "definition": "A country in Southern South America, bordering the South Atlantic Ocean, between Chile and Uruguay. (NCI)", "preferredTerm": "ARGENTINA", "submissionValue": "Country", "synonyms": ["Argentina"]}, {"conceptId": "C16306", "definition": "A country in Southwestern Asia, east of Turkey. (NCI)", "preferredTerm": "ARMENIA", "submissionValue": "Country", "synonyms": ["Armenia"]}, {"conceptId": "C17739", "definition": "A group of islands in the South Pacific Ocean, about half way between Hawaii and New Zealand. (NCI)", "preferredTerm": "AMERICAN SAMOA", "submissionValue": "Country", "synonyms": ["American Samoa"]}, {"conceptId": "C18007", "definition": "The continent lying mostly south of the Antarctic Circle. (NCI)", "preferredTerm": "ANTARCTICA", "submissionValue": "Country", "synonyms": ["Antarctica"]}, {"conceptId": "C20105", "definition": "Islands in the southern Indian Ocean, south of Africa, about equidistant between Africa, Antarctica, and Australia. (NCI)", "preferredTerm": "FRENCH SOUTHERN TERRITORIES", "submissionValue": "Country", "synonyms": ["French Southern Territories"]}, {"conceptId": "C16303", "definition": "Islands between the Caribbean Sea and the North Atlantic Ocean, east-southeast of Puerto Rico. (NCI)", "preferredTerm": "ANTIGUA AND BARBUDA", "submissionValue": "Country", "synonyms": ["Antigua and Barbuda"]}, {"conceptId": "C16311", "definition": "The continent between the Indian Ocean and the South Pacific Ocean. (NCI)", "preferredTerm": "AUSTRALIA", "submissionValue": "Country", "synonyms": ["Australia"]}, {"conceptId": "C16312", "definition": "A country in Central Europe, north of Italy and Slovenia. (NCI)", "preferredTerm": "AUSTRIA", "submissionValue": "Country", "synonyms": ["Austria"]}, {"conceptId": "C16316", "definition": "A country in Southwestern Asia, bordering the Caspian Sea, between Iran and Russia. (NCI)", "preferredTerm": "AZERBAIJAN", "submissionValue": "Country", "synonyms": ["Azerbaijan"]}, {"conceptId": "C16371", "definition": "A country in Central Africa, east of Democratic Republic of the Congo. (NCI)", "preferredTerm": "BURUNDI", "submissionValue": "Country", "synonyms": ["Burundi"]}, {"conceptId": "C16329", "definition": "A country in Western Europe, bordering the North Sea, between France and the Netherlands. (NCI)", "preferredTerm": "BELGIUM", "submissionValue": "Country", "synonyms": ["Belgium"]}, {"conceptId": "C16333", "definition": "A country in Western Africa, bordering the North Atlantic Ocean, between Nigeria and Togo. (NCI)", "preferredTerm": "BENIN REPUBLIC", "submissionValue": "Country", "synonyms": ["Benin"]}, {"conceptId": "C16369", "definition": "A country in Western Africa, north of Ghana. (NCI)", "preferredTerm": "BURKINA FASO", "submissionValue": "Country", "synonyms": ["Burkina Faso"]}, {"conceptId": "C16323", "definition": "A country in Southern Asia, bordering the Bay of Bengal, between Burma and India. (NCI)", "preferredTerm": "BANGLADESH", "submissionValue": "Country", "synonyms": ["Bangladesh"]}, {"conceptId": "C16368", "definition": "A country in Southeastern Europe, bordering the Black Sea, between Romania and Turkey. (NCI)", "preferredTerm": "BULGARIA", "submissionValue": "Country", "synonyms": ["Bulgaria"]}, {"conceptId": "C16322", "definition": "An archipelago in the Persian Gulf, east of Saudi Arabia. (NCI)", "preferredTerm": "BAHRAIN", "submissionValue": "Country", "synonyms": ["Bahrain"]}, {"conceptId": "C16321", "definition": "A chain of islands in the North Atlantic Ocean, southeast of Florida. (NCI)", "preferredTerm": "BAHAMAS", "submissionValue": "Country", "synonyms": ["Bahamas"]}, {"conceptId": "C16361", "definition": "A country in Southeastern Europe, bordering the Adriatic Sea and Croatia. (NCI)", "preferredTerm": "BOSNIA-HERZEGOVINA", "submissionValue": "Country", "synonyms": ["Bosnia and Herzegovina"]}, {"conceptId": "C83609", "definition": "An island in the Caribbean sea, between Saint Martin and Saint Kitts and Nevis. (NCI)", "preferredTerm": "SAINT BARTHELEMY", "submissionValue": "Country", "synonyms": ["Saint Barthelemy"]}, {"conceptId": "C16372", "definition": "A country in Eastern Europe, east of Poland. (NCI)", "preferredTerm": "BELARUS", "submissionValue": "Country", "synonyms": ["Belarus"]}, {"conceptId": "C16331", "definition": "A country in Central America, bordering the Caribbean Sea, between Guatemala and Mexico. (NCI)", "preferredTerm": "BELIZE", "submissionValue": "Country", "synonyms": ["Belize"]}, {"conceptId": "C16334", "definition": "A group of islands in the North Atlantic Ocean, east of South Carolina. (NCI)", "preferredTerm": "BERMUDA", "submissionValue": "Country", "synonyms": ["Bermuda"]}, {"conceptId": "C16359", "definition": "A country in Central South America, southwest of Brazil. (NCI)", "preferredTerm": "BOLIVIA", "submissionValue": "Country", "synonyms": ["Bolivia"]}, {"conceptId": "C16364", "definition": "A country in Eastern South America, bordering the Atlantic Ocean. (NCI)", "preferredTerm": "BRAZIL", "submissionValue": "Country", "synonyms": ["Brazil"]}, {"conceptId": "C16324", "definition": "An island between the Caribbean Sea and the North Atlantic Ocean, northeast of Venezuela. (NCI)", "preferredTerm": "BARBADOS", "submissionValue": "Country", "synonyms": ["Barbados"]}, {"conceptId": "C16367", "definition": "A country in Southeastern Asia, bordering the South China Sea and Malaysia. (NCI)", "preferredTerm": "BRUNEI", "submissionValue": "Country", "synonyms": ["Brunei Darussalam"]}, {"conceptId": "C16336", "definition": "A country in Southern Asia, between China and India. (NCI)", "preferredTerm": "BHUTAN", "submissionValue": "Country", "synonyms": ["Bhutan"]}, {"conceptId": "C20104", "definition": "An island in the South Atlantic Ocean, south-southwest of the Cape of Good Hope (South Africa). (NCI)", "preferredTerm": "BOUVET ISLAND", "submissionValue": "Country", "synonyms": ["Bouvet Island"]}, {"conceptId": "C16363", "definition": "A country in Southern Africa, north of South Africa. (NCI)", "preferredTerm": "BOTSWANA", "submissionValue": "Country", "synonyms": ["Botswana"]}, {"conceptId": "C16409", "definition": "A country in Central Africa, north of Democratic Republic of the Congo. (NCI)", "preferredTerm": "CENTRAL AFRICAN REPUBLIC", "submissionValue": "Country", "synonyms": ["Central African Republic"]}, {"conceptId": "C16380", "definition": "A country in Northern North America, bordering the North Atlantic Ocean on the east, North Pacific Ocean on the west, and the Arctic Ocean on the north, north of the conterminous US. (NCI)", "preferredTerm": "CANADA", "submissionValue": "Country", "synonyms": ["Canada"]}, {"conceptId": "C16445", "definition": "A group of islands in the Indian Ocean, south of Indonesia, about halfway from Australia to Sri Lanka. (NCI)", "preferredTerm": "COCOS (KEELING) ISLANDS", "submissionValue": "Country", "synonyms": ["Cocos (Keeling) Islands"]}, {"conceptId": "C17181", "definition": "A country in Central Europe, east of France, north of Italy. (NCI)", "preferredTerm": "SWITZERLAND", "submissionValue": "Country", "synonyms": ["Switzerland"]}, {"conceptId": "C16427", "definition": "A country in Southern South America, bordering the South Atlantic Ocean and South Pacific Ocean, between Argentina and Peru. (NCI)", "preferredTerm": "CHILE", "submissionValue": "Country", "synonyms": ["Chile"]}, {"conceptId": "C16428", "definition": "A country in Eastern Asia, bordering the East China Sea, Korea Bay, Yellow Sea, and South China Sea, between North Korea and Vietnam. (NCI)", "preferredTerm": "CHINA", "submissionValue": "Country", "synonyms": ["China"]}, {"conceptId": "C16762", "definition": "A country in Western Africa, bordering the North Atlantic Ocean, between Ghana and Liberia. (NCI)", "preferredTerm": "COTE D'IVOIRE", "submissionValue": "Country", "synonyms": ["Cote d'Ivoire"]}, {"conceptId": "C16379", "definition": "A country in Western Africa, bordering the Bight of Biafra, between Equatorial Guinea and Nigeria. (NCI)", "preferredTerm": "CAMEROON", "submissionValue": "Country", "synonyms": ["Cameroon"]}, {"conceptId": "C17266", "definition": "A country in Central Africa, northeast of Angola. (NCI)", "preferredTerm": "DEMOCRATIC REPUBLIC OF THE CONGO", "submissionValue": "Country", "synonyms": ["Congo, the Democratic Republic of the"]}, {"conceptId": "C16467", "definition": "A country in Western Africa, bordering the South Atlantic Ocean, between Angola and Gabon. (NCI)", "preferredTerm": "CONGO", "submissionValue": "Country", "synonyms": ["Congo"]}, {"conceptId": "C16469", "definition": "A group of islands in the South Pacific Ocean, about one-half of the way from Hawaii to New Zealand. (NCI)", "preferredTerm": "COOK ISLANDS", "submissionValue": "Country", "synonyms": ["Cook Islands"]}, {"conceptId": "C16449", "definition": "A country in Northern South America, bordering the Caribbean Sea, between Panama and Venezuela, and bordering the North Pacific Ocean, between Ecuador and Panama. (NCI)", "preferredTerm": "COLOMBIA", "submissionValue": "Country", "synonyms": ["Colombia"]}, {"conceptId": "C16458", "definition": "A group of islands in the Mozambique Channel, about two-thirds of the way between northern Madagascar and northern Mozambique. (NCI)", "preferredTerm": "COMOROS", "submissionValue": "Country", "synonyms": ["Comoros"]}, {"conceptId": "C16382", "definition": "A group of islands in the North Atlantic Ocean, west of Senegal. (NCI)", "preferredTerm": "CAPE VERDE", "submissionValue": "Country", "synonyms": ["Cape Verde"]}, {"conceptId": "C16470", "definition": "A country in Central America, bordering both the Caribbean Sea and the North Pacific Ocean, between Nicaragua and Panama. (NCI)", "preferredTerm": "COSTA RICA", "submissionValue": "Country", "synonyms": ["Costa Rica"]}, {"conceptId": "C16477", "definition": "An island between the Caribbean Sea and the North Atlantic Ocean, 150 km south of Key West, Florida. (NCI)", "preferredTerm": "CUBA", "submissionValue": "Country", "synonyms": ["Cuba"]}, {"conceptId": "C44482", "definition": "An Australian-administered island in the eastern Indian Ocean south of Java, Indonesia. (NCI)", "preferredTerm": "CHRISTMAS ISLAND", "submissionValue": "Country", "synonyms": ["Christmas Island"]}, {"conceptId": "C16391", "definition": "An island group in the Caribbean Sea, nearly one-half of the way from Cuba to Honduras. (NCI)", "preferredTerm": "CAYMAN ISLANDS", "submissionValue": "Country", "synonyms": ["Cayman Islands"]}, {"conceptId": "C16480", "definition": "An island in the Mediterranean Sea, south of Turkey. (NCI)", "preferredTerm": "CYPRUS", "submissionValue": "Country", "synonyms": ["Cyprus"]}, {"conceptId": "C17668", "definition": "A country in Central Europe, southeast of Germany. (NCI)", "preferredTerm": "CZECH REPUBLIC", "submissionValue": "Country", "synonyms": ["Czech Republic"]}, {"conceptId": "C16636", "definition": "A country in Central Europe, bordering the Baltic Sea and the North Sea, between the Netherlands and Poland, south of Denmark. (NCI)", "preferredTerm": "GERMANY", "submissionValue": "Country", "synonyms": ["Germany"]}, {"conceptId": "C16506", "definition": "A country in Eastern Africa, bordering the Gulf of Aden and the Red Sea, between Eritrea and Somalia. (NCI)", "preferredTerm": "DJIBOUTI", "submissionValue": "Country", "synonyms": ["Djibouti"]}, {"conceptId": "C16519", "definition": "An island between the Caribbean Sea and the North Atlantic Ocean, about one-half of the way from Puerto Rico to Trinidad and Tobago. (NCI)", "preferredTerm": "DOMINICA", "submissionValue": "Country", "synonyms": ["Dominica"]}, {"conceptId": "C16496", "definition": "A country in Northern Europe, bordering the Baltic Sea and the North Sea, on a peninsula north of Germany (Jutland); also includes two major islands (Sjaelland and Fyn). (NCI)", "preferredTerm": "DENMARK", "submissionValue": "Country", "synonyms": ["Denmark"]}, {"conceptId": "C16520", "definition": "A country comprising the eastern two-thirds of the island of Hispaniola, between the Caribbean Sea and the North Atlantic Ocean, east of Haiti. (NCI)", "preferredTerm": "DOMINICAN REPUBLIC", "submissionValue": "Country", "synonyms": ["Dominican Republic"]}, {"conceptId": "C16274", "definition": "A country in Northern Africa, bordering the Mediterranean Sea, between Morocco and Tunisia. (NCI)", "preferredTerm": "ALGERIA", "submissionValue": "Country", "synonyms": ["Algeria"]}, {"conceptId": "C16528", "definition": "A country in Western South America, bordering the Pacific Ocean at the Equator, between Colombia and Peru. (NCI)", "preferredTerm": "ECUADOR", "submissionValue": "Country", "synonyms": ["Ecuador"]}, {"conceptId": "C16530", "definition": "A country in Northern Africa, bordering the Mediterranean Sea, between Libya and the Gaza Strip. (NCI)", "preferredTerm": "EGYPT", "submissionValue": "Country", "synonyms": ["Egypt"]}, {"conceptId": "C16558", "definition": "A country in Eastern Africa, bordering the Red Sea, between Djibouti and Sudan. (NCI)", "preferredTerm": "ERITREA", "submissionValue": "Country", "synonyms": ["Eritrea"]}, {"conceptId": "C20113", "definition": "A country in Northern Africa, bordering the North Atlantic Ocean, between Mauritania and Morocco. (NCI)", "preferredTerm": "WESTERN SAHARA", "submissionValue": "Country", "synonyms": ["Western Sahara"]}, {"conceptId": "C17152", "definition": "A country in Southwestern Europe, bordering the Bay of Biscay, Mediterranean Sea, North Atlantic Ocean, and Pyrenees Mountains, southwest of France. (NCI)", "preferredTerm": "SPAIN", "submissionValue": "Country", "synonyms": ["Spain"]}, {"conceptId": "C16562", "definition": "A country in Eastern Europe, bordering the Baltic Sea and Gulf of Finland, between Latvia and Russia. (NCI)", "preferredTerm": "ESTONIA", "submissionValue": "Country", "synonyms": ["Estonia"]}, {"conceptId": "C16563", "definition": "A country in Eastern Africa, west of Somalia. (NCI)", "preferredTerm": "ETHIOPIA", "submissionValue": "Country", "synonyms": ["Ethiopia"]}, {"conceptId": "C16584", "definition": "A country in Northern Europe, bordering the Baltic Sea, Gulf of Bothnia, and Gulf of Finland, between Sweden and Russia. (NCI)", "preferredTerm": "FINLAND", "submissionValue": "Country", "synonyms": ["Finland"]}, {"conceptId": "C16582", "definition": "An island group in the South Pacific Ocean, about two-thirds of the way from Hawaii to New Zealand. (NCI)", "preferredTerm": "FIJI", "submissionValue": "Country", "synonyms": ["Fiji"]}, {"conceptId": "C17954", "definition": "Islands in the South Atlantic Ocean, east of southern Argentina. (NCI)", "preferredTerm": "FALKLAND ISLANDS", "submissionValue": "Country", "synonyms": ["Falkland Islands (Malvinas)"]}, {"conceptId": "C16592", "definition": "A country in Western Europe, bordering the Bay of Biscay and English Channel, between Belgium and Spain, southeast of the UK; bordering the Mediterranean Sea, between Italy and Spain. (NCI)", "preferredTerm": "FRANCE", "submissionValue": "Country", "synonyms": ["France"]}, {"conceptId": "C16573", "definition": "An island group between the Norwegian Sea and the North Atlantic Ocean, about one-half of the way from Iceland to Norway. (NCI)", "preferredTerm": "FAROE ISLANDS", "submissionValue": "Country", "synonyms": ["Faroe Islands"]}, {"conceptId": "C17881", "definition": "An island group in the North Pacific Ocean, about three-quarters of the way from Hawaii to Indonesia. (NCI)", "preferredTerm": "MICRONESIA, FEDERATED STATES OF", "submissionValue": "Country", "synonyms": ["Micronesia, Federated States of"]}, {"conceptId": "C16596", "definition": "A country in Western Africa, bordering the Atlantic Ocean at the Equator, between Republic of the Congo and Equatorial Guinea. (NCI)", "preferredTerm": "GABON", "submissionValue": "Country", "synonyms": ["Gabon"]}, {"conceptId": "C17233", "definition": "A country in Western Europe, comprising islands, including the northern one-sixth of the island of Ireland, between the North Atlantic Ocean and the North Sea, northwest of France. (NCI)", "preferredTerm": "UNITED KINGDOM", "submissionValue": "Country", "synonyms": ["United Kingdom"]}, {"conceptId": "C16634", "definition": "A country in Southwestern Asia, bordering the Black Sea, between Turkey and Russia. (NCI)", "preferredTerm": "GEORGIA", "submissionValue": "Country", "synonyms": ["Georgia"]}, {"conceptId": "C64375", "definition": "The island of Guernsey and the other Channel Islands represent the last remnants of the medieval Dukedom of Normandy, which held sway in both France and England. Guernsey is a British crown dependency, but is not part of the UK. (NCI)", "preferredTerm": "GUERNSEY", "submissionValue": "Country", "synonyms": ["Guernsey"]}, {"conceptId": "C26330", "definition": "A country in Western Africa, bordering the Gulf of Guinea, between Cote d'Ivoire and Togo. (NCI)", "preferredTerm": "GHANA", "submissionValue": "Country", "synonyms": ["Ghana"]}, {"conceptId": "C16638", "definition": "A dependency in Southwestern Europe, bordering the Strait of Gibraltar, on the southern coast of Spain. (NCI)", "preferredTerm": "GIBRALTAR", "submissionValue": "Country", "synonyms": ["Gibraltar"]}, {"conceptId": "C16655", "definition": "A country in Western Africa, bordering the North Atlantic Ocean, between Guinea-Bissau and Sierra Leone. (NCI)", "preferredTerm": "GUINEA", "submissionValue": "Country", "synonyms": ["Guinea"]}, {"conceptId": "C16651", "definition": "Islands in the eastern Caribbean Sea, southeast of Puerto Rico. (NCI)", "preferredTerm": "GUADELOUPE", "submissionValue": "Country", "synonyms": ["Guadeloupe"]}, {"conceptId": "C16598", "definition": "A country in Western Africa, bordering the North Atlantic Ocean and Senegal. (NCI)", "preferredTerm": "GAMBIA", "submissionValue": "Country", "synonyms": ["Gambia"]}, {"conceptId": "C16656", "definition": "A country in Western Africa, bordering the North Atlantic Ocean, between Guinea and Senegal. (NCI)", "preferredTerm": "GUINEA-BISSAU", "submissionValue": "Country", "synonyms": ["Guinea-Bissau"]}, {"conceptId": "C16557", "definition": "A country in Western Africa, bordering the Bight of Biafra, between Cameroon and Gabon; composed of a mainland portion and five inhabited islands. (NCI)", "preferredTerm": "EQUATORIAL GUINEA", "submissionValue": "Country", "synonyms": ["Equatorial Guinea"]}, {"conceptId": "C16645", "definition": "A country in Southern Europe, bordering the Aegean Sea, Ionian Sea, and the Mediterranean Sea, between Albania and Turkey. (NCI)", "preferredTerm": "GREECE", "submissionValue": "Country", "synonyms": ["Greece"]}, {"conceptId": "C16647", "definition": "An island between the Caribbean Sea and Atlantic Ocean, north of Trinidad and Tobago. (NCI)", "preferredTerm": "GRENADA", "submissionValue": "Country", "synonyms": ["Grenada"]}, {"conceptId": "C16646", "definition": "An island between the Arctic Ocean and the North Atlantic Ocean, northeast of Canada. (NCI)", "preferredTerm": "GREENLAND", "submissionValue": "Country", "synonyms": ["Greenland"]}, {"conceptId": "C16654", "definition": "A country in Central America, bordering the Caribbean Sea, between Honduras and Belize and bordering the North Pacific Ocean, between El Salvador and Mexico. (NCI)", "preferredTerm": "GUATEMALA", "submissionValue": "Country", "synonyms": ["Guatemala"]}, {"conceptId": "C16593", "definition": "A country in Northern South America, bordering the North Atlantic Ocean, between Brazil and Suriname. (NCI)", "preferredTerm": "FRENCH GUIANA", "submissionValue": "Country", "synonyms": ["French Guiana"]}, {"conceptId": "C16652", "definition": "Island in the North Pacific Ocean, about three-quarters of the way from Hawaii to the Philippines. (NCI)", "preferredTerm": "GUAM", "submissionValue": "Country", "synonyms": ["Guam"]}, {"conceptId": "C16657", "definition": "A country in Northern South America, bordering the North Atlantic Ocean, between Suriname and Venezuela. (NCI)", "preferredTerm": "GUYANA", "submissionValue": "Country", "synonyms": ["Guyana"]}, {"conceptId": "C16695", "definition": "A special administrative region of China, bordering the South China Sea and China. (NCI)", "preferredTerm": "HONG KONG", "submissionValue": "Country", "synonyms": ["Hong Kong"]}, {"conceptId": "C20106", "definition": "Islands in the Indian Ocean, about two-thirds of the way from Madagascar to Antarctica. (NCI)", "preferredTerm": "HEARD ISLAND AND MCDONALD ISLANDS", "submissionValue": "Country", "synonyms": ["Heard Island and McDonald Islands"]}, {"conceptId": "C16694", "definition": "A country in Central America, bordering the Caribbean Sea, between Guatemala and Nicaragua and bordering the North Pacific Ocean, between El Salvador and Nicaragua. (NCI)", "preferredTerm": "HONDURAS", "submissionValue": "Country", "synonyms": ["Honduras"]}, {"conceptId": "C16474", "definition": "A country in Southeastern Europe, bordering the Adriatic Sea, between Bosnia and Herzegovina and Slovenia. (NCI)", "preferredTerm": "CROATIA", "submissionValue": "Country", "synonyms": ["Croatia"]}, {"conceptId": "C16660", "definition": "A country comprising the western one-third of the island of Hispaniola, between the Caribbean Sea and the North Atlantic Ocean, west of the Dominican Republic. (NCI)", "preferredTerm": "HAITI", "submissionValue": "Country", "synonyms": ["Haiti"]}, {"conceptId": "C16699", "definition": "A country in Central Europe, northwest of Romania. (NCI)", "preferredTerm": "HUNGARY", "submissionValue": "Country", "synonyms": ["Hungary"]}, {"conceptId": "C16728", "definition": "A country in Southeastern Asia, comprising the archipelago between the Indian Ocean and the Pacific Ocean. (NCI)", "preferredTerm": "INDONESIA", "submissionValue": "Country", "synonyms": ["Indonesia"]}, {"conceptId": "C44480", "definition": "An island in the Irish Sea, between Great Britain and Ireland. (NCI)", "preferredTerm": "ISLE OF MAN", "submissionValue": "Country", "synonyms": ["Isle of Man"]}, {"conceptId": "C16727", "definition": "A country in Southern Asia, bordering the Arabian Sea and the Bay of Bengal, between Burma and Pakistan. (NCI)", "preferredTerm": "INDIA", "submissionValue": "Country", "synonyms": ["India"]}, {"conceptId": "C16365", "definition": "An archipelago in the Indian Ocean, about one-half the way from Africa to Indonesia. (NCI)", "preferredTerm": "BRITISH INDIAN OCEAN TERRITORY", "submissionValue": "Country", "synonyms": ["British Indian Ocean Territory"]}, {"conceptId": "C16757", "definition": "A country in Western Europe, occupying five-sixths of the island of Ireland in the North Atlantic Ocean, west of Great Britain. (NCI)", "preferredTerm": "IRELAND", "submissionValue": "Country", "synonyms": ["Ireland"]}, {"conceptId": "C16755", "definition": "A country in the Middle East, bordering the Gulf of Oman, the Persian Gulf, and the Caspian Sea, between Iraq and Pakistan. (NCI)", "preferredTerm": "IRAN", "submissionValue": "Country", "synonyms": ["Iran, Islamic Republic of"]}, {"conceptId": "C16756", "definition": "A country in the Middle East, bordering the Persian Gulf, between Iran and Kuwait. (NCI)", "preferredTerm": "IRAQ", "submissionValue": "Country", "synonyms": ["Iraq"]}, {"conceptId": "C16704", "definition": "A country in Northern Europe, island between the Greenland Sea and the North Atlantic Ocean, northwest of the UK. (NCI)", "preferredTerm": "ICELAND", "submissionValue": "Country", "synonyms": ["Iceland"]}, {"conceptId": "C16760", "definition": "A country in the Middle East, bordering the Mediterranean Sea, between Egypt and Lebanon. (NCI)", "preferredTerm": "ISRAEL", "submissionValue": "Country", "synonyms": ["Israel"]}, {"conceptId": "C16761", "definition": "A country in Southern Europe, occupying a peninsula extending into the central Mediterranean Sea, northeast of Tunisia. (NCI)", "preferredTerm": "ITALY", "submissionValue": "Country", "synonyms": ["Italy"]}, {"conceptId": "C16763", "definition": "An island in the Caribbean Sea, south of Cuba. (NCI)", "preferredTerm": "JAMAICA", "submissionValue": "Country", "synonyms": ["Jamaica"]}, {"conceptId": "C64374", "definition": "Jersey and the other Channel Islands represent the last remnants of the medieval Dukedom of Normandy that held sway in both France and England. Jersey is a British crown dependency, but is not part of the UK. (NCI)", "preferredTerm": "JERSEY", "submissionValue": "Country", "synonyms": ["Jersey"]}, {"conceptId": "C16765", "definition": "A country in the Middle East, northwest of Saudi Arabia. (NCI)", "preferredTerm": "JORDAN", "submissionValue": "Country", "synonyms": ["Jordan"]}, {"conceptId": "C16764", "definition": "A country in Eastern Asia, occupying an island chain between the North Pacific Ocean and the Sea of Japan, east of the Korean Peninsula. (NCI)", "preferredTerm": "JAPAN", "submissionValue": "Country", "synonyms": ["Japan"]}, {"conceptId": "C20107", "definition": "A country in Central Asia, northwest of China. (NCI)", "preferredTerm": "KAZAKHSTAN", "submissionValue": "Country", "synonyms": ["Kazakhstan"]}, {"conceptId": "C16769", "definition": "A country in Eastern Africa, bordering the Indian Ocean, between Somalia and Tanzania. (NCI)", "preferredTerm": "KENYA", "submissionValue": "Country", "synonyms": ["Kenya"]}, {"conceptId": "C16771", "definition": "A country in Central Asia, west of China. (NCI)", "preferredTerm": "KYRGYZSTAN", "submissionValue": "Country", "synonyms": ["Kyrgyzstan"]}, {"conceptId": "C16378", "definition": "A country in Southeastern Asia, bordering the Gulf of Thailand, between Thailand, Vietnam, and Laos. (NCI)", "preferredTerm": "CAMBODIA", "submissionValue": "Country", "synonyms": ["Cambodia"]}, {"conceptId": "C16639", "definition": "A group of 33 coral atolls in the Pacific Ocean, straddling the equator; the capital Tarawa is about one-half of the way from Hawaii to Australia. (NCI)", "preferredTerm": "KIRIBATI", "submissionValue": "Country", "synonyms": ["Kiribati"]}, {"conceptId": "C17885", "definition": "Islands in the Caribbean Sea, about one-third of the way from Puerto Rico to Trinidad and Tobago. (NCI)", "preferredTerm": "SAINT KITTS AND NEVIS", "submissionValue": "Country", "synonyms": ["Saint Kitts and Nevis"]}, {"conceptId": "C16774", "definition": "A country in Eastern Asia, occupying the southern half of the Korean Peninsula, bordering the Sea of Japan and the Yellow Sea. (NCI)", "preferredTerm": "SOUTH KOREA", "submissionValue": "Country", "synonyms": ["Korea, Republic of"]}, {"conceptId": "C16775", "definition": "A country in the Middle East, bordering the Persian Gulf, between Iraq and Saudi Arabia. (NCI)", "preferredTerm": "KUWAIT", "submissionValue": "Country", "synonyms": ["Kuwait"]}, {"conceptId": "C16780", "definition": "A country in Southeastern Asia, northeast of Thailand, west of Vietnam. (NCI)", "preferredTerm": "LAO PEOPLE'S DEMOCRATIC REPUBLIC", "submissionValue": "Country", "synonyms": ["Lao People's Democratic Republic"]}, {"conceptId": "C16784", "definition": "A country in the Middle East, bordering the Mediterranean Sea, between Israel and Syria. (NCI)", "preferredTerm": "LEBANON", "submissionValue": "Country", "synonyms": ["Lebanon"]}, {"conceptId": "C16791", "definition": "A country in Western Africa, bordering the North Atlantic Ocean, between Cote d'Ivoire and Sierra Leone. (NCI)", "preferredTerm": "LIBERIA", "submissionValue": "Country", "synonyms": ["Liberia"]}, {"conceptId": "C16793", "definition": "A country in Northern Africa, bordering the Mediterranean Sea, between Egypt and Tunisia. (NCI)", "preferredTerm": "LIBYAN ARAB JAMAHIRIYA", "submissionValue": "Country", "synonyms": ["Libyan Arab Jamahiriya"]}, {"conceptId": "C17113", "definition": "A country in the Caribbean, occupying an island between the Caribbean Sea and North Atlantic Ocean, north of Trinidad and Tobago. (NCI)", "preferredTerm": "SAINT LUCIA", "submissionValue": "Country", "synonyms": ["Saint Lucia"]}, {"conceptId": "C16794", "definition": "A country in Central Europe, between Austria and Switzerland. (NCI)", "preferredTerm": "LIECHTENSTEIN", "submissionValue": "Country", "synonyms": ["Liechtenstein"]}, {"conceptId": "C17163", "definition": "A country in Southern Asia, occupying an island in the Indian Ocean, south of India. (NCI)", "preferredTerm": "SRI LANKA", "submissionValue": "Country", "synonyms": ["Sri Lanka"]}, {"conceptId": "C16787", "definition": "A country in Southern Africa, an enclave of South Africa. (NCI)", "preferredTerm": "LESOTHO", "submissionValue": "Country", "synonyms": ["Lesotho"]}, {"conceptId": "C16799", "definition": "A country in Eastern Europe, bordering the Baltic Sea, between Latvia and Russia. (NCI)", "preferredTerm": "LITHUANIA", "submissionValue": "Country", "synonyms": ["Lithuania"]}, {"conceptId": "C16803", "definition": "A country in Western Europe, between France, Belgium, and Germany. (NCI)", "preferredTerm": "LUXEMBOURG", "submissionValue": "Country", "synonyms": ["Luxembourg"]}, {"conceptId": "C16783", "definition": "A country in Eastern Europe, bordering the Baltic Sea, between Estonia and Lithuania. (NCI)", "preferredTerm": "LATVIA", "submissionValue": "Country", "synonyms": ["Latvia"]}, {"conceptId": "C16807", "definition": "A country in Eastern Asia, bordering the South China Sea and China. (NCI)", "preferredTerm": "MACAO", "submissionValue": "Country", "synonyms": ["Macao"]}, {"conceptId": "C83610", "definition": "An island in the Caribbean sea, between Anguilla and Saint Barthelemy. (NCI)", "preferredTerm": "SAINT MARTIN, FRENCH", "submissionValue": "Country", "synonyms": ["Saint Martin, French"]}, {"conceptId": "C16878", "definition": "A country in Northern Africa, bordering the North Atlantic Ocean and the Mediterranean Sea, between Algeria and Western Sahara. (NCI)", "preferredTerm": "MOROCCO", "submissionValue": "Country", "synonyms": ["Morocco"]}, {"conceptId": "C16874", "definition": "A country in Western Europe, bordering the Mediterranean Sea on the southern coast of France, near the border with Italy. (NCI)", "preferredTerm": "MONACO", "submissionValue": "Country", "synonyms": ["Monaco"]}, {"conceptId": "C16871", "definition": "A country in Eastern Europe, northeast of Romania. (NCI)", "preferredTerm": "MOLDOVA, REPUBLIC OF", "submissionValue": "Country", "synonyms": ["Moldova, Republic of"]}, {"conceptId": "C16808", "definition": "A country in Southern Africa, occupying an island in the Indian Ocean, east of Mozambique. (NCI)", "preferredTerm": "MADAGASCAR", "submissionValue": "Country", "synonyms": ["Madagascar"]}, {"conceptId": "C16815", "definition": "A country in Southern Asia, occupying a group of atolls in the Indian Ocean, south-southwest of India. (NCI)", "preferredTerm": "MALDIVES", "submissionValue": "Country", "synonyms": ["Maldives"]}, {"conceptId": "C16850", "definition": "A country in Central America, bordering the Caribbean Sea and the Gulf of Mexico, between Belize and the US and bordering the North Pacific Ocean, between Guatemala and the US. (NCI)", "preferredTerm": "MEXICO", "submissionValue": "Country", "synonyms": ["Mexico"]}, {"conceptId": "C16822", "definition": "A group of atolls and reefs in the North Pacific Ocean, about one-half of the way from Hawaii to Australia. (NCI)", "preferredTerm": "MARSHALL ISLANDS", "submissionValue": "Country", "synonyms": ["Marshall Islands"]}, {"conceptId": "C17654", "definition": "A country in Southeastern Europe, north of Greece. (NCI)", "preferredTerm": "REPUBLIC OF MACEDONIA", "submissionValue": "Country", "synonyms": ["Macedonia, the Former Yugoslav Republic of"]}, {"conceptId": "C16816", "definition": "A country in Western Africa, southwest of Algeria. (NCI)", "preferredTerm": "MALI", "submissionValue": "Country", "synonyms": ["Mali"]}, {"conceptId": "C16817", "definition": "A country in Southern Europe, occupying islands in the Mediterranean Sea, south of Sicily (Italy). (NCI)", "preferredTerm": "MALTA", "submissionValue": "Country", "synonyms": ["Malta"]}, {"conceptId": "C16370", "definition": "A country in Southeastern Asia, bordering the Andaman Sea and the Bay of Bengal, between Bangladesh and Thailand. (NCI)", "preferredTerm": "MYANMAR", "submissionValue": "Country", "synonyms": ["Myanmar"]}, {"conceptId": "C64378", "definition": "A republic in Southeastern Europe, bordering the Adriatic Sea, between Albania and Bosnia and Herzegovina. Formerly part of Serbia and Montenegro (Federation Republic of Yugoslavia). (NCI)", "preferredTerm": "MONTENEGRO", "submissionValue": "Country", "synonyms": ["Montenegro"]}, {"conceptId": "C16875", "definition": "A country in Northern Asia, between China and Russia. (NCI)", "preferredTerm": "MONGOLIA", "submissionValue": "Country", "synonyms": ["Mongolia"]}, {"conceptId": "C17882", "definition": "A country in the Pacific, comprising islands in the North Pacific Ocean, about three-quarters of the way from Hawaii to the Philippines. (NCI)", "preferredTerm": "NORTHERN MARIANA ISLANDS", "submissionValue": "Country", "synonyms": ["Northern Mariana Islands"]}, {"conceptId": "C16882", "definition": "A country in Southern Africa, bordering the Mozambique Channel, between South Africa and Tanzania. (NCI)", "preferredTerm": "MOZAMBIQUE", "submissionValue": "Country", "synonyms": ["Mozambique"]}, {"conceptId": "C16826", "definition": "A country in Northern Africa, bordering the North Atlantic Ocean, between Senegal and Western Sahara. (NCI)", "preferredTerm": "MAURITANIA", "submissionValue": "Country", "synonyms": ["Mauritania"]}, {"conceptId": "C16876", "definition": "A country in the Caribbean, occupying an island in the Caribbean Sea, southeast of Puerto Rico. (NCI)", "preferredTerm": "MONTSERRAT", "submissionValue": "Country", "synonyms": ["Montserrat"]}, {"conceptId": "C16823", "definition": "An island in the Caribbean Sea, north of Trinidad and Tobago. (NCI)", "preferredTerm": "MARTINIQUE", "submissionValue": "Country", "synonyms": ["Martinique"]}, {"conceptId": "C16827", "definition": "A country in Southern Africa, occupying an island in the Indian Ocean, east of Madagascar. (NCI)", "preferredTerm": "MAURITIUS", "submissionValue": "Country", "synonyms": ["Mauritius"]}, {"conceptId": "C16813", "definition": "A country in Southern Africa, east of Zambia. (NCI)", "preferredTerm": "MALAWI", "submissionValue": "Country", "synonyms": ["Malawi"]}, {"conceptId": "C16814", "definition": "A country in Southeastern Asia, occupying a peninsula and the northern one-third of the island of Borneo, bordering Indonesia and the South China Sea, south of Vietnam. (NCI)", "preferredTerm": "MALAYSIA", "submissionValue": "Country", "synonyms": ["Malaysia"]}, {"conceptId": "C16828", "definition": "A country in Southern Africa, occupying an island in the Mozambique Channel, about one-half of the way from northern Madagascar to northern Mozambique. (NCI)", "preferredTerm": "MAYOTTE", "submissionValue": "Country", "synonyms": ["Mayotte"]}, {"conceptId": "C16891", "definition": "A country in Southern Africa, bordering the South Atlantic Ocean, between Angola and South Africa. (NCI)", "preferredTerm": "NAMIBIA", "submissionValue": "Country", "synonyms": ["Namibia"]}, {"conceptId": "C16913", "definition": "A country in the Pacific, comprised of islands in the South Pacific Ocean, east of Australia. (NCI)", "preferredTerm": "NEW CALEDONIA", "submissionValue": "Country", "synonyms": ["New Caledonia"]}, {"conceptId": "C16916", "definition": "A country in Western Africa, southeast of Algeria. (NCI)", "preferredTerm": "NIGER", "submissionValue": "Country", "synonyms": ["Niger"]}, {"conceptId": "C16919", "definition": "A country in the Pacific, occupying an island in the South Pacific Ocean, east of Australia. (NCI)", "preferredTerm": "NORFOLK ISLAND", "submissionValue": "Country", "synonyms": ["Norfolk Island"]}, {"conceptId": "C16917", "definition": "A country in Western Africa, bordering the Gulf of Guinea, between Benin and Cameroon. (NCI)", "preferredTerm": "NIGERIA", "submissionValue": "Country", "synonyms": ["Nigeria"]}, {"conceptId": "C16915", "definition": "A country in Central America, bordering both the Caribbean Sea and the North Pacific Ocean, between Costa Rica and Honduras. (NCI)", "preferredTerm": "NICARAGUA", "submissionValue": "Country", "synonyms": ["Nicaragua"]}, {"conceptId": "C16918", "definition": "A country in the Pacific, occupying an island in the South Pacific Ocean, east of Tonga. (NCI)", "preferredTerm": "NIUE", "submissionValue": "Country", "synonyms": ["Niue"]}, {"conceptId": "C16903", "definition": "A country in Western Europe, bordering the North Sea, between Belgium and Germany. (NCI)", "preferredTerm": "NETHERLANDS", "submissionValue": "Country", "synonyms": ["Netherlands"]}, {"conceptId": "C16920", "definition": "A country in Northern Europe, bordering the North Sea and the North Atlantic Ocean, west of Sweden. (NCI)", "preferredTerm": "NORWAY", "submissionValue": "Country", "synonyms": ["Norway"]}, {"conceptId": "C16901", "definition": "A country in Southern Asia, between China and India. (NCI)", "preferredTerm": "NEPAL", "submissionValue": "Country", "synonyms": ["Nepal"]}, {"conceptId": "C16896", "definition": "A country in Oceania, occupying an island in the South Pacific Ocean, south of the Marshall Islands. (NCI)", "preferredTerm": "NAURU", "submissionValue": "Country", "synonyms": ["Nauru"]}, {"conceptId": "C16914", "definition": "A country in the Pacific, comprised of islands in the South Pacific Ocean, southeast of Australia. (NCI)", "preferredTerm": "NEW ZEALAND", "submissionValue": "Country", "synonyms": ["New Zealand"]}, {"conceptId": "C16933", "definition": "A country in the Middle East, bordering the Arabian Sea, Gulf of Oman, and Persian Gulf, between Yemen and the United Arab Emirates. (NCI)", "preferredTerm": "OMAN", "submissionValue": "Country", "synonyms": ["Oman"]}, {"conceptId": "C16949", "definition": "A country in Southern Asia, bordering the Arabian Sea, between India on the east and Iran and Afghanistan on the west and China in the north. (NCI)", "preferredTerm": "PAKISTAN", "submissionValue": "Country", "synonyms": ["Pakistan"]}, {"conceptId": "C16951", "definition": "A country in Central America, bordering both the Caribbean Sea and the North Pacific Ocean, between Colombia and Costa Rica. (NCI)", "preferredTerm": "PANAMA", "submissionValue": "Country", "synonyms": ["Panama"]}, {"conceptId": "C16993", "definition": "A country in the Pacific, comprised of islands in the South Pacific Ocean, about midway between Peru and New Zealand. (NCI)", "preferredTerm": "PITCAIRN", "submissionValue": "Country", "synonyms": ["Pitcairn"]}, {"conceptId": "C16972", "definition": "A country in Western South America, bordering the South Pacific Ocean, between Chile and Ecuador. (NCI)", "preferredTerm": "PERU", "submissionValue": "Country", "synonyms": ["Peru"]}, {"conceptId": "C16978", "definition": "A country in Southeastern Asia, comprised of an archipelago between the Philippine Sea and the South China Sea, east of Vietnam. (NCI)", "preferredTerm": "PHILIPPINES", "submissionValue": "Country", "synonyms": ["Philippines"]}, {"conceptId": "C17733", "definition": "A country in the Pacific, comprising a group of islands in the North Pacific Ocean, southeast of the Philippines. (NCI)", "preferredTerm": "PALAU", "submissionValue": "Country", "synonyms": ["Palau"]}, {"conceptId": "C16952", "definition": "A country in Southeastern Asia, comprising a group of islands and including the eastern half of the island of New Guinea, between the Coral Sea and the South Pacific Ocean, east of Indonesia. (NCI)", "preferredTerm": "PAPUA NEW GUINEA", "submissionValue": "Country", "synonyms": ["Papua New Guinea"]}, {"conceptId": "C17002", "definition": "A country in Central Europe, east of Germany. (NCI)", "preferredTerm": "POLAND", "submissionValue": "Country", "synonyms": ["Poland"]}, {"conceptId": "C17043", "definition": "An island between the Caribbean Sea and the North Atlantic Ocean, east of the Dominican Republic. (NCI)", "preferredTerm": "PUERTO RICO", "submissionValue": "Country", "synonyms": ["Puerto Rico"]}, {"conceptId": "C16773", "definition": "A country in Eastern Asia, occupying the northern half of the Korean Peninsula, bordering the Korea Bay and the Sea of Japan, between China and South Korea. (NCI)", "preferredTerm": "NORTH KOREA", "submissionValue": "Country", "synonyms": ["Korea, Democratic People's Republic of"]}, {"conceptId": "C17006", "definition": "A country in Southwestern Europe, bordering the North Atlantic Ocean, west of Spain. (NCI)", "preferredTerm": "PORTUGAL", "submissionValue": "Country", "synonyms": ["Portugal"]}, {"conceptId": "C16953", "definition": "A country in Central South America, northeast of Argentina. (NCI)", "preferredTerm": "PARAGUAY", "submissionValue": "Country", "synonyms": ["Paraguay"]}, {"conceptId": "C20110", "definition": "A collective name for the West Bank and the Gaza Strip, two territories in Palestine. (NCI)", "preferredTerm": "PALESTINIAN TERRITORY, OCCUPIED", "submissionValue": "Country", "synonyms": ["Palestinian Territory, Occupied"]}, {"conceptId": "C16594", "definition": "An archipelago in the South Pacific Ocean, about one-half of the way from South America to Australia. (NCI)", "preferredTerm": "FRENCH POLYNESIA", "submissionValue": "Country", "synonyms": ["French Polynesia"]}, {"conceptId": "C17045", "definition": "A country in the Middle East, occupying a peninsula bordering the Persian Gulf and Saudi Arabia. (NCI)", "preferredTerm": "QATAR", "submissionValue": "Country", "synonyms": ["Qatar"]}, {"conceptId": "C17095", "definition": "A country in Southern Africa, occupying an island in the Indian Ocean, east of Madagascar. (NCI)", "preferredTerm": "REUNION", "submissionValue": "Country", "synonyms": ["Reunion"]}, {"conceptId": "C17108", "definition": "A country in Southeastern Europe, bordering the Black Sea, between Bulgaria and Ukraine. (NCI)", "preferredTerm": "ROMANIA", "submissionValue": "Country", "synonyms": ["Romania"]}, {"conceptId": "C17111", "definition": "A country in Northern Asia (that part west of the Urals is sometimes included with Europe), bordering the Arctic Ocean, between Europe and the North Pacific Ocean. (NCI)", "preferredTerm": "RUSSIAN FEDERATION", "submissionValue": "Country", "synonyms": ["Russian Federation"]}, {"conceptId": "C17112", "definition": "A country in Central Africa, east of Democratic Republic of the Congo. (NCI)", "preferredTerm": "RWANDA", "submissionValue": "Country", "synonyms": ["Rwanda"]}, {"conceptId": "C17117", "definition": "A country in the Middle East, bordering the Persian Gulf and the Red Sea, north of Yemen. (NCI)", "preferredTerm": "SAUDI ARABIA", "submissionValue": "Country", "synonyms": ["Saudi Arabia"]}, {"conceptId": "C17170", "definition": "A country in Northern Africa, bordering the Red Sea, between Egypt and Eritrea. (NCI)", "preferredTerm": "SUDAN", "submissionValue": "Country", "synonyms": ["Sudan"]}, {"conceptId": "C17121", "definition": "A country in Western Africa, bordering the North Atlantic Ocean, between Guinea-Bissau and Mauritania. (NCI)", "preferredTerm": "SENEGAL", "submissionValue": "Country", "synonyms": ["Senegal"]}, {"conceptId": "C17134", "definition": "A country in Southeastern Asia, comprised of islands between Malaysia and Indonesia. (NCI)", "preferredTerm": "SINGAPORE", "submissionValue": "Country", "synonyms": ["Singapore"]}, {"conceptId": "C20111", "definition": "A group of islands in the South Atlantic Ocean, east of the tip of South America. (NCI)", "preferredTerm": "SOUTH GEORGIA AND THE SOUTH SANDWICH ISLANDS", "submissionValue": "Country", "synonyms": ["South Georgia and the South Sandwich Islands"]}, {"conceptId": "C17164", "definition": "Islands in the South Atlantic Ocean, about midway between South America and Africa. (NCI)", "preferredTerm": "SAINT HELENA", "submissionValue": "Country", "synonyms": ["Saint Helena"]}, {"conceptId": "C17178", "definition": "Islands between the Arctic Ocean, Barents Sea, Greenland Sea, and Norwegian Sea, northeast of Iceland and north of Norway. (NCI)", "preferredTerm": "SVALBARD AND JAN MAYEN", "submissionValue": "Country", "synonyms": ["Svalbard and Jan Mayen"]}, {"conceptId": "C17148", "definition": "A group of islands in the South Pacific Ocean, east of Papua New Guinea. (NCI)", "preferredTerm": "SOLOMON ISLANDS", "submissionValue": "Country", "synonyms": ["Solomon Islands"]}, {"conceptId": "C17130", "definition": "A country in Western Africa, bordering the North Atlantic Ocean, between Guinea and Liberia. (NCI)", "preferredTerm": "SIERRA LEONE", "submissionValue": "Country", "synonyms": ["Sierra Leone"]}, {"conceptId": "C16532", "definition": "A country in Central America, bordering the North Pacific Ocean, between Guatemala and Honduras. (NCI)", "preferredTerm": "EL SALVADOR", "submissionValue": "Country", "synonyms": ["El Salvador"]}, {"conceptId": "C17115", "definition": "A country in Southern Europe, an enclave in central Italy. (NCI)", "preferredTerm": "SAN MARINO", "submissionValue": "Country", "synonyms": ["San Marino"]}, {"conceptId": "C17149", "definition": "A country in Eastern Africa, bordering the Gulf of Aden and the Indian Ocean, east of Ethiopia. (NCI)", "preferredTerm": "SOMALIA", "submissionValue": "Country", "synonyms": ["Somalia"]}, {"conceptId": "C17165", "definition": "A country in Northern North America, comprised of islands in the North Atlantic Ocean, south of Newfoundland (Canada). (NCI)", "preferredTerm": "SAINT PIERRE AND MIQUELON", "submissionValue": "Country", "synonyms": ["Saint Pierre and Miquelon"]}, {"conceptId": "C64377", "definition": "A republic in Southeastern Europe, bordering the Adriatic Sea, between Albania and Bosnia and Herzegovina. Formerly part of Serbia and Montenegro (Federation Republic of Yugoslavia). (NCI)", "preferredTerm": "SERBIA", "submissionValue": "Country", "synonyms": ["Serbia"]}, {"conceptId": "C17116", "definition": "A country in Western Africa, comprised of islands in the Gulf of Guinea, straddling the Equator, west of Gabon. (NCI)", "preferredTerm": "SAO TOME AND PRINCIPE", "submissionValue": "Country", "synonyms": ["Sao Tome and Principe"]}, {"conceptId": "C17175", "definition": "A country in Northern South America, bordering the North Atlantic Ocean, between French Guiana and Guyana. (NCI)", "preferredTerm": "SURINAME", "submissionValue": "Country", "synonyms": ["Suriname"]}, {"conceptId": "C17669", "definition": "A country in Central Europe, south of Poland. (NCI)", "preferredTerm": "SLOVAKIA", "submissionValue": "Country", "synonyms": ["Slovakia"]}, {"conceptId": "C17138", "definition": "A country in Central Europe, bordering the Adriatic Sea, between Austria and Croatia. (NCI)", "preferredTerm": "SLOVENIA", "submissionValue": "Country", "synonyms": ["Slovenia"]}, {"conceptId": "C17180", "definition": "A country in Northern Europe, bordering the Baltic Sea, Gulf of Bothnia, Kattegat, and Skagerrak, between Finland and Norway. (NCI)", "preferredTerm": "SWEDEN", "submissionValue": "Country", "synonyms": ["Sweden"]}, {"conceptId": "C17179", "definition": "A country in Southern Africa, between Mozambique and South Africa. (NCI)", "preferredTerm": "SWAZILAND", "submissionValue": "Country", "synonyms": ["Swaziland"]}, {"conceptId": "C17129", "definition": "A country in Eastern Africa, comprised of a group of islands in the Indian Ocean, northeast of Madagascar. (NCI)", "preferredTerm": "SEYCHELLES", "submissionValue": "Country", "synonyms": ["Seychelles"]}, {"conceptId": "C17182", "definition": "A country in the Middle East, bordering the Mediterranean Sea, between Lebanon and Turkey. (NCI)", "preferredTerm": "SYRIAN ARAB REPUBLIC", "submissionValue": "Country", "synonyms": ["Syrian Arab Republic"]}, {"conceptId": "C17224", "definition": "Two island groups in the North Atlantic Ocean, southeast of The Bahamas. (NCI)", "preferredTerm": "TURKS AND CAICOS ISLANDS", "submissionValue": "Country", "synonyms": ["Turks and Caicos Islands"]}, {"conceptId": "C16412", "definition": "A country in Central Africa, south of Libya. (NCI)", "preferredTerm": "CHAD", "submissionValue": "Country", "synonyms": ["Chad"]}, {"conceptId": "C17202", "definition": "A country in Western Africa, bordering the Bight of Benin, between Benin and Ghana. (NCI)", "preferredTerm": "TOGO", "submissionValue": "Country", "synonyms": ["Togo"]}, {"conceptId": "C17192", "definition": "A country in Southeastern Asia, bordering the Andaman Sea and the Gulf of Thailand, southeast of Burma. (NCI)", "preferredTerm": "THAILAND", "submissionValue": "Country", "synonyms": ["Thailand"]}, {"conceptId": "C17183", "definition": "A country in Central Asia, west of China. (NCI)", "preferredTerm": "TAJIKISTAN", "submissionValue": "Country", "synonyms": ["Tajikistan"]}, {"conceptId": "C17704", "definition": "A group of three atolls in the South Pacific Ocean, about one-half of the way from Hawaii to New Zealand. (NCI)", "preferredTerm": "TOKELAU", "submissionValue": "Country", "synonyms": ["Tokelau"]}, {"conceptId": "C17223", "definition": "A country in Central Asia, bordering the Caspian Sea, between Iran and Kazakhstan. (NCI)", "preferredTerm": "TURKMENISTAN", "submissionValue": "Country", "synonyms": ["Turkmenistan"]}, {"conceptId": "C17200", "definition": "A country in Southeastern Asia, northwest of Australia in the Lesser Sunda Islands at the eastern end of the Indonesian archipelago. East Timor includes the eastern half of the island of Timor, the Oecussi (Ambeno) region on the northwest portion of the island of Timor, and the islands of Pulau Atauro and Pulau Jaco. (NCI)", "preferredTerm": "TIMOR-LESTE", "submissionValue": "Country", "synonyms": ["Timor-Leste"]}, {"conceptId": "C17205", "definition": "An archipelago in the South Pacific Ocean, about two-thirds of the way from Hawaii to New Zealand. (NCI)", "preferredTerm": "TONGA", "submissionValue": "Country", "synonyms": ["Tonga"]}, {"conceptId": "C17217", "definition": "Islands between the Caribbean Sea and the North Atlantic Ocean, northeast of Venezuela. (NCI)", "preferredTerm": "TRINIDAD AND TOBAGO", "submissionValue": "Country", "synonyms": ["Trinidad and Tobago"]}, {"conceptId": "C17221", "definition": "A country in Northern Africa, bordering the Mediterranean Sea, between Algeria and Libya. (NCI)", "preferredTerm": "TUNISIA", "submissionValue": "Country", "synonyms": ["Tunisia"]}, {"conceptId": "C17222", "definition": "A country in southeastern Europe and southwestern Asia (that portion of Turkey west of the Bosporus is geographically part of Europe), bordering the Black Sea, between Bulgaria and Georgia, and bordering the Aegean Sea and the Mediterranean Sea, between Greece and Syria. (NCI)", "preferredTerm": "TURKEY", "submissionValue": "Country", "synonyms": ["Turkey"]}, {"conceptId": "C17225", "definition": "An island group consisting of nine coral atolls in the South Pacific Ocean, about one-half of the way from Hawaii to Australia. (NCI)", "preferredTerm": "TUVALU", "submissionValue": "Country", "synonyms": ["Tuvalu"]}, {"conceptId": "C17184", "definition": "A group of islands bordering the East China Sea, Philippine Sea, South China Sea, and Taiwan Strait, north of the Philippines, off the southeastern coast of China. (NCI)", "preferredTerm": "TAIWAN", "submissionValue": "Country", "synonyms": ["Taiwan, Province of China"]}, {"conceptId": "C17185", "definition": "A country in Eastern Africa, bordering the Indian Ocean, between Kenya and Mozambique. (NCI)", "preferredTerm": "TANZANIA, UNITED REPUBLIC OF", "submissionValue": "Country", "synonyms": ["Tanzania, United Republic of"]}, {"conceptId": "C17228", "definition": "A country in Eastern Africa, west of Kenya. (NCI)", "preferredTerm": "UGANDA", "submissionValue": "Country", "synonyms": ["Uganda"]}, {"conceptId": "C17229", "definition": "A country in Eastern Europe, bordering the Black Sea, between Poland and Russia. (NCI)", "preferredTerm": "UKRAINE", "submissionValue": "Country", "synonyms": ["Ukraine"]}, {"conceptId": "C20112", "definition": "The U.S. Minor Outlying Islands consist of Baker Island, Howland Island, Jarvis Island, Johnston Atoll, Kingman Reef, Midway Island, Navassa Island, Palmyra Atoll, and Wake Island (Wake Atoll). (NCI)", "preferredTerm": "UNITED STATES MINOR OUTLYING ISLANDS", "submissionValue": "Country", "synonyms": ["United States Minor Outlying Islands"]}, {"conceptId": "C17244", "definition": "A country in Southern South America, bordering the South Atlantic Ocean, between Argentina and Brazil. (NCI)", "preferredTerm": "URUGUAY", "submissionValue": "Country", "synonyms": ["Uruguay"]}, {"conceptId": "C17234", "definition": "A country in North America, bordering both the North Atlantic Ocean and the North Pacific Ocean, between Canada and Mexico. (NCI)", "preferredTerm": "UNITED STATES", "submissionValue": "Country", "synonyms": ["United States"]}, {"conceptId": "C17246", "definition": "A country in Central Asia, north of Afghanistan. (NCI)", "preferredTerm": "UZBEKISTAN", "submissionValue": "Country", "synonyms": ["Uzbekistan"]}, {"conceptId": "C17249", "definition": "An enclave of Rome (Italy). (NCI)", "preferredTerm": "VATICAN CITY STATE", "submissionValue": "Country", "synonyms": ["Holy See (Vatican City State)"]}, {"conceptId": "C17114", "definition": "A country in the Caribbean, comprised of islands in the Caribbean Sea, north of Trinidad and Tobago. (NCI)", "preferredTerm": "SAINT VINCENT AND THE GRENADINES", "submissionValue": "Country", "synonyms": ["Saint Vincent and the Grenadines"]}, {"conceptId": "C17250", "definition": "A country in Northern South America, bordering the Caribbean Sea and the North Atlantic Ocean, between Colombia and Guyana. (NCI)", "preferredTerm": "VENEZUELA", "submissionValue": "Country", "synonyms": ["Venezuela"]}, {"conceptId": "C17653", "definition": "Islands between the Caribbean Sea and the North Atlantic Ocean, east of Puerto Rico. (NCI)", "preferredTerm": "VIRGIN ISLANDS, BRITISH", "submissionValue": "Country", "synonyms": ["Virgin Islands, British"]}, {"conceptId": "C17255", "definition": "Islands between the Caribbean Sea and the North Atlantic Ocean, east of Puerto Rico. (NCI)", "preferredTerm": "VIRGIN ISLANDS, U.S.", "submissionValue": "Country", "synonyms": ["Virgin Islands, U.S."]}, {"conceptId": "C17252", "definition": "A country in Southeastern Asia, bordering the Gulf of Thailand, Gulf of Tonkin, and South China Sea, alongside China, Laos, and Cambodia. (NCI)", "preferredTerm": "VIETNAM", "submissionValue": "Country", "synonyms": ["Viet Nam"]}, {"conceptId": "C17247", "definition": "A group of islands in the South Pacific Ocean, about three-quarters of the way from Hawaii to Australia. (NCI)", "preferredTerm": "VANUATU", "submissionValue": "Country", "synonyms": ["Vanuatu"]}, {"conceptId": "C17259", "definition": "Islands in the South Pacific Ocean, about two-thirds of the way from Hawaii to New Zealand. (NCI)", "preferredTerm": "WALLIS AND FUTUNA", "submissionValue": "Country", "synonyms": ["Wallis and Futuna"]}, {"conceptId": "C17740", "definition": "A group of islands in the South Pacific Ocean, about one-half of the way from Hawaii to New Zealand. (NCI)", "preferredTerm": "SAMOA", "submissionValue": "Country", "synonyms": ["Samoa"]}, {"conceptId": "C17264", "definition": "A country in the Middle East, bordering the Arabian Sea, Gulf of Aden, and Red Sea, between Oman and Saudi Arabia. (NCI)", "preferredTerm": "YEMEN", "submissionValue": "Country", "synonyms": ["Yemen"]}, {"conceptId": "C17151", "definition": "A country in Southern Africa, at the southern tip of the continent of Africa. (NCI)", "preferredTerm": "SOUTH AFRICA", "submissionValue": "Country", "synonyms": ["South Africa"]}, {"conceptId": "C17267", "definition": "A country in Southern Africa, east of Angola. (NCI)", "preferredTerm": "ZAMBIA", "submissionValue": "Country", "synonyms": ["Zambia"]}, {"conceptId": "C17268", "definition": "A country in Southern Africa, between South Africa and Zambia. (NCI)", "preferredTerm": "ZIMBABWE", "submissionValue": "Country", "synonyms": ["Zimbabwe"]}]}, {"conceptId": "", "definition": "Terminology for the test codes concerned with the circumstance or condition that results in the death of a living being.", "extensible": "Yes", "name": "Death Diagnosis Test Code", "preferredTerm": "Death Diagnosis Test Code", "submissionValue": "Death Diagnosis Test Code", "synonyms": ["CDISC SEND Death Diagnosis Test Code Terminology"], "terms": [{"conceptId": "C81239", "definition": "The circumstance or condition that results in the death of a living being. (NCI)", "preferredTerm": "Death Diagnosis", "submissionValue": "Death Diagnosis Test Code", "synonyms": ["Cause of Death"]}]}, {"conceptId": "", "definition": "Terminology for the test names concerned with the circumstance or condition that results in the death of a living being.", "extensible": "Yes", "name": "Death Diagnosis Test Name", "preferredTerm": "Death Diagnosis Test Name", "submissionValue": "Death Diagnosis Test Name", "synonyms": ["CDISC SEND Death Diagnosis Test Name Terminology"], "terms": [{"conceptId": "C81239", "definition": "The circumstance or condition that results in the death of a living being. (NCI)", "preferredTerm": "Death Diagnosis", "submissionValue": "Death Diagnosis Test Name", "synonyms": ["Cause of Death"]}]}, {"conceptId": "", "definition": "CDISC terminology for anatomical location or specimen further detailing directionality.", "extensible": "Yes", "name": "Directionality", "preferredTerm": "Directionality", "submissionValue": "Directionality", "synonyms": ["CDISC SDTM Directionality Terminology"], "terms": [{"conceptId": "C25231", "definition": "Denoting the front portion of the body or a structure.", "preferredTerm": "", "submissionValue": "Directionality", "synonyms": ["Anterior"]}, {"conceptId": "C25423", "definition": "Relating to or located at the apex.", "preferredTerm": "", "submissionValue": "Directionality", "synonyms": ["Apical"]}, {"conceptId": "C90067", "definition": "Relating to or located at the lowest portion of a structure.", "preferredTerm": "", "submissionValue": "Directionality", "synonyms": ["Basal"]}, {"conceptId": "C73851", "definition": "Toward the tail in a body.", "preferredTerm": "", "submissionValue": "Directionality", "synonyms": ["Caudal"]}, {"conceptId": "C25445", "definition": "A point or area that is approximately central within some larger region or structure. (NCI)", "preferredTerm": "", "submissionValue": "Directionality", "synonyms": ["Center"]}, {"conceptId": "C37936", "definition": "Toward the head in a body.", "preferredTerm": "", "submissionValue": "Directionality", "synonyms": ["Cranial"]}, {"conceptId": "C25240", "definition": "Extending relatively far inward. (NCI)", "preferredTerm": "", "submissionValue": "Directionality", "synonyms": ["Deep"]}, {"conceptId": "C25237", "definition": "Situated farthest from a point of reference.", "preferredTerm": "", "submissionValue": "Directionality", "synonyms": ["Distal"]}, {"conceptId": "C45874", "definition": "Pertaining to the back or upper surface of the body.", "preferredTerm": "", "submissionValue": "Directionality", "synonyms": ["Dorsal"]}, {"conceptId": "C90376", "definition": "Toward the back and side of a body.", "preferredTerm": "", "submissionValue": "Directionality", "synonyms": ["Dorsolateral"]}, {"conceptId": "C90386", "definition": "Of or involving the front of a main body. (NCI)", "preferredTerm": "", "submissionValue": "Directionality", "synonyms": ["Fore"]}, {"conceptId": "C90393", "definition": "Of or involving the back of a main body. (NCI)", "preferredTerm": "", "submissionValue": "Directionality", "synonyms": ["Hind"]}, {"conceptId": "C25353", "definition": "Pertaining to a point below a given reference point.", "preferredTerm": "", "submissionValue": "Directionality", "synonyms": ["Inferior"]}, {"conceptId": "C37980", "definition": "Inside or closer to the inside of the body or object. (NCI)", "preferredTerm": "", "submissionValue": "Directionality", "synonyms": ["Inner"]}, {"conceptId": "C73705", "definition": "Located between two points or extremes.", "preferredTerm": "", "submissionValue": "Directionality", "synonyms": ["Intermediate"]}, {"conceptId": "C25309", "definition": "The bottom one of two. (NCI)", "preferredTerm": "", "submissionValue": "Directionality", "synonyms": ["Lower"]}, {"conceptId": "C25232", "definition": "Toward the middle or in a limb toward the median plane.", "preferredTerm": "", "submissionValue": "Directionality", "synonyms": ["Medial"]}, {"conceptId": "C38166", "definition": "Being on or toward the outside of the body or object. (NCI)", "preferredTerm": "", "submissionValue": "Directionality", "synonyms": ["Outer"]}, {"conceptId": "C25233", "definition": "On or near an edge or constituting an outer boundary; the outer area. (NCI)", "preferredTerm": "", "submissionValue": "Directionality", "synonyms": ["Peripheral"]}, {"conceptId": "C25622", "definition": "Denoting the back portion of the body or a structure.", "preferredTerm": "", "submissionValue": "Directionality", "synonyms": ["Posterior"]}, {"conceptId": "C25236", "definition": "Situated nearest to a point of reference.", "preferredTerm": "", "submissionValue": "Directionality", "synonyms": ["Proximal"]}, {"conceptId": "C94393", "definition": "Toward the muzzle in the head.", "preferredTerm": "", "submissionValue": "Directionality", "synonyms": ["Rostral"]}, {"conceptId": "C25239", "definition": "Of or pertaining to the exterior surface. (NCI)", "preferredTerm": "", "submissionValue": "Directionality", "synonyms": ["Superficial"]}, {"conceptId": "C25235", "definition": "Pertaining to a point above a given reference point.", "preferredTerm": "", "submissionValue": "Directionality", "synonyms": ["Superior"]}, {"conceptId": "C25245", "definition": "The extended two-dimensional outer layer or area of a three-dimensional object. (NCI)", "preferredTerm": "", "submissionValue": "Directionality", "synonyms": ["Surface"]}, {"conceptId": "C90069", "definition": "The pointed end of a structure.", "preferredTerm": "", "submissionValue": "Directionality", "synonyms": ["Tip"]}, {"conceptId": "C25355", "definition": "The top one of two.", "preferredTerm": "", "submissionValue": "Directionality", "synonyms": ["Upper"]}, {"conceptId": "C45875", "definition": "Pertaining to the front or lower surface of the body.", "preferredTerm": "", "submissionValue": "Directionality", "synonyms": ["Ventral"]}, {"conceptId": "C98798", "definition": "Of or pertaining to the front and side of a main body. (NCI)", "preferredTerm": "", "submissionValue": "Directionality", "synonyms": ["Ventrolateral"]}]}, {"conceptId": "", "definition": "A unique, 2-character domain code used in the regulatory submission process. The domain abbreviation is used consistently throughout the submission, i.e. in the dataset name, as the value of the domain variable within the dataset, and as a prefix for most variable names in the dataset. (CDISC Glossary)", "extensible": "Yes", "name": "Domain Abbreviation", "preferredTerm": "Domain Abbreviation", "submissionValue": "Domain Abbreviation", "synonyms": ["CDISC SDTM Submission Domain Abbreviation Terminology"], "terms": [{"conceptId": "C49563", "definition": "Datasets used for statistical analysis and reporting by the sponsor. These are submitted in addition to the data tabulation datasets.", "preferredTerm": "Analysis Dataset", "submissionValue": "Domain Abbreviation", "synonyms": ["Analysis Dataset Domain"]}, {"conceptId": "C49562", "definition": "Adverse events may be captured either as free text or a pre-specified list of terms.", "preferredTerm": "Adverse Events", "submissionValue": "Domain Abbreviation", "synonyms": ["Adverse Event Domain"]}, {"conceptId": "C49565", "definition": "Additional data about deaths, specific to findings from autopsies.", "preferredTerm": "Autopsy", "submissionValue": "Domain Abbreviation", "synonyms": ["Autopsy Domain"]}, {"conceptId": "C95083", "definition": "Body weight gain is the actual difference between two body weight measurements for any given interval for a subject. This is most commonly shown as the difference between two consecutive body weight measurements.", "preferredTerm": "Body Weight Gain", "submissionValue": "Domain Abbreviation", "synonyms": ["Body Weight Gain Domain"]}, {"conceptId": "C95084", "definition": "This domain captures behavioral testing measurements on individual subjects.", "preferredTerm": "Behavioral", "submissionValue": "Domain Abbreviation", "synonyms": ["Behavioral Domain"]}, {"conceptId": "C49566", "definition": "Findings resulting from evaluations of bone mineral density.", "preferredTerm": "Bone Measurements", "submissionValue": "Domain Abbreviation", "synonyms": ["Bone Measurements Domain"]}, {"conceptId": "C49567", "definition": "Findings resulting from biopsies.", "preferredTerm": "Biopsy", "submissionValue": "Domain Abbreviation", "synonyms": ["Biopsy Domain"]}, {"conceptId": "C95085", "definition": "This domain captures body weights collected for subjects during the study and at the end of the study (terminal body weights).", "preferredTerm": "Body Weight", "submissionValue": "Domain Abbreviation", "synonyms": ["Body Weight Domain"]}, {"conceptId": "C85441", "definition": "A dataset used to capture clinical events of interest that would not be classified as adverse events.", "preferredTerm": "Clinical Events", "submissionValue": "Domain Abbreviation", "synonyms": ["Clinical Events Domain"]}, {"conceptId": "C95086", "definition": "This domain captures clinical sign information including ophthalmology, physical examination, and dermal examination collected in life while executing the study.", "preferredTerm": "Clinical Observation", "submissionValue": "Domain Abbreviation", "synonyms": ["Clinical Observation Domain"]}, {"conceptId": "C49568", "definition": "Case report form (CRF) data that captures the Concomitant and Prior Medications/Therapies used by the subject. Examples are the Concomitant Medications/Therapies given on an as needed basis and the usual Background Medications/Therapies given for a condition.", "preferredTerm": "Concomitant Meds", "submissionValue": "Domain Abbreviation", "synonyms": ["Concomitant Medication Domain"]}, {"conceptId": "C49569", "definition": "The Comments dataset accommodates two sources of comments: 1) those collected alongside other data on topical case report form (CRF) pages such as Adverse Events and 2) those collected on a separate page specifically dedicated to comments.", "preferredTerm": "Comments", "submissionValue": "Domain Abbreviation", "synonyms": ["Comment Domain"]}, {"conceptId": "C49578", "definition": "Data regarding the accountability of study drug, such as information on the receipt, dispensing, return, and packaging.", "preferredTerm": "Drug Accountability", "submissionValue": "Domain Abbreviation", "synonyms": ["Drug Accountability Domain"]}, {"conceptId": "C49570", "definition": "Data related to the characteristics of a specific disease state under study for a subject.", "preferredTerm": "Disease Characteristics", "submissionValue": "Domain Abbreviation", "synonyms": ["Disease Characteristics Domain"]}, {"conceptId": "C95087", "definition": "This domain captures the diagnosis of the cause of death for a subject.", "preferredTerm": "Death Diagnosis", "submissionValue": "Domain Abbreviation", "synonyms": ["Death Diagnosis Domain"]}, {"conceptId": "C49572", "definition": "The Demographics domain includes a set of essential standard variables that describe each subject in a clinical study. It is the parent domain for all other observations for human clinical subjects", "preferredTerm": "Demographics", "submissionValue": "Domain Abbreviation", "synonyms": ["Demographics Domain"]}, {"conceptId": "C95088", "definition": "This domain captures the outcome of developmental milestone testing during a scheduled period of observation.", "preferredTerm": "Developmental Milestone", "submissionValue": "Domain Abbreviation", "synonyms": ["Developmental Milestone Domain"]}, {"conceptId": "C49576", "definition": "A subject domain utilized for the submission of information encompassing and representing data, vocabulary or records related to disposition. (NCI)", "preferredTerm": "Disposition", "submissionValue": "Domain Abbreviation", "synonyms": ["Disposition Domain"]}, {"conceptId": "C49585", "definition": "The intent of the domain is to capture protocol violations and deviations during the course of the study and will store only those criteria violation by or deviated from by the subject and not a response to each violation or deviation.", "preferredTerm": "Protocol Deviations", "submissionValue": "Domain Abbreviation", "synonyms": ["Protocol Deviations Domain"]}, {"conceptId": "C49625", "definition": "Findings resulting from electroencephalogram (EEG) tests.", "preferredTerm": "Electroencephalogram", "submissionValue": "Domain Abbreviation", "synonyms": ["Electroencephalogram Domain"]}, {"conceptId": "C49626", "definition": "Findings related to the collection of ECG data, including position of the subject, method of evaluation, all cycle measurements and all findings from the ECG including an overall interpretation if collected or derived.", "preferredTerm": "Electrocardiogram", "submissionValue": "Domain Abbreviation", "synonyms": ["Electrocardiogram Domain"]}, {"conceptId": "C49587", "definition": "The Exposure domain model records the details of a subject's exposure to protocol-specified study treatment. Study treatment may be any intervention that is prospectively defined as a test material within a study, and is typically but not always supplied to the subject.", "preferredTerm": "Exposure", "submissionValue": "Domain Abbreviation", "synonyms": ["Exposure Domain"]}, {"conceptId": "C85442", "definition": "A dataset used to capture the findings about an event or intervention that cannot be represented within an event or intervention record or as a supplemental qualifier.", "preferredTerm": "Findings About Events or Interventions", "submissionValue": "Domain Abbreviation", "synonyms": ["Findings About Events or Interventions Domain"]}, {"conceptId": "C95089", "definition": "This domain captures test results relative to male and female fertility.", "preferredTerm": "Fertility", "submissionValue": "Domain Abbreviation", "synonyms": ["Fertility Domain"]}, {"conceptId": "C49588", "definition": "A subject domain utilized for the submission of information encompassing and representing data, vocabulary or records related to family history. (NCI)", "preferredTerm": "Family History", "submissionValue": "Domain Abbreviation", "synonyms": ["Family History Domain"]}, {"conceptId": "C95090", "definition": "This domain captures food/water consumption of animals in the study. The data in this domain is derived data.", "preferredTerm": "Food And Water", "submissionValue": "Domain Abbreviation", "synonyms": ["Food and Water Consumption Domain"]}, {"conceptId": "C95091", "definition": "This domain captures observations for fetal and pup morphological examinations.", "preferredTerm": "Fetal and Neonatal Developmental Morphology", "submissionValue": "Domain Abbreviation", "synonyms": ["Fetal and Neonatal Developmental Morphology Domain"]}, {"conceptId": "C49589", "definition": "Healthcare resource utilization data such as subject visits to physicians, hospitalizations, and nursing home stays.", "preferredTerm": "Healthcare Resource Utilization", "submissionValue": "Domain Abbreviation", "synonyms": ["Healthcare Resource Utilization Domain"]}, {"conceptId": "C95092", "definition": "The Implantation Classification domain provides a record for each implantation identified for the scheduled cesarean section component of a study.", "preferredTerm": "Implantation Classification", "submissionValue": "Domain Abbreviation", "synonyms": ["Implantation Classification Domain"]}, {"conceptId": "C61536", "definition": "The intent of the domain model is to only collect those criteria that cause the subject to be in violation of the inclusion/exclusion criteria not a response to each criterion.", "preferredTerm": "Inclusion/Exclusion", "submissionValue": "Domain Abbreviation", "synonyms": ["Inclusion Exclusion Domain"]}, {"conceptId": "C49592", "definition": "Laboratory test findings including, but is not limited to hematology, clinical chemistry and urinalysis data. This domain does not include microbiology or pharmacokinetic data, which are stored in separate domains.", "preferredTerm": "Laboratory Data", "submissionValue": "Domain Abbreviation", "synonyms": ["Laboratory Data Domain"]}, {"conceptId": "C95093", "definition": "This domain captures litter based results in female animals for cesarean section and/or delivery components of a study, including litter survival during preweaning.", "preferredTerm": "Cesarean Section and Delivery Litter Results", "submissionValue": "Domain Abbreviation", "synonyms": ["Cesarean Section and Delivery Litter Results Domain"]}, {"conceptId": "C95094", "definition": "The gross pathology findings recorded at necropsy.", "preferredTerm": "Macroscopic Findings", "submissionValue": "Domain Abbreviation", "synonyms": ["Macroscopic Findings Domain"]}, {"conceptId": "C49602", "definition": "Microbiology specimen findings, including gram stain results, and organisms found.", "preferredTerm": "Microbiology", "submissionValue": "Domain Abbreviation", "synonyms": ["Microbiology Specimen Domain"]}, {"conceptId": "C49603", "definition": "The medical history dataset includes the subject's prior history at the start of the trial. Examples of subject medical history information could include general medical history, gynecological history, and primary diagnosis.", "preferredTerm": "Medical History", "submissionValue": "Domain Abbreviation", "synonyms": ["Medical History Domain"]}, {"conceptId": "C95095", "definition": "The histopathology findings and microscopic evaluations recorded.", "preferredTerm": "Microscopic Findings", "submissionValue": "Domain Abbreviation", "synonyms": ["Microscopic Findings Domain"]}, {"conceptId": "C49604", "definition": "Information regarding the subject's meal consumption, such as fluid intake, amounts, form (solid or liquid state), frequency, etc., typically used for pharmacokinetic analysis.", "preferredTerm": "Meal Data", "submissionValue": "Domain Abbreviation", "synonyms": ["Meal Data Domain"]}, {"conceptId": "C61531", "definition": "This includes microbiology susceptibility test results, plus results of any other organism-related tests.", "preferredTerm": "Microbiology Susceptibility", "submissionValue": "Domain Abbreviation", "synonyms": ["Microbiology Susceptibility Domain"]}, {"conceptId": "C49605", "definition": "Findings from organ measurement evaluations.", "preferredTerm": "Organ Measurements", "submissionValue": "Domain Abbreviation", "synonyms": ["Organ Measurement Domain"]}, {"conceptId": "C49606", "definition": "Concentrations of drugs/metabolites in fluids or tissues as a function of time.", "preferredTerm": "Pharmacokinetic Concentration", "submissionValue": "Domain Abbreviation", "synonyms": ["Pharmacokinetic Concentration Domain"]}, {"conceptId": "C49608", "definition": "Findings collected during a physical examination of the subject. It has findings that are discovered that are related to body systems. Does not include vital signs measurements, which are stored in the vital signs domain.", "preferredTerm": "Physical Exam", "submissionValue": "Domain Abbreviation", "synonyms": ["Physical Exam Domain"]}, {"conceptId": "C61529", "definition": "Pharmacogenomics findings that initially focus on genotype and gene expression data.", "preferredTerm": "Pharmacogenomics", "submissionValue": "Domain Abbreviation", "synonyms": ["Pharmacogenomics Domain"]}, {"conceptId": "C95097", "definition": "This domain captures information of any palpable masses examined during the experimental phase.", "preferredTerm": "Palpable Masses", "submissionValue": "Domain Abbreviation", "synonyms": ["Palpable Masses Domain"]}, {"conceptId": "C49607", "definition": "Pharmacokinetic parameters derived from pharmacokinetic concentration-time (PC) data.", "preferredTerm": "Pharmacokinetic Parameters", "submissionValue": "Domain Abbreviation", "synonyms": ["Pharmacokinetic Parameters Domain"]}, {"conceptId": "C49609", "definition": "Questionnaire data may include, but are not limited to the following: subject reported outcomes, validated or non-validated questionnaires, and validated or non-validated diaries (i.e. data with a common topicality).", "preferredTerm": "Questionnaires", "submissionValue": "Domain Abbreviation", "synonyms": ["Questionnaire Domain"]}, {"conceptId": "C49610", "definition": "The subject characteristics domain is for data not collected in other domains that is subject-related.", "preferredTerm": "Subject Characteristics", "submissionValue": "Domain Abbreviation", "synonyms": ["Subject Characteristics Domain"]}, {"conceptId": "C49616", "definition": "The subject element table describes the actual order of elements followed by the subject, together with the start date/time and end date/time for each element.", "preferredTerm": "Subject Element", "submissionValue": "Domain Abbreviation", "synonyms": ["Subject Element Domain"]}, {"conceptId": "C49611", "definition": "Surgical information.", "preferredTerm": "Surgery", "submissionValue": "Domain Abbreviation", "synonyms": ["Surgery Domain"]}, {"conceptId": "C95099", "definition": "The Subject Stages domain captures subject level non-treatment related blocks of time known as stages, such as Gestation, Lactation and Premating.", "preferredTerm": "Subject Stages", "submissionValue": "Domain Abbreviation", "synonyms": ["Subject Stages Domain"]}, {"conceptId": "C49612", "definition": "Findings from diagnostic skin tests.", "preferredTerm": "Skin Test", "submissionValue": "Domain Abbreviation", "synonyms": ["Skin Test Domain"]}, {"conceptId": "C49613", "definition": "Findings from diagnostic sleep tests (polysomnography).", "preferredTerm": "Sleep Polysomnography Data", "submissionValue": "Domain Abbreviation", "synonyms": ["Sleep Polysomnography Domain"]}, {"conceptId": "C49614", "definition": "Findings from exercise stress tests.", "preferredTerm": "Stress (Exercise) Test Data", "submissionValue": "Domain Abbreviation", "synonyms": ["Stress Exercise Test Data Domain"]}, {"conceptId": "C49615", "definition": "The intent of the domain is to capture substance use information that may be used to assess the efficacy and/or safety of therapies that look to mitigate the effects of chronic substance use.", "preferredTerm": "Substance Use", "submissionValue": "Domain Abbreviation", "synonyms": ["Substance Use Domain"]}, {"conceptId": "C49617", "definition": "The subject visits table describes the actual start and end data/time for each visit of each individual subject.", "preferredTerm": "Subject Visits", "submissionValue": "Domain Abbreviation", "synonyms": ["Subject Visits Domain"]}, {"conceptId": "C49618", "definition": "The trial arms table describes each planned arm in the trial. An arm is described as an ordered sequence of elements.", "preferredTerm": "Trial Arms", "submissionValue": "Domain Abbreviation", "synonyms": ["Trial Arms Domain"]}, {"conceptId": "C49619", "definition": "The trial elements table describes the element code that is unique for each element, the element description, and the rules for starting and ending an element.", "preferredTerm": "Trial Elements", "submissionValue": "Domain Abbreviation", "synonyms": ["Trial Elements Domain"]}, {"conceptId": "C95100", "definition": "This domain captures the tumor findings of the nonclinical subject.", "preferredTerm": "Tumor Findings", "submissionValue": "Domain Abbreviation", "synonyms": ["Tumor Findings Domain"]}, {"conceptId": "C49620", "definition": "The trial summary information domain is not subject oriented. It contains one record for each of the inclusion and exclusion criteria for the trial.", "preferredTerm": "Trial Inclusion/Exclusion Criteria", "submissionValue": "Domain Abbreviation", "synonyms": ["Trial Inclusion and Exclusion Criteria Domain"]}, {"conceptId": "C95101", "definition": "The trial paths domain is not subject oriented. This domain provides the complete planned non-treatment related sequences of stages for each path in a study.", "preferredTerm": "Trial Paths", "submissionValue": "Domain Abbreviation", "synonyms": ["Trial Paths Domain"]}, {"conceptId": "C53483", "definition": "The trial summary information domain is not subject oriented. It contains one record for each trial summary characteristic.", "preferredTerm": "Trial Summary", "submissionValue": "Domain Abbreviation", "synonyms": ["Trial Summary Domain"]}, {"conceptId": "C95102", "definition": "The trial stages domain is not subject oriented. It captures non-treatment related planned blocks of time known as stages, such as Gestation, Lactation and Premating.", "preferredTerm": "Trial Stages", "submissionValue": "Domain Abbreviation", "synonyms": ["Trial Stages Domain"]}, {"conceptId": "C49621", "definition": "The trial visits table describes the planned order and number of visits in the study within each arm.", "preferredTerm": "Trial Visits", "submissionValue": "Domain Abbreviation", "synonyms": ["Trial Visits Domain"]}, {"conceptId": "C95103", "definition": "The trial stages domain is not subject oriented. It contains one record for each trial set characteristic including experimental factors, treatment factors, inherent characteristics, or distinct sponsor designations.", "preferredTerm": "Trial Sets", "submissionValue": "Domain Abbreviation", "synonyms": ["Trial Sets Domain"]}, {"conceptId": "C49622", "definition": "Measurements including but not limited to blood pressure, temperature, respiration, body surface area, BMI, height and weight.", "preferredTerm": "Vital Signs", "submissionValue": "Domain Abbreviation", "synonyms": ["Vital Signs Domain"]}]}, {"conceptId": "", "definition": "Terminology related to electrocardiogram lead names.", "extensible": "Yes", "name": "ECG Lead", "preferredTerm": "ECG Lead", "submissionValue": "ECG Lead", "synonyms": ["CDISC SDTM Electrocardiogram Lead Terminology"], "terms": [{"conceptId": "C90403", "definition": "An augmented unipolar lead placed at the sixth intercostal space on the midaxillary line. (NCI)", "preferredTerm": "", "submissionValue": "ECG Lead", "synonyms": ["Lead Site aV6"]}, {"conceptId": "C90360", "definition": "An augmented unipolar electrocardiogram limb lead in which the positive (red) electrode is situated on the left pelvic limb and the negative electrode is a combination of the right thoracic limb (white) electrode and the left thoracic limb (black) electrode. Measures the electrical activity of the electrode on the left pelvic limb.", "preferredTerm": "", "submissionValue": "ECG Lead", "synonyms": ["Augmented Vector Foot"]}, {"conceptId": "C90361", "definition": "An augmented unipolar electrocardiogram limb lead in which the positive (black) electrode is situated on the left thoracic limb and the negative electrode is a combination of the right thoracic limb (white) electrode and the left pelvic limb (red) electrode. Measures the electrical activity of the electrode on the left thoracic limb. (NCI)", "preferredTerm": "", "submissionValue": "ECG Lead", "synonyms": ["Augmented Vector Left"]}, {"conceptId": "C90362", "definition": "An augmented unipolar electrocardiogram limb lead in which the positive (white) electrode is situated on the right thoracic limb and the negative electrode is a combination of the left thoracic limb (black) electrode and the left pelvic limb (red) electrode. Measures the electrical activity of the electrode on the right thoracic limb. (NCI)", "preferredTerm": "", "submissionValue": "ECG Lead", "synonyms": ["Augmented Vector Right"]}, {"conceptId": "C90404", "definition": "A bipolar EKG lead with the right thoracic limb electrode placed on the manubrium and left thoracic limb electrode placed at the surface marking of the V5 position (just above the 5th interspace in the anterior axillary line). The left pelvic limb lead acts as a neutral and may be placed anywhere. The C refers to 'clavicle' where it is often placed. (NCI)", "preferredTerm": "", "submissionValue": "ECG Lead", "synonyms": ["Lead Site CM5"]}, {"conceptId": "C90405", "definition": "A unipolar chest lead used mostly in large animals. Placed on the sixth ICS on the right side of the thorax along a line parallel to the level of the point of the humeralradial joint.", "preferredTerm": "", "submissionValue": "ECG Lead", "synonyms": ["Lead Site CV5RL"]}, {"conceptId": "C90406", "definition": "V1 electrode (+) placed in the 6th intercostal space on the left side of the thorax along a line parallel to the level of the point of the humeralradial joint.", "preferredTerm": "", "submissionValue": "ECG Lead", "synonyms": ["Lead Site CV6LL"]}, {"conceptId": "C90407", "definition": "V2 electrode (+) placed in the 6th intercostal space on the left side of the thorax along a line parallel to the level of the point of the shoulder. (NCI)", "preferredTerm": "", "submissionValue": "ECG Lead", "synonyms": ["Lead Site CV6LU"]}, {"conceptId": "C90408", "definition": "A bipolar electrocardiogram limb lead which records the voltage between the negative electrode on the right thoracic limb and the positive electrode on the left thoracic limb. (NCI)", "preferredTerm": "", "submissionValue": "ECG Lead", "synonyms": ["Lead Site I"]}, {"conceptId": "C90409", "definition": "A bipolar electrocardiogram limb lead which records the voltage between the negative electrode on the right thoracic limb and the positive electrode on the left pelvic limb. (NCI)", "preferredTerm": "", "submissionValue": "ECG Lead", "synonyms": ["Lead Site II"]}, {"conceptId": "C90410", "definition": "A bipolar electrocardiogram limb lead which records the voltage between the negative electrode on the left thoracic limb and the positive electrode on the left pelvic limb. (NCI)", "preferredTerm": "", "submissionValue": "ECG Lead", "synonyms": ["Lead Site III"]}, {"conceptId": "C90411", "definition": "A unipolar precordial lead placed at the second intercostal space to the left of the sternum. (NCI)", "preferredTerm": "", "submissionValue": "ECG Lead", "synonyms": ["Lead Site rV2"]}, {"conceptId": "C90412", "definition": "A unipolar electrocardiogram lead site; the electrode is placed at the fourth intercostal space on the anterior chest wall (between ribs 4 and 5) to the right of the sternal border. In small animals, it is placed at the right fifth intercostal space near the sternum. (NCI)", "preferredTerm": "", "submissionValue": "ECG Lead", "synonyms": ["Lead Site V1"]}, {"conceptId": "C90413", "definition": "A unipolar chest lead at which the electrode is placed over the dorsal spinous process of 7th thoracic vertebra. (NCI)", "preferredTerm": "", "submissionValue": "ECG Lead", "synonyms": ["Lead Site V10"]}, {"conceptId": "C90414", "definition": "A unipolar electrocardiogram lead site; the electrode is placed on the anterior chest wall at the fourth intercostal space (between ribs 4 and 5) to the left of the sternal border. In small animals it corresponds to V2-V3 where it is placed at the 6th left intercostal space near the sternum. In large animals it is placed over the 6th rib at the level of the costochondral junction on the left side of the thorax.", "preferredTerm": "", "submissionValue": "ECG Lead", "synonyms": ["Lead Site V2"]}, {"conceptId": "C90415", "definition": "A unipolar electrocardiogram lead site; the electrode is placed on the anterior chest wall midway between leads V2 and V4. In large and small animals, it is placed over the dorsal spinous process of the 7th thoracic vertebra. (NCI)", "preferredTerm": "", "submissionValue": "ECG Lead", "synonyms": ["Lead Site V3"]}, {"conceptId": "C90416", "definition": "A unipolar electrocardiogram lead site; the electrode is placed at the fifth intercostal space on the anterior chest wall (between ribs 5 and 6) at the left midclavicular line. In small animals it corresponds to V4-V6 where it is placed at the 6th left intercostal space near the costochondral junction. In large animals it is placed over the 6th rib at the level of a horizontal line drawn through the scapulohumeral articulation on the left side of the thorax. (NCI)", "preferredTerm": "", "submissionValue": "ECG Lead", "synonyms": ["Lead Site V4"]}, {"conceptId": "C90417", "definition": "A unipolar electrocardiogram lead site; the electrode is placed on the anterior chest wall level with lead V4 at the left anterior axillary line. In large animals it is placed on the sixth ICS on the right side of the thorax along a line parallel to the level of the point of the shoulder corresponding to the electrical center of the heart (central terminal). (NCI)", "preferredTerm": "", "submissionValue": "ECG Lead", "synonyms": ["Lead Site V5"]}, {"conceptId": "C90418", "definition": "A unipolar electrocardiogram lead site at which the electrode is placed on the anterior chest wall level with lead V5 at the left midaxillary line .", "preferredTerm": "", "submissionValue": "ECG Lead", "synonyms": ["Lead Site V6"]}]}, {"conceptId": "", "definition": "Terminology codelist used with ECG Findings and Abnormalities within CDISC.", "extensible": "Yes", "name": "ECG Result", "preferredTerm": "ECG Result", "submissionValue": "ECG Result", "synonyms": ["CDISC SDTM ECG Finding Terminology"], "terms": [{"conceptId": "C62015", "definition": "A delay in the time required for the conduction of an electrical impulse through the atrioventricular (AV) node beyond 0.2 seconds; prolongation of the PR interval beyond 200 milliseconds. (NCI)", "preferredTerm": "1st degree AV block", "submissionValue": "ECG Result", "synonyms": ["AV Block First Degree"]}, {"conceptId": "C71044", "definition": "A electrocardiographic finding of an electrical phenomenon in which the ratio of electrical impulse generated above the atrioventricular node to the number of impulses conducted through to the ventricles is 2:1. (NCI)", "preferredTerm": "2:1 AV block", "submissionValue": "ECG Result", "synonyms": ["2:1 Atrioventricular Block"]}, {"conceptId": "C62016", "definition": "Intermittent failure of atrial electrical impulse conduction through the atrioventricular (AV) node to the ventricles. (NCI)", "preferredTerm": "2nd degree AV block", "submissionValue": "ECG Result", "synonyms": ["AV Block Second Degree"]}, {"conceptId": "C50501", "definition": "Complete failure of atrial electrical impulse conduction through the AV node to the ventricles. (NCI)", "preferredTerm": "3rd degree AV block", "submissionValue": "ECG Result", "synonyms": ["AV Block Third Degree"]}, {"conceptId": "C62266", "definition": "The term accelerated idioventricular rhythm describes an ectopic ventricular rhythm with 3 or more consecutive ventricular premature beats with a rate faster than the normal ventricular intrinsic escape rate of 30 to 40 beats per minute, but slower than ventricular tachycardia. Accelerated idioventricular rhythm differs from ventricular tachycardia by additional features such as the onset with a long coupling interval and the end by a gradual decrease of the ventricular rate or increase of the sinus rate. (NCI)", "preferredTerm": "Accelerated idioventricular rhythm", "submissionValue": "ECG Result", "synonyms": ["Accelerated Idioventricular Rhythm"]}, {"conceptId": "C71065", "definition": "Electrocardiographic finding showing a current of injury in leads corresponding to the anatomic region of the anterior wall of the heart. (NCI)", "preferredTerm": "Acute Anterior Wall Myocardial Infarction", "submissionValue": "ECG Result", "synonyms": ["Acute Anterior Wall Myocardial Infarction"]}, {"conceptId": "C71066", "definition": "Electrocardiographic finding showing a current of injury in leads corresponding to the anatomic region of the inferior wall of the heart. (NCI)", "preferredTerm": "Acute Inferior Wall Myocardial Infarction", "submissionValue": "ECG Result", "synonyms": ["Acute Inferior Wall Myocardial Infarction"]}, {"conceptId": "C71067", "definition": "Electrocardiographic finding showing a current of injury in leads corresponding to the anatomic region of the lateral wall of the heart. (NCI)", "preferredTerm": "Acute Lateral Wall Myocardial Infarction", "submissionValue": "ECG Result", "synonyms": ["Acute Lateral Wall Myocardial Infarction"]}, {"conceptId": "C71068", "definition": "Electrocardiographic finding showing a current of injury in leads corresponding to the anatomic region of the posterior wall of the heart. (NCI)", "preferredTerm": "Acute Posterior Wall Myocardial Infarction", "submissionValue": "ECG Result", "synonyms": ["Acute Posterior Wall Myocardial Infarction"]}, {"conceptId": "C71057", "definition": "A condition that occurs as a result of cAMP-mediated triggered activity and typically originates from the right ventricular outflow tract (RVOT). This type of tachycardia occurs in patients with apparently normal hearts. (NCI)", "preferredTerm": "Adenosine-sensitive ventricular tachycardia", "submissionValue": "ECG Result", "synonyms": ["Adenosine-Sensitive Ventricular Tachycardia"]}, {"conceptId": "C71069", "definition": "Electrocardiographic finding showing an injury in leads corresponding to the anatomic region of the anterior wall of the heart. (NCI)", "preferredTerm": "Anterior Wall Myocardial Infarction", "submissionValue": "ECG Result", "synonyms": ["Anterior Wall Myocardial Infarction"]}, {"conceptId": "C71039", "definition": "An electrocardiographic finding which comprises left, right or bilateral atrial enlargement. (NCI)", "preferredTerm": "Atrial Enlargement", "submissionValue": "ECG Result", "synonyms": ["EKG Finding Atrial Enlargement"]}, {"conceptId": "C50466", "definition": "A supraventricular arrhythmia characterized by uncoordinated atrial myocardium activation due to multiple reentry circuits with consequent deterioration of atrial mechanical function. Instead of intermittently contracting, the atria quiver continuously in a chaotic pattern, causing a totally irregular, often tachycardia ventricular rate. On the ECG it is described by the replacement of consistent P waves by rapid oscillations or fibrillatory waves that vary in size, shape, and timing, associated with an irregular, frequently rapid ventricular response when atrioventricular conduction is intact. (NCI)", "preferredTerm": "Atrial fibrillation", "submissionValue": "ECG Result", "synonyms": ["Atrial Fibrillation"]}, {"conceptId": "C51224", "definition": "An electrocardiographic finding of an organized rhythmic contraction of the atria which is generally at a rate of 200-300 beats per minute. (NCI)", "preferredTerm": "Atrial flutter", "submissionValue": "ECG Result", "synonyms": ["Atrial Flutter"]}, {"conceptId": "C35481", "definition": "Any rapid heart rhythm originating in the atria. Atrial fibrillation and atrial flutter are varieties of atrial tachycardia. Atrial tachycardia is an electrical circuit originating in the upper or atrial chambers. This electrical circuit or focus takes over and generates rapid impulses across the atrial chambers. These impulses are transmitted to the ventricular chambers resulting in a rapid rate. These arrhythmias may originate from a variety of places across the atria. They may exist as an isolated problem or be related to an ongoing structural problem within the heart. (NCI)", "preferredTerm": "Atrial tachycardia", "submissionValue": "ECG Result", "synonyms": ["Atrial Tachycardia"]}, {"conceptId": "C71045", "definition": "An electrocardiographic finding in which the electrical activity of the atria and ventricles are causally independent of one another. (NCI)", "preferredTerm": "Atrioventricular dissociation", "submissionValue": "ECG Result", "synonyms": ["Atrioventricular Dissociation"]}, {"conceptId": "C83811", "definition": "Intermittent failure of atrial electrical impulse conduction through the atrioventricular (AV) node to the ventricles, characterized by a progressively lengthening PR interval prior to the block of an atrial impulse.", "preferredTerm": "AV Mobitz I", "submissionValue": "ECG Result", "synonyms": ["AV Mobitz I"]}, {"conceptId": "C83812", "definition": "Intermittent failure of atrial electrical impulse conduction through the atrioventricular (AV) node to the ventricles, characterized by a relatively constant PR interval prior to the block of an atrial impulse.", "preferredTerm": "AV Mobitz II", "submissionValue": "ECG Result", "synonyms": ["AV Mobitz II"]}, {"conceptId": "C35058", "definition": "A supraventricular tachycardia due to reentry along a circuit contained within the AV node. AVNRT is the most common form of supraventricular tachycardia and usually presents as a narrow QRS complex tachycardia at a rate between 150 and 250 beats per minute. (NCI)", "preferredTerm": "AV node re-entry", "submissionValue": "ECG Result", "synonyms": ["Atrioventricular Nodal Reentry Tachycardia"]}, {"conceptId": "C62261", "definition": "A supraventricular tachycardia due to reentry along a circuit including a concealed AV nodal bypass tract. This tachycardia circuit proceeds in an antegrade fashion through the AV node and then is conducted retrograde through the bypass tract into the atria. (NCI)", "preferredTerm": "AV re-entrant tachycardia", "submissionValue": "ECG Result", "synonyms": ["Atrioventricular Reentrant Tachycardia"]}, {"conceptId": "C71046", "definition": "An electrocardiographic finding comprising right bundle branch block and left anterior fascicular block, or right bundle branch block and left posterior fascicular block. Defects occurring in two of the three divisions of the conduction system of the heart are considered bifascicular blocks. Technically left bundle branch block may be considered a bifascicular block. (NCI)", "preferredTerm": "Bifascicular block", "submissionValue": "ECG Result", "synonyms": ["Bifascicular Block"]}, {"conceptId": "C71054", "definition": "An electrocardiographic finding of a normal QRS followed by a premature ventricular contraction; a rhythmic pairing of normal and abnormal beats originating in the ventricles in a 1-1 ratio. (NCI)", "preferredTerm": "Bigeminy", "submissionValue": "ECG Result", "synonyms": ["Bigeminy"]}, {"conceptId": "C92228", "definition": "An electrocardiographic finding in which the QTcB is approximately 430-470 msec. There is variation among subpopulations.", "preferredTerm": "Borderline QTcB", "submissionValue": "ECG Result", "synonyms": ["Borderline QTcB"]}, {"conceptId": "C92229", "definition": "An electrocardiographic finding in which the QTcF is approximately 430-470 msec. There is variation among subpopulations.", "preferredTerm": "Borderline QTcF", "submissionValue": "ECG Result", "synonyms": ["Borderline QTcF"]}, {"conceptId": "C37920", "definition": "Non-sinus origin slow heart rate.", "preferredTerm": "Bradycardia", "submissionValue": "ECG Result", "synonyms": ["Bradycardia"]}, {"conceptId": "C71062", "definition": "An uncommon form of ventricular tachycardia (VT) incorporating both bundle branches into the reentry circuit. Surface electrocardiogram (ECG) of sinus rhythm (SR) characteristically shows intraventricular conduction defects. Patients typically present with presyncope, syncope or sudden death because of VT with fast rates frequently above 200 beats per minute. The QRS morphology during VT is a typical bundle branch block pattern, usually left bundle branch block, and may be identical to that in SR. (NCI)", "preferredTerm": "Bundle branch reentrant tachycardia", "submissionValue": "ECG Result", "synonyms": ["Bundle Branch Re-Entrant Ventricular Tachycardia"]}, {"conceptId": "C62258", "definition": "An initial slurring (delta wave) of the QRS complex due to the presence of an accessory pathway. This characteristic EKG pattern is typically seen in Wolff-Parkinson-White syndrome. (NCI)", "preferredTerm": "Delta wave", "submissionValue": "ECG Result", "synonyms": ["EKG Delta Wave"]}, {"conceptId": "C92230", "definition": "An electrocardiographic finding in which the amplitude of the R wave is abnormally increased in the anterior precordial leads.", "preferredTerm": "Early R Wave Progression", "submissionValue": "ECG Result", "synonyms": ["Early R Wave Progression"]}, {"conceptId": "C62245", "definition": "A cardiac rhythm resulting from either an abnormal electrical focus in the atria or intra-atrial reentry. Atrial ectopic beats (AEB) refer to a contraction of the upper heart chamber which occurs before it would be expected. Atrial ectopic beats are also known as premature atrial beats, premature atrial complex (PAC), or atrial extrasystole. (NCI)", "preferredTerm": "Ectopic atrial rhythm", "submissionValue": "ECG Result", "synonyms": ["Ectopic Atrial Rhythm"]}, {"conceptId": "C71043", "definition": "An electrocardiographic finding of a rhythm originating at a site other than the sinoatrial node, which is also above the atrioventricular node. (NCI)", "preferredTerm": "Ectopic supraventricular rhythm", "submissionValue": "ECG Result", "synonyms": ["Ectopic Supraventricular Rhythm"]}, {"conceptId": "C71042", "definition": "A cardiac rhythm resulting from either an abnormal electrical focus in the ventricle. Ventricular ectopic beats (VEB) refer to a contraction of the lower heart chamber which occurs before it would be expected. Ventricular ectopic beats are also known as premature ventricular beats, premature ventricular complex (PVC), or ventricular extrasystole. (NCI)", "preferredTerm": "Ectopic ventricular rhythm", "submissionValue": "ECG Result", "synonyms": ["Ectopic Ventricular Rhythm"]}, {"conceptId": "C71035", "definition": "An electrocardiographic finding in which there is an alternating pattern of any of the waveform components. (NCI)", "preferredTerm": "Electrical alternans", "submissionValue": "ECG Result", "synonyms": ["Electrical Alternans"]}, {"conceptId": "C71061", "definition": "A distinct subgroup of idiopathic ventricular tachycardia (VT) that may be confused with either typical VT or supraventricular tachycardia (SVT). It is characterized by the absence of structural heart disease and classic electrocardiographic and electrophysiological features. It originates from the region of the posterior fascicle (or occasionally the anterior fascicle) of the left bundle branch and is partly propagated by the His-Purkinje network. It therefore produces QRS complexes of relatively short duration (0.11-0.14)s. (NCI)", "preferredTerm": "Fascicular tachycardia", "submissionValue": "ECG Result", "synonyms": ["Fascicular Tachycardia"]}, {"conceptId": "C71063", "definition": "Idiopathic ventricular tachycardia (VT) is a type of ventricular tachycardia occurring unrelated to any organic cardiac disease. The abnormality is probably congenital, be it a focus of abnormal automaticity or myocardial tissue that can sustain re-entry. The clinical presentation for idiopathic VT can be very much like a paroxysmal supraventricular tachycardia. That is, most patients are generally younger without overt cardiac disease and present with paroxysmal palpitations. Idiopathic ventricular tachycardia is not generally life-threatening. (NCI)", "preferredTerm": "Idiopathic right bundle branch block ventricular tachycardia", "submissionValue": "ECG Result", "synonyms": ["Idiopathic Right Bundle Branch Block"]}, {"conceptId": "C62253", "definition": "Inappropriate sinus tachycardia (IST) is a rare form of supraventricular tachycardia involving the sinus node, in which a patient has an abnormally high heart rate, occurring both at rest and in response to stressors (such as physical activity). (NCI)", "preferredTerm": "Inappropriate sinus tachycardia", "submissionValue": "ECG Result", "synonyms": ["Inappropriate Sinus Tachycardia"]}, {"conceptId": "C71049", "definition": "An electrocardiographic finding of bundle branch block which does not meet the criteria for a more specific bundle branch block. (NCI)", "preferredTerm": "Incomplete bundle branch block", "submissionValue": "ECG Result", "synonyms": ["Incomplete Bundle Branch Block"]}, {"conceptId": "C71047", "definition": "An partial impairment of transmission of the cardiac electrical impulse along the fibers of the left bundle branch. (NCI)", "preferredTerm": "Incomplete left bundle branch block", "submissionValue": "ECG Result", "synonyms": ["Incomplete Left Bundle Branch Block"]}, {"conceptId": "C71048", "definition": "Various mechanisms may result in a pattern showing an incomplete right bundle branch block (RBBB). These include different degrees of conduction delay through the main trunk of the right bundle branch; increased conduction time through an elongated right bundle branch; diffuse Purkinje-myocardial delay due to right ventricular stretch or dilatation; surgical trauma or disease-related interruption of the major ramifications of the right branch (distal RBBB or right fascicular blocks); congenital variations of the distribution of the major ramifications resulting in a slight delay in the activation of the crista supraventricularis. (NCI)", "preferredTerm": "Incomplete right bundle branch block", "submissionValue": "ECG Result", "synonyms": ["Incomplete Right Bundle Branch Block"]}, {"conceptId": "C71070", "definition": "Electrocardiographic finding showing an injury in leads corresponding to the anatomic region of the inferior wall of the heart. (NCI)", "preferredTerm": "Inferior Wall Myocardial Infarction", "submissionValue": "ECG Result", "synonyms": ["Inferior Wall Myocardial Infarction"]}, {"conceptId": "C71073", "definition": "A delay in impulse propagation through the atria. (NCI)", "preferredTerm": "Intraatrial Conduction Delay", "submissionValue": "ECG Result", "synonyms": ["Intra-Atrial Conduction Delay"]}, {"conceptId": "C62271", "definition": "A delay in transmission of cardiac electrical impulses in the His-Purkinje system, diagnosed when the QRS is modestly prolonged (< 120 msec) and the QRS pattern and axis are not typical of a hemiblock. The conduction delay is considered to occur beyond the Purkinje's myocardial gates and arises from slow cell-to-cell conduction. The phenomenon is common in patients with acute MI. (NCI)", "preferredTerm": "Intraventricular conduction delay, nonspecific", "submissionValue": "ECG Result", "synonyms": ["Nonspecific Intraventricular Conduction Delay"]}, {"conceptId": "C62248", "definition": "A type of atrioventricular dissociation characterized by atria and ventricles beating at similar rates, although independently. (NCI)", "preferredTerm": "Isorhythmic dissociation", "submissionValue": "ECG Result", "synonyms": ["Isorhythmic Atrioventricular Dissociation"]}, {"conceptId": "C71030", "definition": "Elevation of the J point above the baseline; the J point represents the end of ventricular depolarization and located at the terminus of the QRS complex. (NCI)", "preferredTerm": "J point elevation", "submissionValue": "ECG Result", "synonyms": ["J Point Elevation"]}, {"conceptId": "C71074", "definition": "An electrocardiographic finding in which the pacer of the heart is located in the AV junction, normally presenting with a narrow QRS complex at a rate less than 60 beats per minute. (NCI)", "preferredTerm": "Junctional bradycardia", "submissionValue": "ECG Result", "synonyms": ["Junctional Bradycardia"]}, {"conceptId": "C71051", "definition": "An electrocardiographic finding in which the pacer of the heart is located in the AV junction, normally presenting with a narrow QRS complex and a rate of 60-100 beats per minute. (NCI)", "preferredTerm": "Junctional rhythm", "submissionValue": "ECG Result", "synonyms": ["Junctional Rhythm"]}, {"conceptId": "C35059", "definition": "An automatic tachycardia originating in the atrioventricular junction, typically arising in the conduction tissues surrounding the atrioventricular node. A junctional tachycardia tends to be a regular, narrow complex tachycardia and usually occurs during myocardial infarction, after heart surgery, or in digitalis intoxication. The rate may range from 140 to 250 beats per minute. (NCI)", "preferredTerm": "Junctional tachycardia", "submissionValue": "ECG Result", "synonyms": ["Junctional Tachycardia"]}, {"conceptId": "C71075", "definition": "Electrocardiographic finding showing an injury in leads corresponding to the anatomic region of the lateral wall of the heart. (NCI)", "preferredTerm": "Lateral Wall Myocardial Infarction", "submissionValue": "ECG Result", "synonyms": ["Lateral Wall Myocardial Infarction"]}, {"conceptId": "C62267", "definition": "An impairment of transmission of the cardiac electrical impulse along the fibers of the left anterior fascicle. In left anterior fascicular block (LAFB) the posteroinferior regions of the left ventricular endocardium are activated abnormally before the anterosuperior left ventricular area. After emerging from the posteroinferior division of the left bundle branch, the impulse first propagates in an inferior, rightward, and usually anterior direction for a short period of time. This orientation is responsible for the small Q waves in leads 1 and aVL and for the R waves in leads II, III, and aVF. (NCI)", "preferredTerm": "Left anterior fascicular block", "submissionValue": "ECG Result", "synonyms": ["Left Anterior Fascicular Block"]}, {"conceptId": "C71040", "definition": "An electrocardiographic finding suggesting underlying hypertrophy or dilatation of the left atrium. Electrocardiographic criteria used for the diagnosis of left atrial abnormality may include a bifid p wave, a biphasic p wave and/or a p wave duration of greater than 0.12 seconds. (NCI)", "preferredTerm": "P-mitrale", "submissionValue": "ECG Result", "synonyms": ["P-mitrale"]}, {"conceptId": "C62269", "definition": "An impairment of transmission of the cardiac electrical impulse along the fibers of the left main bundle branch, or both the left anterior fascicle and left posterior fascicle. This conduction disturbance is characterized by wide (greater than 0.11s) QRS complexes. The diagnostic criteria consist of prolongation of the QRS complexes (over 0.11s) with neither a Q wave nor an S wave in lead V1 and in the properly placed V6. A wide R wave with a notch on its top (plateau) is seen in these leads. In hearts with an electrical (and anatomic) vertical position a small Q wave may be seen in AVL in the absence of MI. Right chest lead V1 may or may not show an initial R wave, but the latter should be present in lead V2. (NCI)", "preferredTerm": "Left bundle branch block", "submissionValue": "ECG Result", "synonyms": ["Left Bundle Branch Block"]}, {"conceptId": "C62268", "definition": "An impairment of transmission of the cardiac electrical impulse along the fibers of the left posterior fascicle. In pure left posterior fascicular block (LPFB), the impulse emerges from the unblocked anterosuperior division, thus producing small q waves in leads II, III, and aVF. Thereafter, the impulse moves through the electrically predominant left ventricle in an inferior and rightward direction, thus explaining the S waves in leads I and aVL as well as the R waves in leads II, III, and aVF. (NCI)", "preferredTerm": "Left posterior fascicular block", "submissionValue": "ECG Result", "synonyms": ["Left Posterior Fascicular Block"]}, {"conceptId": "C92231", "definition": "An electrocardiographic finding in which there is evidence that electrical transmission through the left ventricle is impaired.", "preferredTerm": "Left Ventricular Conduction Delay", "submissionValue": "ECG Result", "synonyms": ["Left Ventricular Conduction Delay"]}, {"conceptId": "C71076", "definition": "Electrocardiographic findings suggestive of a hypertrophic left ventricle. (NCI)", "preferredTerm": "Left Ventricular Hypertrophy", "submissionValue": "ECG Result", "synonyms": ["EKG Finding Left Ventricular Hypertrophy"]}, {"conceptId": "C71078", "definition": "An electrocardiographic finding of a QRS amplitude less than or equal to 5mm in the limb leads or QRS amplitude less than or equal to 10mm in the precordial leads. (NCI)", "preferredTerm": "Low QRS voltage", "submissionValue": "ECG Result", "synonyms": ["Low QRS Voltage"]}, {"conceptId": "C71050", "definition": "An electrocardiographic finding in which the electrical axis of the p wave is variable and the rate is greater than 100 beats per minute. To meet criteria for multifocal atrial tachycardia, the p wave must exhibit three distinct morphologies on the rhythm strip. (NCI)", "preferredTerm": "Multifocal atrial tachycardia", "submissionValue": "ECG Result", "synonyms": ["Multifocal Atrial Tachycardia"]}, {"conceptId": "C71080", "definition": "A myocardial infarction in the absence of observable Q wave abnormalities in the ECG. (NCI)", "preferredTerm": "Non Q Wave Myocardial Infarction", "submissionValue": "ECG Result", "synonyms": ["Non Q Wave Myocardial Infarction"]}, {"conceptId": "C71031", "definition": "An electrocardiographic finding of changes in the ST segment and T wave that do not meet criteria for ischemia or infarction. (NCI)", "preferredTerm": "Non-specific ST-T changes", "submissionValue": "ECG Result", "synonyms": ["Non-Specific ST-T Changes"]}, {"conceptId": "C71053", "definition": "An electrocardiographic finding of ventricular tachycardia less than 30 seconds in duration. (NCI)", "preferredTerm": "Non-sustained ventricular tachycardia", "submissionValue": "ECG Result", "synonyms": ["Non-Sustained Ventricular Tachycardia"]}, {"conceptId": "C71032", "definition": "Any depression occurring in a positive t wave. (NCI)", "preferredTerm": "Notched T-waves", "submissionValue": "ECG Result", "synonyms": ["Notched T-Waves"]}, {"conceptId": "C71064", "definition": "Right ventricular outflow tract tachycardia (RVOT) is the most common with a female predominance. It is often exercise induced or enhanced. The site of origin is the right ventricular outflow tract and hence the electrocardiographic appearance is that of left bundle branch block and inferior axis. The mechanism is thought to be abnormal automaticity that is sensitive to adenosine. (NCI)", "preferredTerm": "Outflow tract ventricular tachycardia", "submissionValue": "ECG Result", "synonyms": ["Right Ventricular Outflow Tract Tachycardia"]}, {"conceptId": "C90430", "definition": "An electrocardiographic finding for the P wave that is atypical either for the shape, duration, amplitude, axis or polarity. Abnormality of the P wave signifies aberrant propagation of the electrical impulse through the atria. (NCI)", "preferredTerm": "P Wave Abnormality", "submissionValue": "ECG Result", "synonyms": ["P Wave Abnormality"]}, {"conceptId": "C90431", "definition": "P waves with two peaks longer in duration than normal and amplitude greater than normal. (NCI)", "preferredTerm": "P Wave Notched", "submissionValue": "ECG Result", "synonyms": ["P Wave Notched"]}, {"conceptId": "C92232", "definition": "An electrocardiographic finding in which both the atrial and ventricular rhythm is controlled by an electrical impulse from a mechanical cardiac pacemaker.", "preferredTerm": "Paced Atrial And Ventricular Rhythm", "submissionValue": "ECG Result", "synonyms": ["Paced Atrial And Ventricular Rhythm"]}, {"conceptId": "C92233", "definition": "An electrocardiographic finding in which the atrial rhythm is controlled by an electrical impulse from a mechanical cardiac pacemaker.", "preferredTerm": "Paced Atrial Rhythm", "submissionValue": "ECG Result", "synonyms": ["Paced Atrial Rhythm"]}, {"conceptId": "C88140", "definition": "An electrocardiographic finding in which the cardiac rhythm is controlled by an electrical impulse from a mechanical cardiac pacemaker.", "preferredTerm": "Paced Rhythm; Atrial and/or Ventricular Paced Rhythm", "submissionValue": "ECG Result", "synonyms": ["Paced Rhythm"]}, {"conceptId": "C92234", "definition": "An electrocardiographic finding in which the ventricular rhythm is controlled by an electrical impulse from a mechanical cardiac pacemaker.", "preferredTerm": "Paced Ventricular Rhythm", "submissionValue": "ECG Result", "synonyms": ["Paced Ventricular Rhythm"]}, {"conceptId": "C62250", "definition": "Sudden onset AV block, often associated with preexisting conduction disorders. (NCI)", "preferredTerm": "Paroxysmal AV block", "submissionValue": "ECG Result", "synonyms": ["Paroxysmal Atrioventricular Block"]}, {"conceptId": "C34902", "definition": "An episodic form of ventricular tachycardia, with abrupt onset and termination. (NCI)", "preferredTerm": "Paroxysmal Ventricular Tachycardia", "submissionValue": "ECG Result", "synonyms": ["Paroxysmal Ventricular Tachycardia"]}, {"conceptId": "C71033", "definition": "Lack of progression of R wave height across precordial leads. (NCI)", "preferredTerm": "Poor R Wave Progression", "submissionValue": "ECG Result", "synonyms": ["Poor R Wave Progression"]}, {"conceptId": "C71081", "definition": "Electrocardiographic finding showing an injury in leads corresponding to the anatomic region of the posterior wall of the heart. (NCI)", "preferredTerm": "Posterior Wall Myocardial Infarction", "submissionValue": "ECG Result", "synonyms": ["Posterior Wall Myocardial Infarction"]}, {"conceptId": "C62247", "definition": "A PR interval of more than 0.20 seconds in adults. (NCI)", "preferredTerm": "PR prolongation", "submissionValue": "ECG Result", "synonyms": ["Prolonged PR Interval"]}, {"conceptId": "C34940", "definition": "A condition characterized by the activation of the whole or some part of the ventricle by the transmission of an atrial impulse along an accessory pathway rather than by way of the normal specific conduction system which includes a delay at the atrioventricular node. (NCI)", "preferredTerm": "Pre-excitation", "submissionValue": "ECG Result", "synonyms": ["Pre-Excitation Syndrome"]}, {"conceptId": "C62257", "definition": "Ectopic impulses originating in the atria. (NCI)", "preferredTerm": "Premature atrial complexes", "submissionValue": "ECG Result", "synonyms": ["Atrial Premature Complex"]}, {"conceptId": "C62256", "definition": "Ectopic impulses originating in the ventricles. (NCI)", "preferredTerm": "PVC", "submissionValue": "ECG Result", "synonyms": ["Ventricular Premature Complex"]}, {"conceptId": "C71034", "definition": "A QT interval that is prolonged. The length of the QT interval varies with the heart rate. (NCI)", "preferredTerm": "Prolonged QT", "submissionValue": "ECG Result", "synonyms": ["Prolonged QT Interval"]}, {"conceptId": "C71094", "definition": "Q axis from -30 to -90 degrees. (NCI)", "preferredTerm": "Q Axis, Left axis deviation", "submissionValue": "ECG Result", "synonyms": ["Q Axis Left Axis Deviation"]}, {"conceptId": "C71095", "definition": "Q axis from +90 to +180 degrees. (NCI)", "preferredTerm": "Q Axis, Right axis deviation", "submissionValue": "ECG Result", "synonyms": ["Q Axis Right Axis Deviation"]}, {"conceptId": "C90440", "definition": "An electrocardiographic finding for the QRS complex that is atypical either for the shape, duration, amplitude, axis or polarity. (NCI)", "preferredTerm": "QRS Complex Abnormality", "submissionValue": "ECG Result", "synonyms": ["QRS Complex Abnormality"]}, {"conceptId": "C90441", "definition": "A disturbance in the depolarization of the ventricular myocardium which leads to an absence of the QRS complex in the electrocardiogram tracing. (NCI)", "preferredTerm": "QRS Complex Absent", "submissionValue": "ECG Result", "synonyms": ["QRS Complex Absent"]}, {"conceptId": "C71096", "definition": "Corrected QT interval longer than 500 msec, in accordance with Bazett's correction formula. (NCI)", "preferredTerm": "QTcB prolongation >500 msec", "submissionValue": "ECG Result", "synonyms": ["QTcB Prolongation Greater Than 500 msec"]}, {"conceptId": "C71097", "definition": "Corrected QT interval greater than 500 msec, in accordance with Fridericia's correction formula. (NCI)", "preferredTerm": "QTcF prolongation >500 msec", "submissionValue": "ECG Result", "synonyms": ["QTcF Prolongation Greater Than 500 msec"]}, {"conceptId": "C61395", "definition": "An electrocardiographic finding phenomena in which the R wave occurs on top of the T wave; this can trigger ventricular fibrillation or ventricular tachycardia. (NCI)", "preferredTerm": "R on T phenomenon", "submissionValue": "ECG Result", "synonyms": ["R On T Phenomenon"]}, {"conceptId": "C90443", "definition": "An abnormal R wave that is part of the QRS complex in an electrocardiographic recording, which occurs due to a disturbance in the depolarization mechanism of the ventricular myocardium. (NCI)", "preferredTerm": "R Wave Abnormality", "submissionValue": "ECG Result", "synonyms": ["R Wave Abnormality"]}, {"conceptId": "C90444", "definition": "An R wave variant in which there is a small deflection of the R wave, with changing polarity, within the QRS complex. (NCI)", "preferredTerm": "R Wave Notched", "submissionValue": "ECG Result", "synonyms": ["R Wave Notched"]}, {"conceptId": "C90450", "definition": "The inherent change of a subject's heart rate associated with each excursion of breath, which can be traced in an electrocardiographic recording. (NCI)", "preferredTerm": "Respiratory Sinus Arrhythmia", "submissionValue": "ECG Result", "synonyms": ["Respiratory Sinus Arrhythmia"]}, {"conceptId": "C71041", "definition": "An electrocardiographic finding suggesting underlying hypertrophy or dilatation of the right atrium. Electrocardiographic criteria used for the diagnosis of right atrial abnormality may include a peaked p wave greater than 2.5 millimeters in amplitude in the inferior leads. (NCI)", "preferredTerm": "P-pulmonale", "submissionValue": "ECG Result", "synonyms": ["P-pulmonale"]}, {"conceptId": "C62270", "definition": "An impairment of transmission of the cardiac electrical impulse along the fibers of the right bundle branch. A \"complete RBBB pattern\" (with QRS duration > 0.11s) does not necessarily reflect the existence of a total conduction block in the right branch. This pattern only indicates that the entire or major parts of both ventricles are activated by the impulse emerging from the left branch. Thus, a significant degree of conduction delay (\"high-grade\" or \"incomplete RBBB\") can produce a similar pattern. (NCI)", "preferredTerm": "Right Bundle Branch Block", "submissionValue": "ECG Result", "synonyms": ["Right Bundle Branch Block"]}, {"conceptId": "C92235", "definition": "An electrocardiographic finding in which there is evidence that electrical transmission through the right ventricle is impaired.", "preferredTerm": "Right Ventricular Conduction Delay; Right Ventricular Delay", "submissionValue": "ECG Result", "synonyms": ["Right Ventricular Conduction Delay"]}, {"conceptId": "C71077", "definition": "Electrocardiographic findings suggestive of an enlarged right ventricle. (NCI)", "preferredTerm": "Right ventricular Hypertrophy", "submissionValue": "ECG Result", "synonyms": ["EKG Finding Right Ventricular Hypertrophy"]}, {"conceptId": "C92227", "definition": "An electrocardiographic finding in which there are two R waves, which are two deflections above the baseline resulting from a single ventricular depolarization. The first upward deflection in the complex is the R wave. The S is the first downward deflection. A second upward deflection is called the R-prime wave.", "preferredTerm": "RSR'", "submissionValue": "ECG Result", "synonyms": ["RSR'"]}, {"conceptId": "C90451", "definition": "An abnormal S wave that is part of the QRS complex in an electrocardiographic recording, which occurs due to a disturbance in the depolarization of the ventricular myocardium. (NCI)", "preferredTerm": "S Wave Abnormality", "submissionValue": "ECG Result", "synonyms": ["S Wave Abnormality"]}, {"conceptId": "C71082", "definition": "Electrocardiographic findings suggesting an infarction in the anatomic location of the cardiac septum. (NCI)", "preferredTerm": "Septal myocardial infarction", "submissionValue": "ECG Result", "synonyms": ["Septal Myocardial Infarction"]}, {"conceptId": "C62246", "definition": "A PR interval of less than 0.12 seconds. (NCI)", "preferredTerm": "Short PR interval", "submissionValue": "ECG Result", "synonyms": ["Short PR Interval"]}, {"conceptId": "C62244", "definition": "A constellation of signs and symptoms which may include syncope, fatigue, dizziness, and alternating periods of bradycardia and atrial tachycardia, which is caused by sinoatrial node dysfunction. (NCI)", "preferredTerm": "Sick sinus syndrome", "submissionValue": "ECG Result", "synonyms": ["Sick Sinus Syndrome"]}, {"conceptId": "C50553", "definition": "A blockage of electrical conduction within the sinoatrial node resulting in the failure of impulse transmission from the sinoatrial node. (NCI)", "preferredTerm": "Sinoatrial exit block", "submissionValue": "ECG Result", "synonyms": ["Sinoatrial Node Exit Block"]}, {"conceptId": "C62242", "definition": "A failure of impulse formation in the sinus node. Sinus arrest is indistinguishable from third degree sinoatrial exit block on the standard ECG. (NCI)", "preferredTerm": "Sinus arrest/pause", "submissionValue": "ECG Result", "synonyms": ["Sinus Arrest"]}, {"conceptId": "C62239", "definition": "Irregularity of the heartbeat due to a variation in the sinus rhythm resulting in cyclic changes in the heart rate during breathing. This rhythm is most commonly seen with breathing due to fluctuations in parasympathetic vagal tone. During inspiration stretch receptors in the lungs stimulate the cardioinhibitory centers in the medulla via fibers in the vagus nerve. Irregularity of the heartbeat due to a variation in the sinus rhythm resulting in cyclic changes in the heart rate during breathing. This rhythm is most commonly seen with breathing due to fluctuations in parasympathetic vagal tone. During inspiration stretch receptors in the lungs stimulate the cardioinhibitory centers in the medulla via fibers in the vagus nerve. (NCI)", "preferredTerm": "Sinus arrhythmia", "submissionValue": "ECG Result", "synonyms": ["Sinus Arrhythmia"]}, {"conceptId": "C26923", "definition": "A heart rate of less than 60 beats per minute, with its origin in the sinus node. (NCI)", "preferredTerm": "Sinus bradycardia", "submissionValue": "ECG Result", "synonyms": ["Sinus Bradycardia"]}, {"conceptId": "C62243", "definition": "A derangement in the normal functioning of the sinoatrial node. Typically, SA node dysfunction is manifest as sinoatrial exit block or sinus arrest, but may present as an absolute or relative bradycardia in the presence of a stressor. It may be associated with bradycardia-tachycardia syndrome. (NCI)", "preferredTerm": "Sinus node dysfunction (bradycardia)", "submissionValue": "ECG Result", "synonyms": ["Sinus Node Dysfunction"]}, {"conceptId": "C26889", "definition": "A heart rate of more than 100 beats per minute, with its origin in the sinus node. (NCI)", "preferredTerm": "Sinus tachycardia", "submissionValue": "ECG Result", "synonyms": ["Sinus Tachycardia"]}, {"conceptId": "C71027", "definition": "An electrocardiographic finding of ST segment depression below the baseline, often described as up sloping, down sloping or horizontal. (NCI)", "preferredTerm": "ST depression", "submissionValue": "ECG Result", "synonyms": ["ST Depression"]}, {"conceptId": "C71028", "definition": "An electrocardiographic finding of ST segment elevation above the baseline. (NCI)", "preferredTerm": "ST elevation", "submissionValue": "ECG Result", "synonyms": ["ST Elevation"]}, {"conceptId": "C71029", "definition": "An electrocardiographic finding of ST changes consistent with pericarditis. (NCI)", "preferredTerm": "ST elevation pericarditis", "submissionValue": "ECG Result", "synonyms": ["ST Elevation Pericarditis"]}, {"conceptId": "C71026", "definition": "An electrocardiographic finding of the ST segment elevation or depression which is not indicative of ischemia or infarction. (NCI)", "preferredTerm": "ST segment abnormality", "submissionValue": "ECG Result", "synonyms": ["ST Segment Abnormality"]}, {"conceptId": "C35061", "definition": "A generic expression for any tachycardia that originates in the atria or the atrioventricular node. (NCI)", "preferredTerm": "Supraventricular tachycardia", "submissionValue": "ECG Result", "synonyms": ["Supraventricular Tachycardia"]}, {"conceptId": "C71052", "definition": "An electrocardiographic finding of ventricular tachycardia greater than 30 seconds in duration. (NCI)", "preferredTerm": "Sustained ventricular tachycardia", "submissionValue": "ECG Result", "synonyms": ["Sustained Ventricular Tachycardia"]}, {"conceptId": "C71083", "definition": "An electrocardiographic finding of a T wave which appears peaked, inverted, flattened or biphasic. (NCI)", "preferredTerm": "T wave abnormality", "submissionValue": "ECG Result", "synonyms": ["T Wave Abnormality"]}, {"conceptId": "C71085", "definition": "An electrocardiographic finding of an inversion of the T wave from the expected axis. (NCI)", "preferredTerm": "T Wave Inversion", "submissionValue": "ECG Result", "synonyms": ["T Wave Inversion"]}, {"conceptId": "C71086", "definition": "An electrocardiographic finding in which the T wave appears increased in amplitude and cresting at a point. (NCI)", "preferredTerm": "T wave peaked", "submissionValue": "ECG Result", "synonyms": ["T Wave Peaked"]}, {"conceptId": "C71087", "definition": "An electrocardiographic finding in which the T wave is asymmetric. (NCI)", "preferredTerm": "T waves biphasic", "submissionValue": "ECG Result", "synonyms": ["T Waves Biphasic"]}, {"conceptId": "C71088", "definition": "An electrocardiographic finding in which the T wave appears decreased in amplitude. (NCI)", "preferredTerm": "T waves flat", "submissionValue": "ECG Result", "synonyms": ["T Waves Flat"]}, {"conceptId": "C38029", "definition": "An abnormally rapid heartbeat, usually applied to a heart rate above 100 per minute.", "preferredTerm": "Tachycardia", "submissionValue": "ECG Result", "synonyms": ["Tachycardia"]}, {"conceptId": "C50779", "definition": "An atypical rapid polymorphic ventricular tachycardia with a characteristic rotation of the QRS complex around the isoelectric baseline. In addition the QRS complex displays a periodic waxing and waning of amplitude on the electrogram. (NCI)", "preferredTerm": "Torsades de pointes", "submissionValue": "ECG Result", "synonyms": ["Torsades De Pointes"]}, {"conceptId": "C71055", "definition": "An electrocardiographic finding of normal QRS followed by a premature ventricular contraction; a rhythmic pairing of normal and abnormal beats originating from the ventricles in a 1-2 ratio. (NCI)", "preferredTerm": "Trigeminy", "submissionValue": "ECG Result", "synonyms": ["Trigeminy"]}, {"conceptId": "C71089", "definition": "An electrocardiographic finding of a small hump following the T wave occurring during the final phase of Purkinje repolarization. (NCI)", "preferredTerm": "U waves", "submissionValue": "ECG Result", "synonyms": ["U Waves"]}, {"conceptId": "C71059", "definition": "A condition characterized by a pattern of right bundle branch block (RBBB) and ST-segment elevation within electrocardiogram (ECG) leads V1-V3 . This pattern emerges as a result of a defect in ion channel genes, resulting in abnormal electrophysiological activity in the right ventricle and a propensity to malignant tachyarrhythmias. (NCI)", "preferredTerm": "Ventricular arrhythmia associated with Brugada syndrome", "submissionValue": "ECG Result", "synonyms": ["Brugada Syndrome"]}, {"conceptId": "C34786", "definition": "A ventricular arrhythmia characterized by syncopal episodes and a long QT interval, sometimes leading to sudden death due to paroxysmal ventricular arrhythmia. This arrhythmia is associated with a prolongation of repolarization following depolarization of the cardiac ventricles. The prolongation of the Q-T interval combined with torsades de pointes manifests as several different forms; some may be acquired or congenital; some may lead to serious arrhythmia and sudden cardiac death. (NCI)", "preferredTerm": "Ventricular arrhythmia associated with long QT syndrome", "submissionValue": "ECG Result", "synonyms": ["Long QT Syndrome"]}, {"conceptId": "C71060", "definition": "Ventricular tachyarrhythmias occurring in association with short QT syndrome. (NCI)", "preferredTerm": "Ventricular arrhythmia associated with short QT syndrome", "submissionValue": "ECG Result", "synonyms": ["Short QT Syndrome"]}, {"conceptId": "C62259", "definition": "Two sequential ventricular premature complexes. An otherwise normal finding, but possibly indicative of electrical heart disease particularly in comparison with a single ventricular premature complexes. (NCI)", "preferredTerm": "Ventricular couplet", "submissionValue": "ECG Result", "synonyms": ["Ventricular Couplet"]}, {"conceptId": "C90483", "definition": "A compensatory ectopic beat that occurs in the ventricle after a pause in the ventricular rhythm, which is due to an absence in electrical activity to the ventricles. (NCI)", "preferredTerm": "Ventricular Escape Beat", "submissionValue": "ECG Result", "synonyms": ["Ventricular Escape Beat"]}, {"conceptId": "C50799", "definition": "An arrhythmia characterized by an irregular pattern of high or low-amplitude waves that cannot be differentiated into QRS complexes or T waves. These electrocardiographic waves occur as a result of fibrillary contractions of the ventricular muscle due to rapid repetitive excitation of myocardial fibers without coordinated contraction of the ventricle. (NCI)", "preferredTerm": "Ventricular fibrillation", "submissionValue": "ECG Result", "synonyms": ["Ventricular Fibrillation"]}, {"conceptId": "C50800", "definition": "A ventricular tachyarrhythmia characterized by a high ventricular rate (180 and 250 beats per minute) with a regular rhythm. The electrocardiogram shows large oscillating sine wave-like complexes occurring as a result of QRS complexes and T waves being merged. The P wave is not visible. (NCI)", "preferredTerm": "Ventricular flutter", "submissionValue": "ECG Result", "synonyms": ["Ventricular Flutter"]}, {"conceptId": "C71084", "definition": "Electrocardiographic findings suggestive of enlarged cardiac ventricles. (NCI)", "preferredTerm": "Ventricular Hypertrophy", "submissionValue": "ECG Result", "synonyms": ["Ventricular Hypertrophy"]}, {"conceptId": "C50802", "definition": "A tachycardia arising distal to bundle of His, with a rate greater than 100 beats per minute. (NCI)", "preferredTerm": "Ventricular tachycardia", "submissionValue": "ECG Result", "synonyms": ["Ventricular Tachycardia"]}, {"conceptId": "C71056", "definition": "Multiple, temporally related, episodes of ventricular tachycardia or fibrillation, occurring three or more times in a 24 hour period. (NCI)", "preferredTerm": "Ventricular tachycardia storm", "submissionValue": "ECG Result", "synonyms": ["Ventricular Tachycardia Storm"]}, {"conceptId": "C62234", "definition": "A ventricular tachycardia in which the ventricular activation sequence is constant. The morphology of the electrocardiographic waveform is unchanging and is referred to as monomorphic. (NCI)", "preferredTerm": "Ventricular tachycardia, monomorphic", "submissionValue": "ECG Result", "synonyms": ["Monomorphic Ventricular Tachycardia"]}, {"conceptId": "C62236", "definition": "A ventricular tachycardia in which the ventricular activation sequence is variable. The morphology of the electrocardiographic waveform is variable and is referred to as polymorphic. (NCI)", "preferredTerm": "Ventricular tachycardia, polymorphic", "submissionValue": "ECG Result", "synonyms": ["Polymorphic Ventricular Tachycardia"]}, {"conceptId": "C71058", "definition": "A well-recognized condition that is believed to result from triggered activity. Despite its uniform response to verapamil, however, this uncommon form of ventricular tachycardia may not be as homogeneous a condition as first believed. (NCI)", "preferredTerm": "Verapamil-sensitive ventricular tachycardia", "submissionValue": "ECG Result", "synonyms": ["Verapamil-Sensitive Ventricular Tachycardia"]}, {"conceptId": "C62240", "definition": "A condition characterized by the site of origin of impulses, controlling the heart rate, changing within the atria, including the sinus node. Variations within P waves and PR intervals occur and an irregular rate of impulse formation is observed. (NCI)", "preferredTerm": "Wandering atrial pacemaker", "submissionValue": "ECG Result", "synonyms": ["Wandering Atrial Pacemaker"]}, {"conceptId": "C71090", "definition": "An electrocardiographic finding of a QRS complex. (NCI)", "preferredTerm": "Wide QRS tachycardia", "submissionValue": "ECG Result", "synonyms": ["Wide QRS Tachycardia"]}, {"conceptId": "C35132", "definition": "A type of ventricular pre-excitation resulting from the activation of an accessory pathway known as the Bundle of Kent. This pathway presents an abnormal electrical communication from the atria to the ventricles. Wolff-Parkinson-White syndrome is characterized by a short PR interval and a long QRS interval with a delta wave. (NCI)", "preferredTerm": "Wolff-Parkinson-White syndrome", "submissionValue": "ECG Result", "synonyms": ["Wolff-Parkinson-White Syndrome"]}]}, {"conceptId": "", "definition": "Terminology codelist used with ECG Tests within CDISC.", "extensible": "Yes", "name": "ECG Test Code", "preferredTerm": "ECG Test Code", "submissionValue": "ECG Test Code", "synonyms": ["CDISC SDTM ECG Test Terminology by Code"], "terms": [{"conceptId": "C39779", "definition": "The minimum time between successive cycles of contraction and subsequent relaxation of the heart, usually expressed as beats per minute, obtained from a set of measurements of the heart rate. (NCI)", "preferredTerm": "Summary (Max) Heart Rate", "submissionValue": "ECG Test Code", "synonyms": ["Maximum Heart Rate"]}, {"conceptId": "C62095", "definition": "The average (mean) number of cycles of contraction and subsequent relaxation of the heart, usually expressed as beats per minute, obtained from a set of measurements of the heart rate. (NCI)", "preferredTerm": "Summary (Mean) Heart Rate", "submissionValue": "ECG Test Code", "synonyms": ["Mean Heart Rate"]}, {"conceptId": "C62096", "definition": "The maximum time between successive cycles of contraction and subsequent relaxation of the heart, usually expressed as beats per minute, obtained from a set of measurements of the heart rate. (NCI)", "preferredTerm": "Summary (Min) Heart Rate", "submissionValue": "ECG Test Code", "synonyms": ["Minimum Heart Rate"]}, {"conceptId": "C41255", "definition": "An act or process of elucidation; explication, or explanation of the meaning of the event or thing via the assignment of objects from the domain to the constants of a formal language, truth-values to the proposition symbols, truth-functions to the connectives, other functions to the function symbols, and extensions to the predicates, if any. The assignments are result of human logic application and are not native to the symbols of the formal language.", "preferredTerm": "Interpretation", "submissionValue": "ECG Test Code", "synonyms": ["Interpretation"]}, {"conceptId": "C62118", "definition": "A formula which takes into account the physiologic shortening of the JT interval which occurs as the heart rate increases, permitting comparison of the JT interval across a range of rates. It is mathematically defined as: JTcB = JT/SqRootRR(seconds) and theoretically corrects the JT interval to that which would be observed at a heart rate of 1 cycle per second. (NCI)", "preferredTerm": "JTcB - Bazett's Correction Formula", "submissionValue": "ECG Test Code", "synonyms": ["JTcB-Bazett's Correction Formula"]}, {"conceptId": "C62119", "definition": "A formula which takes into account the physiologic shortening of the JT interval which occurs as the heart rate increases, permitting comparison of the JT interval across a range of rates. It is mathematically defined as: JTcF = JT/CubeRootRR(seconds) and theoretically corrects the JT interval to that which would be observed at a heart rate of 1 cycle per second. (NCI)", "preferredTerm": "JTcF - Fridericia's Correction Formula", "submissionValue": "ECG Test Code", "synonyms": ["JTcF-Fridericia's Correction Formula"]}, {"conceptId": "C62120", "definition": "A formula which takes into account the physiologic shortening of the JT interval which occurs as the heart rate increases, permitting comparison of the JT interval across a range of rates. The linear correction formula uses population-based data obtained and validated using a large cohort of subjects. Using this method, the corrected JT interval is independent of the ventricular rate. (NCI)", "preferredTerm": "JTcLC - Linear Correction Formula", "submissionValue": "ECG Test Code", "synonyms": ["JTcLC-Linear Correction Formula"]}, {"conceptId": "C62117", "definition": "The maximum duration (time) of the JT interval, obtained from a set of measurements of the JT interval. The JT interval is defined as the time from the J point (end of ventricular depolarization, the point at which the QRS meets the ST segment) to the end of the T wave (representing the end of ventricular repolarization). (NCI)", "preferredTerm": "Summary (Max) JT Interval", "submissionValue": "ECG Test Code", "synonyms": ["EKG Maximum JT Duration"]}, {"conceptId": "C62115", "definition": "The average (mean) duration (time) of the JT interval, obtained from a set of measurements of the JT interval. The JT interval is defined as the time from the J point (end of ventricular depolarization, the point at which the QRS meets the ST segment) to the end of the T wave (representing the end of ventricular repolarization). (NCI)", "preferredTerm": "Summary (Mean) JT Interval", "submissionValue": "ECG Test Code", "synonyms": ["EKG Mean JT Duration"]}, {"conceptId": "C62116", "definition": "The minimum duration (time) of the JT interval, obtained from a set of measurements of the JT interval. The JT interval is defined as the time from the J point (end of ventricular depolarization, the point at which the QRS meets the ST segment) to the end of the T wave (representing the end of ventricular repolarization). (NCI)", "preferredTerm": "Summary (Min) JT Interval", "submissionValue": "ECG Test Code", "synonyms": ["EKG Minimum JT Duration"]}, {"conceptId": "C62121", "definition": "The mean (average) direction (range -180 degrees to 180 degrees) of the electrical potential generated by atrial depolarization in a particular plane (usually the frontal plane). (NCI)", "preferredTerm": "Summary (Mean) P Axis", "submissionValue": "ECG Test Code", "synonyms": ["EKG Mean P Axis"]}, {"conceptId": "C62131", "definition": "The maximum duration (time) of the PR interval, obtained from a set of measurements of the PR interval. The PR interval is defined as the time from the beginning of the P wave (representing the onset of atrial depolarization) to the beginning of the R wave (representing the onset of ventricular depolarization). In some cases, a Q wave will precede the R wave, in which case the PR interval is measured from the beginning of the P wave to the beginning of the Q wave. (NCI)", "preferredTerm": "Summary (Max) PR Duration", "submissionValue": "ECG Test Code", "synonyms": ["EKG Maximum PR Duration"]}, {"conceptId": "C62086", "definition": "The average (mean) duration (time) of the PR interval, obtained from a set of measurements of the PR interval. The PR interval is defined as the time from the beginning of the P wave (representing the onset of atrial depolarization) to the beginning of the R wave (representing the onset of ventricular depolarization). In some cases, a Q wave will precede the R wave, in which case the PR interval is measured from the beginning of the P wave to the beginning of the Q wave. (NCI)", "preferredTerm": "Summary (Mean) PR Duration", "submissionValue": "ECG Test Code", "synonyms": ["EKG Mean PR Duration"]}, {"conceptId": "C62125", "definition": "The minimum duration (time) of the PR interval, obtained from a set of measurements of the PR interval. The PR interval is defined as the time from the beginning of the P wave (representing the onset of atrial depolarization) to the beginning of the R wave (representing the onset of ventricular depolarization). In some cases, a Q wave will precede the R wave, in which case the PR interval is measured from the beginning of the P wave to the beginning of the Q wave. (NCI)", "preferredTerm": "Summary (Min) PR Duration", "submissionValue": "ECG Test Code", "synonyms": ["EKG Minimum PR Duration"]}, {"conceptId": "C62123", "definition": "The average (mean) duration (time) from the onset of atrial depolarization to the completion of atrial depolarization (length of the P wave), obtained from a set of measurements of the time from beginning to end of atrial depolarization. (NCI)", "preferredTerm": "Summary (Mean) P Wave Duration", "submissionValue": "ECG Test Code", "synonyms": ["EKG Mean P Wave Duration"]}, {"conceptId": "C62124", "definition": "The average (mean) height (usually measured in mm) of the maximum deflection from baseline of the P wave (representing atrial depolarization), obtained from a set of measurements of the P wave, from a single lead or set of leads. Typically this measurement is obtained by analysis of Lead II. (NCI)", "preferredTerm": "Summary (Mean) P Wave Height", "submissionValue": "ECG Test Code", "synonyms": ["EKG Mean P Wave Height"]}, {"conceptId": "C62132", "definition": "The mean (average) direction of the electrical potential generated by ventricular depolarization. (NCI)", "preferredTerm": "Summary (Mean) QRS Axis", "submissionValue": "ECG Test Code", "synonyms": ["Mean QRS Axis"]}, {"conceptId": "C62087", "definition": "The average (mean) duration (time) of the QRS interval, obtained from a set of measurements of the QRS interval. The QRS interval is defined as the time from the beginning of the QRS complex to the end of the QRS complex, representing the time it takes for the ventricles to depolarize. (NCI)", "preferredTerm": "Summary (Mean) QRS Duration", "submissionValue": "ECG Test Code", "synonyms": ["EKG Mean QRS Duration"]}, {"conceptId": "C62112", "definition": "A formula which takes into account the physiologic shortening of the QT interval which occurs as the heart rate increases, permitting comparison of the QT interval across a range of rates. It is mathematically defined as: QTcB = QT/SqRootRR(seconds) and theoretically corrects the QT interval to that which would be observed at a heart rate of 1 cycle per second. (NCI)", "preferredTerm": "QTcB - Bazett's Correction Formula", "submissionValue": "ECG Test Code", "synonyms": ["QTcB-Bazett's Correction Formula"]}, {"conceptId": "C62113", "definition": "A formula which takes into account the physiologic shortening of the QT interval which occurs as the heart rate increases, permitting comparison of the QT interval across a range of rates. It is mathematically defined as: QTcF = QT/CubeRootRR(seconds) and theoretically corrects the QT interval to that which would be observed at a heart rate of 1 cycle per second. (NCI)", "preferredTerm": "QTcF - Fridericia's Correction Formula", "submissionValue": "ECG Test Code", "synonyms": ["QTcF-Fridericia's Correction Formula"]}, {"conceptId": "C62114", "definition": "A formula which takes into account the physiologic shortening of the QT interval which occurs as the heart rate increases, permitting comparison of the QT interval across a range of rates. The linear correction formula uses population-based data obtained and validated using a large cohort of subjects. This method theoretically corrects the QT interval to that which would be observed at a heart rate of 1 cycle per second. (NCI)", "preferredTerm": "QTcLC - Linear Correction Formula", "submissionValue": "ECG Test Code", "synonyms": ["QTcLC-Linear Correction Formula"]}, {"conceptId": "C90442", "definition": "A mathematic formula defined as: QTcV = QT-0.087[(60/Heart Rate)-1](seconds). It permits comparison of the QT interval across a range of rates, while accounting for the progressive shortening of the QT interval which occurs as the heart rate increases. (NCI)", "preferredTerm": "QTcV - Van de Water's Correction Formula", "submissionValue": "ECG Test Code", "synonyms": ["QTcV Van de Water's Correction Formula"]}, {"conceptId": "C62135", "definition": "The maximum duration (time) of the QT interval, obtained from a set of measurements of the QT interval. The QT interval is defined as the time from the beginning of the QRS complex to the end of the T wave, representing the time it takes for the ventricles to depolarize and subsequently repolarize. In some cases, the Q wave will be absent, in which case the QT interval is measured from the beginning of the R wave to the end of the T wave. (NCI)", "preferredTerm": "Summary (Max) QT Duration", "submissionValue": "ECG Test Code", "synonyms": ["EKG Maximum QT Duration"]}, {"conceptId": "C62089", "definition": "The average (mean) duration (time) of the QT interval, obtained from a set of measurements of the QT interval. The QT interval is defined as the time from the beginning of the QRS complex to the end of the T wave, representing the time it takes for the ventricles to depolarize and subsequently repolarize. In some cases, the Q wave will be absent, in which case the QT interval is measured from the beginning of the R wave to the end of the T wave. (NCI)", "preferredTerm": "Summary (Mean) QT Duration", "submissionValue": "ECG Test Code", "synonyms": ["EKG Mean QT Duration"]}, {"conceptId": "C62133", "definition": "The minimum duration (time) of the QT interval, obtained from a set of measurements of the QT interval. The QT interval is defined as the time from the beginning of the QRS complex to the end of the T wave, representing the time it takes for the ventricles to depolarize and subsequently repolarize. In some cases, the Q wave will be absent, in which case the QT interval is measured from the beginning of the R wave to the end of the T wave. (NCI)", "preferredTerm": "Summary (Min) QT Duration", "submissionValue": "ECG Test Code", "synonyms": ["Minimum QT Duration"]}, {"conceptId": "C62094", "definition": "The maximum duration (time) between successive peaks of R waves in a particular set of RR intervals. (NCI)", "preferredTerm": "Summary (Max) RR Duration", "submissionValue": "ECG Test Code", "synonyms": ["EKG Maximum RR Duration"]}, {"conceptId": "C62090", "definition": "The average (mean) duration (time) of the RR interval, obtained from a set of measurements of the RR interval. The RR interval is defined as the time between successive peaks of the R wave and can be used to measure the ventricular rate. (NCI)", "preferredTerm": "Summary (Mean) RR Duration", "submissionValue": "ECG Test Code", "synonyms": ["EKG Mean RR Duration"]}, {"conceptId": "C62093", "definition": "The minimum duration (time) between successive peaks of R waves in a particular set of RR intervals. (NCI)", "preferredTerm": "Summary (Min) RR Duration", "submissionValue": "ECG Test Code", "synonyms": ["EKG Minimum RR Duration"]}, {"conceptId": "C62144", "definition": "The average (mean) amplitude (usually in mm) of the summation of the R and S waves, obtained from a set of measurements of the R and S waves, in a particular lead or set of leads. (NCI)", "preferredTerm": "Summary (Mean) R+S Amplitude", "submissionValue": "ECG Test Code", "synonyms": ["EKG Mean R+S Amplitude"]}, {"conceptId": "C62136", "definition": "The average (mean) amplitude (usually in mm) of the R wave, obtained from a set of measurements of the R wave, in a particular lead or set of leads. (NCI)", "preferredTerm": "Summary (Mean) R Wave Amplitude", "submissionValue": "ECG Test Code", "synonyms": ["EKG Mean R Wave Amplitude"]}, {"conceptId": "C62163", "definition": "The maximum depression (negative deflection from baseline, usually measured in mm) of the ST segment, obtained from a set of measurements of the depression of the ST segment. (NCI)", "preferredTerm": "Summary (Max) ST Depression", "submissionValue": "ECG Test Code", "synonyms": ["EKG Maximum ST Segment Depression"]}, {"conceptId": "C62161", "definition": "The average (mean) depression (negative deflection from baseline, usually measured in mm) of the ST segment, obtained from a set of measurements of the depression of the ST segment. (NCI)", "preferredTerm": "Summary (Mean) ST Depression", "submissionValue": "ECG Test Code", "synonyms": ["EKG Mean ST Segment Depression"]}, {"conceptId": "C62162", "definition": "The minimum depression (negative deflection from baseline, usually measured in mm) of the ST segment, obtained from a set of measurements of the depression of the ST segment. (NCI)", "preferredTerm": "Summary (Min) ST Depression", "submissionValue": "ECG Test Code", "synonyms": ["EKG Minimum ST Segment Depression"]}, {"conceptId": "C62157", "definition": "The maximum deviation (distance from baseline, positive or negative, usually measured in mm) of the ST segment, obtained from a set of measurements of the deviation of the ST segment. (NCI)", "preferredTerm": "Summary (Max) ST Deviation", "submissionValue": "ECG Test Code", "synonyms": ["EKG Maximum ST Deviation"]}, {"conceptId": "C62155", "definition": "The average (mean) deviation (distance from baseline, positive or negative, usually measured in mm) of the ST segment, obtained from a set of measurements of the deviation of the ST segment. (NCI)", "preferredTerm": "Summary (Mean) ST Deviation", "submissionValue": "ECG Test Code", "synonyms": ["EKG Mean ST Deviation"]}, {"conceptId": "C62156", "definition": "The minimum deviation (distance from baseline, positive or negative, usually measured in mm) of the ST segment, obtained from a set of measurements of the deviation of the ST segment. (NCI)", "preferredTerm": "Summary (Min) ST Deviation", "submissionValue": "ECG Test Code", "synonyms": ["EKG Minimum ST Deviation"]}, {"conceptId": "C62160", "definition": "The maximum elevation (positive deflection from baseline, usually measured in mm) of the ST segment, obtained from a set of measurements of the elevation of the ST segment. (NCI)", "preferredTerm": "Summary (Max) ST Elevation", "submissionValue": "ECG Test Code", "synonyms": ["EKG Maximum ST Segment Elevation"]}, {"conceptId": "C62158", "definition": "The average (mean) elevation (positive deflection from baseline, usually measured in mm) of the ST segment, obtained from a set of measurements of the elevation of the ST segment. (NCI)", "preferredTerm": "Summary (Mean) ST Elevation", "submissionValue": "ECG Test Code", "synonyms": ["EKG Mean ST Segment Elevation"]}, {"conceptId": "C62159", "definition": "The minimum elevation (positive deflection from baseline, usually measured in mm) of the ST segment, obtained from a set of measurements of the elevation of the ST segment. (NCI)", "preferredTerm": "Summary (Min) ST Elevation", "submissionValue": "ECG Test Code", "synonyms": ["EKG Minimum ST Segment Elevation"]}, {"conceptId": "C62145", "definition": "The duration (time) of the ST segment, measured from the J point at the end of the QRS complex to the beginning of the T wave. (NCI)", "preferredTerm": "Summary (Mean) ST Segment Duration", "submissionValue": "ECG Test Code", "synonyms": ["EKG Mean ST Segment Duration"]}, {"conceptId": "C62137", "definition": "The average (mean) amplitude (usually in mm) of the S wave, obtained from a set of measurements of the S wave, in a particular lead or set of leads. (NCI)", "preferredTerm": "Summary (Mean) S Wave Amplitude", "submissionValue": "ECG Test Code", "synonyms": ["EKG Mean S Wave Amplitude"]}, {"conceptId": "C62146", "definition": "The mean (average) direction of the electrical potential generated by ventricular repolarization. (NCI)", "preferredTerm": "Summary (Mean) T Wave Axis", "submissionValue": "ECG Test Code", "synonyms": ["EKG Mean T Wave Axis"]}, {"conceptId": "C62148", "definition": "The average (mean) area under the curve of the deflection from baseline of the T wave (representing ventricular repolarization), obtained from a set of measurements of the T wave, from a single lead or set of leads. (NCI)", "preferredTerm": "Summary (Mean) T Wave Area", "submissionValue": "ECG Test Code", "synonyms": ["EKG Mean T Wave Area"]}, {"conceptId": "C62147", "definition": "The average (mean) duration (time) from the onset of ventricular repolarization to the completion of ventricular repolarization (length of the T wave), obtained from a set of measurements of the time from beginning to end of ventricular repolarization. (NCI)", "preferredTerm": "Summary (Mean) T Wave Duration", "submissionValue": "ECG Test Code", "synonyms": ["EKG Mean T Wave Duration"]}, {"conceptId": "C62149", "definition": "The average (mean) height (usually measured in mm) of the maximum deflection from baseline of the T wave (representing ventricular repolarization), obtained from a set of measurements of the T wave, from a single lead or set of leads. (NCI)", "preferredTerm": "Summary (Mean) T Wave Height", "submissionValue": "ECG Test Code", "synonyms": ["EKG Mean T Wave Height"]}, {"conceptId": "C62154", "definition": "The maximum time between successive cycles of contraction and subsequent relaxation of the ventricles, usually expressed as beats per minute, obtained from a set of measurements of the ventricular rate. (NCI)", "preferredTerm": "Summary (Max) Ventricular Rate", "submissionValue": "ECG Test Code", "synonyms": ["Maximum Ventricular Heart Rate"]}, {"conceptId": "C62152", "definition": "The average (mean) number of cycles of contraction and subsequent relaxation of the ventricles, usually expressed as beats per minute, obtained from a set of measurements of the ventricular rate. (NCI)", "preferredTerm": "Summary (Mean) Ventricular Rate", "submissionValue": "ECG Test Code", "synonyms": ["Mean Ventricular Heart Rate"]}, {"conceptId": "C62153", "definition": "The minimum time between successive cycles of contraction and subsequent relaxation of the ventricles, usually expressed as beats per minute, obtained from a set of measurements of the ventricular rate. (NCI)", "preferredTerm": "Summary (Min) Ventricular Rate", "submissionValue": "ECG Test Code", "synonyms": ["Minimum Ventricular Heart Rate"]}]}, {"conceptId": "", "definition": "Terminology codelist used with ECG Test Methods within CDISC.", "extensible": "Yes", "name": "ECG Test Method", "preferredTerm": "ECG Test Method", "submissionValue": "ECG Test Method", "synonyms": ["CDISC SDTM ECG Test Method Terminology"], "terms": [{"conceptId": "C90349", "definition": "An electrocardiogram lead placement on the subject using a ten electrode lead set to synthesize standard 12 lead electrocardiograph data to elicit an electrical view of the heart.", "preferredTerm": "10 Lead Standard", "submissionValue": "ECG Test Method", "synonyms": ["10 Lead Standard"]}, {"conceptId": "C71125", "definition": "An electrocardiogram (ECG) lead placement whereby 12 leadpoints are recorded but one standard lead position is missing therefore requiring a Mortara source consistency filter. (NCI)", "preferredTerm": "12 Lead 1 Lead Missing", "submissionValue": "ECG Test Method", "synonyms": ["12 Lead Placement 1 Lead Missing"]}, {"conceptId": "C71116", "definition": "An electrocardiogram (ECG) lead placement whereby the display of the 12 standard ECG leads is in an orderly sequence in a single horizontal display of: aVL, I, -aVR, II, aVF, III, V1 to V6. In the Cabrera display the limb lead aVR is inverted (-aVR) to obtain the same positive leftward orientation as the other 5 limbs. (NCI)", "preferredTerm": "12 Lead Cabrera", "submissionValue": "ECG Test Method", "synonyms": ["12 Lead Placement Cabrera"]}, {"conceptId": "C71123", "definition": "An electrocardiogram (ECG) lead placement whereby 4 chest electrodes and 1 reference electrode are used to allow for continuous monitoring at the clinical level. This placement creates a 12 lead ECG that allows the acquisition of simultaneous events in the frontal, horizontal and sagittal heart planes with the linear transformation of vectors. This system provides a three-dimensional portrayal of the heart and uses mathematical and fixed coefficients for each lead. (NCI)", "preferredTerm": "12 Lead EASI Dower Transformation", "submissionValue": "ECG Test Method", "synonyms": ["Lead Placement EASI Dower Transformation"]}, {"conceptId": "C71103", "definition": "An electrocardiogram (ECG) lead placement whereby 12 leadpoints are recorded but the standard lead positions have been modified for ECG recording during exercise. Exercise stress testing requires moving the limb electrodes to more central positions on the thorax. The electrodes are placed in bony prominences close to the bases of the respective limbs in order to avoid skeletal muscle artifact, provide stability for recording electrodes and to record waveforms similar to the standard limb sites. (NCI)", "preferredTerm": "12 Lead Mason Likar", "submissionValue": "ECG Test Method", "synonyms": ["12 Lead Placement Mason Likar"]}, {"conceptId": "C71110", "definition": "An electrocardiogram (ECG) lead placement whereby 12 leadpoints are recorded but the Mason Likar lead positions have been modified so that V1 to V6 on the chest are part of a single electrode pad. In addition, lead CM5 is substituted for lead aVR. (NCI)", "preferredTerm": "12 Lead Modified Mason Likar", "submissionValue": "ECG Test Method", "synonyms": ["12 Lead Placement Mason Likar Modified"]}, {"conceptId": "C71114", "definition": "An electrocardiogram (ECG) lead placement whereby the limb leads are placed on the torso for easier and faster application in emergency situations. (NCI)", "preferredTerm": "12 Lead Non-Standard", "submissionValue": "ECG Test Method", "synonyms": ["12 Lead Placement Non-Standard"]}, {"conceptId": "C71112", "definition": "An electrocardiogram (ECG) lead placement whereby 12 leadpoints are recorded but the standard lead positions have been modified so that all leads on the chest are part of a single electrode pad. (NCI)", "preferredTerm": "12 Lead Single Pad", "submissionValue": "ECG Test Method", "synonyms": ["12 Lead Placement Chest"]}, {"conceptId": "C71102", "definition": "An electrocardiogram (ECG) lead placement whereby 12 leads are recorded, with each lead representing an electrical view of the heart. The six leads recorded in the frontal plane are derived from the placement of 3 electrodes (RA or Right Arm, LA, or Left Arm, and LL or Left Leg). These bipolar frontal leads form the basis of Einthoven's triangle, and are represented by leads I, II, and III. Three other derived (or augmented) bipolar frontal vectors are also recorded on a standard 12-lead EKG, aVR, aVF, and aVL. 6 unipolar leads, corresponding to V1 - V6 measure the electrical activity in the horizontal plane. The placement for the V leads is as follows: V1: right 4th intercostal space,V2: left 4th intercostal space, V3: halfway between V2 and V4, V4: left 5th intercostal space, mid-clavicular line, V5: horizontal to V4, anterior axillary line, V6: horizontal to V5, mid-axillary line. (NCI)", "preferredTerm": "12 Lead Standard", "submissionValue": "ECG Test Method", "synonyms": ["12 Lead Placement Standard"]}, {"conceptId": "C71101", "definition": "An electrocardiogram (ECG) lead placement whereby 12 leadpoints are recorded but the position of the leads is unspecified. (NCI)", "preferredTerm": "12 Lead Unspecified", "submissionValue": "ECG Test Method", "synonyms": ["12 Lead Placement Unspecified"]}, {"conceptId": "C90350", "definition": "An electrocardiogram lead placement on the subject using a six electrode lead set with three standard leads and three augmented derived leads to elicit an electrical view of the heart.", "preferredTerm": "6 Lead Standard", "submissionValue": "ECG Test Method", "synonyms": ["6 Lead Standard"]}, {"conceptId": "C71121", "definition": "An electrocardiogram (ECG) lead placement whereby the X+ lead is placed at the right mid-axillary line ate the 4th intercostal space, X- at the left mid-axillary line at he 4th intercostal space, Y+ at the proximal left leg, Y- at the superior aspect of the manubrium, Z+ at the direct posterior to Z- and Z- at the 4th intercostal space at the left sternal margin. (NCI)", "preferredTerm": "Bipolar uncorrected XYZ lead system", "submissionValue": "ECG Test Method", "synonyms": ["Lead Placement Bipolar Uncorrected XYZ"]}, {"conceptId": "C71120", "definition": "An electrocardiogram (ECG) lead placement that is a type of uncorrected vectorcardiograph. This lead system is based on a rectangular body axis. It uses an extra number of electrodes to make it three-dimensional. (NCI)", "preferredTerm": "Cube lead system", "submissionValue": "ECG Test Method", "synonyms": ["Lead Placement Cube"]}, {"conceptId": "C71118", "definition": "An electrocardiogram (ECG) lead placement for determining 3 orthogonal components X (right to left direction), Y (foot to head direction) and Z (back to front direction) of the heart. For this method a minimum of 4 electrodes are needed that represent the right arm, left arm, left leg and back. However, usually 7 electrodes are used to avoid dependence on the dipole location and facilitate interpretation. (NCI)", "preferredTerm": "Frank lead system", "submissionValue": "ECG Test Method", "synonyms": ["Lead Placement Frank"]}, {"conceptId": "C71119", "definition": "An electrocardiogram (ECG) lead placement for determining 3 orthogonal components X (back to front), Y (right to left) and Z (foot to head) of the heart. This system places the electrodes closer to the heart to achieve better orthogonality and a homogeneous lead field. (NCI)", "preferredTerm": "McFee-Parungao lead system", "submissionValue": "ECG Test Method", "synonyms": ["Lead Placement McFee-Parungao"]}, {"conceptId": "C71122", "definition": "An electrocardiogram (ECG) lead placement that allows monitoring and recording of cardiac electrical activity. A V1-type lead is used whose positive electrode is localized in the 4th intercostal space, 2.5cm from the sternum. Its negative electrode is placed below the left clavicle. An addition of lead V5 and aVF can be made to facilitate interpretation. (NCI)", "preferredTerm": "Pseudo-orthogonal XYZ lead system", "submissionValue": "ECG Test Method", "synonyms": ["Lead Placement Pseudo Orthogonal XYZ"]}, {"conceptId": "C71128", "definition": "An electrocardiogram (ECG) lead placement whereby 12 leadpoints are recorded but the standard lead positions have been modified so that the negative reference is at CM5 and the active electrode is at the left leg position. (NCI)", "preferredTerm": "Standard 12-lead and CC5-CM5-ML", "submissionValue": "ECG Test Method", "synonyms": ["12 Lead Placement Standard And CC5-CM5-ML"]}, {"conceptId": "C71126", "definition": "An electrocardiogram (ECG) lead placement whereby 12 leadpoints are recorded but the standard lead positions have been modified so that the bipolar lead groups place the negative of the reference electrode over the manubrium (CM5), the right scapula (CB5), V5R (CC5) or on the forehead (CH5) and the active electrode at V5. (NCI)", "preferredTerm": "Standard 12-lead and CM5-CC5-CH5", "submissionValue": "ECG Test Method", "synonyms": ["12 Lead Placement Standard And CC5-CM5-CH5"]}, {"conceptId": "C71131", "definition": "An electrocardiogram (ECG) lead placement whereby the standard lead placement is modified by having leads V7, V8 and V9. (NCI)", "preferredTerm": "Standard 12-lead extended to the left by V7, V8, V9", "submissionValue": "ECG Test Method", "synonyms": ["12 Lead Placement Standard Extended Left"]}, {"conceptId": "C71130", "definition": "An electrocardiogram (ECG) lead placement whereby the rightward oriented V leads progress from V1R, placed instead of the standard V2, to V6R. The V3 lead in the standard placement is replaced by V4R. (NCI)", "preferredTerm": "Standard 12-lead extended to the right by V5R, V4R, V3R", "submissionValue": "ECG Test Method", "synonyms": ["12 Lead Placement Standard Extended Right"]}, {"conceptId": "C71115", "definition": "Limb leads on the back (shoulder and on the hips). (NCI)", "preferredTerm": "Standard leads for bicycle exercise. Limb leads on the back (shoulder and on the hips)", "submissionValue": "ECG Test Method", "synonyms": ["Lead Placement Bicycle"]}, {"conceptId": "C71117", "definition": "An electrocardiographic lead placement schema in which the V leads are placed one intercostal space cephalad to the position they would have in the standard lead placement schema. (NCI)", "preferredTerm": "Standard leads one intercostal space higher", "submissionValue": "ECG Test Method", "synonyms": ["Lead Placement Standard Intercostal Space Higher"]}, {"conceptId": "C71092", "definition": "A recording of the electrical activity of the heart displayed in the form of a vector loop, corrected for anatomic inconsistencies. (NCI)", "preferredTerm": "Vectorcardiograph Corrected", "submissionValue": "ECG Test Method", "synonyms": ["Vectorcardiograph Corrected"]}, {"conceptId": "C71093", "definition": "A recording of the electrical activity of the heart displayed in the form of a vector loop, uncorrected for anatomic inconsistencies. (NCI)", "preferredTerm": "Vectorcardiograph Uncorrected", "submissionValue": "ECG Test Method", "synonyms": ["Vectorcardiograph Uncorrected"]}]}, {"conceptId": "", "definition": "Terminology codelist used with ECG Test Names within CDISC.", "extensible": "Yes", "name": "ECG Test Name", "preferredTerm": "ECG Test Name", "submissionValue": "ECG Test Name", "synonyms": ["CDISC SDTM ECG Test Name Terminology"], "terms": [{"conceptId": "C41255", "definition": "An act or process of elucidation; explication, or explanation of the meaning of the event or thing via the assignment of objects from the domain to the constants of a formal language, truth-values to the proposition symbols, truth-functions to the connectives, other functions to the function symbols, and extensions to the predicates, if any. The assignments are result of human logic application and are not native to the symbols of the formal language.", "preferredTerm": "Interpretation", "submissionValue": "ECG Test Name", "synonyms": ["Interpretation"]}, {"conceptId": "C62118", "definition": "A formula which takes into account the physiologic shortening of the JT interval which occurs as the heart rate increases, permitting comparison of the JT interval across a range of rates. It is mathematically defined as: JTcB = JT/SqRootRR(seconds) and theoretically corrects the JT interval to that which would be observed at a heart rate of 1 cycle per second. (NCI)", "preferredTerm": "JTcB - Bazett's Correction Formula", "submissionValue": "ECG Test Name", "synonyms": ["JTcB-Bazett's Correction Formula"]}, {"conceptId": "C62119", "definition": "A formula which takes into account the physiologic shortening of the JT interval which occurs as the heart rate increases, permitting comparison of the JT interval across a range of rates. It is mathematically defined as: JTcF = JT/CubeRootRR(seconds) and theoretically corrects the JT interval to that which would be observed at a heart rate of 1 cycle per second. (NCI)", "preferredTerm": "JTcF - Fridericia's Correction Formula", "submissionValue": "ECG Test Name", "synonyms": ["JTcF-Fridericia's Correction Formula"]}, {"conceptId": "C62120", "definition": "A formula which takes into account the physiologic shortening of the JT interval which occurs as the heart rate increases, permitting comparison of the JT interval across a range of rates. The linear correction formula uses population-based data obtained and validated using a large cohort of subjects. Using this method, the corrected JT interval is independent of the ventricular rate. (NCI)", "preferredTerm": "JTcLC - Linear Correction Formula", "submissionValue": "ECG Test Name", "synonyms": ["JTcLC-Linear Correction Formula"]}, {"conceptId": "C62112", "definition": "A formula which takes into account the physiologic shortening of the QT interval which occurs as the heart rate increases, permitting comparison of the QT interval across a range of rates. It is mathematically defined as: QTcB = QT/SqRootRR(seconds) and theoretically corrects the QT interval to that which would be observed at a heart rate of 1 cycle per second. (NCI)", "preferredTerm": "QTcB - Bazett's Correction Formula", "submissionValue": "ECG Test Name", "synonyms": ["QTcB-Bazett's Correction Formula"]}, {"conceptId": "C62113", "definition": "A formula which takes into account the physiologic shortening of the QT interval which occurs as the heart rate increases, permitting comparison of the QT interval across a range of rates. It is mathematically defined as: QTcF = QT/CubeRootRR(seconds) and theoretically corrects the QT interval to that which would be observed at a heart rate of 1 cycle per second. (NCI)", "preferredTerm": "QTcF - Fridericia's Correction Formula", "submissionValue": "ECG Test Name", "synonyms": ["QTcF-Fridericia's Correction Formula"]}, {"conceptId": "C62114", "definition": "A formula which takes into account the physiologic shortening of the QT interval which occurs as the heart rate increases, permitting comparison of the QT interval across a range of rates. The linear correction formula uses population-based data obtained and validated using a large cohort of subjects. This method theoretically corrects the QT interval to that which would be observed at a heart rate of 1 cycle per second. (NCI)", "preferredTerm": "QTcLC - Linear Correction Formula", "submissionValue": "ECG Test Name", "synonyms": ["QTcLC-Linear Correction Formula"]}, {"conceptId": "C90442", "definition": "A mathematic formula defined as: QTcV = QT-0.087[(60/Heart Rate)-1](seconds). It permits comparison of the QT interval across a range of rates, while accounting for the progressive shortening of the QT interval which occurs as the heart rate increases. (NCI)", "preferredTerm": "QTcV - Van de Water's Correction Formula", "submissionValue": "ECG Test Name", "synonyms": ["QTcV Van de Water's Correction Formula"]}, {"conceptId": "C39779", "definition": "The minimum time between successive cycles of contraction and subsequent relaxation of the heart, usually expressed as beats per minute, obtained from a set of measurements of the heart rate. (NCI)", "preferredTerm": "Summary (Max) Heart Rate", "submissionValue": "ECG Test Name", "synonyms": ["Maximum Heart Rate"]}, {"conceptId": "C62117", "definition": "The maximum duration (time) of the JT interval, obtained from a set of measurements of the JT interval. The JT interval is defined as the time from the J point (end of ventricular depolarization, the point at which the QRS meets the ST segment) to the end of the T wave (representing the end of ventricular repolarization). (NCI)", "preferredTerm": "Summary (Max) JT Interval", "submissionValue": "ECG Test Name", "synonyms": ["EKG Maximum JT Duration"]}, {"conceptId": "C62131", "definition": "The maximum duration (time) of the PR interval, obtained from a set of measurements of the PR interval. The PR interval is defined as the time from the beginning of the P wave (representing the onset of atrial depolarization) to the beginning of the R wave (representing the onset of ventricular depolarization). In some cases, a Q wave will precede the R wave, in which case the PR interval is measured from the beginning of the P wave to the beginning of the Q wave. (NCI)", "preferredTerm": "Summary (Max) PR Duration", "submissionValue": "ECG Test Name", "synonyms": ["EKG Maximum PR Duration"]}, {"conceptId": "C62135", "definition": "The maximum duration (time) of the QT interval, obtained from a set of measurements of the QT interval. The QT interval is defined as the time from the beginning of the QRS complex to the end of the T wave, representing the time it takes for the ventricles to depolarize and subsequently repolarize. In some cases, the Q wave will be absent, in which case the QT interval is measured from the beginning of the R wave to the end of the T wave. (NCI)", "preferredTerm": "Summary (Max) QT Duration", "submissionValue": "ECG Test Name", "synonyms": ["EKG Maximum QT Duration"]}, {"conceptId": "C62094", "definition": "The maximum duration (time) between successive peaks of R waves in a particular set of RR intervals. (NCI)", "preferredTerm": "Summary (Max) RR Duration", "submissionValue": "ECG Test Name", "synonyms": ["EKG Maximum RR Duration"]}, {"conceptId": "C62163", "definition": "The maximum depression (negative deflection from baseline, usually measured in mm) of the ST segment, obtained from a set of measurements of the depression of the ST segment. (NCI)", "preferredTerm": "Summary (Max) ST Depression", "submissionValue": "ECG Test Name", "synonyms": ["EKG Maximum ST Segment Depression"]}, {"conceptId": "C62157", "definition": "The maximum deviation (distance from baseline, positive or negative, usually measured in mm) of the ST segment, obtained from a set of measurements of the deviation of the ST segment. (NCI)", "preferredTerm": "Summary (Max) ST Deviation", "submissionValue": "ECG Test Name", "synonyms": ["EKG Maximum ST Deviation"]}, {"conceptId": "C62160", "definition": "The maximum elevation (positive deflection from baseline, usually measured in mm) of the ST segment, obtained from a set of measurements of the elevation of the ST segment. (NCI)", "preferredTerm": "Summary (Max) ST Elevation", "submissionValue": "ECG Test Name", "synonyms": ["EKG Maximum ST Segment Elevation"]}, {"conceptId": "C62154", "definition": "The maximum time between successive cycles of contraction and subsequent relaxation of the ventricles, usually expressed as beats per minute, obtained from a set of measurements of the ventricular rate. (NCI)", "preferredTerm": "Summary (Max) Ventricular Rate", "submissionValue": "ECG Test Name", "synonyms": ["Maximum Ventricular Heart Rate"]}, {"conceptId": "C62095", "definition": "The average (mean) number of cycles of contraction and subsequent relaxation of the heart, usually expressed as beats per minute, obtained from a set of measurements of the heart rate. (NCI)", "preferredTerm": "Summary (Mean) Heart Rate", "submissionValue": "ECG Test Name", "synonyms": ["Mean Heart Rate"]}, {"conceptId": "C62115", "definition": "The average (mean) duration (time) of the JT interval, obtained from a set of measurements of the JT interval. The JT interval is defined as the time from the J point (end of ventricular depolarization, the point at which the QRS meets the ST segment) to the end of the T wave (representing the end of ventricular repolarization). (NCI)", "preferredTerm": "Summary (Mean) JT Interval", "submissionValue": "ECG Test Name", "synonyms": ["EKG Mean JT Duration"]}, {"conceptId": "C62121", "definition": "The mean (average) direction (range -180 degrees to 180 degrees) of the electrical potential generated by atrial depolarization in a particular plane (usually the frontal plane). (NCI)", "preferredTerm": "Summary (Mean) P Axis", "submissionValue": "ECG Test Name", "synonyms": ["EKG Mean P Axis"]}, {"conceptId": "C62123", "definition": "The average (mean) duration (time) from the onset of atrial depolarization to the completion of atrial depolarization (length of the P wave), obtained from a set of measurements of the time from beginning to end of atrial depolarization. (NCI)", "preferredTerm": "Summary (Mean) P Wave Duration", "submissionValue": "ECG Test Name", "synonyms": ["EKG Mean P Wave Duration"]}, {"conceptId": "C62124", "definition": "The average (mean) height (usually measured in mm) of the maximum deflection from baseline of the P wave (representing atrial depolarization), obtained from a set of measurements of the P wave, from a single lead or set of leads. Typically this measurement is obtained by analysis of Lead II. (NCI)", "preferredTerm": "Summary (Mean) P Wave Height", "submissionValue": "ECG Test Name", "synonyms": ["EKG Mean P Wave Height"]}, {"conceptId": "C62086", "definition": "The average (mean) duration (time) of the PR interval, obtained from a set of measurements of the PR interval. The PR interval is defined as the time from the beginning of the P wave (representing the onset of atrial depolarization) to the beginning of the R wave (representing the onset of ventricular depolarization). In some cases, a Q wave will precede the R wave, in which case the PR interval is measured from the beginning of the P wave to the beginning of the Q wave. (NCI)", "preferredTerm": "Summary (Mean) PR Duration", "submissionValue": "ECG Test Name", "synonyms": ["EKG Mean PR Duration"]}, {"conceptId": "C62132", "definition": "The mean (average) direction of the electrical potential generated by ventricular depolarization. (NCI)", "preferredTerm": "Summary (Mean) QRS Axis", "submissionValue": "ECG Test Name", "synonyms": ["Mean QRS Axis"]}, {"conceptId": "C62087", "definition": "The average (mean) duration (time) of the QRS interval, obtained from a set of measurements of the QRS interval. The QRS interval is defined as the time from the beginning of the QRS complex to the end of the QRS complex, representing the time it takes for the ventricles to depolarize. (NCI)", "preferredTerm": "Summary (Mean) QRS Duration", "submissionValue": "ECG Test Name", "synonyms": ["EKG Mean QRS Duration"]}, {"conceptId": "C62089", "definition": "The average (mean) duration (time) of the QT interval, obtained from a set of measurements of the QT interval. The QT interval is defined as the time from the beginning of the QRS complex to the end of the T wave, representing the time it takes for the ventricles to depolarize and subsequently repolarize. In some cases, the Q wave will be absent, in which case the QT interval is measured from the beginning of the R wave to the end of the T wave. (NCI)", "preferredTerm": "Summary (Mean) QT Duration", "submissionValue": "ECG Test Name", "synonyms": ["EKG Mean QT Duration"]}, {"conceptId": "C62136", "definition": "The average (mean) amplitude (usually in mm) of the R wave, obtained from a set of measurements of the R wave, in a particular lead or set of leads. (NCI)", "preferredTerm": "Summary (Mean) R Wave Amplitude", "submissionValue": "ECG Test Name", "synonyms": ["EKG Mean R Wave Amplitude"]}, {"conceptId": "C62144", "definition": "The average (mean) amplitude (usually in mm) of the summation of the R and S waves, obtained from a set of measurements of the R and S waves, in a particular lead or set of leads. (NCI)", "preferredTerm": "Summary (Mean) R+S Amplitude", "submissionValue": "ECG Test Name", "synonyms": ["EKG Mean R+S Amplitude"]}, {"conceptId": "C62090", "definition": "The average (mean) duration (time) of the RR interval, obtained from a set of measurements of the RR interval. The RR interval is defined as the time between successive peaks of the R wave and can be used to measure the ventricular rate. (NCI)", "preferredTerm": "Summary (Mean) RR Duration", "submissionValue": "ECG Test Name", "synonyms": ["EKG Mean RR Duration"]}, {"conceptId": "C62137", "definition": "The average (mean) amplitude (usually in mm) of the S wave, obtained from a set of measurements of the S wave, in a particular lead or set of leads. (NCI)", "preferredTerm": "Summary (Mean) S Wave Amplitude", "submissionValue": "ECG Test Name", "synonyms": ["EKG Mean S Wave Amplitude"]}, {"conceptId": "C62161", "definition": "The average (mean) depression (negative deflection from baseline, usually measured in mm) of the ST segment, obtained from a set of measurements of the depression of the ST segment. (NCI)", "preferredTerm": "Summary (Mean) ST Depression", "submissionValue": "ECG Test Name", "synonyms": ["EKG Mean ST Segment Depression"]}, {"conceptId": "C62155", "definition": "The average (mean) deviation (distance from baseline, positive or negative, usually measured in mm) of the ST segment, obtained from a set of measurements of the deviation of the ST segment. (NCI)", "preferredTerm": "Summary (Mean) ST Deviation", "submissionValue": "ECG Test Name", "synonyms": ["EKG Mean ST Deviation"]}, {"conceptId": "C62158", "definition": "The average (mean) elevation (positive deflection from baseline, usually measured in mm) of the ST segment, obtained from a set of measurements of the elevation of the ST segment. (NCI)", "preferredTerm": "Summary (Mean) ST Elevation", "submissionValue": "ECG Test Name", "synonyms": ["EKG Mean ST Segment Elevation"]}, {"conceptId": "C62145", "definition": "The average (mean) duration (time) from the end