{"codelists": [{"conceptId": "", "definition": "Those units of time that are routinely used to express the age of a subject.", "extensible": "No", "name": "Age Unit", "preferredTerm": "Age Unit", "submissionValue": "Age Unit", "synonyms": ["CDISC SDTM Age Unit Terminology"], "terms": [{"conceptId": "C25301", "definition": "The time for Earth to make a complete rotation on its axis; ordinarily divided into twenty-four hours. This also refers to a specific day. (NCI)", "preferredTerm": "Day", "submissionValue": "Age Unit", "synonyms": ["Day"]}, {"conceptId": "C25529", "definition": "A unit measure of time equal to 3,600 seconds or 60 minutes. It is approximately 1/24 of a median day. (NCI)", "preferredTerm": "Hour; hr", "submissionValue": "Age Unit", "synonyms": ["Hour"]}, {"conceptId": "C29846", "definition": "One of the 12 divisions of a year as determined by a calendar. It corresponds to the unit of time of approximately to one cycle of the moon's phases, about 30 days or 4 weeks. (NCI)", "preferredTerm": "Month", "submissionValue": "Age Unit", "synonyms": ["Month"]}, {"conceptId": "C29844", "definition": "Any period of seven consecutive days. (NCI)", "preferredTerm": "Week", "submissionValue": "Age Unit", "synonyms": ["Week"]}, {"conceptId": "C29848", "definition": "The period of time that it takes for Earth to make a complete revolution around the sun, approximately 365 days; a specific one year period. (NCI)", "preferredTerm": "Year", "submissionValue": "Age Unit", "synonyms": ["Year"]}]}, {"conceptId": "", "definition": "The terminology that includes concepts relevant to anatomical structure that consists of organs and organ subclasses responsible for certain body functions.", "extensible": "Yes", "name": "Body System", "preferredTerm": "Body System", "submissionValue": "Body System", "synonyms": ["CDISC SEND Body System Terminology"], "terms": [{"conceptId": "C35552", "definition": "Symptoms, physical examination results, and/or laboratory test results related to the cardiovascular system. (NCI)", "preferredTerm": "", "submissionValue": "Body System", "synonyms": ["Cardiovascular System Finding"]}, {"conceptId": "C36285", "definition": "Symptoms, physical examination results, and/or laboratory test results related to the endocrine system. (NCI)", "preferredTerm": "", "submissionValue": "Body System", "synonyms": ["Endocrine System Finding"]}, {"conceptId": "C36279", "definition": "Symptoms, physical examination results, and/or laboratory test results related to the gastrointestinal system. (NCI)", "preferredTerm": "", "submissionValue": "Body System", "synonyms": ["Gastrointestinal System Finding"]}, {"conceptId": "C36289", "definition": "Symptoms, physical examination results, and/or laboratory test results related to the hematopoietic system. (NCI)", "preferredTerm": "", "submissionValue": "Body System", "synonyms": ["Hematopoietic System Finding"]}, {"conceptId": "C39723", "definition": "Symptoms, physical examination results, and/or laboratory test results related to the immune system. (NCI)", "preferredTerm": "", "submissionValue": "Body System", "synonyms": ["Immune System Finding"]}, {"conceptId": "C36281", "definition": "Symptoms, physical examination results, and/or laboratory test results related to the integumentary system. (NCI)", "preferredTerm": "", "submissionValue": "Body System", "synonyms": ["Integumentary System Finding"]}, {"conceptId": "C36288", "definition": "Symptoms, physical examination results, and/or laboratory test results related to the musculoskeletal system, also including connective and soft tissue.", "preferredTerm": "", "submissionValue": "Body System", "synonyms": ["Connective and Soft Tissue Finding"]}, {"conceptId": "C36280", "definition": "Symptoms, physical examination results, and/or laboratory test results related to the nervous system. (NCI)", "preferredTerm": "", "submissionValue": "Body System", "synonyms": ["Nervous System Finding"]}, {"conceptId": "C36284", "definition": "Symptoms, physical examination results, and/or laboratory test results related to the reproductive system. (NCI)", "preferredTerm": "", "submissionValue": "Body System", "synonyms": ["Reproductive System Finding"]}, {"conceptId": "C45233", "definition": "Symptoms, physical examination results, and/or laboratory test results related to the respiratory system. (NCI)", "preferredTerm": "", "submissionValue": "Body System", "synonyms": ["Respiratory System Finding"]}, {"conceptId": "C36283", "definition": "Symptoms, physical examination results, and/or laboratory test results related to the organs of special sense. (NCI)", "preferredTerm": "", "submissionValue": "Body System", "synonyms": ["Eye and Ear Finding"]}, {"conceptId": "C36286", "definition": "Symptoms, physical examination results, and/or laboratory test results related to the urinary system.", "preferredTerm": "", "submissionValue": "Body System", "synonyms": ["Urinary Tract Finding"]}]}, {"conceptId": "", "definition": "Terminology for the test codes concerned with the increase in overall body mass.", "extensible": "Yes", "name": "Body Weight Gain Test Code", "preferredTerm": "Body Weight Gain Test Code", "submissionValue": "Body Weight Gain Test Code", "synonyms": ["CDISC SEND Body Weight Gain Test Code Terminology"], "terms": [{"conceptId": "C62754", "definition": "A change in overall body weight, relative to the beginning of the collection period.", "preferredTerm": "Body Weight Gain", "submissionValue": "Body Weight Gain Test Code", "synonyms": ["Weight Gain"]}, {"conceptId": "C90363", "definition": "The mean value of the amount of weight change over a period of time, relative to the beginning of the collection period.", "preferredTerm": "Average Body Weight Gain", "submissionValue": "Body Weight Gain Test Code", "synonyms": ["Average Body Weight Gain"]}, {"conceptId": "C90434", "definition": "The amount of weight change over a period of time in relation to the total weight, relative to the beginning of the collection period.", "preferredTerm": "Percentage Body Weight Gain", "submissionValue": "Body Weight Gain Test Code", "synonyms": ["Percentage Body Weight Gain"]}]}, {"conceptId": "", "definition": "Terminology for the test names concerned with the increase in overall body mass.", "extensible": "Yes", "name": "Body Weight Gain Test Name", "preferredTerm": "Body Weight Gain Test Name", "submissionValue": "Body Weight Gain Test Name", "synonyms": ["CDISC SEND Body Weight Gain Test Name Terminology"], "terms": [{"conceptId": "C90363", "definition": "The mean value of the amount of weight change over a period of time, relative to the beginning of the collection period.", "preferredTerm": "Average Body Weight Gain", "submissionValue": "Body Weight Gain Test Name", "synonyms": ["Average Body Weight Gain"]}, {"conceptId": "C62754", "definition": "A change in overall body weight, relative to the beginning of the collection period.", "preferredTerm": "Body Weight Gain", "submissionValue": "Body Weight Gain Test Name", "synonyms": ["Weight Gain"]}, {"conceptId": "C90434", "definition": "The amount of weight change over a period of time in relation to the total weight, relative to the beginning of the collection period.", "preferredTerm": "Percentage Body Weight Gain", "submissionValue": "Body Weight Gain Test Name", "synonyms": ["Percentage Body Weight Gain"]}]}, {"conceptId": "", "definition": "Terminology for the test codes concerned with the measurement of body mass.", "extensible": "Yes", "name": "Body Weight Test Code", "preferredTerm": "Body Weight Test Code", "submissionValue": "Body Weight Test Code", "synonyms": ["CDISC SEND Body Weight Test Code Terminology"], "terms": [{"conceptId": "C81328", "definition": "The weight of a subject. (NCI)", "preferredTerm": "Body Weight", "submissionValue": "Body Weight Test Code", "synonyms": ["Body Weight"]}, {"conceptId": "C90464", "definition": "The weight of a subject at a specified end point. (NCI)", "preferredTerm": "Terminal Body Weight", "submissionValue": "Body Weight Test Code", "synonyms": ["Terminal Body Weight"]}]}, {"conceptId": "", "definition": "Terminology for the test names concerned with the measurement of body mass.", "extensible": "Yes", "name": "Body Weight Test Name", "preferredTerm": "Body Weight Test Name", "submissionValue": "Body Weight Test Name", "synonyms": ["CDISC SEND Body Weight Test Name Terminology"], "terms": [{"conceptId": "C81328", "definition": "The weight of a subject. (NCI)", "preferredTerm": "Body Weight", "submissionValue": "Body Weight Test Name", "synonyms": ["Body Weight"]}, {"conceptId": "C90464", "definition": "The weight of a subject at a specified end point. (NCI)", "preferredTerm": "Terminal Body Weight", "submissionValue": "Body Weight Test Name", "synonyms": ["Terminal Body Weight"]}]}, {"conceptId": "", "definition": "Terminology related to classifications that describe and group clinical observations.", "extensible": "Yes", "name": "Category for Clinical Observation", "preferredTerm": "Category for Clinical Observation", "submissionValue": "Category for Clinical Observation", "synonyms": ["CDISC SEND Category for Clinical Observation Terminology"], "terms": [{"conceptId": "C100104", "definition": "Objective evidence of disease perceptible to the examiner (sign) and subjective evidence of disease perceived by the subject (symptom).", "preferredTerm": "Clinical Signs", "submissionValue": "Category for Clinical Observation", "synonyms": ["Sign or Symptom"]}, {"conceptId": "C25478", "definition": "Of or relating to or located in the dermis. When used in the context of clinical observations, dermal may also include findings related to other components of the skin.", "preferredTerm": "Dermal", "submissionValue": "Category for Clinical Observation", "synonyms": ["Dermal"]}, {"conceptId": "C16939", "definition": "A medical specialty concerned with the structure and function of the eye and the medical and surgical treatment of its defects and diseases. (NCI)", "preferredTerm": "Ophthalmology", "submissionValue": "Category for Clinical Observation", "synonyms": ["Ophthalmology"]}, {"conceptId": "C20989", "definition": "A systemic evaluation of the body and its functions using visual inspection, palpation, percussion and auscultation. The purpose is to determine the presence or absence of physical signs of disease or abnormality for an individual's health assessment.", "preferredTerm": "Physical Exam", "submissionValue": "Category for Clinical Observation", "synonyms": ["Physical Examination"]}]}, {"conceptId": "", "definition": "Terminology related to the sense of awareness of self and of the environment.", "extensible": "Yes", "name": "Consciousness State", "preferredTerm": "Consciousness State", "submissionValue": "Consciousness State", "synonyms": ["CDISC SEND Consciousness State Terminology"], "terms": [{"conceptId": "C88434", "definition": "A level of awareness that can be described as being alert. (NCI)", "preferredTerm": "Conscious State", "submissionValue": "Consciousness State", "synonyms": ["Conscious State"]}, {"conceptId": "C78253", "definition": "A neurologic state characterized by decreased ability to perceive and respond. (NCI)", "preferredTerm": "Depressed Level of Consciousness", "submissionValue": "Consciousness State", "synonyms": ["Depressed Level Of Consciousness"]}, {"conceptId": "C88440", "definition": "A level of awareness that can be described as varied and intermittent periods of consciousness and unconsciousness.", "preferredTerm": "Semi-conscious State", "submissionValue": "Consciousness State", "synonyms": ["Semi-conscious"]}, {"conceptId": "C50635", "definition": "The neurologic status characterized by the occurrence of a loss of the ability to perceive and respond.", "preferredTerm": "Loss of Consciousness; Unconscious State", "submissionValue": "Consciousness State", "synonyms": ["Loss of Consciousness"]}, {"conceptId": "C90482", "definition": "The state of consciousness is not controlled. The possibility exists for having multiple conscious states over a period of time. (NCI)", "preferredTerm": "Unspecified State of Consciousness", "submissionValue": "Consciousness State", "synonyms": ["Unspecified State of Consciousness"]}]}, {"conceptId": "", "definition": "A collective generic term that refers here to a wide variety of dependencies, areas of special sovereignty, uninhabited islands, and other entities in addition to the traditional countries or independent states. (NCI)", "extensible": "No", "name": "Country", "preferredTerm": "Country", "submissionValue": "Country", "synonyms": ["CDISC SDTM Country Terminology"], "terms": [{"conceptId": "C17884", "definition": "Island in the Caribbean Sea, north of Venezuela. (NCI)", "preferredTerm": "ARUBA", "submissionValue": "Country", "synonyms": ["Aruba"]}, {"conceptId": "C16267", "definition": "A country in Southern Asia, north and west of Pakistan, east of Iran. (NCI)", "preferredTerm": "AFGHANISTAN", "submissionValue": "Country", "synonyms": ["Afghanistan"]}, {"conceptId": "C16292", "definition": "A country in Southern Africa, bordering the South Atlantic Ocean, between Namibia and Democratic Republic of the Congo. (NCI)", "preferredTerm": "ANGOLA", "submissionValue": "Country", "synonyms": ["Angola"]}, {"conceptId": "C20133", "definition": "An island in the Caribbean Sea, east of Puerto Rico. (NCI)", "preferredTerm": "ANGUILLA", "submissionValue": "Country", "synonyms": ["Anguilla"]}, {"conceptId": "C44481", "definition": "An archipelago in the Baltic Sea at the entrance to the Gulf of Bothnia between Sweden and Finland. (NCI)", "preferredTerm": "ALAND ISLANDS", "submissionValue": "Country", "synonyms": ["Aland Islands"]}, {"conceptId": "C16271", "definition": "A country in Southeastern Europe, bordering the Adriatic Sea and Ionian Sea, between Greece and Serbia and Montenegro. (NCI)", "preferredTerm": "ALBANIA", "submissionValue": "Country", "synonyms": ["Albania"]}, {"conceptId": "C16289", "definition": "A country in Southwestern Europe, between France and Spain. (NCI)", "preferredTerm": "ANDORRA", "submissionValue": "Country", "synonyms": ["Andorra"]}, {"conceptId": "C17232", "definition": "A country in the Middle East, bordering the Gulf of Oman and the Persian Gulf, between Oman and Saudi Arabia. (NCI)", "preferredTerm": "UNITED ARAB EMIRATES", "submissionValue": "Country", "synonyms": ["United Arab Emirates"]}, {"conceptId": "C16305", "definition": "A country in Southern South America, bordering the South Atlantic Ocean, between Chile and Uruguay. (NCI)", "preferredTerm": "ARGENTINA", "submissionValue": "Country", "synonyms": ["Argentina"]}, {"conceptId": "C16306", "definition": "A country in Southwestern Asia, east of Turkey. (NCI)", "preferredTerm": "ARMENIA", "submissionValue": "Country", "synonyms": ["Armenia"]}, {"conceptId": "C17739", "definition": "A group of islands in the South Pacific Ocean, about half way between Hawaii and New Zealand. (NCI)", "preferredTerm": "AMERICAN SAMOA", "submissionValue": "Country", "synonyms": ["American Samoa"]}, {"conceptId": "C18007", "definition": "The continent lying mostly south of the Antarctic Circle. (NCI)", "preferredTerm": "ANTARCTICA", "submissionValue": "Country", "synonyms": ["Antarctica"]}, {"conceptId": "C20105", "definition": "Islands in the southern Indian Ocean, south of Africa, about equidistant between Africa, Antarctica, and Australia. (NCI)", "preferredTerm": "FRENCH SOUTHERN TERRITORIES", "submissionValue": "Country", "synonyms": ["French Southern and Antarctic Lands"]}, {"conceptId": "C16303", "definition": "Islands between the Caribbean Sea and the North Atlantic Ocean, east-southeast of Puerto Rico. (NCI)", "preferredTerm": "ANTIGUA AND BARBUDA", "submissionValue": "Country", "synonyms": ["Antigua and Barbuda"]}, {"conceptId": "C16311", "definition": "The continent between the Indian Ocean and the South Pacific Ocean. (NCI)", "preferredTerm": "AUSTRALIA", "submissionValue": "Country", "synonyms": ["Australia"]}, {"conceptId": "C16312", "definition": "A country in Central Europe, north of Italy and Slovenia. (NCI)", "preferredTerm": "AUSTRIA", "submissionValue": "Country", "synonyms": ["Austria"]}, {"conceptId": "C16316", "definition": "A country in Southwestern Asia, bordering the Caspian Sea, between Iran and Russia. (NCI)", "preferredTerm": "AZERBAIJAN", "submissionValue": "Country", "synonyms": ["Azerbaijan"]}, {"conceptId": "C16371", "definition": "A country in Central Africa, east of Democratic Republic of the Congo. (NCI)", "preferredTerm": "BURUNDI", "submissionValue": "Country", "synonyms": ["Burundi"]}, {"conceptId": "C16329", "definition": "A country in Western Europe, bordering the North Sea, between France and the Netherlands. (NCI)", "preferredTerm": "BELGIUM", "submissionValue": "Country", "synonyms": ["Belgium"]}, {"conceptId": "C16333", "definition": "A country in Western Africa, bordering the North Atlantic Ocean, between Nigeria and Togo. (NCI)", "preferredTerm": "BENIN; BENIN REPUBLIC", "submissionValue": "Country", "synonyms": ["Benin"]}, {"conceptId": "C101224", "definition": "Three Caribbean islands that are part of the Lesser Antilles; Bonaire is east of Aruba and Curacao off the coast of Venezuela, Sint Eustatius and Saba are located south of Sint Maarten and northeast of Saint Kitts and Nevis. (NCI)", "preferredTerm": "BONAIRE, SINT EUSTATIUS AND SABA", "submissionValue": "Country", "synonyms": ["Bonaire, Sint Eustatius and Saba"]}, {"conceptId": "C16369", "definition": "A country in Western Africa, north of Ghana. (NCI)", "preferredTerm": "BURKINA FASO", "submissionValue": "Country", "synonyms": ["Burkina Faso"]}, {"conceptId": "C16323", "definition": "A country in Southern Asia, bordering the Bay of Bengal, between Burma and India. (NCI)", "preferredTerm": "BANGLADESH", "submissionValue": "Country", "synonyms": ["Bangladesh"]}, {"conceptId": "C16368", "definition": "A country in Southeastern Europe, bordering the Black Sea, between Romania and Turkey. (NCI)", "preferredTerm": "BULGARIA", "submissionValue": "Country", "synonyms": ["Bulgaria"]}, {"conceptId": "C16322", "definition": "An archipelago in the Persian Gulf, east of Saudi Arabia. (NCI)", "preferredTerm": "BAHRAIN", "submissionValue": "Country", "synonyms": ["Bahrain"]}, {"conceptId": "C16321", "definition": "A chain of islands in the North Atlantic Ocean, southeast of Florida. (NCI)", "preferredTerm": "BAHAMAS", "submissionValue": "Country", "synonyms": ["Bahamas"]}, {"conceptId": "C16361", "definition": "A country in Southeastern Europe, bordering the Adriatic Sea and Croatia. (NCI)", "preferredTerm": "BOSNIA AND HERZEGOVINA; BOSNIA-HERZEGOVINA", "submissionValue": "Country", "synonyms": ["Bosnia and Herzegovina"]}, {"conceptId": "C83609", "definition": "An island in the Caribbean sea, between Saint Martin and Saint Kitts and Nevis. (NCI)", "preferredTerm": "SAINT BARTHELEMY", "submissionValue": "Country", "synonyms": ["Saint Barthelemy"]}, {"conceptId": "C16372", "definition": "A country in Eastern Europe, east of Poland. (NCI)", "preferredTerm": "BELARUS", "submissionValue": "Country", "synonyms": ["Belarus"]}, {"conceptId": "C16331", "definition": "A country in Central America, bordering the Caribbean Sea, between Guatemala and Mexico. (NCI)", "preferredTerm": "BELIZE", "submissionValue": "Country", "synonyms": ["Belize"]}, {"conceptId": "C16334", "definition": "A group of islands in the North Atlantic Ocean, east of South Carolina. (NCI)", "preferredTerm": "BERMUDA", "submissionValue": "Country", "synonyms": ["Bermuda"]}, {"conceptId": "C16359", "definition": "A country in Central South America, southwest of Brazil. (NCI)", "preferredTerm": "BOLIVIA; BOLIVIA, PLURINATIONAL STATE OF", "submissionValue": "Country", "synonyms": ["Bolivia, Plurinational State of"]}, {"conceptId": "C16364", "definition": "A country in Eastern South America, bordering the Atlantic Ocean. (NCI)", "preferredTerm": "BRAZIL", "submissionValue": "Country", "synonyms": ["Brazil"]}, {"conceptId": "C16324", "definition": "An island between the Caribbean Sea and the North Atlantic Ocean, northeast of Venezuela. (NCI)", "preferredTerm": "BARBADOS", "submissionValue": "Country", "synonyms": ["Barbados"]}, {"conceptId": "C16367", "definition": "A country in Southeastern Asia, bordering the South China Sea and Malaysia. (NCI)", "preferredTerm": "BRUNEI; BRUNEI DARUSSALAM", "submissionValue": "Country", "synonyms": ["Brunei Darussalam"]}, {"conceptId": "C16336", "definition": "A country in Southern Asia, between China and India. (NCI)", "preferredTerm": "BHUTAN", "submissionValue": "Country", "synonyms": ["Bhutan"]}, {"conceptId": "C20104", "definition": "An island in the South Atlantic Ocean, south-southwest of the Cape of Good Hope (South Africa). (NCI)", "preferredTerm": "BOUVET ISLAND", "submissionValue": "Country", "synonyms": ["Bouvet Island"]}, {"conceptId": "C16363", "definition": "A country in Southern Africa, north of South Africa. (NCI)", "preferredTerm": "BOTSWANA", "submissionValue": "Country", "synonyms": ["Botswana"]}, {"conceptId": "C16409", "definition": "A country in Central Africa, north of Democratic Republic of the Congo. (NCI)", "preferredTerm": "CENTRAL AFRICAN REPUBLIC", "submissionValue": "Country", "synonyms": ["Central African Republic"]}, {"conceptId": "C16380", "definition": "A country in Northern North America, bordering the North Atlantic Ocean on the east, North Pacific Ocean on the west, and the Arctic Ocean on the north, north of the conterminous US. (NCI)", "preferredTerm": "CANADA", "submissionValue": "Country", "synonyms": ["Canada"]}, {"conceptId": "C16445", "definition": "A group of islands in the Indian Ocean, south of Indonesia, about halfway from Australia to Sri Lanka. (NCI)", "preferredTerm": "COCOS (KEELING) ISLANDS", "submissionValue": "Country", "synonyms": ["Cocos (Keeling) Islands"]}, {"conceptId": "C17181", "definition": "A country in Central Europe, east of France, north of Italy. (NCI)", "preferredTerm": "SWITZERLAND", "submissionValue": "Country", "synonyms": ["Switzerland"]}, {"conceptId": "C16427", "definition": "A country in Southern South America, bordering the South Atlantic Ocean and South Pacific Ocean, between Argentina and Peru. (NCI)", "preferredTerm": "CHILE", "submissionValue": "Country", "synonyms": ["Chile"]}, {"conceptId": "C16428", "definition": "A country in Eastern Asia, bordering the East China Sea, Korea Bay, Yellow Sea, and South China Sea, between North Korea and Vietnam. (NCI)", "preferredTerm": "CHINA", "submissionValue": "Country", "synonyms": ["China"]}, {"conceptId": "C16762", "definition": "A country in Western Africa, bordering the North Atlantic Ocean, between Ghana and Liberia. (NCI)", "preferredTerm": "COTE D'IVOIRE", "submissionValue": "Country", "synonyms": ["Cote d'Ivoire"]}, {"conceptId": "C16379", "definition": "A country in Western Africa, bordering the Bight of Biafra, between Equatorial Guinea and Nigeria. (NCI)", "preferredTerm": "CAMEROON", "submissionValue": "Country", "synonyms": ["Cameroon"]}, {"conceptId": "C17266", "definition": "A country in Central Africa, northeast of Angola. (NCI)", "preferredTerm": "CONGO, THE DEMOCRATIC REPUBLIC OF; DEMOCRATIC REPUBLIC OF THE CONGO", "submissionValue": "Country", "synonyms": ["Congo, the Democratic Republic of the"]}, {"conceptId": "C16467", "definition": "A country in Western Africa, bordering the South Atlantic Ocean, between Angola and Gabon. (NCI)", "preferredTerm": "CONGO", "submissionValue": "Country", "synonyms": ["Congo"]}, {"conceptId": "C16469", "definition": "A group of islands in the South Pacific Ocean, about one-half of the way from Hawaii to New Zealand. (NCI)", "preferredTerm": "COOK ISLANDS", "submissionValue": "Country", "synonyms": ["Cook Islands"]}, {"conceptId": "C16449", "definition": "A country in Northern South America, bordering the Caribbean Sea, between Panama and Venezuela, and bordering the North Pacific Ocean, between Ecuador and Panama. (NCI)", "preferredTerm": "COLOMBIA", "submissionValue": "Country", "synonyms": ["Colombia"]}, {"conceptId": "C16458", "definition": "A group of islands in the Mozambique Channel, about two-thirds of the way between northern Madagascar and northern Mozambique. (NCI)", "preferredTerm": "COMOROS", "submissionValue": "Country", "synonyms": ["Comoros"]}, {"conceptId": "C16382", "definition": "A group of islands in the North Atlantic Ocean, west of Senegal. (NCI)", "preferredTerm": "CAPE VERDE", "submissionValue": "Country", "synonyms": ["Cape Verde"]}, {"conceptId": "C16470", "definition": "A country in Central America, bordering both the Caribbean Sea and the North Pacific Ocean, between Nicaragua and Panama. (NCI)", "preferredTerm": "COSTA RICA", "submissionValue": "Country", "synonyms": ["Costa Rica"]}, {"conceptId": "C16477", "definition": "An island between the Caribbean Sea and the North Atlantic Ocean, 150 km south of Key West, Florida. (NCI)", "preferredTerm": "CUBA", "submissionValue": "Country", "synonyms": ["Cuba"]}, {"conceptId": "C101225", "definition": "An island nation located in the Caribbean Sea off the coast of Venezuela. (NCI)", "preferredTerm": "CURACAO", "submissionValue": "Country", "synonyms": ["Curacao"]}, {"conceptId": "C44482", "definition": "An Australian-administered island in the eastern Indian Ocean south of Java, Indonesia. (NCI)", "preferredTerm": "CHRISTMAS ISLAND", "submissionValue": "Country", "synonyms": ["Christmas Island"]}, {"conceptId": "C16391", "definition": "An island group in the Caribbean Sea, nearly one-half of the way from Cuba to Honduras. (NCI)", "preferredTerm": "CAYMAN ISLANDS", "submissionValue": "Country", "synonyms": ["Cayman Islands"]}, {"conceptId": "C16480", "definition": "An island in the Mediterranean Sea, south of Turkey. (NCI)", "preferredTerm": "CYPRUS", "submissionValue": "Country", "synonyms": ["Cyprus"]}, {"conceptId": "C17668", "definition": "A country in Central Europe, southeast of Germany. (NCI)", "preferredTerm": "CZECH REPUBLIC", "submissionValue": "Country", "synonyms": ["Czech Republic"]}, {"conceptId": "C16636", "definition": "A country in Central Europe, bordering the Baltic Sea and the North Sea, between the Netherlands and Poland, south of Denmark. (NCI)", "preferredTerm": "GERMANY", "submissionValue": "Country", "synonyms": ["Germany"]}, {"conceptId": "C16506", "definition": "A country in Eastern Africa, bordering the Gulf of Aden and the Red Sea, between Eritrea and Somalia. (NCI)", "preferredTerm": "DJIBOUTI", "submissionValue": "Country", "synonyms": ["Djibouti"]}, {"conceptId": "C16519", "definition": "An island between the Caribbean Sea and the North Atlantic Ocean, about one-half of the way from Puerto Rico to Trinidad and Tobago. (NCI)", "preferredTerm": "DOMINICA", "submissionValue": "Country", "synonyms": ["Dominica"]}, {"conceptId": "C16496", "definition": "A country in Northern Europe, bordering the Baltic Sea and the North Sea, on a peninsula north of Germany (Jutland); also includes two major islands (Sjaelland and Fyn). (NCI)", "preferredTerm": "DENMARK", "submissionValue": "Country", "synonyms": ["Denmark"]}, {"conceptId": "C16520", "definition": "A country comprising the eastern two-thirds of the island of Hispaniola, between the Caribbean Sea and the North Atlantic Ocean, east of Haiti. (NCI)", "preferredTerm": "DOMINICAN REPUBLIC", "submissionValue": "Country", "synonyms": ["Dominican Republic"]}, {"conceptId": "C16274", "definition": "A country in Northern Africa, bordering the Mediterranean Sea, between Morocco and Tunisia. (NCI)", "preferredTerm": "ALGERIA", "submissionValue": "Country", "synonyms": ["Algeria"]}, {"conceptId": "C16528", "definition": "A country in Western South America, bordering the Pacific Ocean at the Equator, between Colombia and Peru. (NCI)", "preferredTerm": "ECUADOR", "submissionValue": "Country", "synonyms": ["Ecuador"]}, {"conceptId": "C16530", "definition": "A country in Northern Africa, bordering the Mediterranean Sea, between Libya and the Gaza Strip. (NCI)", "preferredTerm": "EGYPT", "submissionValue": "Country", "synonyms": ["Egypt"]}, {"conceptId": "C16558", "definition": "A country in Eastern Africa, bordering the Red Sea, between Djibouti and Sudan. (NCI)", "preferredTerm": "ERITREA", "submissionValue": "Country", "synonyms": ["Eritrea"]}, {"conceptId": "C20113", "definition": "A country in Northern Africa, bordering the North Atlantic Ocean, between Mauritania and Morocco. (NCI)", "preferredTerm": "WESTERN SAHARA", "submissionValue": "Country", "synonyms": ["Western Sahara"]}, {"conceptId": "C17152", "definition": "A country in Southwestern Europe, bordering the Bay of Biscay, Mediterranean Sea, North Atlantic Ocean, and Pyrenees Mountains, southwest of France. (NCI)", "preferredTerm": "SPAIN", "submissionValue": "Country", "synonyms": ["Spain"]}, {"conceptId": "C16562", "definition": "A country in Eastern Europe, bordering the Baltic Sea and Gulf of Finland, between Latvia and Russia. (NCI)", "preferredTerm": "ESTONIA", "submissionValue": "Country", "synonyms": ["Estonia"]}, {"conceptId": "C16563", "definition": "A country in Eastern Africa, west of Somalia. (NCI)", "preferredTerm": "ETHIOPIA", "submissionValue": "Country", "synonyms": ["Ethiopia"]}, {"conceptId": "C16584", "definition": "A country in Northern Europe, bordering the Baltic Sea, Gulf of Bothnia, and Gulf of Finland, between Sweden and Russia. (NCI)", "preferredTerm": "FINLAND", "submissionValue": "Country", "synonyms": ["Finland"]}, {"conceptId": "C16582", "definition": "An island group in the South Pacific Ocean, about two-thirds of the way from Hawaii to New Zealand. (NCI)", "preferredTerm": "FIJI", "submissionValue": "Country", "synonyms": ["Fiji"]}, {"conceptId": "C17954", "definition": "Islands in the South Atlantic Ocean, east of southern Argentina. (NCI)", "preferredTerm": "FALKLAND ISLANDS; FALKLAND ISLANDS (MALVINAS)", "submissionValue": "Country", "synonyms": ["Falkland Islands (Malvinas)"]}, {"conceptId": "C16592", "definition": "A country in Western Europe, bordering the Bay of Biscay and English Channel, between Belgium and Spain, southeast of the UK; bordering the Mediterranean Sea, between Italy and Spain. (NCI)", "preferredTerm": "FRANCE", "submissionValue": "Country", "synonyms": ["France"]}, {"conceptId": "C16573", "definition": "An island group between the Norwegian Sea and the North Atlantic Ocean, about one-half of the way from Iceland to Norway. (NCI)", "preferredTerm": "FAROE ISLANDS", "submissionValue": "Country", "synonyms": ["Faroe Islands"]}, {"conceptId": "C17881", "definition": "An island group in the North Pacific Ocean, about three-quarters of the way from Hawaii to Indonesia. (NCI)", "preferredTerm": "MICRONESIA, FEDERATED STATES OF", "submissionValue": "Country", "synonyms": ["Micronesia, Federated States of"]}, {"conceptId": "C16596", "definition": "A country in Western Africa, bordering the Atlantic Ocean at the Equator, between Republic of the Congo and Equatorial Guinea. (NCI)", "preferredTerm": "GABON", "submissionValue": "Country", "synonyms": ["Gabon"]}, {"conceptId": "C17233", "definition": "A country in Western Europe, comprising islands, including the northern one-sixth of the island of Ireland, between the North Atlantic Ocean and the North Sea, northwest of France. (NCI)", "preferredTerm": "UNITED KINGDOM", "submissionValue": "Country", "synonyms": ["United Kingdom"]}, {"conceptId": "C16634", "definition": "A country in Southwestern Asia, bordering the Black Sea, between Turkey and Russia. (NCI)", "preferredTerm": "GEORGIA", "submissionValue": "Country", "synonyms": ["Georgia (Republic)"]}, {"conceptId": "C64375", "definition": "The island of Guernsey and the other Channel Islands represent the last remnants of the medieval Dukedom of Normandy, which held sway in both France and England. Guernsey is a British crown dependency, but is not part of the UK. (NCI)", "preferredTerm": "GUERNSEY", "submissionValue": "Country", "synonyms": ["Guernsey"]}, {"conceptId": "C26330", "definition": "A country in Western Africa, bordering the Gulf of Guinea, between Cote d'Ivoire and Togo. (NCI)", "preferredTerm": "GHANA", "submissionValue": "Country", "synonyms": ["Ghana"]}, {"conceptId": "C16638", "definition": "A dependency in Southwestern Europe, bordering the Strait of Gibraltar, on the southern coast of Spain. (NCI)", "preferredTerm": "GIBRALTAR", "submissionValue": "Country", "synonyms": ["Gibraltar"]}, {"conceptId": "C16655", "definition": "A country in Western Africa, bordering the North Atlantic Ocean, between Guinea-Bissau and Sierra Leone. (NCI)", "preferredTerm": "GUINEA", "submissionValue": "Country", "synonyms": ["Guinea"]}, {"conceptId": "C16651", "definition": "Islands in the eastern Caribbean Sea, southeast of Puerto Rico. (NCI)", "preferredTerm": "GUADELOUPE", "submissionValue": "Country", "synonyms": ["Guadeloupe"]}, {"conceptId": "C16598", "definition": "A country in Western Africa, bordering the North Atlantic Ocean and Senegal. (NCI)", "preferredTerm": "GAMBIA", "submissionValue": "Country", "synonyms": ["The Gambia"]}, {"conceptId": "C16656", "definition": "A country in Western Africa, bordering the North Atlantic Ocean, between Guinea and Senegal. (NCI)", "preferredTerm": "GUINEA-BISSAU", "submissionValue": "Country", "synonyms": ["Guinea-Bissau"]}, {"conceptId": "C16557", "definition": "A country in Western Africa, bordering the Bight of Biafra, between Cameroon and Gabon; composed of a mainland portion and five inhabited islands. (NCI)", "preferredTerm": "EQUATORIAL GUINEA", "submissionValue": "Country", "synonyms": ["Equatorial Guinea"]}, {"conceptId": "C16645", "definition": "A country in Southern Europe, bordering the Aegean Sea, Ionian Sea, and the Mediterranean Sea, between Albania and Turkey. (NCI)", "preferredTerm": "GREECE", "submissionValue": "Country", "synonyms": ["Greece"]}, {"conceptId": "C16647", "definition": "An island between the Caribbean Sea and Atlantic Ocean, north of Trinidad and Tobago. (NCI)", "preferredTerm": "GRENADA", "submissionValue": "Country", "synonyms": ["Grenada"]}, {"conceptId": "C16646", "definition": "An island between the Arctic Ocean and the North Atlantic Ocean, northeast of Canada. (NCI)", "preferredTerm": "GREENLAND", "submissionValue": "Country", "synonyms": ["Greenland"]}, {"conceptId": "C16654", "definition": "A country in Central America, bordering the Caribbean Sea, between Honduras and Belize and bordering the North Pacific Ocean, between El Salvador and Mexico. (NCI)", "preferredTerm": "GUATEMALA", "submissionValue": "Country", "synonyms": ["Guatemala"]}, {"conceptId": "C16593", "definition": "A country in Northern South America, bordering the North Atlantic Ocean, between Brazil and Suriname. (NCI)", "preferredTerm": "FRENCH GUIANA", "submissionValue": "Country", "synonyms": ["French Guiana"]}, {"conceptId": "C16652", "definition": "Island in the North Pacific Ocean, about three-quarters of the way from Hawaii to the Philippines. (NCI)", "preferredTerm": "GUAM", "submissionValue": "Country", "synonyms": ["Guam"]}, {"conceptId": "C16657", "definition": "A country in Northern South America, bordering the North Atlantic Ocean, between Suriname and Venezuela. (NCI)", "preferredTerm": "GUYANA", "submissionValue": "Country", "synonyms": ["Guyana"]}, {"conceptId": "C16695", "definition": "A special administrative region of China, bordering the South China Sea and China. (NCI)", "preferredTerm": "HONG KONG", "submissionValue": "Country", "synonyms": ["Hong Kong"]}, {"conceptId": "C20106", "definition": "Islands in the Indian Ocean, about two-thirds of the way from Madagascar to Antarctica. (NCI)", "preferredTerm": "HEARD ISLAND AND MCDONALD ISLANDS", "submissionValue": "Country", "synonyms": ["Heard Island and McDonald Islands"]}, {"conceptId": "C16694", "definition": "A country in Central America, bordering the Caribbean Sea, between Guatemala and Nicaragua and bordering the North Pacific Ocean, between El Salvador and Nicaragua. (NCI)", "preferredTerm": "HONDURAS", "submissionValue": "Country", "synonyms": ["Honduras"]}, {"conceptId": "C16474", "definition": "A country in Southeastern Europe, bordering the Adriatic Sea, between Bosnia and Herzegovina and Slovenia. (NCI)", "preferredTerm": "CROATIA", "submissionValue": "Country", "synonyms": ["Croatia"]}, {"conceptId": "C16660", "definition": "A country comprising the western one-third of the island of Hispaniola, between the Caribbean Sea and the North Atlantic Ocean, west of the Dominican Republic. (NCI)", "preferredTerm": "HAITI", "submissionValue": "Country", "synonyms": ["Haiti"]}, {"conceptId": "C16699", "definition": "A country in Central Europe, northwest of Romania. (NCI)", "preferredTerm": "HUNGARY", "submissionValue": "Country", "synonyms": ["Hungary"]}, {"conceptId": "C16728", "definition": "A country in Southeastern Asia, comprising the archipelago between the Indian Ocean and the Pacific Ocean. (NCI)", "preferredTerm": "INDONESIA", "submissionValue": "Country", "synonyms": ["Indonesia"]}, {"conceptId": "C44480", "definition": "An island in the Irish Sea, between Great Britain and Ireland. (NCI)", "preferredTerm": "ISLE OF MAN", "submissionValue": "Country", "synonyms": ["Isle of Man"]}, {"conceptId": "C16727", "definition": "A country in Southern Asia, bordering the Arabian Sea and the Bay of Bengal, between Burma and Pakistan. (NCI)", "preferredTerm": "INDIA", "submissionValue": "Country", "synonyms": ["India"]}, {"conceptId": "C16365", "definition": "An archipelago in the Indian Ocean, about one-half the way from Africa to Indonesia. (NCI)", "preferredTerm": "BRITISH INDIAN OCEAN TERRITORY", "submissionValue": "Country", "synonyms": ["British Indian Ocean Territory"]}, {"conceptId": "C16757", "definition": "A country in Western Europe, occupying five-sixths of the island of Ireland in the North Atlantic Ocean, west of Great Britain. (NCI)", "preferredTerm": "IRELAND", "submissionValue": "Country", "synonyms": ["Ireland"]}, {"conceptId": "C16755", "definition": "A country in the Middle East, bordering the Gulf of Oman, the Persian Gulf, and the Caspian Sea, between Iraq and Pakistan. (NCI)", "preferredTerm": "IRAN", "submissionValue": "Country", "synonyms": ["Iran, Islamic Republic of"]}, {"conceptId": "C16756", "definition": "A country in the Middle East, bordering the Persian Gulf, between Iran and Kuwait. (NCI)", "preferredTerm": "IRAQ", "submissionValue": "Country", "synonyms": ["Iraq"]}, {"conceptId": "C16704", "definition": "A country in Northern Europe, island between the Greenland Sea and the North Atlantic Ocean, northwest of the UK. (NCI)", "preferredTerm": "ICELAND", "submissionValue": "Country", "synonyms": ["Iceland"]}, {"conceptId": "C16760", "definition": "A country in the Middle East, bordering the Mediterranean Sea, between Egypt and Lebanon. (NCI)", "preferredTerm": "ISRAEL", "submissionValue": "Country", "synonyms": ["Israel"]}, {"conceptId": "C16761", "definition": "A country in Southern Europe, occupying a peninsula extending into the central Mediterranean Sea, northeast of Tunisia. (NCI)", "preferredTerm": "ITALY", "submissionValue": "Country", "synonyms": ["Italy"]}, {"conceptId": "C16763", "definition": "An island in the Caribbean Sea, south of Cuba. (NCI)", "preferredTerm": "JAMAICA", "submissionValue": "Country", "synonyms": ["Jamaica"]}, {"conceptId": "C64374", "definition": "Jersey and the other Channel Islands represent the last remnants of the medieval Dukedom of Normandy that held sway in both France and England. Jersey is a British crown dependency, but is not part of the UK. (NCI)", "preferredTerm": "JERSEY", "submissionValue": "Country", "synonyms": ["Jersey"]}, {"conceptId": "C16765", "definition": "A country in the Middle East, northwest of Saudi Arabia. (NCI)", "preferredTerm": "JORDAN", "submissionValue": "Country", "synonyms": ["Jordan"]}, {"conceptId": "C16764", "definition": "A country in Eastern Asia, occupying an island chain between the North Pacific Ocean and the Sea of Japan, east of the Korean Peninsula. (NCI)", "preferredTerm": "JAPAN", "submissionValue": "Country", "synonyms": ["Japan"]}, {"conceptId": "C20107", "definition": "A country in Central Asia, northwest of China. (NCI)", "preferredTerm": "KAZAKHSTAN", "submissionValue": "Country", "synonyms": ["Kazakhstan"]}, {"conceptId": "C16769", "definition": "A country in Eastern Africa, bordering the Indian Ocean, between Somalia and Tanzania. (NCI)", "preferredTerm": "KENYA", "submissionValue": "Country", "synonyms": ["Kenya"]}, {"conceptId": "C16771", "definition": "A country in Central Asia, west of China. (NCI)", "preferredTerm": "KYRGYZSTAN", "submissionValue": "Country", "synonyms": ["Kyrgyzstan"]}, {"conceptId": "C16378", "definition": "A country in Southeastern Asia, bordering the Gulf of Thailand, between Thailand, Vietnam, and Laos. (NCI)", "preferredTerm": "CAMBODIA", "submissionValue": "Country", "synonyms": ["Cambodia"]}, {"conceptId": "C16639", "definition": "A group of 33 coral atolls in the Pacific Ocean, straddling the equator; the capital Tarawa is about one-half of the way from Hawaii to Australia. (NCI)", "preferredTerm": "KIRIBATI", "submissionValue": "Country", "synonyms": ["Kiribati"]}, {"conceptId": "C17885", "definition": "Islands in the Caribbean Sea, about one-third of the way from Puerto Rico to Trinidad and Tobago. (NCI)", "preferredTerm": "SAINT KITTS AND NEVIS", "submissionValue": "Country", "synonyms": ["Saint Kitts and Nevis"]}, {"conceptId": "C16774", "definition": "A country in Eastern Asia, occupying the southern half of the Korean Peninsula, bordering the Sea of Japan and the Yellow Sea. (NCI)", "preferredTerm": "KOREA, REPUBLIC OF; SOUTH KOREA", "submissionValue": "Country", "synonyms": ["Korea, Republic of"]}, {"conceptId": "C16775", "definition": "A country in the Middle East, bordering the Persian Gulf, between Iraq and Saudi Arabia. (NCI)", "preferredTerm": "KUWAIT", "submissionValue": "Country", "synonyms": ["Kuwait"]}, {"conceptId": "C16780", "definition": "A country in Southeastern Asia, northeast of Thailand, west of Vietnam. (NCI)", "preferredTerm": "LAO PEOPLE'S DEMOCRATIC REPUBLIC", "submissionValue": "Country", "synonyms": ["Lao People's Democratic Republic"]}, {"conceptId": "C16784", "definition": "A country in the Middle East, bordering the Mediterranean Sea, between Israel and Syria. (NCI)", "preferredTerm": "LEBANON", "submissionValue": "Country", "synonyms": ["Lebanon"]}, {"conceptId": "C16791", "definition": "A country in Western Africa, bordering the North Atlantic Ocean, between Cote d'Ivoire and Sierra Leone. (NCI)", "preferredTerm": "LIBERIA", "submissionValue": "Country", "synonyms": ["Liberia"]}, {"conceptId": "C16793", "definition": "A country in Northern Africa, bordering the Mediterranean Sea, between Egypt and Tunisia. (NCI)", "preferredTerm": "LIBYA", "submissionValue": "Country", "synonyms": ["Libya"]}, {"conceptId": "C17113", "definition": "A country in the Caribbean, occupying an island between the Caribbean Sea and North Atlantic Ocean, north of Trinidad and Tobago. (NCI)", "preferredTerm": "SAINT LUCIA", "submissionValue": "Country", "synonyms": ["Saint Lucia"]}, {"conceptId": "C16794", "definition": "A country in Central Europe, between Austria and Switzerland. (NCI)", "preferredTerm": "LIECHTENSTEIN", "submissionValue": "Country", "synonyms": ["Liechtenstein"]}, {"conceptId": "C17163", "definition": "A country in Southern Asia, occupying an island in the Indian Ocean, south of India. (NCI)", "preferredTerm": "SRI LANKA", "submissionValue": "Country", "synonyms": ["Sri Lanka"]}, {"conceptId": "C16787", "definition": "A country in Southern Africa, an enclave of South Africa. (NCI)", "preferredTerm": "LESOTHO", "submissionValue": "Country", "synonyms": ["Lesotho"]}, {"conceptId": "C16799", "definition": "A country in Eastern Europe, bordering the Baltic Sea, between Latvia and Russia. (NCI)", "preferredTerm": "LITHUANIA", "submissionValue": "Country", "synonyms": ["Lithuania"]}, {"conceptId": "C16803", "definition": "A country in Western Europe, between France, Belgium, and Germany. (NCI)", "preferredTerm": "LUXEMBOURG", "submissionValue": "Country", "synonyms": ["Luxembourg"]}, {"conceptId": "C16783", "definition": "A country in Eastern Europe, bordering the Baltic Sea, between Estonia and Lithuania. (NCI)", "preferredTerm": "LATVIA", "submissionValue": "Country", "synonyms": ["Latvia"]}, {"conceptId": "C16807", "definition": "A country in Eastern Asia, bordering the South China Sea and China. (NCI)", "preferredTerm": "MACAO", "submissionValue": "Country", "synonyms": ["Macau"]}, {"conceptId": "C83610", "definition": "An island in the Caribbean sea, between Anguilla and Saint Barthelemy. (NCI)", "preferredTerm": "SAINT MARTIN (FRENCH PART); SAINT MARTIN, FRENCH", "submissionValue": "Country", "synonyms": ["Saint Martin (French Part)"]}, {"conceptId": "C16878", "definition": "A country in Northern Africa, bordering the North Atlantic Ocean and the Mediterranean Sea, between Algeria and Western Sahara. (NCI)", "preferredTerm": "MOROCCO", "submissionValue": "Country", "synonyms": ["Morocco"]}, {"conceptId": "C16874", "definition": "A country in Western Europe, bordering the Mediterranean Sea on the southern coast of France, near the border with Italy. (NCI)", "preferredTerm": "MONACO", "submissionValue": "Country", "synonyms": ["Monaco"]}, {"conceptId": "C16871", "definition": "A country in Eastern Europe, northeast of Romania. (NCI)", "preferredTerm": "MOLDOVA, REPUBLIC OF", "submissionValue": "Country", "synonyms": ["Moldova, Republic of"]}, {"conceptId": "C16808", "definition": "A country in Southern Africa, occupying an island in the Indian Ocean, east of Mozambique. (NCI)", "preferredTerm": "MADAGASCAR", "submissionValue": "Country", "synonyms": ["Madagascar"]}, {"conceptId": "C16815", "definition": "A country in Southern Asia, occupying a group of atolls in the Indian Ocean, south-southwest of India. (NCI)", "preferredTerm": "MALDIVES", "submissionValue": "Country", "synonyms": ["Maldives"]}, {"conceptId": "C16850", "definition": "A country in Central America, bordering the Caribbean Sea and the Gulf of Mexico, between Belize and the US and bordering the North Pacific Ocean, between Guatemala and the US. (NCI)", "preferredTerm": "MEXICO", "submissionValue": "Country", "synonyms": ["Mexico"]}, {"conceptId": "C16822", "definition": "A group of atolls and reefs in the North Pacific Ocean, about one-half of the way from Hawaii to Australia. (NCI)", "preferredTerm": "MARSHALL ISLANDS", "submissionValue": "Country", "synonyms": ["Marshall Islands"]}, {"conceptId": "C17654", "definition": "A country in Southeastern Europe, north of Greece. (NCI)", "preferredTerm": "MACEDONIA, THE FORMER YUGOSLAV REPUBLIC OF; REPUBLIC OF MACEDONIA", "submissionValue": "Country", "synonyms": ["Macedonia, the Former Yugoslav Republic of"]}, {"conceptId": "C16816", "definition": "A country in Western Africa, southwest of Algeria. (NCI)", "preferredTerm": "MALI", "submissionValue": "Country", "synonyms": ["Mali"]}, {"conceptId": "C16817", "definition": "A country in Southern Europe, occupying islands in the Mediterranean Sea, south of Sicily (Italy). (NCI)", "preferredTerm": "MALTA", "submissionValue": "Country", "synonyms": ["Malta"]}, {"conceptId": "C16370", "definition": "A country in Southeastern Asia, bordering the Andaman Sea and the Bay of Bengal, between Bangladesh and Thailand. (NCI)", "preferredTerm": "MYANMAR", "submissionValue": "Country", "synonyms": ["Myanmar"]}, {"conceptId": "C64378", "definition": "A republic in Southeastern Europe, bordering the Adriatic Sea, between Albania and Bosnia and Herzegovina. Formerly part of Serbia and Montenegro (Federation Republic of Yugoslavia). (NCI)", "preferredTerm": "MONTENEGRO", "submissionValue": "Country", "synonyms": ["Montenegro"]}, {"conceptId": "C16875", "definition": "A country in Northern Asia, between China and Russia. (NCI)", "preferredTerm": "MONGOLIA", "submissionValue": "Country", "synonyms": ["Mongolia"]}, {"conceptId": "C17882", "definition": "A country in the Pacific, comprising islands in the North Pacific Ocean, about three-quarters of the way from Hawaii to the Philippines. (NCI)", "preferredTerm": "NORTHERN MARIANA ISLANDS", "submissionValue": "Country", "synonyms": ["Northern Mariana Islands"]}, {"conceptId": "C16882", "definition": "A country in Southern Africa, bordering the Mozambique Channel, between South Africa and Tanzania. (NCI)", "preferredTerm": "MOZAMBIQUE", "submissionValue": "Country", "synonyms": ["Mozambique"]}, {"conceptId": "C16826", "definition": "A country in Northern Africa, bordering the North Atlantic Ocean, between Senegal and Western Sahara. (NCI)", "preferredTerm": "MAURITANIA", "submissionValue": "Country", "synonyms": ["Mauritania"]}, {"conceptId": "C16876", "definition": "A country in the Caribbean, occupying an island in the Caribbean Sea, southeast of Puerto Rico. (NCI)", "preferredTerm": "MONTSERRAT", "submissionValue": "Country", "synonyms": ["Montserrat"]}, {"conceptId": "C16823", "definition": "An island in the Caribbean Sea, north of Trinidad and Tobago. (NCI)", "preferredTerm": "MARTINIQUE", "submissionValue": "Country", "synonyms": ["Martinique"]}, {"conceptId": "C16827", "definition": "A country in Southern Africa, occupying an island in the Indian Ocean, east of Madagascar. (NCI)", "preferredTerm": "MAURITIUS", "submissionValue": "Country", "synonyms": ["Mauritius"]}, {"conceptId": "C16813", "definition": "A country in Southern Africa, east of Zambia. (NCI)", "preferredTerm": "MALAWI", "submissionValue": "Country", "synonyms": ["Malawi"]}, {"conceptId": "C16814", "definition": "A country in Southeastern Asia, occupying a peninsula and the northern one-third of the island of Borneo, bordering Indonesia and the South China Sea, south of Vietnam. (NCI)", "preferredTerm": "MALAYSIA", "submissionValue": "Country", "synonyms": ["Malaysia"]}, {"conceptId": "C16828", "definition": "A country in Southern Africa, occupying an island in the Mozambique Channel, about one-half of the way from northern Madagascar to northern Mozambique. (NCI)", "preferredTerm": "MAYOTTE", "submissionValue": "Country", "synonyms": ["Mayotte"]}, {"conceptId": "C16891", "definition": "A country in Southern Africa, bordering the South Atlantic Ocean, between Angola and South Africa. (NCI)", "preferredTerm": "NAMIBIA", "submissionValue": "Country", "synonyms": ["Namibia"]}, {"conceptId": "C16913", "definition": "A country in the Pacific, comprised of islands in the South Pacific Ocean, east of Australia. (NCI)", "preferredTerm": "NEW CALEDONIA", "submissionValue": "Country", "synonyms": ["New Caledonia"]}, {"conceptId": "C16916", "definition": "A country in Western Africa, southeast of Algeria. (NCI)", "preferredTerm": "NIGER", "submissionValue": "Country", "synonyms": ["Niger"]}, {"conceptId": "C16919", "definition": "A country in the Pacific, occupying an island in the South Pacific Ocean, east of Australia. (NCI)", "preferredTerm": "NORFOLK ISLAND", "submissionValue": "Country", "synonyms": ["Norfolk Island"]}, {"conceptId": "C16917", "definition": "A country in Western Africa, bordering the Gulf of Guinea, between Benin and Cameroon. (NCI)", "preferredTerm": "NIGERIA", "submissionValue": "Country", "synonyms": ["Nigeria"]}, {"conceptId": "C16915", "definition": "A country in Central America, bordering both the Caribbean Sea and the North Pacific Ocean, between Costa Rica and Honduras. (NCI)", "preferredTerm": "NICARAGUA", "submissionValue": "Country", "synonyms": ["Nicaragua"]}, {"conceptId": "C16918", "definition": "A country in the Pacific, occupying an island in the South Pacific Ocean, east of Tonga. (NCI)", "preferredTerm": "NIUE", "submissionValue": "Country", "synonyms": ["Niue"]}, {"conceptId": "C16903", "definition": "A country in Western Europe, bordering the North Sea, between Belgium and Germany. (NCI)", "preferredTerm": "NETHERLANDS", "submissionValue": "Country", "synonyms": ["Netherlands"]}, {"conceptId": "C16920", "definition": "A country in Northern Europe, bordering the North Sea and the North Atlantic Ocean, west of Sweden. (NCI)", "preferredTerm": "NORWAY", "submissionValue": "Country", "synonyms": ["Norway"]}, {"conceptId": "C16901", "definition": "A country in Southern Asia, between China and India. (NCI)", "preferredTerm": "NEPAL", "submissionValue": "Country", "synonyms": ["Nepal"]}, {"conceptId": "C16896", "definition": "A country in Oceania, occupying an island in the South Pacific Ocean, south of the Marshall Islands. (NCI)", "preferredTerm": "NAURU", "submissionValue": "Country", "synonyms": ["Nauru"]}, {"conceptId": "C16914", "definition": "A country in the Pacific, comprised of islands in the South Pacific Ocean, southeast of Australia. (NCI)", "preferredTerm": "NEW ZEALAND", "submissionValue": "Country", "synonyms": ["New Zealand"]}, {"conceptId": "C16933", "definition": "A country in the Middle East, bordering the Arabian Sea, Gulf of Oman, and Persian Gulf, between Yemen and the United Arab Emirates. (NCI)", "preferredTerm": "OMAN", "submissionValue": "Country", "synonyms": ["Oman"]}, {"conceptId": "C16949", "definition": "A country in Southern Asia, bordering the Arabian Sea, between India on the east and Iran and Afghanistan on the west and China in the north. (NCI)", "preferredTerm": "PAKISTAN", "submissionValue": "Country", "synonyms": ["Pakistan"]}, {"conceptId": "C16951", "definition": "A country in Central America, bordering both the Caribbean Sea and the North Pacific Ocean, between Colombia and Costa Rica. (NCI)", "preferredTerm": "PANAMA", "submissionValue": "Country", "synonyms": ["Panama"]}, {"conceptId": "C16993", "definition": "A country in the Pacific, comprised of islands in the South Pacific Ocean, about midway between Peru and New Zealand. (NCI)", "preferredTerm": "PITCAIRN", "submissionValue": "Country", "synonyms": ["Pitcairn"]}, {"conceptId": "C16972", "definition": "A country in Western South America, bordering the South Pacific Ocean, between Chile and Ecuador. (NCI)", "preferredTerm": "PERU", "submissionValue": "Country", "synonyms": ["Peru"]}, {"conceptId": "C16978", "definition": "A country in Southeastern Asia, comprised of an archipelago between the Philippine Sea and the South China Sea, east of Vietnam. (NCI)", "preferredTerm": "PHILIPPINES", "submissionValue": "Country", "synonyms": ["Philippines"]}, {"conceptId": "C17733", "definition": "A country in the Pacific, comprising a group of islands in the North Pacific Ocean, southeast of the Philippines. (NCI)", "preferredTerm": "PALAU", "submissionValue": "Country", "synonyms": ["Palau"]}, {"conceptId": "C16952", "definition": "A country in Southeastern Asia, comprising a group of islands and including the eastern half of the island of New Guinea, between the Coral Sea and the South Pacific Ocean, east of Indonesia. (NCI)", "preferredTerm": "PAPUA NEW GUINEA", "submissionValue": "Country", "synonyms": ["Papua New Guinea"]}, {"conceptId": "C17002", "definition": "A country in Central Europe, east of Germany. (NCI)", "preferredTerm": "POLAND", "submissionValue": "Country", "synonyms": ["Poland"]}, {"conceptId": "C17043", "definition": "An island between the Caribbean Sea and the North Atlantic Ocean, east of the Dominican Republic. (NCI)", "preferredTerm": "PUERTO RICO", "submissionValue": "Country", "synonyms": ["Puerto Rico"]}, {"conceptId": "C16773", "definition": "A country in Eastern Asia, occupying the northern half of the Korean Peninsula, bordering the Korea Bay and the Sea of Japan, between China and South Korea. (NCI)", "preferredTerm": "KOREA, DEMOCRATIC PEOPLE'S REPUBLIC OF; NORTH KOREA", "submissionValue": "Country", "synonyms": ["Korea, Democratic People's Republic of"]}, {"conceptId": "C17006", "definition": "A country in Southwestern Europe, bordering the North Atlantic Ocean, west of Spain. (NCI)", "preferredTerm": "PORTUGAL", "submissionValue": "Country", "synonyms": ["Portugal"]}, {"conceptId": "C16953", "definition": "A country in Central South America, northeast of Argentina. (NCI)", "preferredTerm": "PARAGUAY", "submissionValue": "Country", "synonyms": ["Paraguay"]}, {"conceptId": "C20110", "definition": "A collective name for the West Bank and the Gaza Strip, two territories in Palestine. (NCI)", "preferredTerm": "PALESTINIAN TERRITORY, OCCUPIED", "submissionValue": "Country", "synonyms": ["Palestinian Territory, Occupied"]}, {"conceptId": "C16594", "definition": "An archipelago in the South Pacific Ocean, about one-half of the way from South America to Australia. (NCI)", "preferredTerm": "FRENCH POLYNESIA", "submissionValue": "Country", "synonyms": ["French Polynesia"]}, {"conceptId": "C17045", "definition": "A country in the Middle East, occupying a peninsula bordering the Persian Gulf and Saudi Arabia. (NCI)", "preferredTerm": "QATAR", "submissionValue": "Country", "synonyms": ["Qatar"]}, {"conceptId": "C17095", "definition": "A country in Southern Africa, occupying an island in the Indian Ocean, east of Madagascar. (NCI)", "preferredTerm": "REUNION", "submissionValue": "Country", "synonyms": ["Reunion"]}, {"conceptId": "C17108", "definition": "A country in Southeastern Europe, bordering the Black Sea, between Bulgaria and Ukraine. (NCI)", "preferredTerm": "ROMANIA", "submissionValue": "Country", "synonyms": ["Romania"]}, {"conceptId": "C17111", "definition": "A country in Northern Asia (that part west of the Urals is sometimes included with Europe), bordering the Arctic Ocean, between Europe and the North Pacific Ocean. (NCI)", "preferredTerm": "RUSSIAN FEDERATION", "submissionValue": "Country", "synonyms": ["Russian Federation"]}, {"conceptId": "C17112", "definition": "A country in Central Africa, east of Democratic Republic of the Congo. (NCI)", "preferredTerm": "RWANDA", "submissionValue": "Country", "synonyms": ["Rwanda"]}, {"conceptId": "C17117", "definition": "A country in the Middle East, bordering the Persian Gulf and the Red Sea, north of Yemen. (NCI)", "preferredTerm": "SAUDI ARABIA", "submissionValue": "Country", "synonyms": ["Saudi Arabia"]}, {"conceptId": "C17170", "definition": "A country in Northern Africa, bordering the Red Sea, between Egypt and Eritrea. (NCI)", "preferredTerm": "SUDAN", "submissionValue": "Country", "synonyms": ["Sudan"]}, {"conceptId": "C17121", "definition": "A country in Western Africa, bordering the North Atlantic Ocean, between Guinea-Bissau and Mauritania. (NCI)", "preferredTerm": "SENEGAL", "submissionValue": "Country", "synonyms": ["Senegal"]}, {"conceptId": "C17134", "definition": "A country in Southeastern Asia, comprised of islands between Malaysia and Indonesia. (NCI)", "preferredTerm": "SINGAPORE", "submissionValue": "Country", "synonyms": ["Singapore"]}, {"conceptId": "C20111", "definition": "A group of islands in the South Atlantic Ocean, east of the tip of South America. (NCI)", "preferredTerm": "SOUTH GEORGIA AND THE SOUTH SANDWICH ISLANDS", "submissionValue": "Country", "synonyms": ["South Georgia and the South Sandwich Islands"]}, {"conceptId": "C17164", "definition": "Islands in the South Atlantic Ocean, about midway between South America and Africa. (NCI)", "preferredTerm": "SAINT HELENA; SAINT HELENA, ASCENSION AND TRISTAN DA CUNHA", "submissionValue": "Country", "synonyms": ["Saint Helena, Ascension and Tristan da Cunha"]}, {"conceptId": "C17178", "definition": "Islands between the Arctic Ocean, Barents Sea, Greenland Sea, and Norwegian Sea, northeast of Iceland and north of Norway. (NCI)", "preferredTerm": "SVALBARD AND JAN MAYEN", "submissionValue": "Country", "synonyms": ["Svalbard and Jan Mayen"]}, {"conceptId": "C17148", "definition": "A group of islands in the South Pacific Ocean, east of Papua New Guinea. (NCI)", "preferredTerm": "SOLOMON ISLANDS", "submissionValue": "Country", "synonyms": ["Solomon Islands"]}, {"conceptId": "C17130", "definition": "A country in Western Africa, bordering the North Atlantic Ocean, between Guinea and Liberia. (NCI)", "preferredTerm": "SIERRA LEONE", "submissionValue": "Country", "synonyms": ["Sierra Leone"]}, {"conceptId": "C16532", "definition": "A country in Central America, bordering the North Pacific Ocean, between Guatemala and Honduras. (NCI)", "preferredTerm": "EL SALVADOR", "submissionValue": "Country", "synonyms": ["El Salvador"]}, {"conceptId": "C17115", "definition": "A country in Southern Europe, an enclave in central Italy. (NCI)", "preferredTerm": "SAN MARINO", "submissionValue": "Country", "synonyms": ["San Marino"]}, {"conceptId": "C17149", "definition": "A country in Eastern Africa, bordering the Gulf of Aden and the Indian Ocean, east of Ethiopia. (NCI)", "preferredTerm": "SOMALIA", "submissionValue": "Country", "synonyms": ["Somalia"]}, {"conceptId": "C17165", "definition": "A country in Northern North America, comprised of islands in the North Atlantic Ocean, south of Newfoundland (Canada). (NCI)", "preferredTerm": "SAINT PIERRE AND MIQUELON", "submissionValue": "Country", "synonyms": ["Saint Pierre and Miquelon"]}, {"conceptId": "C64377", "definition": "A republic in Southeastern Europe, bordering the Adriatic Sea, between Albania and Bosnia and Herzegovina. Formerly part of Serbia and Montenegro (Federation Republic of Yugoslavia). (NCI)", "preferredTerm": "SERBIA", "submissionValue": "Country", "synonyms": ["Serbia"]}, {"conceptId": "C97351", "definition": "A northeastern African country located in the Sahel region and bordered by Sudan in the north, Uganda and Kenya in the south and Ethiopia in the west. (NCI)", "preferredTerm": "SOUTH SUDAN", "submissionValue": "Country", "synonyms": ["South Sudan"]}, {"conceptId": "C17116", "definition": "A country in Western Africa, comprised of islands in the Gulf of Guinea, straddling the Equator, west of Gabon. (NCI)", "preferredTerm": "SAO TOME AND PRINCIPE", "submissionValue": "Country", "synonyms": ["Sao Tome and Principe"]}, {"conceptId": "C17175", "definition": "A country in Northern South America, bordering the North Atlantic Ocean, between French Guiana and Guyana. (NCI)", "preferredTerm": "SURINAME", "submissionValue": "Country", "synonyms": ["Suriname"]}, {"conceptId": "C17669", "definition": "A country in Central Europe, south of Poland. (NCI)", "preferredTerm": "SLOVAKIA", "submissionValue": "Country", "synonyms": ["Slovakia"]}, {"conceptId": "C17138", "definition": "A country in Central Europe, bordering the Adriatic Sea, between Austria and Croatia. (NCI)", "preferredTerm": "SLOVENIA", "submissionValue": "Country", "synonyms": ["Slovenia"]}, {"conceptId": "C17180", "definition": "A country in Northern Europe, bordering the Baltic Sea, Gulf of Bothnia, Kattegat, and Skagerrak, between Finland and Norway. (NCI)", "preferredTerm": "SWEDEN", "submissionValue": "Country", "synonyms": ["Sweden"]}, {"conceptId": "C17179", "definition": "A country in Southern Africa, between Mozambique and South Africa. (NCI)", "preferredTerm": "SWAZILAND", "submissionValue": "Country", "synonyms": ["Swaziland"]}, {"conceptId": "C101226", "definition": "The southern portion of an island in the Caribbean sea, between Anguilla and Saint Barthelemy. (NCI)", "preferredTerm": "SINT MAARTEN (DUTCH PART); SINT MAARTEN (DUTCH)", "submissionValue": "Country", "synonyms": ["Sint Maarten (Dutch Part)"]}, {"conceptId": "C17129", "definition": "A country in Eastern Africa, comprised of a group of islands in the Indian Ocean, northeast of Madagascar. (NCI)", "preferredTerm": "SEYCHELLES", "submissionValue": "Country", "synonyms": ["Seychelles"]}, {"conceptId": "C17182", "definition": "A country in the Middle East, bordering the Mediterranean Sea, between Lebanon and Turkey. (NCI)", "preferredTerm": "SYRIAN ARAB REPUBLIC", "submissionValue": "Country", "synonyms": ["Syrian Arab Republic"]}, {"conceptId": "C17224", "definition": "Two island groups in the North Atlantic Ocean, southeast of The Bahamas. (NCI)", "preferredTerm": "TURKS AND CAICOS ISLANDS", "submissionValue": "Country", "synonyms": ["Turks and Caicos Islands"]}, {"conceptId": "C16412", "definition": "A country in Central Africa, south of Libya. (NCI)", "preferredTerm": "CHAD", "submissionValue": "Country", "synonyms": ["Chad"]}, {"conceptId": "C17202", "definition": "A country in Western Africa, bordering the Bight of Benin, between Benin and Ghana. (NCI)", "preferredTerm": "TOGO", "submissionValue": "Country", "synonyms": ["Togo"]}, {"conceptId": "C17192", "definition": "A country in Southeastern Asia, bordering the Andaman Sea and the Gulf of Thailand, southeast of Burma. (NCI)", "preferredTerm": "THAILAND", "submissionValue": "Country", "synonyms": ["Thailand"]}, {"conceptId": "C17183", "definition": "A country in Central Asia, west of China. (NCI)", "preferredTerm": "TAJIKISTAN", "submissionValue": "Country", "synonyms": ["Tajikistan"]}, {"conceptId": "C17704", "definition": "A group of three atolls in the South Pacific Ocean, about one-half of the way from Hawaii to New Zealand. (NCI)", "preferredTerm": "TOKELAU", "submissionValue": "Country", "synonyms": ["Tokelau"]}, {"conceptId": "C17223", "definition": "A country in Central Asia, bordering the Caspian Sea, between Iran and Kazakhstan. (NCI)", "preferredTerm": "TURKMENISTAN", "submissionValue": "Country", "synonyms": ["Turkmenistan"]}, {"conceptId": "C17200", "definition": "A country in Southeastern Asia, northwest of Australia in the Lesser Sunda Islands at the eastern end of the Indonesian archipelago. East Timor includes the eastern half of the island of Timor, the Oecussi (Ambeno) region on the northwest portion of the island of Timor, and the islands of Pulau Atauro and Pulau Jaco. (NCI)", "preferredTerm": "TIMOR-LESTE", "submissionValue": "Country", "synonyms": ["Timor-Leste"]}, {"conceptId": "C17205", "definition": "An archipelago in the South Pacific Ocean, about two-thirds of the way from Hawaii to New Zealand. (NCI)", "preferredTerm": "TONGA", "submissionValue": "Country", "synonyms": ["Tonga"]}, {"conceptId": "C17217", "definition": "Islands between the Caribbean Sea and the North Atlantic Ocean, northeast of Venezuela. (NCI)", "preferredTerm": "TRINIDAD AND TOBAGO", "submissionValue": "Country", "synonyms": ["Trinidad and Tobago"]}, {"conceptId": "C17221", "definition": "A country in Northern Africa, bordering the Mediterranean Sea, between Algeria and Libya. (NCI)", "preferredTerm": "TUNISIA", "submissionValue": "Country", "synonyms": ["Tunisia"]}, {"conceptId": "C17222", "definition": "A country in southeastern Europe and southwestern Asia (that portion of Turkey west of the Bosporus is geographically part of Europe), bordering the Black Sea, between Bulgaria and Georgia, and bordering the Aegean Sea and the Mediterranean Sea, between Greece and Syria. (NCI)", "preferredTerm": "TURKEY", "submissionValue": "Country", "synonyms": ["Turkey"]}, {"conceptId": "C17225", "definition": "An island group consisting of nine coral atolls in the South Pacific Ocean, about one-half of the way from Hawaii to Australia. (NCI)", "preferredTerm": "TUVALU", "submissionValue": "Country", "synonyms": ["Tuvalu"]}, {"conceptId": "C17184", "definition": "A group of islands bordering the East China Sea, Philippine Sea, South China Sea, and Taiwan Strait, north of the Philippines, off the southeastern coast of China. (NCI)", "preferredTerm": "TAIWAN", "submissionValue": "Country", "synonyms": ["Taiwan, Province of China"]}, {"conceptId": "C17185", "definition": "A country in Eastern Africa, bordering the Indian Ocean, between Kenya and Mozambique. (NCI)", "preferredTerm": "TANZANIA, UNITED REPUBLIC OF", "submissionValue": "Country", "synonyms": ["Tanzania, United Republic of"]}, {"conceptId": "C17228", "definition": "A country in Eastern Africa, west of Kenya. (NCI)", "preferredTerm": "UGANDA", "submissionValue": "Country", "synonyms": ["Uganda"]}, {"conceptId": "C17229", "definition": "A country in Eastern Europe, bordering the Black Sea, between Poland and Russia. (NCI)", "preferredTerm": "UKRAINE", "submissionValue": "Country", "synonyms": ["Ukraine"]}, {"conceptId": "C20112", "definition": "The U.S. Minor Outlying Islands consist of Baker Island, Howland Island, Jarvis Island, Johnston Atoll, Kingman Reef, Midway Island, Navassa Island, Palmyra Atoll, and Wake Island (Wake Atoll). (NCI)", "preferredTerm": "UNITED STATES MINOR OUTLYING ISLANDS", "submissionValue": "Country", "synonyms": ["United States Minor Outlying Islands"]}, {"conceptId": "C17244", "definition": "A country in Southern South America, bordering the South Atlantic Ocean, between Argentina and Brazil. (NCI)", "preferredTerm": "URUGUAY", "submissionValue": "Country", "synonyms": ["Uruguay"]}, {"conceptId": "C17234", "definition": "A country in North America, bordering both the North Atlantic Ocean and the North Pacific Ocean, between Canada and Mexico. (NCI)", "preferredTerm": "UNITED STATES", "submissionValue": "Country", "synonyms": ["United States"]}, {"conceptId": "C17246", "definition": "A country in Central Asia, north of Afghanistan. (NCI)", "preferredTerm": "UZBEKISTAN", "submissionValue": "Country", "synonyms": ["Uzbekistan"]}, {"conceptId": "C17249", "definition": "An enclave of Rome (Italy). (NCI)", "preferredTerm": "VATICAN CITY STATE", "submissionValue": "Country", "synonyms": ["Holy See (Vatican City State)"]}, {"conceptId": "C17114", "definition": "A country in the Caribbean, comprised of islands in the Caribbean Sea, north of Trinidad and Tobago. (NCI)", "preferredTerm": "SAINT VINCENT AND THE GRENADINES", "submissionValue": "Country", "synonyms": ["Saint Vincent and the Grenadines"]}, {"conceptId": "C17250", "definition": "A country in Northern South America, bordering the Caribbean Sea and the North Atlantic Ocean, between Colombia and Guyana. (NCI)", "preferredTerm": "VENEZUELA; VENEZUELA, BOLIVARIAN REPUBLIC OF", "submissionValue": "Country", "synonyms": ["Venezuela, Bolivian Republic of"]}, {"conceptId": "C17653", "definition": "Islands between the Caribbean Sea and the North Atlantic Ocean, east of Puerto Rico. (NCI)", "preferredTerm": "VIRGIN ISLANDS, BRITISH", "submissionValue": "Country", "synonyms": ["Virgin Islands, British"]}, {"conceptId": "C17255", "definition": "Islands between the Caribbean Sea and the North Atlantic Ocean, east of Puerto Rico. (NCI)", "preferredTerm": "VIRGIN ISLANDS, U.S.", "submissionValue": "Country", "synonyms": ["Virgin Islands, U.S."]}, {"conceptId": "C17252", "definition": "A country in Southeastern Asia, bordering the Gulf of Thailand, Gulf of Tonkin, and South China Sea, alongside China, Laos, and Cambodia. (NCI)", "preferredTerm": "VIET NAM; VIETNAM", "submissionValue": "Country", "synonyms": ["Viet Nam"]}, {"conceptId": "C17247", "definition": "A group of islands in the South Pacific Ocean, about three-quarters of the way from Hawaii to Australia. (NCI)", "preferredTerm": "VANUATU", "submissionValue": "Country", "synonyms": ["Vanuatu"]}, {"conceptId": "C17259", "definition": "Islands in the South Pacific Ocean, about two-thirds of the way from Hawaii to New Zealand. (NCI)", "preferredTerm": "WALLIS AND FUTUNA", "submissionValue": "Country", "synonyms": ["Wallis and Futuna"]}, {"conceptId": "C17740", "definition": "A group of islands in the South Pacific Ocean, about one-half of the way from Hawaii to New Zealand. (NCI)", "preferredTerm": "SAMOA", "submissionValue": "Country", "synonyms": ["Samoa"]}, {"conceptId": "C17264", "definition": "A country in the Middle East, bordering the Arabian Sea, Gulf of Aden, and Red Sea, between Oman and Saudi Arabia. (NCI)", "preferredTerm": "YEMEN", "submissionValue": "Country", "synonyms": ["Yemen"]}, {"conceptId": "C17151", "definition": "A country in Southern Africa, at the southern tip of the continent of Africa. (NCI)", "preferredTerm": "SOUTH AFRICA", "submissionValue": "Country", "synonyms": ["South Africa"]}, {"conceptId": "C17267", "definition": "A country in Southern Africa, east of Angola. (NCI)", "preferredTerm": "ZAMBIA", "submissionValue": "Country", "synonyms": ["Zambia"]}, {"conceptId": "C17268", "definition": "A country in Southern Africa, between South Africa and Zambia. (NCI)", "preferredTerm": "ZIMBABWE", "submissionValue": "Country", "synonyms": ["Zimbabwe"]}]}, {"conceptId": "", "definition": "Terminology for the test codes concerned with the circumstance or condition that results in the death of a living being.", "extensible": "No", "name": "Death Diagnosis Test Code", "preferredTerm": "Death Diagnosis Test Code", "submissionValue": "Death Diagnosis Test Code", "synonyms": ["CDISC SEND Death Diagnosis Test Code Terminology"], "terms": [{"conceptId": "C81239", "definition": "The circumstance or condition that results in the death of a living being. (NCI)", "preferredTerm": "Death Diagnosis", "submissionValue": "Death Diagnosis Test Code", "synonyms": ["Cause of Death"]}]}, {"conceptId": "", "definition": "Terminology for the test names concerned with the circumstance or condition that results in the death of a living being.", "extensible": "No", "name": "Death Diagnosis Test Name", "preferredTerm": "Death Diagnosis Test Name", "submissionValue": "Death Diagnosis Test Name", "synonyms": ["CDISC SEND Death Diagnosis Test Name Terminology"], "terms": [{"conceptId": "C81239", "definition": "The circumstance or condition that results in the death of a living being. (NCI)", "preferredTerm": "Death Diagnosis", "submissionValue": "Death Diagnosis Test Name", "synonyms": ["Cause of Death"]}]}, {"conceptId": "", "definition": "CDISC terminology for anatomical location or specimen further detailing directionality.", "extensible": "Yes", "name": "Directionality", "preferredTerm": "Directionality", "submissionValue": "Directionality", "synonyms": ["CDISC SDTM Directionality Terminology"], "terms": [{"conceptId": "C25231", "definition": "Denoting the front portion of the body or a structure.", "preferredTerm": "", "submissionValue": "Directionality", "synonyms": ["Anterior"]}, {"conceptId": "C25423", "definition": "Relating to or located at the apex.", "preferredTerm": "", "submissionValue": "Directionality", "synonyms": ["Apical"]}, {"conceptId": "C90067", "definition": "Relating to or located at the lowest portion of a structure.", "preferredTerm": "", "submissionValue": "Directionality", "synonyms": ["Basal"]}, {"conceptId": "C73851", "definition": "Toward the tail in a body.", "preferredTerm": "", "submissionValue": "Directionality", "synonyms": ["Caudal"]}, {"conceptId": "C25445", "definition": "A point or area that is approximately central within some larger region or structure. (NCI)", "preferredTerm": "", "submissionValue": "Directionality", "synonyms": ["Center"]}, {"conceptId": "C37936", "definition": "Toward the head in a body.", "preferredTerm": "", "submissionValue": "Directionality", "synonyms": ["Cranial"]}, {"conceptId": "C25240", "definition": "Extending relatively far inward. (NCI)", "preferredTerm": "", "submissionValue": "Directionality", "synonyms": ["Deep"]}, {"conceptId": "C25237", "definition": "Situated farthest from a point of reference.", "preferredTerm": "", "submissionValue": "Directionality", "synonyms": ["Distal"]}, {"conceptId": "C45874", "definition": "Pertaining to the back or upper surface of the body.", "preferredTerm": "", "submissionValue": "Directionality", "synonyms": ["Dorsal"]}, {"conceptId": "C90376", "definition": "Toward the back and side of a body.", "preferredTerm": "", "submissionValue": "Directionality", "synonyms": ["Dorsolateral"]}, {"conceptId": "C90386", "definition": "Of or involving the front of a main body. (NCI)", "preferredTerm": "", "submissionValue": "Directionality", "synonyms": ["Fore"]}, {"conceptId": "C90393", "definition": "Of or involving the back of a main body. (NCI)", "preferredTerm": "", "submissionValue": "Directionality", "synonyms": ["Hind"]}, {"conceptId": "C25353", "definition": "Pertaining to a point below a given reference point.", "preferredTerm": "", "submissionValue": "Directionality", "synonyms": ["Inferior"]}, {"conceptId": "C37980", "definition": "Inside or closer to the inside of the body or object. (NCI)", "preferredTerm": "", "submissionValue": "Directionality", "synonyms": ["Inner"]}, {"conceptId": "C73705", "definition": "Located between two points or extremes.", "preferredTerm": "", "submissionValue": "Directionality", "synonyms": ["Intermediate"]}, {"conceptId": "C25309", "definition": "The bottom one of two. (NCI)", "preferredTerm": "", "submissionValue": "Directionality", "synonyms": ["Lower"]}, {"conceptId": "C25232", "definition": "Toward the middle or in a limb toward the median plane.", "preferredTerm": "", "submissionValue": "Directionality", "synonyms": ["Medial"]}, {"conceptId": "C81170", "definition": "A medial line, especially the medial line or medial plane of the body (or some part of the body).", "preferredTerm": "", "submissionValue": "Directionality", "synonyms": ["Midline"]}, {"conceptId": "C38166", "definition": "Being on or toward the outside of the body or object. (NCI)", "preferredTerm": "", "submissionValue": "Directionality", "synonyms": ["Outer"]}, {"conceptId": "C25233", "definition": "On or near an edge or constituting an outer boundary; the outer area. (NCI)", "preferredTerm": "", "submissionValue": "Directionality", "synonyms": ["Peripheral"]}, {"conceptId": "C25622", "definition": "Denoting the back portion of the body or a structure.", "preferredTerm": "", "submissionValue": "Directionality", "synonyms": ["Posterior"]}, {"conceptId": "C25236", "definition": "Situated nearest to a point of reference.", "preferredTerm": "", "submissionValue": "Directionality", "synonyms": ["Proximal"]}, {"conceptId": "C94393", "definition": "Toward the muzzle in the head.", "preferredTerm": "", "submissionValue": "Directionality", "synonyms": ["Rostral"]}, {"conceptId": "C25239", "definition": "Of or pertaining to the exterior surface. (NCI)", "preferredTerm": "", "submissionValue": "Directionality", "synonyms": ["Superficial"]}, {"conceptId": "C25235", "definition": "Pertaining to a point above a given reference point.", "preferredTerm": "", "submissionValue": "Directionality", "synonyms": ["Superior"]}, {"conceptId": "C25245", "definition": "The extended two-dimensional outer layer or area of a three-dimensional object. (NCI)", "preferredTerm": "", "submissionValue": "Directionality", "synonyms": ["Surface"]}, {"conceptId": "C90069", "definition": "The pointed end of a structure.", "preferredTerm": "", "submissionValue": "Directionality", "synonyms": ["Tip"]}, {"conceptId": "C25355", "definition": "The top one of two.", "preferredTerm": "", "submissionValue": "Directionality", "synonyms": ["Upper"]}, {"conceptId": "C45875", "definition": "Pertaining to the front or lower surface of the body.", "preferredTerm": "", "submissionValue": "Directionality", "synonyms": ["Ventral"]}, {"conceptId": "C98798", "definition": "Of or pertaining to the front and side of a main body. (NCI)", "preferredTerm": "", "submissionValue": "Directionality", "synonyms": ["Ventrolateral"]}]}, {"conceptId": "", "definition": "Terminology related to electrocardiogram lead names.", "extensible": "Yes", "name": "ECG Lead", "preferredTerm": "ECG Lead", "submissionValue": "ECG Lead", "synonyms": ["CDISC SDTM Electrocardiogram Lead Terminology"], "terms": [{"conceptId": "C90403", "definition": "An augmented unipolar lead placed at the sixth intercostal space on the midaxillary line. (NCI)", "preferredTerm": "", "submissionValue": "ECG Lead", "synonyms": ["Lead Site aV6"]}, {"conceptId": "C90360", "definition": "An augmented unipolar electrocardiogram limb lead in which the positive (red) electrode is situated on the left pelvic limb and the negative electrode is a combination of the right thoracic limb (white) electrode and the left thoracic limb (black) electrode. Measures the electrical activity of the electrode on the left pelvic limb.", "preferredTerm": "", "submissionValue": "ECG Lead", "synonyms": ["Augmented Vector Foot"]}, {"conceptId": "C90361", "definition": "An augmented unipolar electrocardiogram limb lead in which the positive (black) electrode is situated on the left thoracic limb and the negative electrode is a combination of the right thoracic limb (white) electrode and the left pelvic limb (red) electrode. Measures the electrical activity of the electrode on the left thoracic limb. (NCI)", "preferredTerm": "", "submissionValue": "ECG Lead", "synonyms": ["Augmented Vector Left"]}, {"conceptId": "C90362", "definition": "An augmented unipolar electrocardiogram limb lead in which the positive (white) electrode is situated on the right thoracic limb and the negative electrode is a combination of the left thoracic limb (black) electrode and the left pelvic limb (red) electrode. Measures the electrical activity of the electrode on the right thoracic limb. (NCI)", "preferredTerm": "", "submissionValue": "ECG Lead", "synonyms": ["Augmented Vector Right"]}, {"conceptId": "C90404", "definition": "A bipolar EKG lead with the right thoracic limb electrode placed on the manubrium and left thoracic limb electrode placed at the surface marking of the V5 position (just above the 5th interspace in the anterior axillary line). The left pelvic limb lead acts as a neutral and may be placed anywhere. The C refers to 'clavicle' where it is often placed. (NCI)", "preferredTerm": "", "submissionValue": "ECG Lead", "synonyms": ["Lead Site CM5"]}, {"conceptId": "C90405", "definition": "A unipolar chest lead used mostly in large animals. Placed on the sixth ICS on the right side of the thorax along a line parallel to the level of the point of the humeralradial joint.", "preferredTerm": "", "submissionValue": "ECG Lead", "synonyms": ["Lead Site CV5RL"]}, {"conceptId": "C90406", "definition": "V1 electrode (+) placed in the 6th intercostal space on the left side of the thorax along a line parallel to the level of the point of the humeralradial joint.", "preferredTerm": "", "submissionValue": "ECG Lead", "synonyms": ["Lead Site CV6LL"]}, {"conceptId": "C90407", "definition": "V2 electrode (+) placed in the 6th intercostal space on the left side of the thorax along a line parallel to the level of the point of the shoulder. (NCI)", "preferredTerm": "", "submissionValue": "ECG Lead", "synonyms": ["Lead Site CV6LU"]}, {"conceptId": "C90408", "definition": "A bipolar electrocardiogram limb lead which records the voltage between the negative electrode on the right thoracic limb and the positive electrode on the left thoracic limb. (NCI)", "preferredTerm": "", "submissionValue": "ECG Lead", "synonyms": ["Lead Site I"]}, {"conceptId": "C90409", "definition": "A bipolar electrocardiogram limb lead which records the voltage between the negative electrode on the right thoracic limb and the positive electrode on the left pelvic limb. (NCI)", "preferredTerm": "", "submissionValue": "ECG Lead", "synonyms": ["Lead Site II"]}, {"conceptId": "C90410", "definition": "A bipolar electrocardiogram limb lead which records the voltage between the negative electrode on the left thoracic limb and the positive electrode on the left pelvic limb. (NCI)", "preferredTerm": "", "submissionValue": "ECG Lead", "synonyms": ["Lead Site III"]}, {"conceptId": "C90411", "definition": "A unipolar precordial lead placed at the second intercostal space to the left of the sternum. (NCI)", "preferredTerm": "", "submissionValue": "ECG Lead", "synonyms": ["Lead Site rV2"]}, {"conceptId": "C90412", "definition": "A unipolar electrocardiogram lead site; the electrode is placed at the fourth intercostal space on the anterior chest wall (between ribs 4 and 5) to the right of the sternal border. In small animals, it is placed at the right fifth intercostal space near the sternum. (NCI)", "preferredTerm": "", "submissionValue": "ECG Lead", "synonyms": ["Lead Site V1"]}, {"conceptId": "C90413", "definition": "A unipolar chest lead at which the electrode is placed over the dorsal spinous process of 7th thoracic vertebra. (NCI)", "preferredTerm": "", "submissionValue": "ECG Lead", "synonyms": ["Lead Site V10"]}, {"conceptId": "C90414", "definition": "A unipolar electrocardiogram lead site; the electrode is placed on the anterior chest wall at the fourth intercostal space (between ribs 4 and 5) to the left of the sternal border. In small animals it corresponds to V2-V3 where it is placed at the 6th left intercostal space near the sternum. In large animals it is placed over the 6th rib at the level of the costochondral junction on the left side of the thorax.", "preferredTerm": "", "submissionValue": "ECG Lead", "synonyms": ["Lead Site V2"]}, {"conceptId": "C90415", "definition": "A unipolar electrocardiogram lead site; the electrode is placed on the anterior chest wall midway between leads V2 and V4. In large and small animals, it is placed over the dorsal spinous process of the 7th thoracic vertebra. (NCI)", "preferredTerm": "", "submissionValue": "ECG Lead", "synonyms": ["Lead Site V3"]}, {"conceptId": "C90416", "definition": "A unipolar electrocardiogram lead site; the electrode is placed at the fifth intercostal space on the anterior chest wall (between ribs 5 and 6) at the left midclavicular line. In small animals it corresponds to V4-V6 where it is placed at the 6th left intercostal space near the costochondral junction. In large animals it is placed over the 6th rib at the level of a horizontal line drawn through the scapulohumeral articulation on the left side of the thorax. (NCI)", "preferredTerm": "", "submissionValue": "ECG Lead", "synonyms": ["Lead Site V4"]}, {"conceptId": "C90417", "definition": "A unipolar electrocardiogram lead site; the electrode is placed on the anterior chest wall level with lead V4 at the left anterior axillary line. In large animals it is placed on the sixth ICS on the right side of the thorax along a line parallel to the level of the point of the shoulder corresponding to the electrical center of the heart (central terminal). (NCI)", "preferredTerm": "", "submissionValue": "ECG Lead", "synonyms": ["Lead Site V5"]}, {"conceptId": "C90418", "definition": "A unipolar electrocardiogram lead site at which the electrode is placed on the anterior chest wall level with lead V5 at the left midaxillary line .", "preferredTerm": "", "submissionValue": "ECG Lead", "synonyms": ["Lead Site V6"]}]}, {"conceptId": "", "definition": "Terminology codelist used with ECG Findings and Abnormalities within CDISC.", "extensible": "Yes", "name": "ECG Result", "preferredTerm": "ECG Result", "submissionValue": "ECG Result", "synonyms": ["CDISC SDTM ECG Finding Terminology"], "terms": [{"conceptId": "C111088", "definition": "An electrocardiographic finding of prolonged PR interval for a specific population. For adults one common threshold is a PR interval greater than 0.20 seconds. Note that other thresholds may be applicable.", "preferredTerm": "1st degree AV block; PR Prolongation; Prolonged PR interval", "submissionValue": "ECG Result", "synonyms": ["AV Block First Degree by ECG Finding"]}, {"conceptId": "C71044", "definition": "An electrocardiographic finding of a supraventricular rhythm where the ratio of impulses generated above the atrioventricular node to the number of impulses conducted through to the ventricles is 2:1. This is manifest on the ECG as 2 P waves per QRS complex.", "preferredTerm": "2:1 AV block", "submissionValue": "ECG Result", "synonyms": ["2:1 Atrioventricular Block by ECG Finding"]}, {"conceptId": "C62016", "definition": "An electrocardiographic finding of intermittent failure of atrial electrical impulse conduction to the ventricles. This is manifest on the ECG by regular P waves which intermittently are not followed by QRS complexes.", "preferredTerm": "2nd degree AV block", "submissionValue": "ECG Result", "synonyms": ["AV Block Second Degree by ECG Finding"]}, {"conceptId": "C111091", "definition": "An electrocardiographic finding of complete failure of atrial electrical impulse conduction to the ventricles. This is manifest on the ECG by disassociation of atrial and ventricular rhythms. The atrial rate must be faster than the ventricular rate.", "preferredTerm": "3rd degree AV block; AV block, complete (third-degree); Complete Heart Block", "submissionValue": "ECG Result", "synonyms": ["AV Block Third Degree by ECG Finding"]}, {"conceptId": "C114165", "definition": "An electrocardiographic recording showing power line interference with the electrocardiographic signal. The artifact amplitude modulation has the same frequency as the AC power system present (50 Hz).", "preferredTerm": "50 Hz Artifact; 50 Hz Noise", "submissionValue": "ECG Result", "synonyms": ["50 Hertz Noise by ECG Finding"]}, {"conceptId": "C114164", "definition": "An electrocardiographic recording showing power line interference with the electrocardiographic signal. The artifact amplitude modulation has the same frequency as the AC power system present (60 Hz).", "preferredTerm": "60 Hz Artifact; 60 Hz Noise", "submissionValue": "ECG Result", "synonyms": ["60 Hertz Noise by ECG Finding"]}, {"conceptId": "C114149", "definition": "An electrocardiographic recording showing power line interference with the electrocardiographic signal. The artifact amplitude modulation has the same frequency as the AC power system present (usually 50 Hz or 60 Hz).", "preferredTerm": "AC Noise", "submissionValue": "ECG Result", "synonyms": ["Alternating Current Noise by ECG Finding"]}, {"conceptId": "C62266", "definition": "An electrocardiographic finding of idioventricular rhythm with a rate greater than 50 beats per minute.", "preferredTerm": "Accelerated idioventricular rhythm", "submissionValue": "ECG Result", "synonyms": ["Accelerated Idioventricular Rhythm by ECG Finding"]}, {"conceptId": "C71065", "definition": "An electrocardiographic finding of pathologic Q waves with accompanying ST elevation in leads V3 and V4, which is suggestive of acute myocardial infarction of the anterior wall of the left ventricle.", "preferredTerm": "Acute Anterior MI; Acute Anterior Wall Myocardial Infarction", "submissionValue": "ECG Result", "synonyms": ["Acute Anterior Myocardial Infarction by ECG Finding"]}, {"conceptId": "C102591", "definition": "An electrocardiographic finding of pathologic Q waves with accompanying ST elevation in leads V3 through V6, which is suggestive of acute myocardial infarction of the anterolateral wall of the left ventricle.", "preferredTerm": "Acute Anterolateral Wall Myocardial Infarction", "submissionValue": "ECG Result", "synonyms": ["Acute Anterolateral Myocardial Infarction by ECG Finding"]}, {"conceptId": "C102592", "definition": "An electrocardiographic finding of pathologic Q waves with accompanying ST elevation in leads V1 through V4, which is suggestive of acute myocardial infarction of the anteroseptal wall of the left ventricle.", "preferredTerm": "Acute Anteroseptal Wall Myocardial Infarction; Acute anteroseptal MI", "submissionValue": "ECG Result", "synonyms": ["Acute Anteroseptal Myocardial Infarction by ECG Finding"]}, {"conceptId": "C106496", "definition": "An electrocardiographic finding of pathologic Q waves with accompanying ST elevation in leads V1 to V6, I and aVL, which is suggestive of acute myocardial infarction involving the anterior and anterolateral walls of the left ventricle.", "preferredTerm": "", "submissionValue": "ECG Result", "synonyms": ["Acute Extensive Anterior Wall Myocardial Infarction by ECG Finding"]}, {"conceptId": "C102593", "definition": "An electrocardiographic finding of pathologic Q waves with accompanying ST elevation in leads I and aVL, which is suggestive of acute myocardial infarction of the high lateral wall of the left ventricle.", "preferredTerm": "Acute High Lateral Wall Myocardial Infarction", "submissionValue": "ECG Result", "synonyms": ["Acute High Lateral Myocardial Infarction by ECG Finding"]}, {"conceptId": "C71066", "definition": "An electrocardiographic finding of pathologic Q waves with accompanying ST elevation in leads III, aVF and often II, which is suggestive of acute myocardial infarction of the inferior wall of the left ventricle.", "preferredTerm": "Acute Inferior MI; Acute Inferior Wall Myocardial Infarction", "submissionValue": "ECG Result", "synonyms": ["Acute Inferior Myocardial Infarction by ECG Finding"]}, {"conceptId": "C71067", "definition": "An electrocardiographic finding of pathologic Q waves with accompanying ST elevation in leads V5, V6, I and aVL, which is suggestive of acute myocardial infarction of the lateral wall of the left ventricle.", "preferredTerm": "Acute Lateral MI; Acute Lateral Wall Myocardial Infarction", "submissionValue": "ECG Result", "synonyms": ["Acute Lateral Myocardial Infarction by ECG Finding"]}, {"conceptId": "C101596", "definition": "An electrocardiographic finding showing a current of injury with ST elevation. No specification is provided for localization.", "preferredTerm": "Acute Myocardial Infarction", "submissionValue": "ECG Result", "synonyms": ["Acute Myocardial Infarction by ECG Finding"]}, {"conceptId": "C71068", "definition": "An electrocardiographic finding in leads V1 or V2 of an initial R wave duration greater than or equal to 40 ms, R wave greater than S wave, upright T wave, with accompanying ST elevation, which is suggestive of acute myocardial infarction of the posterior wall of the left ventricle. Evidence of inferior or lateral myocardial infarction is usually also present.", "preferredTerm": "Acute Posterior MI; Acute Posterior Wall Myocardial Infarction", "submissionValue": "ECG Result", "synonyms": ["Acute Posterior Myocardial Infarction by ECG Finding"]}, {"conceptId": "C102594", "definition": "An electrocardiographic finding in leads V1 or V2 of an initial R wave duration greater than or equal to 40 ms, R wave greater than S wave, upright T wave, with accompanying ST elevation, which is suggestive of acute myocardial infarction of the ventricular wall of the left ventricle. Evidence of inferior or lateral myocardial infarction is usually also present.", "preferredTerm": "Acute Right Ventricular Wall Myocardial Infarction; Acute Right ventricular MI", "submissionValue": "ECG Result", "synonyms": ["Acute Right Ventricular Myocardial Infarction by ECG Finding"]}, {"conceptId": "C102595", "definition": "An electrocardiographic finding of pathologic Q waves with accompanying ST elevation in leads V1, V2 and often V3, which is suggestive of acute myocardial infarction of the intraventricular septum.", "preferredTerm": "Acute Septal Wall Myocardial Infarction", "submissionValue": "ECG Result", "synonyms": ["Acute Septal Myocardial Infarction by ECG Finding"]}, {"conceptId": "C102642", "definition": "An electrocardiographic finding of intermittent failure of atrial electrical impulse conduction to the ventricles, characterized by two or more consecutive non-conducted P waves.", "preferredTerm": "Advanced/High Grade AV Block", "submissionValue": "ECG Result", "synonyms": ["High Grade Atrioventricular Block by ECG Finding"]}, {"conceptId": "C114159", "definition": "An electrocardiographic recording in which all precordial electrodes are disconnected resulting in missing waveforms (flat line) of all leads V1 - V6.", "preferredTerm": "", "submissionValue": "ECG Result", "synonyms": ["All Precordial Electrodes Are Disconnected by ECG Finding"]}, {"conceptId": "C71069", "definition": "An electrocardiographic finding of pathologic Q waves in leads V3 and V4, which is suggestive of myocardial infarction of the anterior wall of the left ventricle.", "preferredTerm": "Anterior MI; Anterior Wall Myocardial Infarction", "submissionValue": "ECG Result", "synonyms": ["Anterior Myocardial Infarction by ECG Finding"]}, {"conceptId": "C35303", "definition": "An electrocardiographic finding of pathologic Q waves in leads V3 through V6, which is suggestive of myocardial infarction of the anterolateral wall of the left ventricle.", "preferredTerm": "Anterolateral Wall Myocardial Infarction", "submissionValue": "ECG Result", "synonyms": ["Anterolateral Myocardial Infarction by ECG Finding"]}, {"conceptId": "C35304", "definition": "An electrocardiographic finding of pathologic Q waves in leads V1 through V4, which is suggestive of myocardial infarction of the anteroseptal wall of the left ventricle.", "preferredTerm": "Anteroseptal MI; Anteroseptal Wall Myocardial Infarction", "submissionValue": "ECG Result", "synonyms": ["Anteroseptal Myocardial Infarction by ECG Finding"]}, {"conceptId": "C114162", "definition": "An electrocardiographic recording in which one or more leads display extraneous signals which do not represent cardiac electrical activity.", "preferredTerm": "", "submissionValue": "ECG Result", "synonyms": ["Artifact Lead Signal by ECG Finding"]}, {"conceptId": "C102596", "definition": "An electrocardiographic finding of a sinus beat followed by a premature atrial complexes for three or more consecutive cycles; a regularly irregular rhythm of normal and abnormal P waves in a 1-1 ratio.", "preferredTerm": "Atrial Bigeminy", "submissionValue": "ECG Result", "synonyms": ["Atrial Bigeminy by ECG Finding"]}, {"conceptId": "C102597", "definition": "An electrocardiographic finding in which two premature atrial complexes occur sequentially.", "preferredTerm": "Atrial Couplets", "submissionValue": "ECG Result", "synonyms": ["Atrial Couplet by ECG Finding"]}, {"conceptId": "C71039", "definition": "An electrocardiographic finding which comprises left, right or bilateral atrial enlargement. This is may be characterized by prolonged P wave duration, increased P wave amplitude, or multi-component P waves.", "preferredTerm": "Atrial Enlargement", "submissionValue": "ECG Result", "synonyms": ["Atrial Enlargement by ECG Finding"]}, {"conceptId": "C111092", "definition": "An electrocardiographic finding of a supraventricular arrhythmia characterized by the replacement of consistent P waves by rapid oscillations or fibrillatory waves that vary in size, shape and timing and are accompanied by an irregularly irregular ventricular response.", "preferredTerm": "Atrial fibrillation", "submissionValue": "ECG Result", "synonyms": ["Atrial Fibrillation by ECG Finding"]}, {"conceptId": "C111094", "definition": "An electrocardiographic finding of an organized, regular atrial rhythm with atrial rate of 240-340 beats per minute. Multiple P waves typically appear in the inferior leads in a saw tooth like pattern between the QRS complexes.", "preferredTerm": "Atrial flutter", "submissionValue": "ECG Result", "synonyms": ["Atrial Flutter by ECG Finding"]}, {"conceptId": "C111105", "definition": "An electrocardiographic finding of an organized, regular atrial rhythm with atrial rate between 101 and 240 beats per minute. The P wave morphology must be distinct from the sinus P wave morphology.", "preferredTerm": "Atrial tachycardia", "submissionValue": "ECG Result", "synonyms": ["Atrial Tachycardia by ECG Finding"]}, {"conceptId": "C102598", "definition": "An electrocardiographic finding of two sinus beats followed by a premature atrial complex for 3 or more consecutive cycles; a regularly irregular rhythm of normal and abnormal P waves in a 2-1 ratio.", "preferredTerm": "Atrial Trigeminy", "submissionValue": "ECG Result", "synonyms": ["Atrial Trigeminy by ECG Finding"]}, {"conceptId": "C71045", "definition": "An electrocardiographic finding in which the electrical activity of the atria and ventricles are independent of one another.", "preferredTerm": "AV Dissociation; Atrioventricular dissociation", "submissionValue": "ECG Result", "synonyms": ["Atrioventricular Dissociation by ECG Finding"]}, {"conceptId": "C111089", "definition": "An electrocardiographic finding of intermittent failure of atrial electrical impulse conduction to the ventricles, characterized by a progressively lengthening PR interval prior to the block of an atrial impulse.", "preferredTerm": "AV Mobitz I; Mobitz I Second Degree AV Block; Second degree AV block- Mobitz type I; Second-degree AV block, Mobitz type I (Wenckebach); Type 1 2nd degree AV Block; Wenckebach", "submissionValue": "ECG Result", "synonyms": ["AV Block Second Degree Mobitz Type I by ECG Finding"]}, {"conceptId": "C111090", "definition": "An electrocardiographic finding of intermittent failure of atrial electrical impulse conduction to the ventricles, characterized by a relatively constant PR interval prior to the block of an atrial impulse.", "preferredTerm": "AV Mobitz II; Mobitz II Second Degree AV Block; Second degree AV block- Mobitz type II; Second-degree AV block, Mobitz type II; Type 2 2nd degree AV Block", "submissionValue": "ECG Result", "synonyms": ["AV Block Second Degree Mobitz Type II by ECG Finding"]}, {"conceptId": "C35058", "definition": "An electrocardiographic finding of a regular supraventricular tachycardia due to reentry within the AV node. It is characterized by P waves which typically occurs nearly simultaneously with the QRS complex, resulting in a P wave which is obscured by the QRS, merged with the QRS or which may follow the QRS.", "preferredTerm": "AV node re-entry", "submissionValue": "ECG Result", "synonyms": ["Atrioventricular Nodal Reentry Tachycardia by ECG Finding"]}, {"conceptId": "C62261", "definition": "An electrocardiographic finding of a regular supraventricular tachycardia which utilizes an atrioventricular bypass tract as its retrograde limb (orthodromic tachycardia) or as its antegrade limb (antidromic tachycardia). QRS complexes during sinus rhythm may show preexcitation. During orthodromic tachycardia the preexcitation is not present and a retrograde P wave may appear after the QRS complex. During antidromic tachycardia the QRS complex is preexcited.", "preferredTerm": "AV re-entrant tachycardia", "submissionValue": "ECG Result", "synonyms": ["Atrioventricular Reentrant Tachycardia by ECG Finding"]}, {"conceptId": "C114147", "definition": "An electrocardiographic recording in which the isoelectric line in one or more leads is vertically displaced resulting in low frequency upward and downward movements of the signal with varying amplitudes.", "preferredTerm": "", "submissionValue": "ECG Result", "synonyms": ["Baseline Wander by ECG Finding"]}, {"conceptId": "C71046", "definition": "An electrocardiographic finding comprising right bundle branch block and left anterior fascicular block, or right bundle branch block and left posterior fascicular block. Defects occurring in two of the three divisions of the conduction system of the heart are considered bifascicular blocks. Technically left bundle branch block may be considered a bifascicular block. (NCI)", "preferredTerm": "Bifascicular block", "submissionValue": "ECG Result", "synonyms": ["Bifascicular Block by ECG Finding"]}, {"conceptId": "C106502", "definition": "An electrocardiographic finding suggestive of enlargement or thickening of both ventricles, with a combination of findings which are related to LVH and RVH, such as voltage criteria for LVH in the presence of marked right axis deviation.", "preferredTerm": "", "submissionValue": "ECG Result", "synonyms": ["Biventricular Hypertrophy by ECG Finding"]}, {"conceptId": "C92228", "definition": "An electrocardiographic finding in which the QT interval corrected for heart rate using Bazett's formula is slightly prolonged. Thresholds for different age, gender, and patient populations exist.", "preferredTerm": "Borderline QTcB", "submissionValue": "ECG Result", "synonyms": ["Borderline QTcB"]}, {"conceptId": "C92229", "definition": "An electrocardiographic finding in which the QT interval corrected for heart rate using Fridericia's formula is slightly prolonged. Thresholds for different age, gender, and patient populations exist.", "preferredTerm": "Borderline QTcF", "submissionValue": "ECG Result", "synonyms": ["Borderline QTcF"]}, {"conceptId": "C111120", "definition": "An electrocardiographic finding of abnormally slow heart rate. Thresholds for different age, gender, and patient populations exist.", "preferredTerm": "Bradycardia", "submissionValue": "ECG Result", "synonyms": ["Bradycardia by ECG Finding"]}, {"conceptId": "C106503", "definition": "An electrocardiographic finding of complete or incomplete right bundle branch block accompanied by ST elevation in leads V1-V3. This may be noted at rest or can be provoked by medication challenge.", "preferredTerm": "", "submissionValue": "ECG Result", "synonyms": ["Brugada Syndrome Pattern by ECG Finding"]}, {"conceptId": "C62258", "definition": "An electrocardiographic finding of initial slurring (delta wave) of the QRS complex due to the presence of an accessory pathway. This characteristic ECG pattern is typically seen in Wolff-Parkinson-White syndrome.", "preferredTerm": "Delta wave", "submissionValue": "ECG Result", "synonyms": ["Delta Wave by ECG Finding"]}, {"conceptId": "C102623", "definition": "An electrocardiographic finding suggestive of dextrocardia with situs inversus, characterized by reversal of normal anterior R wave progression and the appearance of reversal of the right and left arm electrodes.", "preferredTerm": "Dextrocardia", "submissionValue": "ECG Result", "synonyms": ["Dextrocardia by ECG Finding"]}, {"conceptId": "C102628", "definition": "An electrocardiographic finding where the amplitude of the R wave becomes greater than the amplitude of the S wave in the QRS complex at an unusually early point in the precordial leads, usually in leads V1 or V2.", "preferredTerm": "Early R Wave Progression; Early R Wave Transition", "submissionValue": "ECG Result", "synonyms": ["Early R Wave Transition by ECG Finding"]}, {"conceptId": "C102629", "definition": "An electrocardiographic finding of J point and ST segment elevation in the absence of other signs of acute ischemia or pericarditis.", "preferredTerm": "Early Repolarization", "submissionValue": "ECG Result", "synonyms": ["Early Repolarization"]}, {"conceptId": "C114175", "definition": "An electrocardiographic recording in which the precordial electrodes have been placed over the right chest and record a right sided ECG.", "preferredTerm": "", "submissionValue": "ECG Result", "synonyms": ["ECG Acquired with Precordial Electrodes Placed on the Right Chest"]}, {"conceptId": "C114181", "definition": "A digital electrocardiographic recording which is corrupted (i.e. ECG signal cannot be restored) such that measurements and/or interpretation cannot be performed.", "preferredTerm": "", "submissionValue": "ECG Result", "synonyms": ["ECG Evaluation Not Performed Due to Corrupted Digital ECG File"]}, {"conceptId": "C114180", "definition": "A printed electrocardiographic recording with poor printout quality (e.g. a faded paper ECG tracing or ECG with inconsistent printing speed) such that measurements and/or interpretation cannot be performed.", "preferredTerm": "", "submissionValue": "ECG Result", "synonyms": ["ECG Evaluation Not Performed Due to Poor Quality of Printed ECG"]}, {"conceptId": "C114178", "definition": "An electrocardiographic recording in which measurements and/or interpretation are not performed because the ECG amplitude gain and/or recording speed are not known.", "preferredTerm": "", "submissionValue": "ECG Result", "synonyms": ["ECG Evaluation Not Performed Due to Unknown ECG Amplitude Gain or Recording Speed"]}, {"conceptId": "C62245", "definition": "An electrocardiographic finding of a regular atrial rhythm with atrial rate of less than 101 beats per minute which does not originate in the sinus node, and which is characterized by P waves whose morphology differs from the P wave morphology during sinus rhythm.", "preferredTerm": "Ectopic atrial rhythm", "submissionValue": "ECG Result", "synonyms": ["Ectopic Atrial Rhythm by ECG Finding"]}, {"conceptId": "C71042", "definition": "An electrocardiographic finding of three or more consecutive complexes of ventricular origin. The QRS complexes are wide and have an abnormal morphology.", "preferredTerm": "Ectopic ventricular rhythm", "submissionValue": "ECG Result", "synonyms": ["Ectopic Ventricular Rhythm by ECG Finding"]}, {"conceptId": "C71035", "definition": "An electrocardiographic finding in which there is an alternating pattern of any of the waveform components. (NCI)", "preferredTerm": "Electrical alternans", "submissionValue": "ECG Result", "synonyms": ["Electrical Alternans by ECG Finding"]}, {"conceptId": "C106520", "definition": "An electrocardiographic finding of pathologic Q waves in leads V1 to V6, I and aVL, which is suggestive of myocardial infarction involving the anterior and anterolateral walls of the left ventricle.", "preferredTerm": "", "submissionValue": "ECG Result", "synonyms": ["Extensive Anterior Wall Myocardial Infarction by ECG Finding"]}, {"conceptId": "C102639", "definition": "An electrocardiographic finding that occurs when electrical activation of the atria or ventricles occurs from two separate sites. This results in a P wave or QRS complex that displays merged characteristics of beats originating from the two different sites.", "preferredTerm": "Fusion Complex; Fusion complex(es)", "submissionValue": "ECG Result", "synonyms": ["Fusion Complex"]}, {"conceptId": "C102643", "definition": "An electrocardiographic finding of pathologic Q waves in leads I and aVL, which is suggestive of myocardial infarction of the high lateral wall of the left ventricle.", "preferredTerm": "High Lateral Wall Myocardial Infarction", "submissionValue": "ECG Result", "synonyms": ["High Lateral Myocardial Infarction by ECG Finding"]}, {"conceptId": "C50599", "definition": "An electrocardiographic finding of three or more consecutive complexes of ventricular origin with a rate less than a certain threshold (100 or 120 beats per minute are commonly used). The QRS complexes are wide and have an abnormal morphology.", "preferredTerm": "Idioventricular Rhythm", "submissionValue": "ECG Result", "synonyms": ["Idioventricular Rhythm"]}, {"conceptId": "C114167", "definition": "An electrocardiographic recording which is limited in duration or which does not display all of the expected leads.", "preferredTerm": "", "submissionValue": "ECG Result", "synonyms": ["Incomplete ECG"]}, {"conceptId": "C71047", "definition": "An electrocardiographic finding of a wide QRS complex with evidence of delayed conduction to the left ventricle, manifest as a widened initial portion of the QRS complex in leads V5, V6, I and aVL and with QRS duration less than 120 ms.", "preferredTerm": "Incomplete left bundle branch block", "submissionValue": "ECG Result", "synonyms": ["Incomplete Left Bundle Branch Block by ECG Finding"]}, {"conceptId": "C114179", "definition": "An electrocardiographic recording in which measurements (particularly of QRS amplitudes) and/or interpretations are not performed because QRS complexes have been truncated.", "preferredTerm": "", "submissionValue": "ECG Result", "synonyms": ["Incomplete ECG Measurements Due to Truncation of QRS Complexes"]}, {"conceptId": "C71048", "definition": "An electrocardiographic finding of a wide QRS complex with evidence of delayed conduction to the right ventricle, manifest by a widened initial portion of the QRS in V1 and V2, a widened S wave in V5, V6, I and aVL, and with QRS duration less than 120 ms.", "preferredTerm": "Incomplete right bundle branch block; Incomplete right bundle-branch block", "submissionValue": "ECG Result", "synonyms": ["Incomplete Right Bundle Branch Block by ECG Finding"]}, {"conceptId": "C114169", "definition": "A digital electrocardiographic recording which was digitized from paper ECG tracings and which does not contain all leads present on the original paper printout.", "preferredTerm": "", "submissionValue": "ECG Result", "synonyms": ["Incompletely Digitized ECG Leads"]}, {"conceptId": "C114168", "definition": "An electrocardiographic recording in which the ECG signal is not displayed at the indicated recording speed and/or amplitude resolution.", "preferredTerm": "", "submissionValue": "ECG Result", "synonyms": ["Incorrectly Scaled ECG"]}, {"conceptId": "C102701", "definition": "An electrocardiographic finding in which the frontal plane QRS axis cannot be calculated.", "preferredTerm": "Indeterminate Axis; Indeterminate QRS Axis; QRS Axis Indeterminate", "submissionValue": "ECG Result", "synonyms": ["QRS Axis Indeterminate"]}, {"conceptId": "C35398", "definition": "An electrocardiographic finding of pathologic Q waves in leads III, aVF and often II, which is suggestive of myocardial infarction of the inferior wall of the left ventricle.", "preferredTerm": "Inferior MI; Inferior Wall Myocardial Infarction", "submissionValue": "ECG Result", "synonyms": ["Inferior Myocardial Infarction by ECG Finding"]}, {"conceptId": "C114177", "definition": "An electrocardiographic recording in which fewer than the required number of cardiac complexes are available for measurement and/or interpretation due to a shorter than planned recording or due to cardiac complexes which are present but are not suitable for measurement and/or interpretation.", "preferredTerm": "", "submissionValue": "ECG Result", "synonyms": ["Insufficient Number of Beats for Complete ECG Evaluation"]}, {"conceptId": "C71073", "definition": "An electrocardiographic finding of a delay in impulse propagation through the atria. This is characterized by broad P waves which are often biphasic in V1.", "preferredTerm": "Intraatrial Conduction Delay", "submissionValue": "ECG Result", "synonyms": ["Intra-Atrial Conduction Delay by ECG Finding"]}, {"conceptId": "C62271", "definition": "An electrocardiographic finding of a widened QRS duration typically greater than 110 ms which does not meet the morphologic criteria for any of the standard bundle branch or fascicular block patterns.", "preferredTerm": "Intraventricular conduction delay; Intraventricular conduction delay, nonspecific", "submissionValue": "ECG Result", "synonyms": ["Nonspecific Intraventricular Conduction Delay by ECG Finding"]}, {"conceptId": "C114171", "definition": "An electrocardiographic recording for which the displayed leads do not represent the individual's true ECG lead information.", "preferredTerm": "", "submissionValue": "ECG Result", "synonyms": ["Invalid ECG Waveforms"]}, {"conceptId": "C62248", "definition": "An electrocardiographic finding of a type of atrioventricular dissociation characterized by the atria (P waves) and ventricles (QRS complexes) beating at similar rates, although independently.", "preferredTerm": "Isorhythmic dissociation", "submissionValue": "ECG Result", "synonyms": ["Isorhythmic Atrioventricular Dissociation"]}, {"conceptId": "C71030", "definition": "An electrocardiographic finding of a significant elevation above the baseline of the J point.", "preferredTerm": "J point elevation", "submissionValue": "ECG Result", "synonyms": ["J Point Elevation"]}, {"conceptId": "C71074", "definition": "An electrocardiographic finding of a junctional rhythm with a heat rate which is abnormally low.", "preferredTerm": "Junctional bradycardia", "submissionValue": "ECG Result", "synonyms": ["Junctional Bradycardia by ECG Finding"]}, {"conceptId": "C102652", "definition": "An electrocardiographic finding of an ectopic impulse originating in the AV junction presenting as a QRS complex of supraventricular origin which is not preceded by a P wave.", "preferredTerm": "Junctional Extra Beat; Junctional Premature Complex; Junctional premature complex(es)", "submissionValue": "ECG Result", "synonyms": ["Junctional Premature Complex by ECG Finding"]}, {"conceptId": "C71051", "definition": "An electrocardiographic finding of a rhythm which originates in the AV junction and results in a normal heart rate. It is characterized by retrograde P waves which may be obscured by or may follow the QRS complexes. The QRS complexes may be narrow or may demonstrate aberration.", "preferredTerm": "Junctional rhythm", "submissionValue": "ECG Result", "synonyms": ["Junctional Rhythm by ECG Finding"]}, {"conceptId": "C35059", "definition": "An electrocardiographic finding of a junctional rhythm with a heart rate which is abnormally elevated.", "preferredTerm": "Junctional tachycardia", "submissionValue": "ECG Result", "synonyms": ["Junctional Tachycardia by ECG Finding"]}, {"conceptId": "C102653", "definition": "An electrocardiographic finding where the amplitude of the R wave does not become greater than the amplitude of the S wave until an unusually late point in the precordial leads, usually in leads V4 to V6.", "preferredTerm": "Late R Wave Transition", "submissionValue": "ECG Result", "synonyms": ["Late R Wave Transition by ECG Finding"]}, {"conceptId": "C35586", "definition": "An electrocardiographic finding of pathologic Q waves in leads V5, V6, I and aVL, which is suggestive of myocardial infarction of the lateral wall of the left ventricle.", "preferredTerm": "Lateral MI; Lateral Wall Myocardial Infarction", "submissionValue": "ECG Result", "synonyms": ["Lateral Myocardial Infarction by ECG Finding"]}, {"conceptId": "C62267", "definition": "An electrocardiographic finding of a slightly widened QRS duration (typically less than 120 ms) with leftward frontal plane QRS axis and typically small Q waves in leads I and aVL.", "preferredTerm": "Left Anterior Hemiblock; Left anterior fascicular block", "submissionValue": "ECG Result", "synonyms": ["Left Anterior Fascicular Block by ECG Finding"]}, {"conceptId": "C71040", "definition": "An electrocardiographic finding suggesting underlying hypertrophy or dilatation of the left atrium. Electrocardiographic criteria used for the diagnosis of left atrial abnormality may include a bifid p wave, a biphasic p wave and/or a p wave duration of greater than 0.12 seconds. (NCI)", "preferredTerm": "Left Atrial Enlargement; P-mitrale", "submissionValue": "ECG Result", "synonyms": ["P-mitrale by ECG Finding"]}, {"conceptId": "C62269", "definition": "An electrocardiographic finding of a wide QRS complex with evidence of delayed conduction to the left ventricle, manifest as a widened initial portion of the QRS complex in leads V5, V6, I and aVL and with QRS duration greater than or equal to 120 ms.", "preferredTerm": "Complete LBBB; Left bundle branch block; Left bundle-branch block", "submissionValue": "ECG Result", "synonyms": ["Left Bundle Branch Block by ECG Finding"]}, {"conceptId": "C62268", "definition": "An electrocardiographic finding of an S1Q3 pattern and QRS axis greater than or equal to 120 degrees. It is usually seen in association with other abnormalities (e.g. RBBB or RVH).", "preferredTerm": "Left Posterior Hemiblock; Left posterior fascicular block", "submissionValue": "ECG Result", "synonyms": ["Left Posterior Fascicular Block by ECG Finding"]}, {"conceptId": "C92231", "definition": "An electrocardiographic finding in which there is evidence that electrical transmission through the left ventricle is impaired.", "preferredTerm": "Left Ventricular Conduction Delay", "submissionValue": "ECG Result", "synonyms": ["Left Ventricular Conduction Delay by ECG Finding"]}, {"conceptId": "C71076", "definition": "An electrocardiographic finding suggestive of a hypertrophied left ventricle, characterized by large QRS amplitudes and secondary findings of left atrial enlargement, left axis deviation, or typical pattern of ST depression and T wave inversion.", "preferredTerm": "Left Ventricular Hypertrophy", "submissionValue": "ECG Result", "synonyms": ["Left Ventricular Hypertrophy by ECG Finding"]}, {"conceptId": "C102655", "definition": "An electrocardiographic finding suggestive of a hypertrophied left ventricle, characterized by large QRS amplitudes, ST depression and T wave inversion.", "preferredTerm": "Left Ventricular Hypertrophy With Strain", "submissionValue": "ECG Result", "synonyms": ["Left Ventricular Hypertrophy with Strain by ECG Finding"]}, {"conceptId": "C114151", "definition": "An electrocardiographic recording in which one or more of the limb electrodes are disconnected resulting in missing waveforms (often flat lines) of the respective leads.", "preferredTerm": "", "submissionValue": "ECG Result", "synonyms": ["Disconnected Limb Electrodes by ECG Finding"]}, {"conceptId": "C114150", "definition": "An electrocardiographic recording in which two or more of the limb electrodes are switched resulting in improper representation of the affected leads.", "preferredTerm": "Limb Lead Reversal", "submissionValue": "ECG Result", "synonyms": ["Interchanged Limb Electrodes by ECG Finding"]}, {"conceptId": "C114166", "definition": "An electrocardiographic recording showing smaller than usual QRS complexes in one or more leads. This may represent a technical issue with the ECG acquisition or characteristics of the individual.", "preferredTerm": "Low Amplitude QRS Complex", "submissionValue": "ECG Result", "synonyms": ["Low Amplitude QRS Complex by ECG Finding"]}, {"conceptId": "C71078", "definition": "An electrocardiographic finding of a QRS amplitude less than or equal to 0.5 mV in the limb leads or QRS amplitude less than or equal to 1 mV in the precordial leads.", "preferredTerm": "Low QRS voltage", "submissionValue": "ECG Result", "synonyms": ["Low QRS Voltage by ECG Finding"]}, {"conceptId": "C71050", "definition": "An electrocardiographic finding of a supraventricular arrhythmia characterized by 3 or more distinct P wave morphologies with an isoelectric baseline, variable PR intervals and no predominant atrial rhythm. The ventricular rate is typically 100-150 beats per minute.", "preferredTerm": "Multifocal atrial tachycardia", "submissionValue": "ECG Result", "synonyms": ["Multifocal Atrial Tachycardia by ECG Finding"]}, {"conceptId": "C114148", "definition": "An electrocardiographic recording with intermittent mid to high frequency artifact in one or more leads due to muscular tremor or movement rather than cardiac activity.", "preferredTerm": "", "submissionValue": "ECG Result", "synonyms": ["Muscle Tremor Artifact"]}, {"conceptId": "C101589", "definition": "An electrocardiographic finding of pathologic Q waves, which is suggestive of myocardial infarction of one or more regions of the heart. No specification is provided for localization.", "preferredTerm": "Myocardial Infarction", "submissionValue": "ECG Result", "synonyms": ["Myocardial Infarction by ECG Finding"]}, {"conceptId": "C102732", "definition": "An electrocardiographic finding of pathologic Q waves in leads V3 and V4, which is suggestive of myocardial infarction of the anterior wall of the left ventricle and which is new compared to prior ECGs.", "preferredTerm": "New Anterior MI; New Anterior Wall Myocardial Infarction", "submissionValue": "ECG Result", "synonyms": ["New Anterior Myocardial Infarction by ECG Finding"]}, {"conceptId": "C102733", "definition": "An electrocardiographic finding of pathologic Q waves in leads V3 through V6, which is suggestive of myocardial infarction of the anterolateral wall of the left ventricle and which is new compared to prior ECGs.", "preferredTerm": "New Anterolateral Wall Myocardial Infarction", "submissionValue": "ECG Result", "synonyms": ["New Anterolateral Myocardial Infarction by ECG Finding"]}, {"conceptId": "C102734", "definition": "An electrocardiographic finding of pathologic Q waves in leads V1 through V4, which is suggestive of myocardial infarction of the anteroseptal wall of the left ventricle and which is new compared to prior ECGs.", "preferredTerm": "New Anteroseptal Wall Myocardial Infarction", "submissionValue": "ECG Result", "synonyms": ["New Anteroseptal Myocardial Infarction by ECG Finding"]}, {"conceptId": "C102735", "definition": "An electrocardiographic finding of pathologic Q waves in leads V1 to V6, I and aVL, which is suggestive of myocardial infarction involving the anterior and anterolateral walls of the left ventricle and which is new compared to prior ECGs.", "preferredTerm": "New Extensive Anterior Wall Myocardial Infarction", "submissionValue": "ECG Result", "synonyms": ["New Extensive Anterior Myocardial Infarction by ECG Finding"]}, {"conceptId": "C102736", "definition": "An electrocardiographic finding of pathologic Q waves in leads I and aVL, which is suggestive of myocardial infarction of the high lateral wall of the left ventricle and which is new compared to prior ECGs.", "preferredTerm": "New High Lateral Wall Myocardial Infarction", "submissionValue": "ECG Result", "synonyms": ["New High Lateral Myocardial Infarction by ECG Finding"]}, {"conceptId": "C102737", "definition": "An electrocardiographic finding of pathologic Q waves in leads III, aVF and often II, which is suggestive of myocardial infarction of the inferior wall of the left ventricle and which is new compared to prior ECGs.", "preferredTerm": "New Inferior Wall Myocardial Infarction", "submissionValue": "ECG Result", "synonyms": ["New Inferior Myocardial Infarction by ECG Finding"]}, {"conceptId": "C102738", "definition": "An electrocardiographic finding of pathologic Q waves in leads V5, V6, I and aVL, which is suggestive of myocardial infarction of the lateral wall of the left ventricle and which is new compared to prior ECGs.", "preferredTerm": "New Lateral Wall Myocardial Infarction", "submissionValue": "ECG Result", "synonyms": ["New Lateral Myocardial Infarction by ECG Finding"]}, {"conceptId": "C102731", "definition": "An electrocardiographic finding of pathologic Q waves, which is suggestive of myocardial infarction of one or more regions of the heart and which is new compared to prior ECGs. No specification is provided for localization.", "preferredTerm": "New Myocardial Infarction", "submissionValue": "ECG Result", "synonyms": ["New Myocardial Infarction by ECG Finding"]}, {"conceptId": "C106548", "definition": "An electrocardiographic finding in leads V1 or V2 of an initial R wave duration greater than or equal to 40 ms, R wave greater than S wave, and upright T wave, which is suggestive of myocardial infarction of the posterior wall of the left ventricle, and which is new compared to prior ECGs. Evidence of inferior or lateral myocardial infarction is usually also present.", "preferredTerm": "", "submissionValue": "ECG Result", "synonyms": ["New Posterior Wall Myocardial Infarction by ECG Finding"]}, {"conceptId": "C102739", "definition": "An electrocardiographic finding of pathologic Q waves in leads V1, V2 and often V3, which is suggestive of myocardial infarction of the intraventricular septum and which is new compared to prior ECGs.", "preferredTerm": "New Septal Wall Myocardial Infarction", "submissionValue": "ECG Result", "synonyms": ["New Septal Myocardial Infarction by ECG Finding"]}, {"conceptId": "C114163", "definition": "An electrocardiographic recording that displays flat lines (no waveforms are visible) in all leads present.", "preferredTerm": "", "submissionValue": "ECG Result", "synonyms": ["ECG Waveforms Not Present"]}, {"conceptId": "C71080", "definition": "An electrocardiographic finding of ST and T wave abnormalities in the absence of pathologic Q waves, which is suggestive of myocardial infarction in one or more regions of the heart.", "preferredTerm": "Non Q Wave Myocardial Infarction", "submissionValue": "ECG Result", "synonyms": ["Non Q Wave Myocardial Infarction by ECG Finding"]}, {"conceptId": "C71031", "definition": "An electrocardiographic finding of changes in the ST segment and T wave that do not meet criteria for ischemia or infarction. (NCI)", "preferredTerm": "Non-specific ST-T changes", "submissionValue": "ECG Result", "synonyms": ["Non-Specific ST-T Changes by ECG Finding"]}, {"conceptId": "C102680", "definition": "An electrocardiographic finding of an atrial tachycardia which terminates in less than 30 seconds.", "preferredTerm": "Non-Sustained Atrial Tachycardia", "submissionValue": "ECG Result", "synonyms": ["Non-Sustained Atrial Tachycardia by ECG Finding"]}, {"conceptId": "C71053", "definition": "An electrocardiographic finding of ventricular tachycardia less than 30 seconds in duration. (NCI)", "preferredTerm": "Non-sustained ventricular tachycardia; Ventricular tachycardia, unsustained", "submissionValue": "ECG Result", "synonyms": ["Non-Sustained Ventricular Tachycardia by ECG Finding"]}, {"conceptId": "C102681", "definition": "An electrocardiographic finding of an atrial rhythm which originates from the sinoatrial node that is considered normal for the population. There are no extra beats or conduction abnormalities.", "preferredTerm": "Normal Sinus Rhythm", "submissionValue": "ECG Result", "synonyms": ["Normal Sinus Rhythm"]}, {"conceptId": "C102634", "definition": "An electrocardiographic finding of a frontal plane QRS axis from -90 to +180 degrees.", "preferredTerm": "Northwest Axis; Right superior axis", "submissionValue": "ECG Result", "synonyms": ["Extreme Right Axis Deviation"]}, {"conceptId": "C71032", "definition": "An electrocardiographic finding of an irregular, u or v shaped deflection within the contour of the T wave.", "preferredTerm": "Notched T Waves", "submissionValue": "ECG Result", "synonyms": ["T Wave Notched by ECG Finding"]}, {"conceptId": "C102684", "definition": "An electrocardiographic finding of pathologic Q waves in leads V3 and V4, which is suggestive of myocardial infarction of the anterior wall of the left ventricle, without evidence of current or ongoing acute infarction.", "preferredTerm": "Old Or Age Indeterminate Anterior Wall Myocardial Infarction", "submissionValue": "ECG Result", "synonyms": ["Old or Age Indeterminate Anterior Myocardial Infarction by ECG Finding"]}, {"conceptId": "C102685", "definition": "An electrocardiographic finding of pathologic Q waves in leads V3 through V6, which is suggestive of myocardial infarction of the anterolateral wall of the left ventricle, without evidence of current or ongoing acute infarction.", "preferredTerm": "Old Or Age Indeterminate Anterolateral Wall Myocardial Infarction", "submissionValue": "ECG Result", "synonyms": ["Old or Age Indeterminate Anterolateral Myocardial Infarction by ECG Finding"]}, {"conceptId": "C102686", "definition": "An electrocardiographic finding of pathologic Q waves in leads V1 through V4, which is suggestive of myocardial infarction of the anteroseptal wall of the left ventricle, without evidence of current or ongoing acute infarction.", "preferredTerm": "Old Or Age Indeterminate Anteroseptal Wall Myocardial Infarction", "submissionValue": "ECG Result", "synonyms": ["Old or Age Indeterminate Anteroseptal Myocardial Infarction by ECG Finding"]}, {"conceptId": "C102687", "definition": "An electrocardiographic finding of pathologic Q waves in leads V1 to V6, I and aVL, which is suggestive of myocardial infarction involving the anterior and anterolateral walls of the left ventricle, without evidence of current or ongoing acute infarction.", "preferredTerm": "Old Or Age Indeterminate Extensive Anterior Wall Myocardial Infarction", "submissionValue": "ECG Result", "synonyms": ["Old or Age Indeterminate Extensive Anterior Myocardial Infarction by ECG Finding"]}, {"conceptId": "C102688", "definition": "An electrocardiographic finding of pathologic Q waves in leads I and aVL, which is suggestive of myocardial infarction of the high lateral wall of the left ventricle, without evidence of current or ongoing acute infarction.", "preferredTerm": "Old Or Age Indeterminate High Lateral Wall Myocardial Infarction", "submissionValue": "ECG Result", "synonyms": ["Old or Age Indeterminate High Lateral Myocardial Infarction by ECG Finding"]}, {"conceptId": "C102689", "definition": "An electrocardiographic finding of pathologic Q waves in leads III, aVF and often II, which is suggestive of myocardial infarction of the inferior wall of the left ventricle, without evidence of current or ongoing acute infarction.", "preferredTerm": "Old Or Age Indeterminate Inferior Wall Myocardial Infarction", "submissionValue": "ECG Result", "synonyms": ["Old or Age Indeterminate Inferior Myocardial Infarction by ECG Finding"]}, {"conceptId": "C102690", "definition": "An electrocardiographic finding of pathologic Q waves in leads V5, V6, I and aVL , which is suggestive of myocardial infarction of the lateral wall of the left ventricle, without evidence of current or ongoing acute infarction.", "preferredTerm": "Old Or Age Indeterminate Lateral Wall Myocardial Infarction", "submissionValue": "ECG Result", "synonyms": ["Old or Age Indeterminate Lateral Myocardial Infarction by ECG Finding"]}, {"conceptId": "C102691", "definition": "An electrocardiographic finding in leads V1 or V2 of an initial R wave duration greater than or equal to 40 ms, R wave greater than S wave, and upright T wave, which is suggestive of myocardial infarction of the posterior wall of the left ventricle, without evidence of current or ongoing acute infarction. Evidence of inferior or lateral myocardial infarction is usually also present.", "preferredTerm": "Old Or Age Indeterminate Posterior Wall Myocardial Infarction", "submissionValue": "ECG Result", "synonyms": ["Old or Age Indeterminate Posterior Myocardial Infarction by ECG Finding"]}, {"conceptId": "C102693", "definition": "An electrocardiographic finding of pathologic Q waves in leads V1, V2 and often V3, which is suggestive of myocardial infarction of the intraventricular septum, without evidence of current or ongoing acute infarction.", "preferredTerm": "Old Or Age Indeterminate Septal Wall Myocardial Infarction", "submissionValue": "ECG Result", "synonyms": ["Old or Age Indeterminate Septal Myocardial Infarction by ECG Finding"]}, {"conceptId": "C101597", "definition": "An electrocardiographic finding of pathologic Q waves, which is suggestive of myocardial infarction of one or more regions of the heart, without evidence of current or ongoing acute infarction. No specification is provided for localization.", "preferredTerm": "Old Or Age Indeterminate Wall Myocardial Infarction", "submissionValue": "ECG Result", "synonyms": ["Old Myocardial Infarction by ECG Finding"]}, {"conceptId": "C114176", "definition": "An electrocardiographic recording in which one or more electrodes are incorrectly placed but further details are not provided.", "preferredTerm": "", "submissionValue": "ECG Result", "synonyms": ["Other Incorrect Electrode Placement"]}, {"conceptId": "C90430", "definition": "An electrocardiographic finding for the P wave that is atypical either for the shape, duration, amplitude, axis or polarity. Abnormality of the P wave signifies aberrant propagation of the electrical impulse through the atria. (NCI)", "preferredTerm": "P Wave Abnormality", "submissionValue": "ECG Result", "synonyms": ["P Wave Abnormality by ECG Finding"]}, {"conceptId": "C90431", "definition": "An electrocardiographic finding of P waves with two peaks longer in duration than normal and amplitude greater than normal.", "preferredTerm": "P Wave Notched", "submissionValue": "ECG Result", "synonyms": ["P Wave Notched by ECG Finding"]}, {"conceptId": "C92232", "definition": "An electrocardiographic finding in which both the atrial and ventricular rhythm are controlled by an electrical impulse from an artificial cardiac pacemaker.", "preferredTerm": "AV dual-paced complex(es) or rhythm; Paced Atrial And Ventricular Rhythm", "submissionValue": "ECG Result", "synonyms": ["Paced Atrial And Ventricular Rhythm"]}, {"conceptId": "C92233", "definition": "An electrocardiographic finding in which the atrial rhythm is controlled by an electrical impulse from an artificial cardiac pacemaker.", "preferredTerm": "Atrial-paced complex(es) or rhythm; Paced Atrial Rhythm", "submissionValue": "ECG Result", "synonyms": ["Paced Atrial Rhythm"]}, {"conceptId": "C88140", "definition": "An electrocardiographic finding in which the cardiac rhythm is controlled by an electrical impulse from an artificial cardiac pacemaker.", "preferredTerm": "Atrial and/or Ventricular Paced Rhythm; Paced Rhythm", "submissionValue": "ECG Result", "synonyms": ["Paced Rhythm"]}, {"conceptId": "C92234", "definition": "An electrocardiographic finding in which the ventricular rhythm is controlled by an electrical impulse from an artificial cardiac pacemaker.", "preferredTerm": "Paced Ventricular Rhythm; Ventricular-paced complex(es) or rhythm", "submissionValue": "ECG Result", "synonyms": ["Paced Ventricular Rhythm"]}, {"conceptId": "C62250", "definition": "An electrocardiographic finding of the sudden onset of transient AV block, which is often associated with preexisting conduction disorders.", "preferredTerm": "Paroxysmal AV block", "submissionValue": "ECG Result", "synonyms": ["Paroxysmal Atrioventricular Block by ECG Finding"]}, {"conceptId": "C34902", "definition": "An episodic form of ventricular tachycardia, with abrupt onset and termination. (NCI)", "preferredTerm": "Paroxysmal Ventricular Tachycardia", "submissionValue": "ECG Result", "synonyms": ["Paroxysmal Ventricular Tachycardia by ECG Finding"]}, {"conceptId": "C114172", "definition": "An electrocardiographic recording that does not show proper quality for reasons that are not otherwise described.", "preferredTerm": "", "submissionValue": "ECG Result", "synonyms": ["Poor Quality ECG"]}, {"conceptId": "C71033", "definition": "An electrocardiographic finding of a lack of progression of R wave height across precordial leads.", "preferredTerm": "Poor R Wave Progression", "submissionValue": "ECG Result", "synonyms": ["Poor R Wave Progression by ECG Finding"]}, {"conceptId": "C35399", "definition": "An electrocardiographic finding in leads V1 or V2 of an initial R wave duration greater than or equal to 40 ms, R wave greater than S wave, and upright T wave, which is suggestive of myocardial infarction of the posterior wall of the left ventricle. Evidence of inferior or lateral myocardial infarction is usually also present.", "preferredTerm": "Posterior MI; Posterior Wall Myocardial Infarction", "submissionValue": "ECG Result", "synonyms": ["Posterior Myocardial Infarction by ECG Finding"]}, {"conceptId": "C34940", "definition": "An electrocardiographic finding characterized by a premature activation of the whole or some part of the ventricle. The PR interval is usually shortened and delta waves are frequently present.", "preferredTerm": "Pre-excitation; Ventricular preexcitation", "submissionValue": "ECG Result", "synonyms": ["Pre-Excitation Syndrome"]}, {"conceptId": "C114153", "definition": "An electrocardiographic recording in which the electrode for lead V1 is disconnected resulting in missing waveforms (flat line) for lead V1.", "preferredTerm": "", "submissionValue": "ECG Result", "synonyms": ["Disconnected Precordial Electrode V1 by ECG Finding"]}, {"conceptId": "C114154", "definition": "An electrocardiographic recording in which the electrode for lead V2 is disconnected resulting in missing waveforms (flat line) for lead V2.", "preferredTerm": "", "submissionValue": "ECG Result", "synonyms": ["Disconnected Precordial Electrode V2 by ECG Finding"]}, {"conceptId": "C114155", "definition": "An electrocardiographic recording in which the electrode for lead V3 is disconnected resulting in missing waveforms (flat line) for lead V3.", "preferredTerm": "", "submissionValue": "ECG Result", "synonyms": ["Disconnected Precordial Electrode V3 by ECG Finding"]}, {"conceptId": "C114156", "definition": "An electrocardiographic recording in which the electrode for lead V4 is disconnected resulting in missing waveforms (flat line) for lead V4.", "preferredTerm": "", "submissionValue": "ECG Result", "synonyms": ["Disconnected Precordial Electrode V4 by ECG Finding"]}, {"conceptId": "C114157", "definition": "An electrocardiographic recording in which the electrode for lead V5 is disconnected resulting in missing waveforms (flat line) for lead V5.", "preferredTerm": "", "submissionValue": "ECG Result", "synonyms": ["Disconnected Precordial Electrode V5 by ECG Finding"]}, {"conceptId": "C114158", "definition": "An electrocardiographic recording in which the electrode for lead V6 is disconnected resulting in missing waveforms (flat line) for lead V6.", "preferredTerm": "", "submissionValue": "ECG Result", "synonyms": ["Disconnected Precordial Electrode V6 by ECG Finding"]}, {"conceptId": "C114160", "definition": "An electrocardiographic recording in which one or more precordial electrodes are placed incorrectly with respect to the standard chest electrode positions resulting in improper representation of the affected leads.", "preferredTerm": "", "submissionValue": "ECG Result", "synonyms": ["Incorrectly Positioned Precordial Electrodes by ECG Finding"]}, {"conceptId": "C114152", "definition": "An electrocardiographic recording in which two or more of the precordial electrodes are switched resulting in improper representation of the affected leads.", "preferredTerm": "Precordial Lead Reversal", "submissionValue": "ECG Result", "synonyms": ["Interchanged Precordial Electrodes by ECG Finding"]}, {"conceptId": "C62257", "definition": "An electrocardiographic finding of an ectopic impulse originating in the atria and not specifically in the sinus node. The P wave morphology of these complexes is often different from a sinus P wave and the RR intervals preceding these complexes is also shorter than those of the regular beats.", "preferredTerm": "APC; Atrial premature complex(es); PAC; Premature atrial complex; SVE; Supraventricular Extra Beat", "submissionValue": "ECG Result", "synonyms": ["Atrial Premature Complex by ECG Finding"]}, {"conceptId": "C102603", "definition": "An electrocardiographic finding of premature atrial complexes which are not conducted to the ventricle, and which are not followed by a QRS complex.", "preferredTerm": "Atrial premature complexes, nonconducted; Non-conducted SVE; Premature Atrial Complexes Blocked; Premature Atrial Complexes Non-conducted", "submissionValue": "ECG Result", "synonyms": ["Blocked Atrial Premature Complex by ECG Finding"]}, {"conceptId": "C102672", "definition": "An electrocardiographic finding of premature atrial complexes which have 2 or more distinct morphologies, suggesting origin at more than one atrial site.", "preferredTerm": "Multifocal SVE; Multifocal Supraventricular Extra Beats; Premature Atrial Complexes Multifocal", "submissionValue": "ECG Result", "synonyms": ["Multifocal Atrial Premature Complex by ECG Finding"]}, {"conceptId": "C102724", "definition": "An electrocardiographic finding of premature atrial complexes which have a single distinct morphology, suggesting origin at one atrial site.", "preferredTerm": "Premature Atrial Complexes Unifocal", "submissionValue": "ECG Result", "synonyms": ["Unifocal Atrial Premature Complex by ECG Finding"]}, {"conceptId": "C62256", "definition": "An electrocardiographic finding of an ectopic impulse originating in the ventricles. The QRS morphology of these complexes is different from those of supraventricular origin. The QRS duration is often longer and the RR interval preceding the complexes is usually shorter than that of supraventricular beats.", "preferredTerm": "PVC; VE; VPC; Ventricular Extra Beat; Ventricular premature complex(es)", "submissionValue": "ECG Result", "synonyms": ["Ventricular Premature Complex by ECG Finding"]}, {"conceptId": "C107100", "definition": "An electrocardiographic finding of a premature ventricular complex which occurs between two normal QRS complexes which have normal timing.", "preferredTerm": "Interpolated VE; Interpolated VPC; Interpolated Ventricular Extra Beat; Premature Ventricular Complexes Interpolated", "submissionValue": "ECG Result", "synonyms": ["Interpolated Premature Ventricular Complex by ECG Finding"]}, {"conceptId": "C102673", "definition": "An electrocardiographic finding of premature ventricular complexes which have two or more distinct morphologies, suggesting origin at more than one ventricular site.", "preferredTerm": "Multifocal VES; Multifocal VPCS; Multifocal Ventricular Extra Beats; Premature Ventricular Complexes Multifocal", "submissionValue": "ECG Result", "synonyms": ["Multifocal Ventricular Premature Complex by ECG Finding"]}, {"conceptId": "C102725", "definition": "An electrocardiographic finding of premature ventricular complexes which have a single distinct morphology, suggesting origin at one ventricular site.", "preferredTerm": "Premature Ventricular Complexes Unifocal; Unifocal VES; Unifocal VPCS; Unifocal Ventricular Extra Beats", "submissionValue": "ECG Result", "synonyms": ["Unifocal Ventricular Premature Complex by ECG Finding"]}, {"conceptId": "C71034", "definition": "An electrocardiographic finding in which the QT interval not corrected for heart rate is prolonged. Thresholds for different age, gender, and patient populations exist.", "preferredTerm": "Prolonged QT; Prolonged QT interval", "submissionValue": "ECG Result", "synonyms": ["Prolonged QT Interval by ECG Finding"]}, {"conceptId": "C71094", "definition": "An electrocardiographic finding of a frontal plane QRS axis from -30 to -90 degrees.", "preferredTerm": "Left-axis deviation; Q Axis, Left axis deviation; QRS axis, left axis deviation", "submissionValue": "ECG Result", "synonyms": ["Q Axis Left Axis Deviation"]}, {"conceptId": "C71095", "definition": "An electrocardiographic finding of a frontal plane QRS axis from +90 to +180 degrees.", "preferredTerm": "Q Axis, Right axis deviation; QRS axis, right axis deviation; Right-axis deviation", "submissionValue": "ECG Result", "synonyms": ["Q Axis Right Axis Deviation"]}, {"conceptId": "C90440", "definition": "An electrocardiographic finding of a non-specific abnormality of the QRS complex, which is atypical in shape, duration, amplitude, axis or polarity.", "preferredTerm": "QRS Complex Abnormality", "submissionValue": "ECG Result", "synonyms": ["QRS Complex Abnormality by ECG Finding"]}, {"conceptId": "C83817", "definition": "An electrocardiographic finding in which the QTc interval corrected for heart rate is prolonged. Thresholds for different age, gender, and patient populations exist.", "preferredTerm": "QTc Prolongation", "submissionValue": "ECG Result", "synonyms": ["Corrected Prolonged QT Interval by ECG Finding"]}, {"conceptId": "C107098", "definition": "An electrocardiographic finding in which the QT interval corrected for heart rate using Bazett's formula is prolonged. Thresholds for different age, gender, and patient populations exist.", "preferredTerm": "PROLONGED QTcB", "submissionValue": "ECG Result", "synonyms": ["QTcB Prolongation"]}, {"conceptId": "C107099", "definition": "An electrocardiographic finding in which the QT interval corrected for heart rate using Fridericia's formula is prolonged. Thresholds for different age, gender, and patient populations exist.", "preferredTerm": "PROLONGED QTcF", "submissionValue": "ECG Result", "synonyms": ["QTcF Prolongation"]}, {"conceptId": "C114161", "definition": "An electrocardiographic artifact or recording error with unknown origin or which is not described otherwise.", "preferredTerm": "Unknown Quality Problem", "submissionValue": "ECG Result", "synonyms": ["Quality Problem Not Otherwise Specified by ECG Finding"]}, {"conceptId": "C61395", "definition": "An electrocardiographic finding in which the R wave of a premature ventricular complex occurs on top of the T wave of the preceding beat.", "preferredTerm": "R on T phenomenon", "submissionValue": "ECG Result", "synonyms": ["R On T Phenomenon by ECG Finding"]}, {"conceptId": "C90444", "definition": "An electrocardiographic finding of an R wave variant in which there is a small deflection of the R wave, with changing polarity, within the QRS complex. (NCI)", "preferredTerm": "R Wave Notched", "submissionValue": "ECG Result", "synonyms": ["R Wave Notched by ECG Finding"]}, {"conceptId": "C102574", "definition": "An electrocardiographic finding of an abnormality of T wave duration or morphology or of early repolarization.", "preferredTerm": "Repolarization Abnormality", "submissionValue": "ECG Result", "synonyms": ["Ventricular Repolarization Abnormality"]}, {"conceptId": "C102706", "definition": "An electrocardiographic finding of ST depression and T wave inversion in the presence of increased QRS amplitude which are thought to be due to left ventricular hypertrophy.", "preferredTerm": "Repolarization Abnormality Secondary To Ventricular Hypertrophy; ST-T change due to ventricular hypertrophy", "submissionValue": "ECG Result", "synonyms": ["Repolarization Abnormality Secondary To Ventricular Hypertrophy"]}, {"conceptId": "C71041", "definition": "An electrocardiographic finding suggesting underlying hypertrophy or dilatation of the right atrium. Electrocardiographic criteria used for the diagnosis of right atrial abnormality may include a peaked p wave greater than 2.5 millimeters in amplitude in the inferior leads. (NCI)", "preferredTerm": "P-pulmonale; Right Atrial Enlargement", "submissionValue": "ECG Result", "synonyms": ["P-pulmonale by ECG Finding"]}, {"conceptId": "C62270", "definition": "An electrocardiographic finding of a wide QRS complex with evidence of delayed conduction to the right ventricle, manifest by a widened initial portion of the QRS in V1 and V2, a widened S wave in V5, V6, I and aVL, and with QRS duration greater than or equal to 120 ms. An RsR' complex is typically present in leads V1 and V2.", "preferredTerm": "Complete RBBB; Right bundle branch block; Right bundle-branch block", "submissionValue": "ECG Result", "synonyms": ["Right Bundle Branch Block by ECG Finding"]}, {"conceptId": "C92235", "definition": "An electrocardiographic finding in which there is evidence that electrical transmission through the right ventricle is impaired with a maximal QRS duration of 110 ms and which does not meet the criteria for Incomplete Right Bundle Branch Block.", "preferredTerm": "Right Ventricular Conduction Delay; Right Ventricular Delay", "submissionValue": "ECG Result", "synonyms": ["Right Ventricular Conduction Delay by ECG Finding"]}, {"conceptId": "C71077", "definition": "An electrocardiographic finding suggestive of a hypertrophied right ventricle, characterized by large R wave amplitudes in the right precordial leads and secondary findings of right atrial enlargement, right axis deviation, and typical pattern of ST depression and T wave inversion in the right precordial leads.", "preferredTerm": "Right ventricular Hypertrophy", "submissionValue": "ECG Result", "synonyms": ["Right Ventricular Hypertrophy by ECG Finding"]}, {"conceptId": "C92227", "definition": "An electrocardiographic finding in which there are two R waves, which are two deflections above the baseline resulting from a single ventricular depolarization. The first upward deflection in the complex is the R wave. The S is the first downward deflection. A second upward deflection is called the R-prime wave.", "preferredTerm": "RSR'", "submissionValue": "ECG Result", "synonyms": ["RSR' by ECG Finding"]}, {"conceptId": "C35519", "definition": "An electrocardiographic finding suggesting an infarction in the anatomic location of the cardiac septum. (NCI)", "preferredTerm": "Septal myocardial infarction", "submissionValue": "ECG Result", "synonyms": ["Septal Myocardial Infarction by ECG Finding"]}, {"conceptId": "C62246", "definition": "An electrocardiographic finding of an abnormally short PR interval. Thresholds for different age, gender, and patient populations exist.", "preferredTerm": "Short PR interval", "submissionValue": "ECG Result", "synonyms": ["Short PR Interval by ECG Finding"]}, {"conceptId": "C102709", "definition": "An electrocardiographic finding of a QT interval corrected for heart rate that is shorter than the lower limit of normal. Thresholds for different age, gender, and patient populations exist.", "preferredTerm": "Short QTc Interval", "submissionValue": "ECG Result", "synonyms": ["Short QTc Interval"]}, {"conceptId": "C112402", "definition": "An electrocardiographic finding in which the QT interval corrected for heart rate using Bazett's formula is shortened. Thresholds for different age, gender, and patient populations exist.", "preferredTerm": "", "submissionValue": "ECG Result", "synonyms": ["QTcB Shortened"]}, {"conceptId": "C112403", "definition": "An electrocardiographic finding in which the QT interval corrected for heart rate using Fridericia's formula is shortened. Thresholds for different age, gender, and patient populations exist.", "preferredTerm": "", "submissionValue": "ECG Result", "synonyms": ["QTcF Shortened"]}, {"conceptId": "C50553", "definition": "An electrocardiographic finding in which impaired conduction or automaticity within the sinus node results in the failure of impulse transmission from the sinoatrial node. This is manifest as dropped P waves during sinus rhythm.", "preferredTerm": "SA Block; Sinoatrial Block; Sinoatrial exit block", "submissionValue": "ECG Result", "synonyms": ["Exit Block by ECG Finding"]}, {"conceptId": "C62242", "definition": "An electrocardiographic finding in which a failure of impulse formation or conduction in the sinus node produces prolongation of the P-P interval or dropped P waves. The threshold for the prolongation of the P-P interval is not well defined.", "preferredTerm": "Sinus arrest/pause; Sinus pause or arrest", "submissionValue": "ECG Result", "synonyms": ["Sinus Arrest by ECG Finding"]}, {"conceptId": "C62239", "definition": "An electrocardiographic finding in which the sinus rate fluctuates with the respiratory cycle.", "preferredTerm": "Respiratory Sinus Arrhythmia; Sinus arrhythmia", "submissionValue": "ECG Result", "synonyms": ["Sinus Arrhythmia by ECG Finding"]}, {"conceptId": "C111097", "definition": "An electrocardiographic finding of abnormally slow heart rate with its origin in the sinus node. Thresholds for different age, gender, and patient populations exist.", "preferredTerm": "Sinus bradycardia", "submissionValue": "ECG Result", "synonyms": ["Sinus Bradycardia by ECG Finding"]}, {"conceptId": "C100076", "definition": "An electrocardiographic finding of an atrial rhythm which originates from the sinoatrial node that is considered normal for the population.", "preferredTerm": "Sinus Rhythm", "submissionValue": "ECG Result", "synonyms": ["Sinus Rhythm"]}, {"conceptId": "C111104", "definition": "An electrocardiographic finding of abnormally rapid heart rate with its origin in the sinus node. Thresholds for different age, gender, and patient populations exist.", "preferredTerm": "Sinus tachycardia", "submissionValue": "ECG Result", "synonyms": ["Sinus Tachycardia by ECG Finding"]}, {"conceptId": "C41330", "definition": "An electrocardiographic finding of ST segment depression below the baseline, often described as up sloping, down sloping or horizontal. (NCI)", "preferredTerm": "ST depression", "submissionValue": "ECG Result", "synonyms": ["ST Segment Depression by ECG Finding"]}, {"conceptId": "C50540", "definition": "An electrocardiographic finding of ST segment elevation above the baseline. (NCI)", "preferredTerm": "ST elevation", "submissionValue": "ECG Result", "synonyms": ["ST Segment Elevation by ECG Finding"]}, {"conceptId": "C71029", "definition": "An electrocardiographic finding of ST elevation which is concave upwards, and which is often accompanied by PR segment depression.", "preferredTerm": "ST elevation pericarditis", "submissionValue": "ECG Result", "synonyms": ["ST Elevation Pericarditis by ECG Finding"]}, {"conceptId": "C111100", "definition": "An electrocardiographic finding of a tachycardia which does not originate in the ventricles or His Purkinje system. There is an abnormally high heart rate and QRS complexes are typically narrow, but aberration or preexcitation may be present.", "preferredTerm": "Supraventricular tachycardia", "submissionValue": "ECG Result", "synonyms": ["Supraventricular Tachycardia by ECG Finding"]}, {"conceptId": "C114173", "definition": "An electrocardiographic recording in which an interchange of one or more limb lead electrodes is suspected, but for which an interpretation is performed as though the lead placement is correct.", "preferredTerm": "", "submissionValue": "ECG Result", "synonyms": ["Suspicion of Limb Electrodes Reversal But Interpretation Assumes No Reversal by ECG Finding"]}, {"conceptId": "C114174", "definition": "An electrocardiographic recording in which an interchange of one or more limb lead electrodes is suspected, and for which an interpretation is performed as though the leads have in fact been interchanged.", "preferredTerm": "", "submissionValue": "ECG Result", "synonyms": ["Suspicion of Limb Electrodes Reversal But Interpretation Assumes Reversal by ECG Finding"]}, {"conceptId": "C71052", "definition": "An electrocardiographic finding of ventricular tachycardia greater than 30 seconds in duration. (NCI)", "preferredTerm": "Sustained ventricular tachycardia", "submissionValue": "ECG Result", "synonyms": ["Sustained Ventricular Tachycardia by ECG Finding"]}, {"conceptId": "C102718", "definition": "An electrocardiographic finding in which there are variations in the shape, amplitude, or direction of the T wave from one beat to the next.", "preferredTerm": "T Wave Alternans", "submissionValue": "ECG Result", "synonyms": ["T Wave Alternans by ECG Finding"]}, {"conceptId": "C71085", "definition": "An electrocardiographic finding of an inversion of the T wave from the expected axis. (NCI)", "preferredTerm": "T Wave Inversion", "submissionValue": "ECG Result", "synonyms": ["T Wave Inversion by ECG Finding"]}, {"conceptId": "C71086", "definition": "An electrocardiographic finding in which the T wave appears increased in amplitude and cresting at a point. (NCI)", "preferredTerm": "T wave peaked", "submissionValue": "ECG Result", "synonyms": ["T Wave Peaked by ECG Finding"]}, {"conceptId": "C71087", "definition": "An electrocardiographic finding of a T wave with both positive and negative components.", "preferredTerm": "T waves biphasic", "submissionValue": "ECG Result", "synonyms": ["T Waves Biphasic by ECG Finding"]}, {"conceptId": "C71088", "definition": "An electrocardiographic finding in which the T wave appears decreased in amplitude. (NCI)", "preferredTerm": "T waves flat", "submissionValue": "ECG Result", "synonyms": ["T Waves Flat by ECG Finding"]}, {"conceptId": "C111121", "definition": "An electrocardiographic finding of abnormally rapid heart rate. Thresholds for different age, gender, and patient populations exist.", "preferredTerm": "Tachycardia", "submissionValue": "ECG Result", "synonyms": ["Tachycardia by ECG Finding"]}, {"conceptId": "C50779", "definition": "An electrocardiographic finding of an atypical rapid polymorphic ventricular tachycardia with a characteristic rotation of the QRS complex around the isoelectric baseline, occurring in the setting of a prolonged QT interval. In addition, the QRS complex displays a periodic waxing and waning of amplitude on the electrogram.", "preferredTerm": "Torsades de pointes; Ventricular tachycardia, torsades de pointes", "submissionValue": "ECG Result", "synonyms": ["Torsades De Pointes by ECG Finding"]}, {"conceptId": "C106579", "definition": "An electrocardiographic finding of U waves which have increased amplitude, are inverted, or merged with the preceding T wave.", "preferredTerm": "Abnormal U Wave", "submissionValue": "ECG Result", "synonyms": ["U Wave Abnormality by ECG Finding"]}, {"conceptId": "C114170", "definition": "A statement indicating the inability to digitize a paper ECG.", "preferredTerm": "", "submissionValue": "ECG Result", "synonyms": ["Inability to Digitize ECG Leads"]}, {"conceptId": "C71054", "definition": "An electrocardiographic finding of a normal QRS followed by a premature ventricular complex; a rhythmic pairing of normal and abnormal beats originating in the ventricles in a 1-1 ratio.", "preferredTerm": "Bigeminy", "submissionValue": "ECG Result", "synonyms": ["Ventricular Bigeminy by ECG Finding"]}, {"conceptId": "C62259", "definition": "An electrocardiographic finding in which two premature ventricular complexes occur sequentially.", "preferredTerm": "Ventricular Pair; Ventricular couplet", "submissionValue": "ECG Result", "synonyms": ["Ventricular Couplet by ECG Finding"]}, {"conceptId": "C90483", "definition": "An electrocardiographic finding of a compensatory ventricular complex that occurs following a prolonged RR interval.", "preferredTerm": "Ventricular Escape Beat; Ventricular escape complex(es)", "submissionValue": "ECG Result", "synonyms": ["Ventricular Escape Beat by ECG Finding"]}, {"conceptId": "C111102", "definition": "An electrocardiographic finding of a rapid grossly irregular ventricular rhythm with marked variability in QRS cycle length, morphology, and amplitude. The rate is typically greater than 300 bpm.", "preferredTerm": "Ventricular fibrillation", "submissionValue": "ECG Result", "synonyms": ["Ventricular Fibrillation by ECG Finding"]}, {"conceptId": "C111115", "definition": "A ventricular tachyarrhythmia characterized by a high ventricular rate (180 to 250 beats per minute) with a regular rhythm. The electrocardiogram shows large oscillating sine wave-like complexes occurring as a result of QRS complexes and T waves being merged. The P wave is not visible. (NCI)", "preferredTerm": "Ventricular flutter", "submissionValue": "ECG Result", "synonyms": ["Ventricular Flutter by ECG Finding"]}, {"conceptId": "C102728", "definition": "An electrocardiographic finding of normal sinus rhythm coexisting with a regular ectopic ventricular rhythm.", "preferredTerm": "Parasystole; Ventricular Parasystole", "submissionValue": "ECG Result", "synonyms": ["Ventricular Parasystole by ECG Finding"]}, {"conceptId": "C111103", "definition": "An electrocardiographic finding of three or more consecutive complexes of ventricular organ with a rate greater than a certain threshold (100 or 120 beats per minute are commonly used). The QRS complexes are wide and have an abnormal morphology.", "preferredTerm": "Ventricular tachycardia", "submissionValue": "ECG Result", "synonyms": ["Ventricular Tachycardia by ECG Finding"]}, {"conceptId": "C62234", "definition": "An electrocardiographic finding of a ventricular tachycardia in which the QRS complexes have a uniform morphology.", "preferredTerm": "Ventricular tachycardia, monomorphic", "submissionValue": "ECG Result", "synonyms": ["Monomorphic Ventricular Tachycardia by ECG Finding"]}, {"conceptId": "C62236", "definition": "An electrocardiographic finding of a ventricular tachycardia in which the QRS complexes have a variable morphology and often rate.", "preferredTerm": "Ventricular tachycardia, polymorphic; Ventricular tachycardia, polymorphous", "submissionValue": "ECG Result", "synonyms": ["Polymorphic Ventricular Tachycardia by ECG Finding"]}, {"conceptId": "C71055", "definition": "An electrocardiographic finding of two sinus beats followed by a premature ventricular complex for 3 or more consecutive cycles; a regularly irregular rhythm of normal and abnormal QRS complexes in a 2-1 ratio.", "preferredTerm": "Trigeminy", "submissionValue": "ECG Result", "synonyms": ["Ventricular Trigeminy by ECG Finding"]}, {"conceptId": "C62240", "definition": "An electrocardiographic finding of a supraventricular arrhythmia characterized by 3 or more distinct P wave morphologies with an isoelectric baseline, variable PR intervals and no predominant atrial rhythm. The ventricular rate is typically below 100 beats per minute.", "preferredTerm": "Wandering atrial pacemaker", "submissionValue": "ECG Result", "synonyms": ["Wandering Atrial Pacemaker by ECG Finding"]}, {"conceptId": "C71090", "definition": "An electrocardiographic finding of three or more consecutive wide QRS complexes of uncertain origin with a rate greater than a certain threshold (100 or 120 beats per minute are commonly used).", "preferredTerm": "Wide QRS tachycardia; Wide-QRS tachycardia", "submissionValue": "ECG Result", "synonyms": ["Wide QRS Tachycardia by ECG Finding"]}, {"conceptId": "C35132", "definition": "An electrocardiographic finding of ventricular pre-excitation. The syndrome is characterized by a short PR interval and a long QRS interval with a delta wave.", "preferredTerm": "WPW; Wolff-Parkinson-White syndrome", "submissionValue": "ECG Result", "synonyms": ["Wolff-Parkinson-White Syndrome"]}]}, {"conceptId": "", "definition": "Terminology codelist used with ECG Tests within CDISC.", "extensible": "Yes", "name": "ECG Test Code", "preferredTerm": "ECG Test Code", "submissionValue": "ECG Test Code", "synonyms": ["CDISC SDTM ECG Test Terminology by Code"], "terms": [{"conceptId": "C111131", "definition": "An electrocardiographic assessment of cardiac atrioventricular conduction.", "preferredTerm": "Atrioventricular Conduction", "submissionValue": "ECG Test Code", "synonyms": ["Atrioventricular Conduction ECG Assessment"]}, {"conceptId": "C111132", "definition": "An electrocardiographic assessment of mean cardiac electrical vector and the ECG voltage.", "preferredTerm": "Axis and Voltage", "submissionValue": "ECG Test Code", "synonyms": ["Axis and Voltage ECG Assessment"]}, {"conceptId": "C111155", "definition": "An electrocardiographic assessment of chamber hypertrophy or enlargement.", "preferredTerm": "Chamber Hypertrophy or Enlargement", "submissionValue": "ECG Test Code", "synonyms": ["Chamber Hypertrophy or Enlargement ECG Assessment"]}, {"conceptId": "C39779", "definition": "The minimum time between successive cycles of contraction and subsequent relaxation of the heart, usually expressed as beats per minute, obtained from a set of measurements of the heart rate. (NCI)", "preferredTerm": "Summary (Max) Heart Rate", "submissionValue": "ECG Test Code", "synonyms": ["Maximum Heart Rate"]}, {"conceptId": "C62095", "definition": "The average (mean) number of cycles of contraction and subsequent relaxation of the heart, usually expressed as beats per minute, obtained from a set of measurements of the heart rate. (NCI)", "preferredTerm": "Summary (Mean) Heart Rate", "submissionValue": "ECG Test Code", "synonyms": ["Mean Heart Rate"]}, {"conceptId": "C102249", "definition": "The median number of cycles of contraction and subsequent relaxation of the heart, usually expressed as beats per minute, obtained from a set of measurements of the heart rate.", "preferredTerm": "Summary (Median) Heart Rate", "submissionValue": "ECG Test Code", "synonyms": ["Median Heart Rate"]}, {"conceptId": "C62096", "definition": "The maximum time between successive cycles of contraction and subsequent relaxation of the heart, usually expressed as beats per minute, obtained from a set of measurements of the heart rate. (NCI)", "preferredTerm": "Summary (Min) Heart Rate", "submissionValue": "ECG Test Code", "synonyms": ["Minimum Heart Rate"]}, {"conceptId": "C41255", "definition": "An act or process of elucidation; explication, or explanation of the meaning of the event or thing via the assignment of objects from the domain to the constants of a formal language, truth-values to the proposition symbols, truth-functions to the connectives, other functions to the function symbols, and extensions to the predicates, if any. The assignments are result of human logic application and are not native to the symbols of the formal language.", "preferredTerm": "Interpretation", "submissionValue": "ECG Test Code", "synonyms": ["Interpretation"]}, {"conceptId": "C111238", "definition": "An electrocardiographic assessment of intraventricular and intra-atrial conduction.", "preferredTerm": "Intraventricular and Intraatrial Conduction", "submissionValue": "ECG Test Code", "synonyms": ["Intraventricular and Intraatrial Conduction ECG Assessment"]}, {"conceptId": "C62118", "definition": "A formula which takes into account the physiologic shortening of the JT interval which occurs as the heart rate increases, permitting comparison of the JT interval across a range of rates. It is mathematically defined as: JTcB = JT/SqRootRR(seconds) and theoretically corrects the JT interval to that which would be observed at a heart rate of 1 cycle per second. (NCI)", "preferredTerm": "JTcB - Bazett's Correction Formula", "submissionValue": "ECG Test Code", "synonyms": ["JTcB - Bazett's Correction Formula"]}, {"conceptId": "C62119", "definition": "A formula which takes into account the physiologic shortening of the JT interval which occurs as the heart rate increases, permitting comparison of the JT interval across a range of rates. It is mathematically defined as: JTcF = JT/CubeRootRR(seconds) and theoretically corrects the JT interval to that which would be observed at a heart rate of 1 cycle per second. (NCI)", "preferredTerm": "JTcF - Fridericia's Correction Formula", "submissionValue": "ECG Test Code", "synonyms": ["JTcF - Fridericia's Correction Formula"]}, {"conceptId": "C62120", "definition": "A formula which takes into account the physiologic shortening of the JT interval which occurs as the heart rate increases, permitting comparison of the JT interval across a range of rates. The linear correction formula uses population-based data obtained and validated using a large cohort of subjects. Using this method, the corrected JT interval is independent of the ventricular rate. (NCI)", "preferredTerm": "JTcLC - Linear Correction Formula", "submissionValue": "ECG Test Code", "synonyms": ["JTcLC - Linear Correction Formula"]}, {"conceptId": "C62117", "definition": "The maximum duration (time) of the JT interval, obtained from a set of measurements of the JT interval. The JT interval is defined as the time from the J point (end of ventricular depolarization, the point at which the QRS meets the ST segment) to the end of the T wave (representing the end of ventricular repolarization). (NCI)", "preferredTerm": "Summary (Max) JT Interval", "submissionValue": "ECG Test Code", "synonyms": ["Maximum JT Duration"]}, {"conceptId": "C62115", "definition": "The average (mean) duration (time) of the JT interval, obtained from a set of measurements of the JT interval. The JT interval is defined as the time from the J point (end of ventricular depolarization, the point at which the QRS meets the ST segment) to the end of the T wave (representing the end of ventricular repolarization). (NCI)", "preferredTerm": "Summary (Mean) JT Interval", "submissionValue": "ECG Test Code", "synonyms": ["Mean JT Duration"]}, {"conceptId": "C62116", "definition": "The minimum duration (time) of the JT interval, obtained from a set of measurements of the JT interval. The JT interval is defined as the time from the J point (end of ventricular depolarization, the point at which the QRS meets the ST segment) to the end of the T wave (representing the end of ventricular repolarization). (NCI)", "preferredTerm": "Summary (Min) JT Interval", "submissionValue": "ECG Test Code", "synonyms": ["Minimum JT Duration"]}, {"conceptId": "C111280", "definition": "An electrocardiographic assessment of findings suggestive of myocardial infarction.", "preferredTerm": "Myocardial Infarction", "submissionValue": "ECG Test Code", "synonyms": ["Myocardial Infarction ECG Assessment"]}, {"conceptId": "C111285", "definition": "An electrocardiographic assessment of presence of artificial electronic pacing.", "preferredTerm": "Pacemaker", "submissionValue": "ECG Test Code", "synonyms": ["Pacemaker ECG Assessment"]}, {"conceptId": "C62121", "definition": "The mean (average) direction (range -180 degrees to 180 degrees) of the electrical potential generated by atrial depolarization in a particular plane (usually the frontal plane). (NCI)", "preferredTerm": "Summary (Mean) P Axis", "submissionValue": "ECG Test Code", "synonyms": ["Mean P Axis"]}, {"conceptId": "C62131", "definition": "The maximum duration (time) of the PR interval, obtained from a set of measurements of the PR interval. The PR interval is defined as the time from the beginning of the P wave (representing the onset of atrial depolarization) to the beginning of the R wave (representing the onset of ventricular depolarization). In some cases, a Q wave will precede the R wave, in which case the PR interval is measured from the beginning of the P wave to the beginning of the Q wave. (NCI)", "preferredTerm": "Summary (Max) PR Duration", "submissionValue": "ECG Test Code", "synonyms": ["Maximum PR Duration"]}, {"conceptId": "C62086", "definition": "The average (mean) duration (time) of the PR interval, obtained from a set of measurements of the PR interval. The PR interval is defined as the time from the beginning of the P wave (representing the onset of atrial depolarization) to the beginning of the R wave (representing the onset of ventricular depolarization). In some cases, a Q wave will precede the R wave, in which case the PR interval is measured from the beginning of the P wave to the beginning of the Q wave. (NCI)", "preferredTerm": "Summary (Mean) PR Duration", "submissionValue": "ECG Test Code", "synonyms": ["Mean PR Duration"]}, {"conceptId": "C102250", "definition": "The median duration (time) of the PR interval, obtained from a set of measurements of the PR interval. The PR interval is defined as the time from the beginning of the P wave (representing the onset of atrial depolarization) to the beginning of the R wave (representing the onset of ventricular depolarization). In some cases, a Q wave will precede the R wave, in which case the PR interval is measured from the beginning of the P wave to the beginning of the Q wave.", "preferredTerm": "Summary (Median) PR Duration", "submissionValue": "ECG Test Code", "synonyms": ["Median PR Duration"]}, {"conceptId": "C62125", "definition": "The minimum duration (time) of the PR interval, obtained from a set of measurements of the PR interval. The PR interval is defined as the time from the beginning of the P wave (representing the onset of atrial depolarization) to the beginning of the R wave (representing the onset of ventricular depolarization). In some cases, a Q wave will precede the R wave, in which case the PR interval is measured from the beginning of the P wave to the beginning of the Q wave. (NCI)", "preferredTerm": "Summary (Min) PR Duration", "submissionValue": "ECG Test Code", "synonyms": ["Minimum PR Duration"]}, {"conceptId": "C62123", "definition": "The average (mean) duration (time) from the onset of atrial depolarization to the completion of atrial depolarization (length of the P wave), obtained from a set of measurements of the time from beginning to end of atrial depolarization. (NCI)", "preferredTerm": "Summary (Mean) P Wave Duration", "submissionValue": "ECG Test Code", "synonyms": ["Mean P Wave Duration"]}, {"conceptId": "C62124", "definition": "The average (mean) height (usually measured in mm) of the maximum deflection from baseline of the P wave (representing atrial depolarization), obtained from a set of measurements of the P wave, from a single lead or set of leads. Typically this measurement is obtained by analysis of Lead II. (NCI)", "preferredTerm": "Summary (Mean) P Wave Height", "submissionValue": "ECG Test Code", "synonyms": ["Mean P Wave Height"]}, {"conceptId": "C62132", "definition": "The mean (average) direction of the electrical potential generated by ventricular depolarization. (NCI)", "preferredTerm": "Summary (Mean) QRS Axis", "submissionValue": "ECG Test Code", "synonyms": ["Mean QRS Axis"]}, {"conceptId": "C62087", "definition": "The average (mean) duration (time) of the QRS interval, obtained from a set of measurements of the QRS interval. The QRS interval is defined as the time from the beginning of the QRS complex to the end of the QRS complex, representing the time it takes for the ventricles to depolarize. (NCI)", "preferredTerm": "Summary (Mean) QRS Duration", "submissionValue": "ECG Test Code", "synonyms": ["Mean QRS Duration"]}, {"conceptId": "C100390", "definition": "The average (mean) duration (time) of the QRS interval, obtained from a set of measurements of the QRS interval while the ventricle rhythm is controlled by an electrical impulse from a mechanical cardiac pacemaker. The QRS interval is defined as the time from the beginning of the QRS complex to the end of the QRS complex, representing the time it takes for the ventricles to depolarize.", "preferredTerm": "QRS Duration Ventricular Paced", "submissionValue": "ECG Test Code", "synonyms": ["Mean QRS Duration Ventricular Paced"]}, {"conceptId": "C102251", "definition": "The median duration (time) of the QRS interval, obtained from a set of measurements of the QRS interval. The QRS interval is defined as the time from the beginning of the QRS complex to the end of the QRS complex, representing the time it takes for the ventricles to depolarize.", "preferredTerm": "Summary (Median) QRS Duration", "submissionValue": "ECG Test Code", "synonyms": ["Median QRS Duration"]}, {"conceptId": "C100391", "definition": "The time interval between the start of the Q wave and the end of the T wave in the cardiac cycle as corrected with a non-specified correction formula.", "preferredTerm": "QT Interval, Corrected", "submissionValue": "ECG Test Code", "synonyms": ["Corrected QT Interval"]}, {"conceptId": "C62112", "definition": "A formula which takes into account the physiologic shortening of the QT interval which occurs as the heart rate increases, permitting comparison of the QT interval across a range of rates. It is mathematically defined as: QTcB = QT/SqRootRR(seconds) and theoretically corrects the QT interval to that which would be observed at a heart rate of 1 cycle per second. (NCI)", "preferredTerm": "QTcB - Bazett's Correction Formula", "submissionValue": "ECG Test Code", "synonyms": ["QTcB - Bazett's Correction Formula"]}, {"conceptId": "C62113", "definition": "A formula which takes into account the physiologic shortening of the QT interval which occurs as the heart rate increases, permitting comparison of the QT interval across a range of rates. It is mathematically defined as: QTcF = QT/CubeRootRR(seconds) and theoretically corrects the QT interval to that which would be observed at a heart rate of 1 cycle per second. (NCI)", "preferredTerm": "QTcF - Fridericia's Correction Formula", "submissionValue": "ECG Test Code", "synonyms": ["QTcF - Fridericia's Correction Formula"]}, {"conceptId": "C102253", "definition": "The median duration (time) of the QTc interval, obtained from a set of measurements of the QT interval and corrected using the Fridericia's correction Formula.", "preferredTerm": "Summary (Median) QTcF", "submissionValue": "ECG Test Code", "synonyms": ["Median QTcF"]}, {"conceptId": "C62114", "definition": "A formula which takes into account the physiologic shortening of the QT interval which occurs as the heart rate increases, permitting comparison of the QT interval across a range of rates. The linear correction formula uses population-based data obtained and validated using a large cohort of subjects. This method theoretically corrects the QT interval to that which would be observed at a heart rate of 1 cycle per second. (NCI)", "preferredTerm": "QTcLC - Linear Correction Formula", "submissionValue": "ECG Test Code", "synonyms": ["QTcLC - Linear Correction Formula"]}, {"conceptId": "C90442", "definition": "A mathematic formula defined as: QTcV = QT-0.087[(60/Heart Rate)-1](seconds). It permits comparison of the QT interval across a range of rates, while accounting for the progressive shortening of the QT interval which occurs as the heart rate increases. (NCI)", "preferredTerm": "QTcV - Van de Water's Correction Formula", "submissionValue": "ECG Test Code", "synonyms": ["QTcV - Van de Water's Correction Formula"]}, {"conceptId": "C62135", "definition": "The maximum duration (time) of the QT interval, obtained from a set of measurements of the QT interval. The QT interval is defined as the time from the beginning of the QRS complex to the end of the T wave, representing the time it takes for the ventricles to depolarize and subsequently repolarize. In some cases, the Q wave will be absent, in which case the QT interval is measured from the beginning of the R wave to the end of the T wave. (NCI)", "preferredTerm": "Summary (Max) QT Duration", "submissionValue": "ECG Test Code", "synonyms": ["Maximum QT Duration"]}, {"conceptId": "C62089", "definition": "The average (mean) duration (time) of the QT interval, obtained from a set of measurements of the QT interval. The QT interval is defined as the time from the beginning of the QRS complex to the end of the T wave, representing the time it takes for the ventricles to depolarize and subsequently repolarize. In some cases, the Q wave will be absent, in which case the QT interval is measured from the beginning of the R wave to the end of the T wave. (NCI)", "preferredTerm": "Summary (Mean) QT Duration", "submissionValue": "ECG Test Code", "synonyms": ["Mean QT Duration"]}, {"conceptId": "C102252", "definition": "The median duration (time) of the QT interval, obtained from a set of measurements of the QT interval. The QT interval is defined as the time from the beginning of the QRS complex to the end of the T wave, representing the time it takes for the ventricles to depolarize and subsequently repolarize. In some cases, the Q wave will be absent, in which case the QT interval is measured from the beginning of the R wave to the end of the T wave.", "preferredTerm": "Summary (Median) QT Duration", "submissionValue": "ECG Test Code", "synonyms": ["Median QT Duration"]}, {"conceptId": "C62133", "definition": "The minimum duration (time) of the QT interval, obtained from a set of measurements of the QT interval. The QT interval is defined as the time from the beginning of the QRS complex to the end of the T wave, representing the time it takes for the ventricles to depolarize and subsequently repolarize. In some cases, the Q wave will be absent, in which case the QT interval is measured from the beginning of the R wave to the end of the T wave. (NCI)", "preferredTerm": "Summary (Min) QT Duration", "submissionValue": "ECG Test Code", "synonyms": ["Minimum QT Duration"]}, {"conceptId": "C111307", "definition": "An electrocardiographic assessment of cardiac rhythm not otherwise specified.", "preferredTerm": "Rhythm Not Otherwise Specified", "submissionValue": "ECG Test Code", "synonyms": ["Rhythm Not Otherwise Specified ECG Assessment"]}, {"conceptId": "C62094", "definition": "The maximum duration (time) between successive peaks of R waves in a particular set of RR intervals. (NCI)", "preferredTerm": "Summary (Max) RR Duration", "submissionValue": "ECG Test Code", "synonyms": ["Maximum RR Duration"]}, {"conceptId": "C62090", "definition": "The average (mean) duration (time) of the RR interval, obtained from a set of measurements of the RR interval. The RR interval is defined as the time between successive peaks of the R wave and can be used to measure the ventricular rate. (NCI)", "preferredTerm": "Summary (Mean) RR Duration", "submissionValue": "ECG Test Code", "synonyms": ["Mean RR Duration"]}, {"conceptId": "C102254", "definition": "The median duration (time) of the RR interval, obtained from a set of measurements of the RR interval. The RR interval is defined as the time between successive peaks of the R wave and can be used to measure the ventricular rate.", "preferredTerm": "Summary (Median) RR Duration", "submissionValue": "ECG Test Code", "synonyms": ["Median RR Duration"]}, {"conceptId": "C62093", "definition": "The minimum duration (time) between successive peaks of R waves in a particular set of RR intervals. (NCI)", "preferredTerm": "Summary (Min) RR Duration", "submissionValue": "ECG Test Code", "synonyms": ["Minimum RR Duration"]}, {"conceptId": "C62144", "definition": "The average (mean) amplitude (usually in mm) of the summation of the R and S waves, obtained from a set of measurements of the R and S waves, in a particular lead or set of leads. (NCI)", "preferredTerm": "Summary (Mean) R+S Amplitude", "submissionValue": "ECG Test Code", "synonyms": ["Mean R+S Amplitude"]}, {"conceptId": "C62136", "definition": "The average (mean) amplitude (usually in mm) of the R wave, obtained from a set of measurements of the R wave, in a particular lead or set of leads. (NCI)", "preferredTerm": "Summary (Mean) R Wave Amplitude", "submissionValue": "ECG Test Code", "synonyms": ["Mean R Wave Amplitude"]}, {"conceptId": "C111312", "definition": "An electrocardiographic assessment of sinus node rhythms and arrhythmias.", "preferredTerm": "Sinus Node Rhythms and Arrhythmias", "submissionValue": "ECG Test Code", "synonyms": ["Sinus Node Rhythm and Arrhythmia ECG Assessment"]}, {"conceptId": "C111320", "definition": "An electrocardiographic assessment of supraventricular arrhythmias excluding tachycardias.", "preferredTerm": "Supraventricular Arrhythmias", "submissionValue": "ECG Test Code", "synonyms": ["Supraventricular Arrhythmia ECG Assessment"]}, {"conceptId": "C111321", "definition": "An electrocardiographic assessment of supraventricular tachyarrhythmias.", "preferredTerm": "Supraventricular Tachyarrhythmias", "submissionValue": "ECG Test Code", "synonyms": ["Supraventricular Tachyarrhythmia ECG Assessment"]}, {"conceptId": "C62163", "definition": "The maximum depression (negative deflection from baseline, usually measured in mm) of the ST segment, obtained from a set of measurements of the depression of the ST segment. (NCI)", "preferredTerm": "Summary (Max) ST Depression", "submissionValue": "ECG Test Code", "synonyms": ["Maximum ST Segment Depression by ECG Finding"]}, {"conceptId": "C62161", "definition": "The average (mean) depression (negative deflection from baseline, usually measured in mm) of the ST segment, obtained from a set of measurements of the depression of the ST segment. (NCI)", "preferredTerm": "Summary (Mean) ST Depression", "submissionValue": "ECG Test Code", "synonyms": ["Mean ST Segment Depression by ECG Finding"]}, {"conceptId": "C62162", "definition": "The minimum depression (negative deflection from baseline, usually measured in mm) of the ST segment, obtained from a set of measurements of the depression of the ST segment. (NCI)", "preferredTerm": "Summary (Min) ST Depression", "submissionValue": "ECG Test Code", "synonyms": ["Minimum ST Segment Depression by ECG Finding"]}, {"conceptId": "C62157", "definition": "The maximum deviation (distance from baseline, positive or negative, usually measured in mm) of the ST segment, obtained from a set of measurements of the deviation of the ST segment. (NCI)", "preferredTerm": "Summary (Max) ST Deviation", "submissionValue": "ECG Test Code", "synonyms": ["Maximum ST Deviation"]}, {"conceptId": "C62155", "definition": "The average (mean) deviation (distance from baseline, positive or negative, usually measured in mm) of the ST segment, obtained from a set of measurements of the deviation of the ST segment. (NCI)", "preferredTerm": "Summary (Mean) ST Deviation", "submissionValue": "ECG Test Code", "synonyms": ["Mean ST Deviation"]}, {"conceptId": "C62156", "definition": "The minimum deviation (distance from baseline, positive or negative, usually measured in mm) of the ST segment, obtained from a set of measurements of the deviation of the ST segment. (NCI)", "preferredTerm": "Summary (Min) ST Deviation", "submissionValue": "ECG Test Code", "synonyms": ["Minimum ST Deviation"]}, {"conceptId": "C62160", "definition": "The maximum elevation (positive deflection from baseline, usually measured in mm) of the ST segment, obtained from a set of measurements of the elevation of the ST segment. (NCI)", "preferredTerm": "Summary (Max) ST Elevation", "submissionValue": "ECG Test Code", "synonyms": ["Maximum ST Segment Elevation"]}, {"conceptId": "C62158", "definition": "The average (mean) elevation (positive deflection from baseline, usually measured in mm) of the ST segment, obtained from a set of measurements of the elevation of the ST segment. (NCI)", "preferredTerm": "Summary (Mean) ST Elevation", "submissionValue": "ECG Test Code", "synonyms": ["Mean ST Segment Elevation"]}, {"conceptId": "C62159", "definition": "The minimum elevation (positive deflection from baseline, usually measured in mm) of the ST segment, obtained from a set of measurements of the elevation of the ST segment. (NCI)", "preferredTerm": "Summary (Min) ST Elevation", "submissionValue": "ECG Test Code", "synonyms": ["Minimum ST Segment Elevation"]}, {"conceptId": "C62145", "definition": "The average (mean) duration (time) of the ST segment, measured from the J point at the end of the QRS complex to the beginning of the T wave.", "preferredTerm": "Summary (Mean) ST Segment Duration", "submissionValue": "ECG Test Code", "synonyms": ["Mean ST Segment Duration"]}, {"conceptId": "C111363", "definition": "An electrocardiographic assessment of the characteristics of the ST segment, T wave, and U wave.", "preferredTerm": "ST Segment, T wave, and U wave", "submissionValue": "ECG Test Code", "synonyms": ["ST Segment, T wave, and U wave ECG Assessment"]}, {"conceptId": "C62137", "definition": "The average (mean) amplitude (usually in mm) of the S wave, obtained from a set of measurements of the S wave, in a particular lead or set of leads. (NCI)", "preferredTerm": "Summary (Mean) S Wave Amplitude", "submissionValue": "ECG Test Code", "synonyms": ["Mean S Wave Amplitude"]}, {"conceptId": "C62146", "definition": "The mean (average) direction of the electrical potential generated by ventricular repolarization. (NCI)", "preferredTerm": "Summary (Mean) T Wave Axis", "submissionValue": "ECG Test Code", "synonyms": ["Mean T Wave Axis"]}, {"conceptId": "C62148", "definition": "The average (mean) area under the curve of the deflection from baseline of the T wave (representing ventricular repolarization), obtained from a set of measurements of the T wave, from a single lead or set of leads. (NCI)", "preferredTerm": "Summary (Mean) T Wave Area", "submissionValue": "ECG Test Code", "synonyms": ["Mean T Wave Area"]}, {"conceptId": "C62147", "definition": "The average (mean) duration (time) from the onset of ventricular repolarization to the completion of ventricular repolarization (length of the T wave), obtained from a set of measurements of the time from beginning to end of ventricular repolarization. (NCI)", "preferredTerm": "Summary (Mean) T Wave Duration", "submissionValue": "ECG Test Code", "synonyms": ["Mean T Wave Duration"]}, {"conceptId": "C62149", "definition": "The average (mean) height (usually measured in mm) of the maximum deflection from baseline of the T wave (representing ventricular repolarization), obtained from a set of measurements of the T wave, from a single lead or set of leads. (NCI)", "preferredTerm": "Summary (Mean) T Wave Height", "submissionValue": "ECG Test Code", "synonyms": ["Mean T Wave Height"]}, {"conceptId": "C62154", "definition": "The maximum time between successive cycles of contraction and subsequent relaxation of the ventricles, usually expressed as beats per minute, obtained from a set of measurements of the ventricular rate. (NCI)", "preferredTerm": "Summary (Max) Ventricular Rate", "submissionValue": "ECG Test Code", "synonyms": ["Maximum Ventricular Heart Rate"]}, {"conceptId": "C62152", "definition": "The average (mean) number of cycles of contraction and subsequent relaxation of the ventricles, usually expressed as beats per minute, obtained from a set of measurements of the ventricular rate. (NCI)", "preferredTerm": "Summary (Mean) Ventricular Rate", "submissionValue": "ECG Test Code", "synonyms": ["Mean Ventricular Heart Rate"]}, {"conceptId": "C62153", "definition": "The minimum time between successive cycles of contraction and subsequent relaxation of the ventricles, usually expressed as beats per minute, obtained from a set of measurements of the ventricular rate. (NCI)", "preferredTerm": "Summary (Min) Ventricular Rate", "submissionValue": "ECG Test Code", "synonyms": ["Minimum Ventricular Heart Rate"]}, {"conceptId": "C111330", "definition": "An electrocardiographic assessment of ventricular arrhythmias excluding tachycardias.", "preferredTerm": "Ventricular Arrhythmias", "submissionValue": "ECG Test Code", "synonyms": ["Ventricular Arrhythmia ECG Assessment"]}, {"conceptId": "C111331", "definition": "An electrocardiographic assessment of supraventricular tachyarrhythmias.", "preferredTerm": "Ventricular Tachyarrhythmias", "submissionValue": "ECG Test Code", "synonyms": ["Ventricular Tachyarrhythmia ECG Assessment"]}]}, {"conceptId": "", "definition": "Terminology codelist used with ECG Test Methods within CDISC.", "extensible": "Yes", "name": "ECG Test Method", "preferredTerm": "ECG Test Method", "submissionValue": "ECG Test Method", "synonyms": ["CDISC SDTM ECG Test Method Terminology"], "terms": [{"conceptId": "C90349", "definition": "An electrocardiogram lead placement on the subject using a ten electrode lead set to synthesize standard 12 lead electrocardiograph data to elicit an electrical view of the heart.", "preferredTerm": "10 Lead Standard", "submissionValue": "ECG Test Method", "synonyms": ["10 Lead Standard"]}, {"conceptId": "C71125", "definition": "An electrocardiogram (ECG) lead placement whereby 12 leadpoints are recorded but one standard lead position is missing therefore requiring a Mortara source consistency filter. (NCI)", "preferredTerm": "12 Lead 1 Lead Missing", "submissionValue": "ECG Test Method", "synonyms": ["12 Lead Placement 1 Lead Missing"]}, {"conceptId": "C71116", "definition": "An electrocardiogram (ECG) lead placement whereby the display of the 12 standard ECG leads is in an orderly sequence in a single horizontal display of: aVL, I, -aVR, II, aVF, III, V1 to V6. In the Cabrera display the limb lead aVR is inverted (-aVR) to obtain the same positive leftward orientation as the other 5 limbs. (NCI)", "preferredTerm": "12 Lead Cabrera", "submissionValue": "ECG Test Method", "synonyms": ["12 Lead Placement Cabrera"]}, {"conceptId": "C71123", "definition": "An electrocardiogram (ECG) lead placement whereby 4 chest electrodes and 1 reference electrode are used to allow for continuous monitoring at the clinical level. This placement creates a 12 lead ECG that allows the acquisition of simultaneous events in the frontal, horizontal and sagittal heart planes with the linear transformation of vectors. This system provides a three-dimensional portrayal of the heart and uses mathematical and fixed coefficients for each lead. (NCI)", "preferredTerm": "12 Lead EASI Dower Transformation", "submissionValue": "ECG Test Method", "synonyms": ["Lead Placement EASI Dower Transformation"]}, {"conceptId": "C71103", "definition": "An electrocardiogram (ECG) lead placement whereby 12 leadpoints are recorded but the standard lead positions have been modified for ECG recording during exercise. Exercise stress testing requires moving the limb electrodes to more central positions on the thorax. The electrodes are placed in bony prominences close to the bases of the respective limbs in order to avoid skeletal muscle artifact, provide stability for recording electrodes and to record waveforms similar to the standard limb sites. (NCI)", "preferredTerm": "12 Lead Mason Likar", "submissionValue": "ECG Test Method", "synonyms": ["12 Lead Placement Mason Likar"]}, {"conceptId": "C71110", "definition": "An electrocardiogram (ECG) lead placement whereby 12 leadpoints are recorded but the Mason Likar lead positions have been modified so that V1 to V6 on the chest are part of a single electrode pad. In addition, lead CM5 is substituted for lead aVR. (NCI)", "preferredTerm": "12 Lead Modified Mason Likar", "submissionValue": "ECG Test Method", "synonyms": ["12 Lead Placement Mason Likar Modified"]}, {"conceptId": "C71114", "definition": "An electrocardiogram (ECG) lead placement whereby the limb leads are placed on the torso for easier and faster application in emergency situations. (NCI)", "preferredTerm": "12 Lead Non-Standard", "submissionValue": "ECG Test Method", "synonyms": ["12 Lead Placement Non-Standard"]}, {"conceptId": "C71112", "definition": "An electrocardiogram (ECG) lead placement whereby 12 leadpoints are recorded but the standard lead positions have been modified so that all leads on the chest are part of a single electrode pad. (NCI)", "preferredTerm": "12 Lead Single Pad", "submissionValue": "ECG Test Method", "synonyms": ["12 Lead Placement Chest"]}, {"conceptId": "C71102", "definition": "An electrocardiogram (ECG) lead placement whereby 12 leads are recorded, with each lead representing an electrical view of the heart. The six leads recorded in the frontal plane are derived from the placement of 3 electrodes (RA or Right Arm, LA, or Left Arm, and LL or Left Leg). These bipolar frontal leads form the basis of Einthoven's triangle, and are represented by leads I, II, and III. Three other derived (or augmented) bipolar frontal vectors are also recorded on a standard 12-lead EKG, aVR, aVF, and aVL. 6 unipolar leads, corresponding to V1 - V6 measure the electrical activity in the horizontal plane. The placement for the V leads is as follows: V1: right 4th intercostal space,V2: left 4th intercostal space, V3: halfway between V2 and V4, V4: left 5th intercostal space, mid-clavicular line, V5: horizontal to V4, anterior axillary line, V6: horizontal to V5, mid-axillary line. (NCI)", "preferredTerm": "12 Lead Standard", "submissionValue": "ECG Test Method", "synonyms": ["12 Lead Placement Standard"]}, {"conceptId": "C71101", "definition": "An electrocardiogram (ECG) lead placement whereby 12 leadpoints are recorded but the position of the leads is unspecified. (NCI)", "preferredTerm": "12 Lead Unspecified", "submissionValue": "ECG Test Method", "synonyms": ["12 Lead Placement Unspecified"]}, {"conceptId": "C90350", "definition": "An electrocardiogram lead placement on the subject using a six electrode lead set with three standard leads and three augmented derived leads to elicit an electrical view of the heart.", "preferredTerm": "6 Lead Standard", "submissionValue": "ECG Test Method", "synonyms": ["6 Lead Standard"]}, {"conceptId": "C71121", "definition": "An electrocardiogram (ECG) lead placement whereby the X+ lead is placed at the right mid-axillary line ate the 4th intercostal space, X- at the left mid-axillary line at he 4th intercostal space, Y+ at the proximal left leg, Y- at the superior aspect of the manubrium, Z+ at the direct posterior to Z- and Z- at the 4th intercostal space at the left sternal margin. (NCI)", "preferredTerm": "Bipolar uncorrected XYZ lead system", "submissionValue": "ECG Test Method", "synonyms": ["Lead Placement Bipolar Uncorrected XYZ"]}, {"conceptId": "C71120", "definition": "An electrocardiogram (ECG) lead placement that is a type of uncorrected vectorcardiograph. This lead system is based on a rectangular body axis. It uses an extra number of electrodes to make it three-dimensional. (NCI)", "preferredTerm": "Cube lead system", "submissionValue": "ECG Test Method", "synonyms": ["Lead Placement Cube"]}, {"conceptId": "C71118", "definition": "An electrocardiogram (ECG) lead placement for determining 3 orthogonal components X (right to left direction), Y (foot to head direction) and Z (back to front direction) of the heart. For this method a minimum of 4 electrodes are needed that represent the right arm, left arm, left leg and back. However, usually 7 electrodes are used to avoid dependence on the dipole location and facilitate interpretation. (NCI)", "preferredTerm": "Frank lead system", "submissionValue": "ECG Test Method", "synonyms": ["Lead Placement Frank"]}, {"conceptId": "C71119", "definition": "An electrocardiogram (ECG) lead placement for determining 3 orthogonal components X (back to front), Y (right to left) and Z (foot to head) of the heart. This 