{"_links": {"parentPackage": {"href": "/mdr/ct/packages/sdtmct-2016-06-24", "title": "SDTM Controlled Terminology Package 26 Effective 2016-06-24", "type": "Terminology"}, "priorVersion": {"href": "/mdr/ct/packages/sdtmct-2016-03-25/codelists/C100135", "title": "CDISC Questionnaire EQ-5D-3L Test Name Terminology", "type": "Code List"}, "rootItem": {"href": "/mdr/root/ct/sdtmct/codelists/C100135", "title": "Version-agnostic anchor resource for codelist C100135", "type": "Root Value Domain"}, "self": {"href": "/mdr/ct/packages/sdtmct-2016-06-24/codelists/C100135", "title": "CDISC Questionnaire EQ-5D-3L Test Name Terminology", "type": "Code List"}}, "conceptId": "C100135", "definition": "European Quality of Life Five Dimension Three Level Scale test name.", "extensible": "false", "name": "European Quality of Life Five Dimension Three Level Scale Questionnaire Test Name", "preferredTerm": "CDISC Questionnaire EQ-5D-3L Test Name Terminology", "submissionValue": "EQ5D01TN", "synonyms": ["European Quality of Life Five Dimension Three Level Scale Questionnaire Test Name"], "terms": [{"conceptId": "C100396", "definition": "European Quality of Life Five Dimension Three Level Scale - Indicate which statements best describe your own health state today: Anxiety/depression.", "preferredTerm": "EQ-5D-3L - Anxiety or Depression", "submissionValue": "EQ5D01-Anxiety/Depression", "synonyms": ["EQ5D01-Anxiety/Depression"]}, {"conceptId": "C100397", "definition": "European Quality of Life Five Dimension Three Level Scale - Indicate on this scale how good or bad your own health is today, in your opinion.", "preferredTerm": "EQ-5D-3L - EQ VAS Score", "submissionValue": "EQ5D01-EQ VAS Score", "synonyms": ["EQ5D01-EQ VAS Score"]}, {"conceptId": "C100392", "definition": "European Quality of Life Five Dimension Three Level Scale - Indicate which statements best describe your own health state today: Mobility.", "preferredTerm": "EQ-5D-3L - Mobility", "submissionValue": "EQ5D01-Mobility", "synonyms": ["EQ5D01-Mobility"]}, {"conceptId": "C100395", "definition": "European Quality of Life Five Dimension Three Level Scale - Indicate which statements best describe your own health state today: Pain/discomfort.", "preferredTerm": "EQ-5D-3L - Pain or Discomfort", "submissionValue": "EQ5D01-Pain/Discomfort", "synonyms": ["EQ5D01-Pain/Discomfort"]}, {"conceptId": "C100393", "definition": "European Quality of Life Five Dimension Three Level Scale - Indicate which statements best describe your own health state today: Self-care.", "preferredTerm": "EQ-5D-3L - Self-Care", "submissionValue": "EQ5D01-Self-Care", "synonyms": ["EQ5D01-Self-Care"]}, {"conceptId": "C100394", "definition": "European Quality of Life Five Dimension Three Level Scale - Indicate which statements best describe your own health state today: Usual activities.", "preferredTerm": "EQ-5D-3L - Usual Activities", "submissionValue": "EQ5D01-Usual Activities", "synonyms": ["EQ5D01-Usual Activities"]}]}