{"_links": {"parentPackage": {"href": "/mdr/ct/packages/sdtmct-2016-06-24", "title": "SDTM Controlled Terminology Package 26 Effective 2016-06-24", "type": "Terminology"}, "priorVersion": {"href": "/mdr/ct/packages/sdtmct-2016-03-25/codelists/C101867", "title": "CDISC SDTM Lead Status Terminology", "type": "Code List"}, "rootItem": {"href": "/mdr/root/ct/sdtmct/codelists/C101867", "title": "Version-agnostic anchor resource for codelist C101867", "type": "Root Value Domain"}, "self": {"href": "/mdr/ct/packages/sdtmct-2016-06-24/codelists/C101867", "title": "CDISC SDTM Lead Status Terminology", "type": "Code List"}}, "conceptId": "C101867", "definition": "The status of the lead.", "extensible": "true", "name": "Lead Status", "preferredTerm": "CDISC SDTM Lead Status Terminology", "submissionValue": "LEADSTAT", "synonyms": ["Lead Status"], "terms": [{"conceptId": "C99906", "definition": "The lead has been left in situ but is not in use.", "preferredTerm": "Abandoned Lead", "submissionValue": "ABANDONED"}, {"conceptId": "C102283", "definition": "The lead has been removed from the body.", "preferredTerm": "Extracted Lead", "submissionValue": "EXTRACTED"}, {"conceptId": "C102284", "definition": "The lead has been left in situ and reused.", "preferredTerm": "Reused Lead", "submissionValue": "REUSED"}]}