{"_links": {"parentPackage": {"href": "/mdr/ct/packages/sdtmct-2016-06-24", "title": "SDTM Controlled Terminology Package 26 Effective 2016-06-24", "type": "Terminology"}, "priorVersion": {"href": "/mdr/ct/packages/sdtmct-2016-03-25/codelists/C101816", "title": "CDISC Questionnaire ECOG Test Name Terminology", "type": "Code List"}, "rootItem": {"href": "/mdr/root/ct/sdtmct/codelists/C101816", "title": "Version-agnostic anchor resource for codelist C101816", "type": "Root Value Domain"}, "self": {"href": "/mdr/ct/packages/sdtmct-2016-06-24/codelists/C101816", "title": "CDISC Questionnaire ECOG Test Name Terminology", "type": "Code List"}}, "conceptId": "C101816", "definition": "Eastern Cooperative Oncology Group Performance Status test name.", "extensible": "false", "name": "Eastern Cooperative Oncology Group Performance Status Questionnaire Test Name", "preferredTerm": "CDISC Questionnaire ECOG Test Name Terminology", "submissionValue": "ECOG1TN", "synonyms": ["Eastern Cooperative Oncology Group Performance Status Questionnaire Test Name"], "terms": [{"conceptId": "C102408", "definition": "ECOG Performance Status - Performance Status.", "preferredTerm": "ECOG - Performance Status", "submissionValue": "ECOG1-Performance Status", "synonyms": ["ECOG1-Performance Status"]}]}