{"_links": {"parentPackage": {"href": "/mdr/ct/packages/sdtmct-2016-06-24", "title": "SDTM Controlled Terminology Package 26 Effective 2016-06-24", "type": "Terminology"}, "priorVersion": {"href": "/mdr/ct/packages/sdtmct-2016-03-25/codelists/C101844", "title": "CDISC SDTM Coronary Artery Disease Symptoms Terminology", "type": "Code List"}, "rootItem": {"href": "/mdr/root/ct/sdtmct/codelists/C101844", "title": "Version-agnostic anchor resource for codelist C101844", "type": "Root Value Domain"}, "self": {"href": "/mdr/ct/packages/sdtmct-2016-06-24/codelists/C101844", "title": "CDISC SDTM Coronary Artery Disease Symptoms Terminology", "type": "Code List"}}, "conceptId": "C101844", "definition": "A terminology codelist that contains symptoms associated with coronary artery disease.", "extensible": "false", "name": "Coronary Artery Disease Symptoms", "preferredTerm": "CDISC SDTM Coronary Artery Disease Symptoms Terminology", "submissionValue": "CADSYMP", "synonyms": ["Coronary Artery Disease Symptoms"], "terms": [{"conceptId": "C99917", "definition": "Sharp stabbing chest pain or reproduction of pain on palpation. Less common isolated presentations, primarily in older adults, include nausea and vomiting, diaphoresis, and unexplained fatigue. J Am Coll Cardiol, 2007; 50:1-157, doi:10.1016/j.jacc.2007.02.013 (Published online 6 August 2007).", "preferredTerm": "Atypical Coronary Artery Disease Symptom", "submissionValue": "ATYPICAL CORONARY ARTERY DISEASE SYMPTOMS"}, {"conceptId": "C3833", "definition": "The finding of no indications of a particular disease or injury.", "preferredTerm": "Asymptomatic", "submissionValue": "NO SYMPTOMS"}, {"conceptId": "C78504", "definition": "A discomfort in the chest area that is not related to the heart.", "preferredTerm": "Non-Cardiac Chest Pain", "submissionValue": "NON-CARDIAC CHEST PAIN"}, {"conceptId": "C100024", "definition": "Deep, poorly localized chest or arm discomfort that is reproducibly associated with physical exertion or emotional stress and is relieved promptly (ie, in less than 5 minutes) with rest and/or the use of sublingual nitroglycerin. Some patients may have no chest discomfort but present solely with jaw, neck, ear, arm, shoulder, back, or epigastric discomfort or with unexplained dyspnea without discomfort. If these symptoms have a clear relationship to exertion or stress or are relieved promptly with nitrates, they should be considered equivalent to angina. J Am Coll Cardiol, 2007; 50:1-157, doi:10.1016/j.jacc.2007.02.013 (Published online 6 August 2007).", "preferredTerm": "Typical Coronary Artery Disease Symptom", "submissionValue": "TYPICAL CORONARY ARTERY DISEASE SYMPTOMS"}]}