{"_links": {"parentPackage": {"href": "/mdr/ct/packages/sdtmct-2016-06-24", "title": "SDTM Controlled Terminology Package 26 Effective 2016-06-24", "type": "Terminology"}, "priorVersion": {"href": "/mdr/ct/packages/sdtmct-2016-03-25/codelists/C101834", "title": "CDISC SDTM Normal Abnormal Response Terminology", "type": "Code List"}, "rootItem": {"href": "/mdr/root/ct/sdtmct/codelists/C101834", "title": "Version-agnostic anchor resource for codelist C101834", "type": "Root Value Domain"}, "self": {"href": "/mdr/ct/packages/sdtmct-2016-06-24/codelists/C101834", "title": "CDISC SDTM Normal Abnormal Response Terminology", "type": "Code List"}}, "conceptId": "C101834", "definition": "A terminology codelist to describe a normal or abnormal response.", "extensible": "false", "name": "Normal Abnormal Response", "preferredTerm": "CDISC SDTM Normal Abnormal Response Terminology", "submissionValue": "NORMABNM", "synonyms": ["Normal Abnormal Response"], "terms": [{"conceptId": "C25401", "definition": "Deviating in any way from the state, position, structure, condition, behavior, or rule which is considered a norm. (NCI)", "preferredTerm": "Abnormal", "submissionValue": "ABNORMAL"}, {"conceptId": "C48658", "definition": "Cannot distinguish between two or more possible values in the current context. (NCI)", "preferredTerm": "Indeterminate", "submissionValue": "INDETERMINATE", "synonyms": ["Inconclusive"]}, {"conceptId": "C14165", "definition": "Being approximately average or within certain limits; conforming with or constituting a norm or standard or level or type or social norm. (NCI)", "preferredTerm": "Normal", "submissionValue": "NORMAL"}, {"conceptId": "C62222", "definition": "Unable to be evaluated. (NCI)", "preferredTerm": "Unevaluable", "submissionValue": "NOT EVALUABLE", "synonyms": ["Not Assessable", "Not Evaluable"]}, {"conceptId": "C17998", "definition": "Not known, not observed, not recorded, or refused. (NCI)", "preferredTerm": "Unknown", "submissionValue": "UNKNOWN", "synonyms": ["U", "Unknown"]}]}