{"_links": {"parentPackage": {"href": "/mdr/ct/packages/sdtmct-2016-06-24", "title": "SDTM Controlled Terminology Package 26 Effective 2016-06-24", "type": "Terminology"}, "priorVersion": {"href": "/mdr/ct/packages/sdtmct-2016-03-25/codelists/C103460", "title": "CDISC Questionnaire C-SSRS Since Last Visit Test Name Terminology", "type": "Code List"}, "rootItem": {"href": "/mdr/root/ct/sdtmct/codelists/C103460", "title": "Version-agnostic anchor resource for codelist C103460", "type": "Root Value Domain"}, "self": {"href": "/mdr/ct/packages/sdtmct-2016-06-24/codelists/C103460", "title": "CDISC Questionnaire C-SSRS Since Last Visit Test Name Terminology", "type": "Code List"}}, "conceptId": "C103460", "definition": "Columbia-Suicide Severity Rating Scale Since Last Visit test name.", "extensible": "false", "name": "Columbia-Suicide Severity Rating Scale Since Last Visit Questionnaire Test Name", "preferredTerm": "CDISC Questionnaire C-SSRS Since Last Visit Test Name Terminology", "submissionValue": "CSS02TN", "synonyms": ["Columbia-Suicide Severity Rating Scale Since Last Visit Questionnaire Test Name"], "terms": [{"conceptId": "C103793", "definition": "Columbia-Suicide Severity Rating Scale Since Last Visit - Has there been a time when you started to do something to try to end your life but you stopped yourself before you actually did anything?", "preferredTerm": "C-SSRS Since Last Visit - Aborted Suicide Attempt", "submissionValue": "CSS02-Aborted Attempt", "synonyms": ["CSS02-Aborted Attempt"]}, {"conceptId": "C103795", "definition": "Columbia-Suicide Severity Rating Scale Since Last Visit - Description of aborted attempt.", "preferredTerm": "C-SSRS Since Last Visit - Description of Aborted Suicide Attempt", "submissionValue": "CSS02-Aborted Attempt, Describe", "synonyms": ["CSS02-Aborted Attempt, Describe"]}, {"conceptId": "C103786", "definition": "Columbia-Suicide Severity Rating Scale Since Last Visit - Have you made a suicide attempt? Have you done anything to harm yourself? Have you done anything dangerous where you could have died?", "preferredTerm": "C-SSRS Since Last Visit - Actual Suicide Attempt", "submissionValue": "CSS02-Actual Attempt", "synonyms": ["CSS02-Actual Attempt"]}, {"conceptId": "C103788", "definition": "Columbia-Suicide Severity Rating Scale Since Last Visit - Description of actual attempt.", "preferredTerm": "C-SSRS Since Last Visit - Description of Actual Suicide Attempts", "submissionValue": "CSS02-Actual Attempt, Describe", "synonyms": ["CSS02-Actual Attempt, Describe"]}, {"conceptId": "C103800", "definition": "Columbia-Suicide Severity Rating Scale Since Last Visit - Description of active suicidal ideation with some intent to act, without specific plan.", "preferredTerm": "C-SSRS Since Last Visit - Description of Ideation With Intent, No Plan", "submissionValue": "CSS02-Ideation With Intent No Plan Descr", "synonyms": ["CSS02-Ideation With Intent No Plan Descr"]}, {"conceptId": "C103799", "definition": "Columbia-Suicide Severity Rating Scale Since Last Visit - Have you had these thoughts and had some intention of acting on them?", "preferredTerm": "C-SSRS Since Last Visit - Ideation With Intent, No Plan", "submissionValue": "CSS02-Ideation With Intent, No Plan", "synonyms": ["CSS02-Ideation With Intent, No Plan"]}, {"conceptId": "C103801", "definition": "Columbia-Suicide Severity Rating Scale Since Last Visit - Have you started to work out or worked out the details of how to kill yourself? Do you intend to carry out this plan?", "preferredTerm": "C-SSRS Since Last Visit - Ideation With Plan/Intent", "submissionValue": "CSS02-Ideation With Plan/Intent", "synonyms": ["CSS02-Ideation With Plan/Intent"]}, {"conceptId": "C103778", "definition": "Columbia-Suicide Severity Rating Scale Since Last Visit - Description of active suicidal ideation with specific plan and intent.", "preferredTerm": "C-SSRS Since Last Visit - Description of Ideation With Plan and Intent", "submissionValue": "CSS02-Ideation With Plan/Intent, Descr", "synonyms": ["CSS02-Ideation With Plan/Intent, Descr"]}, {"conceptId": "C103790", "definition": "Columbia-Suicide Severity Rating Scale Since Last Visit - Has there been a time when you started to do something to try to end your life but someone or something stopped you before you actually did anything?", "preferredTerm": "C-SSRS Since Last Visit - Interrupted Suicide Attempt", "submissionValue": "CSS02-Interrupted Attempt", "synonyms": ["CSS02-Interrupted Attempt"]}, {"conceptId": "C103792", "definition": "Columbia-Suicide Severity Rating Scale Since Last Visit - Description of interrupted attempt.", "preferredTerm": "C-SSRS Since Last Visit - Description of Interrupted Suicide Attempt", "submissionValue": "CSS02-Interrupted Attempt, Describe", "synonyms": ["CSS02-Interrupted Attempt, Describe"]}, {"conceptId": "C103534", "definition": "Columbia-Suicide Severity Rating Scale Since Last Visit - Most lethal attempt actual lethality/medical damage.", "preferredTerm": "C-SSRS Since Last Visit - Most Lethal Actual Attempt Lethality/Medical Damage", "submissionValue": "CSS02-Most Lethal Attempt Damage", "synonyms": ["CSS02-Most Lethal Attempt Damage"]}, {"conceptId": "C103533", "definition": "Columbia-Suicide Severity Rating Scale Since Last Visit - Most lethal attempt date.", "preferredTerm": "C-SSRS Since Last Visit - Most Lethal Attempt Date", "submissionValue": "CSS02-Most Lethal Attempt Date", "synonyms": ["CSS02-Most Lethal Attempt Date"]}, {"conceptId": "C103535", "definition": "Columbia-Suicide Severity Rating Scale Since Last Visit - Most lethal attempt potential lethality.", "preferredTerm": "C-SSRS Since Last Visit - Most Lethal Actual Attempt Potential Lethality", "submissionValue": "CSS02-Most Lethal Attempt Potential", "synonyms": ["CSS02-Most Lethal Attempt Potential"]}, {"conceptId": "C103779", "definition": "Columbia-Suicide Severity Rating Scale Since Last Visit - Most severe ideation.", "preferredTerm": "C-SSRS Since Last Visit - Most Severe Ideation", "submissionValue": "CSS02-Most Severe Ideation", "synonyms": ["CSS02-Most Severe Ideation"]}, {"conceptId": "C103783", "definition": "Columbia-Suicide Severity Rating Scale Since Last Visit - Could/can you stop thinking about killing yourself or wanting to die if you want to?", "preferredTerm": "C-SSRS Since Last Visit - Control over Most Severe Ideation", "submissionValue": "CSS02-Most Severe Ideation, Control", "synonyms": ["CSS02-Most Severe Ideation, Control"]}, {"conceptId": "C103780", "definition": "Columbia-Suicide Severity Rating Scale Since Last Visit - Description of most severe ideation.", "preferredTerm": "C-SSRS Since Last Visit - Describe Most Severe Ideation", "submissionValue": "CSS02-Most Severe Ideation, Description", "synonyms": ["CSS02-Most Severe Ideation, Description"]}, {"conceptId": "C103784", "definition": "Columbia-Suicide Severity Rating Scale Since Last Visit - Are there things - anyone or anything (e.g., family, religion, pain of death) - that stopped you from wanting to die or acting on thoughts of committing suicide?", "preferredTerm": "C-SSRS Since Last Visit - Deterrents to Most Severe Ideation", "submissionValue": "CSS02-Most Severe Ideation, Deterrents", "synonyms": ["CSS02-Most Severe Ideation, Deterrents"]}, {"conceptId": "C103782", "definition": "Columbia-Suicide Severity Rating Scale Since Last Visit - When you have the thoughts, how long do they last?", "preferredTerm": "C-SSRS Since Last Visit - Duration of Most Severe Ideation", "submissionValue": "CSS02-Most Severe Ideation, Duration", "synonyms": ["CSS02-Most Severe Ideation, Duration"]}, {"conceptId": "C103781", "definition": "Columbia-Suicide Severity Rating Scale Since Last Visit - How many times have you had these thoughts?", "preferredTerm": "C-SSRS Since Last Visit - Frequency of Most Severe Ideation", "submissionValue": "CSS02-Most Severe Ideation, Frequency", "synonyms": ["CSS02-Most Severe Ideation, Frequency"]}, {"conceptId": "C103785", "definition": "Columbia-Suicide Severity Rating Scale Since Last Visit - What sort of reasons did you have for thinking about wanting to die or killing yourself? Was it to end the pain or stop the way you were feeling (in other words you couldn't go on living with this pain or how you were feeling) or was it to get attention, revenge or a reaction from others? Or both?", "preferredTerm": "C-SSRS Since Last Visit - Reasons for Most Severe Ideation", "submissionValue": "CSS02-Most Severe Ideation, Reasons", "synonyms": ["CSS02-Most Severe Ideation, Reasons"]}, {"conceptId": "C103775", "definition": "Columbia-Suicide Severity Rating Scale Since Last Visit - Description of non-specific active suicidal thoughts.", "preferredTerm": "C-SSRS Since Last Visit - Description of Non-Specific Suicide Thought", "submissionValue": "CSS02-Non-Specific Suicid Thought, Descr", "synonyms": ["CSS02-Non-Specific Suicid Thought, Descr"]}, {"conceptId": "C103774", "definition": "Columbia-Suicide Severity Rating Scale Since Last Visit - Have you actually had any thoughts of killing yourself?", "preferredTerm": "C-SSRS Since Last Visit - Non-Specific Suicidal Thought", "submissionValue": "CSS02-Non-Specific Suicidal Thought", "synonyms": ["CSS02-Non-Specific Suicidal Thought"]}, {"conceptId": "C103789", "definition": "Columbia-Suicide Severity Rating Scale Since Last Visit - Has the subject engaged in non-suicidal self-injurious behavior.", "preferredTerm": "C-SSRS Since Last Visit - Non-suicidal Self-injurious Behavior", "submissionValue": "CSS02-Non-suicidal Self-injurious Behav", "synonyms": ["CSS02-Non-suicidal Self-injurious Behav"]}, {"conceptId": "C103794", "definition": "Columbia-Suicide Severity Rating Scale Since Last Visit - Total number of aborted attempts.", "preferredTerm": "C-SSRS Since Last Visit - Number of Aborted Suicide Attempts", "submissionValue": "CSS02-Number of Aborted Attempts", "synonyms": ["CSS02-Number of Aborted Attempts"]}, {"conceptId": "C103787", "definition": "Columbia-Suicide Severity Rating Scale Since Last Visit - Total number of actual attempts.", "preferredTerm": "C-SSRS Since Last Visit - Number of Actual Suicide Attempts", "submissionValue": "CSS02-Number of Actual Attempts", "synonyms": ["CSS02-Number of Actual Attempts"]}, {"conceptId": "C103791", "definition": "Columbia-Suicide Severity Rating Scale Since Last Visit - Total number of interrupted attempts.", "preferredTerm": "C-SSRS Since Last Visit - Number of Interrupted Suicide Attempts", "submissionValue": "CSS02-Number of Interrupted Attempts", "synonyms": ["CSS02-Number of Interrupted Attempts"]}, {"conceptId": "C103796", "definition": "Columbia-Suicide Severity Rating Scale Since Last Visit - Have you taken any steps towards making a suicide attempt or preparing to kill yourself (such as collecting pills, getting a gun, giving valuables away or writing a suicide note)?", "preferredTerm": "C-SSRS Since Last Visit - Preparatory Acts or Behaviors Toward Suicide Attempt", "submissionValue": "CSS02-Preparatory Acts/Behavior", "synonyms": ["CSS02-Preparatory Acts/Behavior"]}, {"conceptId": "C103797", "definition": "Columbia-Suicide Severity Rating Scale Since Last Visit - Description of preparatory acts or behavior.", "preferredTerm": "C-SSRS Since Last Visit - Description of Preparatory Acts or Behaviors Toward Suicide Attempt", "submissionValue": "CSS02-Preparatory Acts/Behavior, Descr", "synonyms": ["CSS02-Preparatory Acts/Behavior, Descr"]}, {"conceptId": "C103798", "definition": "Columbia-Suicide Severity Rating Scale Since Last Visit - Suicidal behavior was present during the assessment period?", "preferredTerm": "C-SSRS Since Last Visit - Suicidal Behavior", "submissionValue": "CSS02-Suicidal Behavior", "synonyms": ["CSS02-Suicidal Behavior"]}, {"conceptId": "C103776", "definition": "Columbia-Suicide Severity Rating Scale Since Last Visit - Have you been thinking about how you might do this?", "preferredTerm": "C-SSRS Since Last Visit - Suicidal Ideation-No Intent", "submissionValue": "CSS02-Suicidal Ideation-No Intent", "synonyms": ["CSS02-Suicidal Ideation-No Intent"]}, {"conceptId": "C103777", "definition": "Columbia-Suicide Severity Rating Scale Since Last Visit - Description of active suicidal ideation with any methods (not plan) without intent to act.", "preferredTerm": "C-SSRS Since Last Visit - Description of Suicidal Ideation-No Intent", "submissionValue": "CSS02-Suicidal Ideation-No Intent, Descr", "synonyms": ["CSS02-Suicidal Ideation-No Intent, Descr"]}, {"conceptId": "C103532", "definition": "Columbia-Suicide Severity Rating Scale Since Last Visit - Suicide.", "preferredTerm": "C-SSRS Since Last Visit - Suicide", "submissionValue": "CSS02-Suicide", "synonyms": ["CSS02-Suicide"]}, {"conceptId": "C103772", "definition": "Columbia-Suicide Severity Rating Scale Since Last Visit - Have you wished you were dead or wished you could go to sleep and not wake up?", "preferredTerm": "C-SSRS Since Last Visit - Wish to be Dead or go to Sleep and not Wake Up", "submissionValue": "CSS02-Wish to be Dead", "synonyms": ["CSS02-Wish to be Dead"]}, {"conceptId": "C103773", "definition": "Columbia-Suicide Severity Rating Scale Since Last Visit - Description of wishing to be dead.", "preferredTerm": "C-SSRS Since Last Visit - Description of Wish to be Dead", "submissionValue": "CSS02-Wish to be Dead, Describe", "synonyms": ["CSS02-Wish to be Dead, Describe"]}]}