{"_links": {"parentPackage": {"href": "/mdr/ct/packages/sdtmct-2016-06-24", "title": "SDTM Controlled Terminology Package 26 Effective 2016-06-24", "type": "Terminology"}, "priorVersion": {"href": "/mdr/ct/packages/sdtmct-2016-03-25/codelists/C106658", "title": "CDISC Questionnaire C-SSRS Already Enrolled Subjects Test Name Terminology", "type": "Code List"}, "rootItem": {"href": "/mdr/root/ct/sdtmct/codelists/C106658", "title": "Version-agnostic anchor resource for codelist C106658", "type": "Root Value Domain"}, "self": {"href": "/mdr/ct/packages/sdtmct-2016-06-24/codelists/C106658", "title": "CDISC Questionnaire C-SSRS Already Enrolled Subjects Test Name Terminology", "type": "Code List"}}, "conceptId": "C106658", "definition": "Columbia-Suicide Severity Rating Scale Already Enrolled Subject test name.", "extensible": "false", "name": "Columbia-Suicide Severity Rating Scale Already Enrolled Subjects Questionnaire Test Name", "preferredTerm": "CDISC Questionnaire C-SSRS Already Enrolled Subjects Test Name Terminology", "submissionValue": "CSS05TN", "synonyms": ["Columbia-Suicide Severity Rating Scale Already Enrolled Subjects Questionnaire Test Name"], "terms": [{"conceptId": "C107072", "definition": "Columbia-Suicide Severity Rating Scale Already Enrolled Subjects - Description of aborted attempt.", "preferredTerm": "C-SSRS Already Enrolled Subjects - Description of Aborted Suicide Attempt", "submissionValue": "CSS05-Aborted Attempt, Describe", "synonyms": ["CSS05-Aborted Attempt, Describe"]}, {"conceptId": "C107068", "definition": "Columbia-Suicide Severity Rating Scale Already Enrolled Subjects - Has there been a time when you started to do something to try to end your life but you stopped yourself before you actually did anything? (Prior to Study Entry).", "preferredTerm": "C-SSRS Already Enrolled Subjects - Aborted Suicide Attempt (Prior to Study Entry)", "submissionValue": "CSS05-Aborted Attempt-Prior", "synonyms": ["CSS05-Aborted Attempt-Prior"]}, {"conceptId": "C107069", "definition": "Columbia-Suicide Severity Rating Scale Already Enrolled Subjects - Has there been a time when you started to do something to try to end your life but you stopped yourself before you actually did anything? (Since Study Start).", "preferredTerm": "C-SSRS Already Enrolled Subjects - Aborted Suicide Attempt (Since Study Start)", "submissionValue": "CSS05-Aborted Attempt-Since", "synonyms": ["CSS05-Aborted Attempt-Since"]}, {"conceptId": "C107060", "definition": "Columbia-Suicide Severity Rating Scale Already Enrolled Subjects - Description of actual attempt.", "preferredTerm": "C-SSRS Already Enrolled Subjects - Description of Actual Suicide Attempt", "submissionValue": "CSS05-Actual Attempt, Describe", "synonyms": ["CSS05-Actual Attempt, Describe"]}, {"conceptId": "C107056", "definition": "Columbia-Suicide Severity Rating Scale Already Enrolled Subjects - Have you made a suicide attempt? Have you done anything to harm yourself? Have you done anything dangerous where you could have died? (Prior to Study Entry).", "preferredTerm": "C-SSRS Already Enrolled Subjects - Actual Suicide Attempt (Prior to Study Entry)", "submissionValue": "CSS05-Actual Attempt-Prior", "synonyms": ["CSS05-Actual Attempt-Prior"]}, {"conceptId": "C107057", "definition": "Columbia-Suicide Severity Rating Scale Already Enrolled Subjects - Have you made a suicide attempt? Have you done anything to harm yourself? Have you done anything dangerous where you could have died? (Since Study Start).", "preferredTerm": "C-SSRS Already Enrolled Subjects - Actual Suicide Attempt (Since Study Start)", "submissionValue": "CSS05-Actual Attempt-Since", "synonyms": ["CSS05-Actual Attempt-Since"]}, {"conceptId": "C107078", "definition": "Columbia-Suicide Severity Rating Scale Already Enrolled Subjects - Completed suicide? (Prior to Study Entry).", "preferredTerm": "C-SSRS Already Enrolled Subjects - Completed Suicide (Prior to Study Entry)", "submissionValue": "CSS05-Completed Suicide-Prior", "synonyms": ["CSS05-Completed Suicide-Prior"]}, {"conceptId": "C107079", "definition": "Columbia-Suicide Severity Rating Scale Already Enrolled Subjects - Completed suicide? (Since Study Start).", "preferredTerm": "C-SSRS Already Enrolled Subjects - Completed Suicide (Since Study Start)", "submissionValue": "CSS05-Completed Suicide-Since", "synonyms": ["CSS05-Completed Suicide-Since"]}, {"conceptId": "C107087", "definition": "Columbia-Suicide Severity Rating Scale Already Enrolled Subjects - Initial/first attempt actual lethality/medical damage.", "preferredTerm": "C-SSRS Already Enrolled Subjects - First Suicide Attempt Actual Lethality/Medical Damage", "submissionValue": "CSS05-First Attempt Damage", "synonyms": ["CSS05-First Attempt Damage"]}, {"conceptId": "C107086", "definition": "Columbia-Suicide Severity Rating Scale Already Enrolled Subjects - Initial/first attempt date.", "preferredTerm": "C-SSRS Already Enrolled Subjects - First Suicide Attempt Date", "submissionValue": "CSS05-First Attempt Date", "synonyms": ["CSS05-First Attempt Date"]}, {"conceptId": "C107088", "definition": "Columbia-Suicide Severity Rating Scale Already Enrolled Subjects - Initial/first attempt potential lethality.", "preferredTerm": "C-SSRS Already Enrolled Subjects - First Suicide Attempt Potential Lethality", "submissionValue": "CSS05-First Attempt Potential", "synonyms": ["CSS05-First Attempt Potential"]}, {"conceptId": "C107038", "definition": "Columbia-Suicide Severity Rating Scale Already Enrolled Subjects - Description of active suicidal ideation with some intent to act, without specific plan.", "preferredTerm": "C-SSRS Already Enrolled Subjects - Description of Active Suicidal Ideation With Some Intent to Act, Without Specific Plan", "submissionValue": "CSS05-Idea, Intent, No Plan, Describe", "synonyms": ["CSS05-Idea, Intent, No Plan, Describe"]}, {"conceptId": "C107036", "definition": "Columbia-Suicide Severity Rating Scale Already Enrolled Subjects - Have you had these thoughts and had some intention of acting on them? (Prior to Study Entry).", "preferredTerm": "C-SSRS Already Enrolled Subjects - Active Suicidal Ideation With Some Intent to Act, Without Specific Plan (Prior to Study Entry)", "submissionValue": "CSS05-Idea, Intent, No Plan-Prior", "synonyms": ["CSS05-Idea, Intent, No Plan-Prior"]}, {"conceptId": "C107037", "definition": "Columbia-Suicide Severity Rating Scale Already Enrolled Subjects - Have you had these thoughts and had some intention of acting on them? (Since Study Start).", "preferredTerm": "C-SSRS Already Enrolled Subjects - Active Suicidal Ideation With Some Intent to Act, Without Specific Plan (Since Study Start)", "submissionValue": "CSS05-Idea, Intent, No Plan-Since", "synonyms": ["CSS05-Idea, Intent, No Plan-Since"]}, {"conceptId": "C107035", "definition": "Columbia-Suicide Severity Rating Scale Already Enrolled Subjects - Description of active suicidal ideation with any methods (not plan) without intent to act.", "preferredTerm": "C-SSRS Already Enrolled Subjects - Description of Active Suicidal Ideation With Any Methods (Not Plan) Without Intent to Act", "submissionValue": "CSS05-Idea, No Intent, No Plan, Describe", "synonyms": ["CSS05-Idea, No Intent, No Plan, Describe"]}, {"conceptId": "C107033", "definition": "Columbia-Suicide Severity Rating Scale Already Enrolled Subjects - Have you been thinking about how you might do this? (Prior to Study Entry).", "preferredTerm": "C-SSRS Already Enrolled Subjects - Active Suicidal Ideation With Any Methods (Not Plan) Without Intent to Act (Prior to Study Entry)", "submissionValue": "CSS05-Idea, No Intent, No Plan-Prior", "synonyms": ["CSS05-Idea, No Intent, No Plan-Prior"]}, {"conceptId": "C107034", "definition": "Columbia-Suicide Suicide Rating Scale Already Enrolled Subjects - Have you been thinking about how you might do this? (Since Study Start).", "preferredTerm": "C-SSRS Already Enrolled Subjects - Active Suicidal Ideation With Any Methods (Not Plan) Without Intent to Act (Since Study Start)", "submissionValue": "CSS05-Idea, No Intent, No Plan-Since", "synonyms": ["CSS05-Idea, No Intent, No Plan-Since"]}, {"conceptId": "C107041", "definition": "Columbia-Suicide Severity Rating Scale Already Enrolled Subjects - Description of active suicidal ideation with specific plan and intent.", "preferredTerm": "C-SSRS Already Enrolled Subjects - Description of Active Suicidal Ideation With Specific Plan and Intent", "submissionValue": "CSS05-Idea, Plan, Intent, Describe", "synonyms": ["CSS05-Idea, Plan, Intent, Describe"]}, {"conceptId": "C107039", "definition": "Columbia-Suicide Severity Rating Scale Already Enrolled Subjects - Have you started to work out or worked out the details of how to kill yourself? Do you intend to carry out this plan? (Prior to Study Entry).", "preferredTerm": "C-SSRS Already Enrolled Subjects - Active Suicidal Ideation With Specific Plan and Intent (Prior to Study Entry)", "submissionValue": "CSS05-Idea, Plan, Intent-Prior", "synonyms": ["CSS05-Idea, Plan, Intent-Prior"]}, {"conceptId": "C107040", "definition": "Columbia-Suicide Severity Rating Scale Already Enrolled Subjects - Have you started to work out or worked out the details of how to kill yourself? Do you intend to carry out this plan? (Since Study Start).", "preferredTerm": "C-SSRS Already Enrolled Subjects - Active Suicidal Ideation With Specific Plan and Intent (Since Study Start)", "submissionValue": "CSS05-Idea, Plan, Intent-Since", "synonyms": ["CSS05-Idea, Plan, Intent-Since"]}, {"conceptId": "C107067", "definition": "Columbia-Suicide Severity Rating Scale Already Enrolled Subjects - Description of interrupted attempt.", "preferredTerm": "C-SSRS Already Enrolled Subjects - Description of Interrupted Suicide Attempt", "submissionValue": "CSS05-Interrupted Attempt, Describe", "synonyms": ["CSS05-Interrupted Attempt, Describe"]}, {"conceptId": "C107063", "definition": "Columbia-Suicide Severity Rating Scale Already Enrolled Subjects - Has there been a time when you started to do something to try to end your life but someone or something stopped you before you actually did anything? (Prior to Study Entry).", "preferredTerm": "C-SSRS Already Enrolled Subjects - Interrupted Suicide Attempt (Prior to Study Entry)", "submissionValue": "CSS05-Interrupted Attempt-Prior", "synonyms": ["CSS05-Interrupted Attempt-Prior"]}, {"conceptId": "C107064", "definition": "Columbia-Suicide Severity Rating Scale Already Enrolled Subjects - Has there been a time when you started to do something to try to end your life but someone or something stopped you before you actually did anything? (Since Study Start).", "preferredTerm": "C-SSRS Already Enrolled Subjects - Interrupted Suicide Attempt (Since Study Start)", "submissionValue": "CSS05-Interrupted Attempt-Since", "synonyms": ["CSS05-Interrupted Attempt-Since"]}, {"conceptId": "C107084", "definition": "Columbia-Suicide Severity Rating Scale Already Enrolled Subjects - Most lethal attempt actual lethality/medical damage.", "preferredTerm": "C-SSRS Already Enrolled Subjects - Most Lethal Suicide Attempt Actual Lethality/Medical Damage", "submissionValue": "CSS05-Most Lethal Attempt Damage", "synonyms": ["CSS05-Most Lethal Attempt Damage"]}, {"conceptId": "C107083", "definition": "Columbia-Suicide Severity Rating Scale Already Enrolled Subjects - Most lethal attempt date.", "preferredTerm": "C-SSRS Already Enrolled Subjects - Most Lethal Suicide Attempt Date", "submissionValue": "CSS05-Most Lethal Attempt Date", "synonyms": ["CSS05-Most Lethal Attempt Date"]}, {"conceptId": "C107085", "definition": "Columbia-Suicide Severity Rating Scale Already Enrolled Subjects - Most lethal attempt potential lethality.", "preferredTerm": "C-SSRS Already Enrolled Subjects - Most Lethal Suicide Attempt Potential Lethality", "submissionValue": "CSS05-Most Lethal Attempt Potential", "synonyms": ["CSS05-Most Lethal Attempt Potential"]}, {"conceptId": "C107081", "definition": "Columbia-Suicide Severity Rating Scale Already Enrolled Subjects - Most recent attempt actual lethality/medical damage.", "preferredTerm": "C-SSRS Already Enrolled Subjects - Most Recent Suicide Attempt Actual Lethality/Medical Damage", "submissionValue": "CSS05-Most Recent Attempt Damage", "synonyms": ["CSS05-Most Recent Attempt Damage"]}, {"conceptId": "C107080", "definition": "Columbia-Suicide Severity Rating Scale Already Enrolled Subjects - Most recent attempt date.", "preferredTerm": "C-SSRS Already Enrolled Subjects - Most Recent Suicide Attempt Date", "submissionValue": "CSS05-Most Recent Attempt Date", "synonyms": ["CSS05-Most Recent Attempt Date"]}, {"conceptId": "C107082", "definition": "Columbia-Suicide Severity Rating Scale Already Enrolled Subjects - Most recent attempt potential lethality.", "preferredTerm": "C-SSRS Already Enrolled Subjects - Most Recent Suicide Attempt Potential Lethality", "submissionValue": "CSS05-Most Recent Attempt Potential", "synonyms": ["CSS05-Most Recent Attempt Potential"]}, {"conceptId": "C107050", "definition": "Columbia-Suicide Severity Rating Scale Already Enrolled Subjects - Could/can you stop thinking about killing yourself or wanting to die if you want to? (Prior to Study Entry).", "preferredTerm": "C-SSRS Already Enrolled Subjects - Controllability of Most Severe Ideation (Prior to Study Entry)", "submissionValue": "CSS05-Most Severe Idea, Control-Prior", "synonyms": ["CSS05-Most Severe Idea, Control-Prior"]}, {"conceptId": "C107051", "definition": "Columbia-Suicide Severity Rating Scale Already Enrolled Subjects - Could/can you stop thinking about killing yourself or wanting to die if you want to? (Since Study Start).", "preferredTerm": "C-SSRS Already Enrolled Subjects - Controllability of Most Severe Ideation (Since Study Start)", "submissionValue": "CSS05-Most Severe Idea, Control-Since", "synonyms": ["CSS05-Most Severe Idea, Control-Since"]}, {"conceptId": "C107043", "definition": "Columbia-Suicide Severity Rating Scale Already Enrolled Subjects - Description of most severe ideation. (Prior to Study Entry).", "preferredTerm": "C-SSRS Already Enrolled Subjects - Describe Most Severe Ideation (Prior to Study Entry)", "submissionValue": "CSS05-Most Severe Idea, Desc-Prior", "synonyms": ["CSS05-Most Severe Idea, Desc-Prior"]}, {"conceptId": "C107045", "definition": "Columbia-Suicide Severity Rating Scale Already Enrolled Subjects - Description of most severe ideation. (Since Study Start).", "preferredTerm": "C-SSRS Already Enrolled Subjects - Describe Most Severe Ideation (Since Study Start)", "submissionValue": "CSS05-Most Severe Idea, Desc-Since", "synonyms": ["CSS05-Most Severe Idea, Desc-Since"]}, {"conceptId": "C107052", "definition": "Columbia-Suicide Severity Rating Scale Already Enrolled Subjects - Are there things-anyone or anything (e.g., family, religion, pain of death) - that stopped you from wanting to die or acting on thoughts of committing suicide? (Prior to Study Entry).", "preferredTerm": "C-SSRS Already Enrolled Subjects - Deterrents to Most Severe Ideation (Prior to Study Entry)", "submissionValue": "CSS05-Most Severe Idea, Deterrents-Prior", "synonyms": ["CSS05-Most Severe Idea, Deterrents-Prior"]}, {"conceptId": "C107053", "definition": "Columbia-Suicide Severity Rating Scale Already Enrolled Subjects - Are there things-anyone or anything (e.g., family, religion, pain of death) - that stopped you from wanting to die or acting on thoughts of committing suicide? (Since Study Start).", "preferredTerm": "C-SSRS Already Enrolled Subjects - Deterrents to Most Severe Ideation (Since Study Start)", "submissionValue": "CSS05-Most Severe Idea, Deterrents-Since", "synonyms": ["CSS05-Most Severe Idea, Deterrents-Since"]}, {"conceptId": "C107048", "definition": "Columbia-Suicide Severity Rating Scale Already Enrolled Subjects - When you have the thoughts how long do they last? (Prior to Study Entry).", "preferredTerm": "C-SSRS Already Enrolled Subjects - Duration of Most Severe Ideation (Prior to Study Entry)", "submissionValue": "CSS05-Most Severe Idea, Duration-Prior", "synonyms": ["CSS05-Most Severe Idea, Duration-Prior"]}, {"conceptId": "C107049", "definition": "Columbia-Suicide Severity Rating Scale Already Enrolled Subjects - When you have the thoughts how long do they last? (Since Study Start).", "preferredTerm": "C-SSRS Already Enrolled Subjects - Duration of Most Severe Ideation (Since Study Start)", "submissionValue": "CSS05-Most Severe Idea, Duration-Since", "synonyms": ["CSS05-Most Severe Idea, Duration-Since"]}, {"conceptId": "C107046", "definition": "Columbia-Suicide Severity Rating Scale Already Enrolled Subjects - How many times have you had these thoughts? (Prior to Study Entry).", "preferredTerm": "C-SSRS Already Enrolled Subjects - Frequency of Most Severe Ideation (Prior to Study Entry)", "submissionValue": "CSS05-Most Severe Idea, Frequency-Prior", "synonyms": ["CSS05-Most Severe Idea, Frequency-Prior"]}, {"conceptId": "C107047", "definition": "Columbia-Suicide Severity Rating Scale Already Enrolled Subjects - How many times have you had these thoughts? (Since Study Start).", "preferredTerm": "C-SSRS Already Enrolled Subjects - Frequency of Most Severe Ideation (Since Study Start)", "submissionValue": "CSS05-Most Severe Idea, Frequency-Since", "synonyms": ["CSS05-Most Severe Idea, Frequency-Since"]}, {"conceptId": "C107054", "definition": "Columbia-Suicide Severity Rating Scale Already Enrolled Subjects - What sort of reasons did you have for thinking about wanting to die or killing yourself? Was it to end the pain or stop the way you were feeling (in other words you couldn't go on living with this pain or how you were feeling) or was it to get attention, revenge or a reaction from others? Or both? (Prior to Study Entry).", "preferredTerm": "C-SSRS Already Enrolled Subjects - Reasons For Most Severe Ideation (Prior to Study Entry)", "submissionValue": "CSS05-Most Severe Idea, Reasons-Prior", "synonyms": ["CSS05-Most Severe Idea, Reasons-Prior"]}, {"conceptId": "C107055", "definition": "Columbia-Suicide Severity Rating Scale Already Enrolled Subjects - What sort of reasons did you have for thinking about wanting to die or killing yourself? Was it to end the pain or stop the way you were feeling (in other words you couldn't go on living with this pain or how you were feeling) or was it to get attention, revenge or a reaction from others? Or both? (Since Study Start).", "preferredTerm": "C-SSRS Already Enrolled Subjects - Reasons For Most Severe Ideation (Since Study Start)", "submissionValue": "CSS05-Most Severe Idea, Reasons-Since", "synonyms": ["CSS05-Most Severe Idea, Reasons-Since"]}, {"conceptId": "C107042", "definition": "Columbia-Suicide Severity Rating Scale Already Enrolled Subjects - Most severe ideation. (Prior to Study Entry).", "preferredTerm": "C-SSRS Already Enrolled Subjects - Most Severe Ideation (Prior to Study Entry)", "submissionValue": "CSS05-Most Severe Idea-Prior", "synonyms": ["CSS05-Most Severe Idea-Prior"]}, {"conceptId": "C107044", "definition": "Columbia-Suicide Severity Rating Scale Already Enrolled Subjects - Most severe ideation. (Since Study Start).", "preferredTerm": "C-SSRS Already Enrolled Subjects - Most Severe Ideation (Since Study Start)", "submissionValue": "CSS05-Most Severe Idea-Since", "synonyms": ["CSS05-Most Severe Idea-Since"]}, {"conceptId": "C107032", "definition": "Columbia-Suicide Severity Rating Scale Already Enrolled Subjects - Description of non-specific active suicidal thoughts.", "preferredTerm": "C-SSRS Already Enrolled Subjects - Description of Non-Specific Active Suicidal Thoughts", "submissionValue": "CSS05-Non-Spec Suicid Thought, Describe", "synonyms": ["CSS05-Non-Spec Suicid Thought, Describe"]}, {"conceptId": "C107030", "definition": "Columbia-Suicide Severity Rating Scale Already Enrolled Subjects - Have you actually had any thoughts of killing yourself? (Prior to Study Entry).", "preferredTerm": "C-SSRS Already Enrolled Subjects - Non-Specific Active Suicidal Thoughts (Prior to Study Entry)", "submissionValue": "CSS05-Non-Spec Suicid Thought-Prior", "synonyms": ["CSS05-Non-Spec Suicid Thought-Prior"]}, {"conceptId": "C107031", "definition": "Columbia-Suicide Severity Rating Scale Already Enrolled Subjects - Have you actually had any thoughts of killing yourself? (Since Study Start).", "preferredTerm": "C-SSRS Already Enrolled Subjects - Non-Specific Active Suicidal Thoughts (Since Study Start)", "submissionValue": "CSS05-Non-Spec Suicid Thought-Since", "synonyms": ["CSS05-Non-Spec Suicid Thought-Since"]}, {"conceptId": "C107061", "definition": "Columbia-Suicide Severity Rating Scale Already Enrolled Subjects - Has the subject engaged in non-suicidal self-injurious behavior? (Prior to Study Entry).", "preferredTerm": "C-SSRS Already Enrolled Subjects - Non-suicidal Self-injurious Behavior (Prior to Study Entry)", "submissionValue": "CSS05-Non-suicid Self-injur Behav-Prior", "synonyms": ["CSS05-Non-suicid Self-injur Behav-Prior"]}, {"conceptId": "C107062", "definition": "Columbia-Suicide Severity Rating Scale Already Enrolled Subjects - Has the subject engaged in non-suicidal self-injurious behavior? (Since Study Start).", "preferredTerm": "C-SSRS Already Enrolled Subjects - Non-suicidal Self-injurious Behavior (Since Study Start)", "submissionValue": "CSS05-Non-suicid Self-injur Behav-Since", "synonyms": ["CSS05-Non-suicid Self-injur Behav-Since"]}, {"conceptId": "C107065", "definition": "Columbia-Suicide Severity Rating Scale Already Enrolled Subjects - Total number of interrupted attempts. (Prior to Study Entry).", "preferredTerm": "C-SSRS Already Enrolled Subjects - Number of Interrupted Suicide Attempts (Prior to Study Entry)", "submissionValue": "CSS05-Num of Interrupted Attempts-Prior", "synonyms": ["CSS05-Num of Interrupted Attempts-Prior"]}, {"conceptId": "C107066", "definition": "Columbia-Suicide Severity Rating Scale Already Enrolled Subjects - Total number of interrupted attempts. (Since Study Start).", "preferredTerm": "C-SSRS Already Enrolled Subjects - Number of Interrupted Suicide Attempts (Since Study Start)", "submissionValue": "CSS05-Num of Interrupted Attempts-Since", "synonyms": ["CSS05-Num of Interrupted Attempts-Since"]}, {"conceptId": "C107070", "definition": "Columbia-Suicide Severity Rating Scale Already Enrolled Subjects - Total number of aborted attempts. (Prior to Study Entry).", "preferredTerm": "C-SSRS Already Enrolled Subjects - Number of Aborted Suicide Attempts (Prior to Study Entry)", "submissionValue": "CSS05-Number of Aborted Attempts-Prior", "synonyms": ["CSS05-Number of Aborted Attempts-Prior"]}, {"conceptId": "C107071", "definition": "Columbia-Suicide Severity Rating Scale Already Enrolled Subjects - Total number of aborted attempts. (Since Study Start).", "preferredTerm": "C-SSRS Already Enrolled Subjects - Number of Aborted Suicide Attempts (Since Study Start)", "submissionValue": "CSS05-Number of Aborted Attempts-Since", "synonyms": ["CSS05-Number of Aborted Attempts-Since"]}, {"conceptId": "C107058", "definition": "Columbia-Suicide Severity Rating Scale Already Enrolled Subjects - Total number of actual attempts. (Prior to Study Entry).", "preferredTerm": "C-SSRS Already Enrolled Subjects - Number of Actual Suicide Attempts (Prior to Study Entry)", "submissionValue": "CSS05-Number of Actual Attempts-Prior", "synonyms": ["CSS05-Number of Actual Attempts-Prior"]}, {"conceptId": "C107059", "definition": "Columbia-Suicide Severity Rating Scale Already Enrolled Subjects - Total number of actual attempts. (Since Study Start).", "preferredTerm": "C-SSRS Already Enrolled Subjects - Number of Actual Suicide Attempts (Since Study Start)", "submissionValue": "CSS05-Number of Actual Attempts-Since", "synonyms": ["CSS05-Number of Actual Attempts-Since"]}, {"conceptId": "C107075", "definition": "Columbia-Suicide Severity Rating Scale Already Enrolled Subjects - Description of preparatory acts or behavior.", "preferredTerm": "C-SSRS Already Enrolled Subjects - Description of Preparatory Acts or Behaviors Toward Suicide Attempt", "submissionValue": "CSS05-Preparatory Acts/Behavior, Descr", "synonyms": ["CSS05-Preparatory Acts/Behavior, Descr"]}, {"conceptId": "C107073", "definition": "Columbia-Suicide Severity Rating Scale Already Enrolled Subjects - Have you taken any steps towards making a suicide attempt or preparing to kill yourself (such as collecting pills, getting a gun, giving valuables away or writing a suicide note)? (Prior to Study Entry).", "preferredTerm": "C-SSRS Already Enrolled Subjects - Preparatory Acts or Behaviors Toward Suicide Attempt (Prior to Study Entry)", "submissionValue": "CSS05-Preparatory Acts/Behavior-Prior", "synonyms": ["CSS05-Preparatory Acts/Behavior-Prior"]}, {"conceptId": "C107074", "definition": "Columbia-Suicide Severity Rating Scale Already Enrolled Subjects - Have you taken any steps towards making a suicide attempt or preparing to kill yourself (such as collecting pills, getting a gun, giving valuables away or writing a suicide note)? (Since Study Start).", "preferredTerm": "C-SSRS Already Enrolled Subjects - Preparatory Acts or Behaviors Toward Suicide Attempt (Since Study Start)", "submissionValue": "CSS05-Preparatory Acts/Behavior-Since", "synonyms": ["CSS05-Preparatory Acts/Behavior-Since"]}, {"conceptId": "C107076", "definition": "Columbia-Suicide Severity Rating Scale Already Enrolled Subjects - Suicidal behavior was present during the assessment period? (Prior to Study Entry).", "preferredTerm": "C-SSRS Already Enrolled Subjects - Suicidal Behavior (Prior to Study Entry)", "submissionValue": "CSS05-Suicidal Behavior-Prior", "synonyms": ["CSS05-Suicidal Behavior-Prior"]}, {"conceptId": "C107077", "definition": "Columbia-Suicide Severity Rating Scale Already Enrolled Subjects - Suicidal behavior was present during the assessment period? (Since Study Start).", "preferredTerm": "C-SSRS Already Enrolled Subjects - Suicidal Behavior (Since Study Start)", "submissionValue": "CSS05-Suicidal Behavior-Since", "synonyms": ["CSS05-Suicidal Behavior-Since"]}, {"conceptId": "C107029", "definition": "Columbia-Suicide Severity Rating Scale Already Enrolled Subjects - Description of wishing to be dead.", "preferredTerm": "C-SSRS Already Enrolled Subjects - Description of Wish to Be Dead", "submissionValue": "CSS05-Wish to be Dead, Describe", "synonyms": ["CSS05-Wish to be Dead, Describe"]}, {"conceptId": "C107027", "definition": "Columbia-Suicide Severity Rating Scale Already Enrolled Subjects - Have you wished you were dead or wished you could go to sleep and not wake up? (Prior to Study Entry).", "preferredTerm": "C-SSRS Already Enrolled Subjects - Wish to Be Dead (Prior to Study Entry)", "submissionValue": "CSS05-Wish to be Dead-Prior", "synonyms": ["CSS05-Wish to be Dead-Prior"]}, {"conceptId": "C107028", "definition": "Columbia-Suicide Severity Rating Scale Already Enrolled Subjects - Have you wished you were dead or wished you could go to sleep and not wake up? (Since Study Start).", "preferredTerm": "C-SSRS Already Enrolled Subjects - Wish to Be Dead (Since Study Start)", "submissionValue": "CSS05-Wish to be Dead-Since", "synonyms": ["CSS05-Wish to be Dead-Since"]}]}