{"_links": {"parentPackage": {"href": "/mdr/ct/packages/sdtmct-2016-06-24", "title": "SDTM Controlled Terminology Package 26 Effective 2016-06-24", "type": "Terminology"}, "priorVersion": {"href": "/mdr/ct/packages/sdtmct-2016-03-25/codelists/C111339", "title": "CDISC Questionnaire C-SSRS Children's Since Last Visit Test Name Terminology", "type": "Code List"}, "rootItem": {"href": "/mdr/root/ct/sdtmct/codelists/C111339", "title": "Version-agnostic anchor resource for codelist C111339", "type": "Root Value Domain"}, "self": {"href": "/mdr/ct/packages/sdtmct-2016-06-24/codelists/C111339", "title": "CDISC Questionnaire C-SSRS Children's Since Last Visit Test Name Terminology", "type": "Code List"}}, "conceptId": "C111339", "definition": "Columbia-Suicide Severity Rating Scale Children's Since Last Visit test name.", "extensible": "false", "name": "Columbia-Suicide Severity Rating Scale Children's Since Last Visit Questionnaire Test Name", "preferredTerm": "CDISC Questionnaire C-SSRS Children's Since Last Visit Test Name Terminology", "submissionValue": "CSS08TN", "synonyms": ["Columbia-Suicide Severity Rating Scale Children's Since Last Visit Questionnaire Test Name"], "terms": [{"conceptId": "C111452", "definition": "Columbia-Suicide Severity Rating Scale Children's Since Last Visit - Description of aborted attempt or self-interrupted attempt.", "preferredTerm": "C-SSRS Children's Since Last Visit - Description of Aborted or Self-interrupted Suicide Attempt", "submissionValue": "CSS08-Aborted Attempt, Describe", "synonyms": ["CSS08-Aborted Attempt, Describe"]}, {"conceptId": "C111450", "definition": "Columbia-Suicide Severity Rating Scale Children's Since Last Visit - Has there been a time when you started to do something to make yourself not alive anymore (end your life or kill yourself) but you changed your mind (stopped yourself) before you actually did anything? What did you do?", "preferredTerm": "C-SSRS Children's Since Last Visit - Aborted or Self-interrupted Suicide Attempt", "submissionValue": "CSS08-Aborted/Self-Interrupted Attempt", "synonyms": ["CSS08-Aborted/Self-Interrupted Attempt"]}, {"conceptId": "C111442", "definition": "Columbia-Suicide Severity Rating Scale Children's Since Last Visit - Did you do anything to try to kill yourself or make yourself not alive anymore? What did you do? Did you hurt yourself on purpose? Why did you do that?", "preferredTerm": "C-SSRS Children's Since Last Visit - Actual Suicide Attempt", "submissionValue": "CSS08-Actual Attempt", "synonyms": ["CSS08-Actual Attempt"]}, {"conceptId": "C111444", "definition": "Columbia-Suicide Severity Rating Scale Children's Since Last Visit - Description of actual attempt.", "preferredTerm": "C-SSRS Children's Since Last Visit - Description of Actual Suicide Attempt", "submissionValue": "CSS08-Actual Attempt, Describe", "synonyms": ["CSS08-Actual Attempt, Describe"]}, {"conceptId": "C111441", "definition": "Columbia-Suicide Severity Rating Scale Children's Since Last Visit - Frequency, write response.", "preferredTerm": "C-SSRS Children's Since Last Visit - Frequency, Write Response", "submissionValue": "CSS08-Frequency, Write Response", "synonyms": ["CSS08-Frequency, Write Response"]}, {"conceptId": "C111432", "definition": "Columbia-Suicide Severity Rating Scale Children's Since Last Visit - Have you thought about how you would do that or how you would make yourself not alive anymore (kill yourself)? What did you think about?", "preferredTerm": "C-SSRS Children's Since Last Visit - Active Suicidal Ideation with Any Methods (Not Plan) without Intent to Act", "submissionValue": "CSS08-Idea, No Intent, No Plan", "synonyms": ["CSS08-Idea, No Intent, No Plan"]}, {"conceptId": "C111433", "definition": "Columbia-Suicide Severity Rating Scale Children's Since Last Visit - Description of active suicidal ideation with any methods (not plan) without intent to act.", "preferredTerm": "C-SSRS Children's Since Last Visit - Description of Active Suicidal Ideation with Any Methods (Not Plan) without Intent to Act", "submissionValue": "CSS08-Idea, No Intent, No Plan, Describe", "synonyms": ["CSS08-Idea, No Intent, No Plan, Describe"]}, {"conceptId": "C111435", "definition": "Columbia-Suicide Severity Rating Scale Children's Since Last Visit - Description of active suicidal ideation with some intent to act, without specific plan.", "preferredTerm": "C-SSRS Children's Since Last Visit - Description of Active Suicidal Ideation with Some Intent to Act, without Specific Plan", "submissionValue": "CSS08-Ideation With Intent No Plan Descr", "synonyms": ["CSS08-Ideation With Intent No Plan Descr"]}, {"conceptId": "C111434", "definition": "Columbia-Suicide Severity Rating Scale Children's Since Last Visit - When you thought about making yourself not alive anymore (or killing yourself), did you think that this was something you might actually do? This is different from (as opposed to) having the thoughts but knowing you wouldn't do anything about it.", "preferredTerm": "C-SSRS Children's Since Last Visit - Active Suicidal Ideation with Some Intent to Act, without Specific Plan", "submissionValue": "CSS08-Ideation With Intent, No Plan", "synonyms": ["CSS08-Ideation With Intent, No Plan"]}, {"conceptId": "C111436", "definition": "Columbia-Suicide Severity Rating Scale Children's Since Last Visit - Have you decided how or when you would make yourself not alive anymore/kill yourself? Have you planned out (worked out the details of) how you would do it? What was your plan? When you made this plan (or worked out these details), was any part of you thinking about actually doing it?", "preferredTerm": "C-SSRS Children's Since Last Visit - Active Suicidal Ideation with Specific Plan and Intent", "submissionValue": "CSS08-Ideation With Plan/Intent", "synonyms": ["CSS08-Ideation With Plan/Intent"]}, {"conceptId": "C111437", "definition": "Columbia-Suicide Severity Rating Scale Children's Since Last Visit - Description of active suicidal ideation with specific plan and intent.", "preferredTerm": "C-SSRS Children's Since Last Visit - Description of Active Suicidal Ideation with Specific Plan and Intent", "submissionValue": "CSS08-Ideation With Plan/Intent, Descr", "synonyms": ["CSS08-Ideation With Plan/Intent, Descr"]}, {"conceptId": "C111447", "definition": "Columbia-Suicide Severity Rating Scale Children's Since Last Visit - Has there been a time when you started to do something to make yourself not alive anymore (end your life or kill yourself) but someone or something stopped you before you actually did anything? What did you do?", "preferredTerm": "C-SSRS Children's Since Last Visit - Interrupted Suicide Attempt", "submissionValue": "CSS08-Interrupted Attempt", "synonyms": ["CSS08-Interrupted Attempt"]}, {"conceptId": "C111449", "definition": "Columbia-Suicide Severity Rating Scale Children's Since Last Visit - Description of interrupted attempt.", "preferredTerm": "C-SSRS Children's Since Last Visit - Description of Interrupted Suicide Attempt", "submissionValue": "CSS08-Interrupted Attempt, Describe", "synonyms": ["CSS08-Interrupted Attempt, Describe"]}, {"conceptId": "C111458", "definition": "Columbia-Suicide Severity Rating Scale Children's Since Last Visit - Most lethal attempt actual lethality/medical damage.", "preferredTerm": "C-SSRS Children's Since Last Visit - Most Lethal Suicide Attempt Actual Lethality/Medical Damage", "submissionValue": "CSS08-Most Lethal Attempt Damage", "synonyms": ["CSS08-Most Lethal Attempt Damage"]}, {"conceptId": "C111457", "definition": "Columbia-Suicide Severity Rating Scale Children's Since Last Visit - Most lethal attempt date.", "preferredTerm": "C-SSRS Children's Since Last Visit - Most Lethal Suicide Attempt Date", "submissionValue": "CSS08-Most Lethal Attempt Date", "synonyms": ["CSS08-Most Lethal Attempt Date"]}, {"conceptId": "C111459", "definition": "Columbia-Suicide Severity Rating Scale Children's Since Last Visit - Most lethal attempt potential lethality.", "preferredTerm": "C-SSRS Children's Since Last Visit - Most Lethal Suicide Attempt Potential Lethality", "submissionValue": "CSS08-Most Lethal Attempt Potential", "synonyms": ["CSS08-Most Lethal Attempt Potential"]}, {"conceptId": "C111438", "definition": "Columbia-Suicide Severity Rating Scale Children's Since Last Visit - Most severe ideation.", "preferredTerm": "C-SSRS Children's Since Last Visit - Most Severe Ideation", "submissionValue": "CSS08-Most Severe Ideation", "synonyms": ["CSS08-Most Severe Ideation"]}, {"conceptId": "C111439", "definition": "Columbia-Suicide Severity Rating Scale Children's Since Last Visit - Description of most severe ideation.", "preferredTerm": "C-SSRS Children's Since Last Visit - Describe Most Severe Ideation", "submissionValue": "CSS08-Most Severe Ideation, Description", "synonyms": ["CSS08-Most Severe Ideation, Description"]}, {"conceptId": "C111440", "definition": "Columbia-Suicide Severity Rating Scale Children's Since Last Visit - How many times have you had these thoughts?", "preferredTerm": "C-SSRS Children's Since Last Visit - Frequency of Most Severe Ideation", "submissionValue": "CSS08-Most Severe Ideation, Frequency", "synonyms": ["CSS08-Most Severe Ideation, Frequency"]}, {"conceptId": "C111431", "definition": "Columbia-Suicide Severity Rating Scale Children's Since Last Visit - Description of non-specific active suicidal thoughts.", "preferredTerm": "C-SSRS Children's Since Last Visit - Description of Non-Specific Active Suicidal Thoughts", "submissionValue": "CSS08-Non-Specific Suicid Thought, Descr", "synonyms": ["CSS08-Non-Specific Suicid Thought, Descr"]}, {"conceptId": "C111430", "definition": "Columbia-Suicide Severity Rating Scale Children's Since Last Visit - Have you thought about doing something to make yourself not alive anymore? Have you had any thoughts about killing yourself?", "preferredTerm": "C-SSRS Children's Since Last Visit - Non-Specific Active Suicidal Thoughts", "submissionValue": "CSS08-Non-Specific Suicidal Thought", "synonyms": ["CSS08-Non-Specific Suicidal Thought"]}, {"conceptId": "C111445", "definition": "Columbia-Suicide Severity Rating Scale Children's Since Last Visit - Has subject engaged in non-suicidal self-injurious behavior?", "preferredTerm": "C-SSRS Children's Since Last Visit - Non-suicidal Self-injurious Behavior", "submissionValue": "CSS08-Non-suicidal Self-injurious Behav", "synonyms": ["CSS08-Non-suicidal Self-injurious Behav"]}, {"conceptId": "C111451", "definition": "Columbia-Suicide Severity Rating Scale Children's Since Last Visit - Total number of aborted or self-interrupted attempts.", "preferredTerm": "C-SSRS Children's Since Last Visit - Number of Aborted or Self-interrupted Suicide Attempts", "submissionValue": "CSS08-Number of Aborted Attempts", "synonyms": ["CSS08-Number of Aborted Attempts"]}, {"conceptId": "C111443", "definition": "Columbia-Suicide Severity Rating Scale Children's Since Last Visit - Total number of actual attempts.", "preferredTerm": "C-SSRS Children's Since Last Visit - Number of Actual Suicide Attempts", "submissionValue": "CSS08-Number of Actual Attempts", "synonyms": ["CSS08-Number of Actual Attempts"]}, {"conceptId": "C111448", "definition": "Columbia-Suicide Severity Rating Scale Children's Since Last Visit - Total number of interrupted attempts.", "preferredTerm": "C-SSRS Children's Since Last Visit - Number of Interrupted Suicide Attempts", "submissionValue": "CSS08-Number of Interrupt Attempts", "synonyms": ["CSS08-Number of Interrupt Attempts"]}, {"conceptId": "C111453", "definition": "Columbia-Suicide Severity Rating Scale Children's Since Last Visit - Have you done anything to get ready to make yourself not alive anymore (to end your life or kill yourself) - like giving things away, writing a goodbye note, getting things you need to kill yourself?", "preferredTerm": "C-SSRS Children's Since Last Visit - Preparatory Acts or Behaviors Toward Suicide Attempt", "submissionValue": "CSS08-Preparatory Acts/Behavior", "synonyms": ["CSS08-Preparatory Acts/Behavior"]}, {"conceptId": "C111454", "definition": "Columbia-Suicide Severity Rating Scale Children's Since Last Visit - Description of preparatory acts or behavior.", "preferredTerm": "C-SSRS Children's Since Last Visit - Description of Preparatory Acts or Behaviors Toward Suicide Attempt", "submissionValue": "CSS08-Preparatory Acts/Behavior, Descr", "synonyms": ["CSS08-Preparatory Acts/Behavior, Descr"]}, {"conceptId": "C111446", "definition": "Columbia-Suicide Severity Rating Scale Children's Since Last Visit - Has subject engaged in self-injurious behavior, intent unknown?", "preferredTerm": "C-SSRS Children's Since Last Visit - Self-injurious Behavior, Intent Unknown", "submissionValue": "CSS08-Self-injur Behav, Intent Unknown", "synonyms": ["CSS08-Self-injur Behav, Intent Unknown"]}, {"conceptId": "C111455", "definition": "Columbia-Suicide Severity Rating Scale Children's Since Last Visit - Suicidal behavior was present during the assessment period?", "preferredTerm": "C-SSRS Children's Since Last Visit - Suicidal Behavior", "submissionValue": "CSS08-Suicidal Behavior", "synonyms": ["CSS08-Suicidal Behavior"]}, {"conceptId": "C111456", "definition": "Columbia-Suicide Severity Rating Scale Children's Since Last Visit - Suicide.", "preferredTerm": "C-SSRS Children's Since Last Visit - Suicide", "submissionValue": "CSS08-Suicide", "synonyms": ["CSS08-Suicide"]}, {"conceptId": "C111428", "definition": "Columbia-Suicide Severity Rating Scale Children's Since Last Visit - Have you thought about being dead or what it would be like to be dead? Have you wished you were dead or wished you could go to sleep and never wake up? Do you ever wish you weren't alive anymore?", "preferredTerm": "C-SSRS Children's Since Last Visit - Wish to be Dead", "submissionValue": "CSS08-Wish to be Dead", "synonyms": ["CSS08-Wish to be Dead"]}, {"conceptId": "C111429", "definition": "Columbia-Suicide Severity Rating Scale Children's Since Last Visit - Description of wishing to be dead.", "preferredTerm": "C-SSRS Children's Since Last Visit - Description of Wish to be Dead", "submissionValue": "CSS08-Wish to be Dead, Describe", "synonyms": ["CSS08-Wish to be Dead, Describe"]}]}