{"_links": {"parentPackage": {"href": "/mdr/ct/packages/sdtmct-2016-06-24", "title": "SDTM Controlled Terminology Package 26 Effective 2016-06-24", "type": "Terminology"}, "priorVersion": {"href": "/mdr/ct/packages/sdtmct-2016-03-25/codelists/C112452", "title": "CDISC Questionnaire VFQ25-Interviewer Administered Format Test Name Terminology", "type": "Code List"}, "rootItem": {"href": "/mdr/root/ct/sdtmct/codelists/C112452", "title": "Version-agnostic anchor resource for codelist C112452", "type": "Root Value Domain"}, "self": {"href": "/mdr/ct/packages/sdtmct-2016-06-24/codelists/C112452", "title": "CDISC Questionnaire VFQ25-Interviewer Administered Format Test Name Terminology", "type": "Code List"}}, "conceptId": "C112452", "definition": "National Eye Institute Visual Functioning Questionnaire - 25 Version 2000 Interviewer-Administered Format test name.", "extensible": "false", "name": "National Eye Institute Visual Functioning Questionnaire - 25 Version 2000 Interviewer-Administered Format Questionnaire Test Name", "preferredTerm": "CDISC Questionnaire VFQ25-Interviewer Administered Format Test Name Terminology", "submissionValue": "VFQ1TN", "synonyms": ["National Eye Institute Visual Functioning Questionnaire - 25 Version 2000 Interviewer-Administered Format Questionnaire Test Name"], "terms": [{"conceptId": "C112749", "definition": "National Eye Institute Visual Functioning Questionnaire - 25 Version 2000 Interviewer-Administered Format - Responses to Vision Problems: Do you accomplish less than you would like because of your vision?", "preferredTerm": "VFQ25-Interviewer Administered Format - Accomplish Less Because of Vision", "submissionValue": "VFQ1-Accomplish Less Than You Would Like", "synonyms": ["VFQ1-Accomplish Less Than You Would Like"]}, {"conceptId": "C112743", "definition": "National Eye Institute Visual Functioning Questionnaire - 25 Version 2000 Interviewer-Administered Format - Difficulty With Activities: Are you currently driving, at least once in a while?", "preferredTerm": "VFQ25-Interviewer Administered Format - Are You Currently Driving", "submissionValue": "VFQ1-Are You Currently Driving", "synonyms": ["VFQ1-Are You Currently Driving"]}, {"conceptId": "C112734", "definition": "National Eye Institute Visual Functioning Questionnaire - 25 Version 2000 Interviewer-Administered Format - Difficulty With Activities: How much difficulty do you have doing work or hobbies that require you to see well up close, such as cooking, sewing, fixing things around the house, or using hand tools? Would you say:", "preferredTerm": "VFQ25-Interviewer Administered Format - Difficulty Doing Work or Hobbies", "submissionValue": "VFQ1-Difficulty Doing Work/Hobbies", "synonyms": ["VFQ1-Difficulty Doing Work/Hobbies"]}, {"conceptId": "C112746", "definition": "National Eye Institute Visual Functioning Questionnaire - 25 Version 2000 Interviewer-Administered Format - Difficulty With Activities: If currently driving: How much difficulty do you have driving during the daytime in familiar places? Would you say you have:", "preferredTerm": "VFQ25-Interviewer Administered Format - Difficulty Driving During Daytime", "submissionValue": "VFQ1-Difficulty Driving During Daytime", "synonyms": ["VFQ1-Difficulty Driving During Daytime"]}, {"conceptId": "C112747", "definition": "National Eye Institute Visual Functioning Questionnaire - 25 Version 2000 Interviewer-Administered Format - Difficulty With Activities: How much difficulty do you have driving at night? Would you say you have:", "preferredTerm": "VFQ25-Interviewer Administered Format - Difficulty Driving at Night", "submissionValue": "VFQ1-Difficulty Driving at Night", "synonyms": ["VFQ1-Difficulty Driving at Night"]}, {"conceptId": "C112766", "definition": "National Eye Institute Visual Functioning Questionnaire - 25 Version 2000 Interviewer-Administered Format - Social Function: Because of your eyesight, how much difficulty do you have entertaining friends and family in your home?", "preferredTerm": "VFQ25-Interviewer Administered Format - Difficulty Entertaining Friends and Family in Home", "submissionValue": "VFQ1-Difficulty Entertaining Friends", "synonyms": ["VFQ1-Difficulty Entertaining Friends"]}, {"conceptId": "C112761", "definition": "National Eye Institute Visual Functioning Questionnaire - 25 Version 2000 Interviewer-Administered Format - Near Vision: Because of your eyesight, how much difficulty do you have figuring out whether bills you receive are accurate?", "preferredTerm": "VFQ25-Interviewer Administered Format - Difficulty Figure Out Bill Accuracy", "submissionValue": "VFQ1-Difficulty Figure Out Bill Accuracy", "synonyms": ["VFQ1-Difficulty Figure Out Bill Accuracy"]}, {"conceptId": "C112735", "definition": "National Eye Institute Visual Functioning Questionnaire - 25 Version 2000 Interviewer-Administered Format - Difficulty With Activities: Because of your eyesight, how much difficulty do you have finding something on a crowded shelf?", "preferredTerm": "VFQ25-Interviewer Administered Format - Difficulty Finding Something On a Shelf", "submissionValue": "VFQ1-Difficulty Finding on Crowded Shelf", "synonyms": ["VFQ1-Difficulty Finding on Crowded Shelf"]}, {"conceptId": "C112737", "definition": "National Eye Institute Visual Functioning Questionnaire - 25 Version 2000 Interviewer-Administered Format - Difficulty With Activities: Because of your eyesight, how much difficulty do you have going down steps, stairs, or curbs in dim light or at night?", "preferredTerm": "VFQ25-Interviewer Administered Format - Difficulty Going Down Steps at Night", "submissionValue": "VFQ1-Difficulty Going Down Step at Night", "synonyms": ["VFQ1-Difficulty Going Down Step at Night"]}, {"conceptId": "C112742", "definition": "National Eye Institute Visual Functioning Questionnaire - 25 Version 2000 Interviewer-Administered Format - Difficulty With Activities: Because of your eyesight, how much difficulty do you have going out to see movies, plays, or sports events?", "preferredTerm": "VFQ25-Interviewer Administered Format - Difficulty Going Out to See Movies", "submissionValue": "VFQ1-Difficulty Going Out to See Movies", "synonyms": ["VFQ1-Difficulty Going Out to See Movies"]}, {"conceptId": "C112738", "definition": "National Eye Institute Visual Functioning Questionnaire - 25 Version 2000 Interviewer-Administered Format - Difficulty With Activities: Because of your eyesight, how much difficulty do you have noticing objects off to the side while you are walking along?", "preferredTerm": "VFQ25-Interviewer Administered Format - Difficulty Noticing Objects Off to the Side While Walking", "submissionValue": "VFQ1-Difficulty Noticing Objects to Side", "synonyms": ["VFQ1-Difficulty Noticing Objects to Side"]}, {"conceptId": "C112740", "definition": "National Eye Institute Visual Functioning Questionnaire - 25 Version 2000 Interviewer-Administered Format - Difficulty With Activities: Because of your eyesight, how much difficulty do you have picking out and matching your own clothes?", "preferredTerm": "VFQ25-Interviewer Administered Format - Difficulty Picking Out and Matching Own Clothes", "submissionValue": "VFQ1-Difficulty Picking Out Own Clothes", "synonyms": ["VFQ1-Difficulty Picking Out Own Clothes"]}, {"conceptId": "C112733", "definition": "National Eye Institute Visual Functioning Questionnaire - 25 Version 2000 Interviewer-Administered Format - Difficulty With Activities: How much difficulty do you have reading ordinary print in newspapers? Would you say you have:", "preferredTerm": "VFQ25-Interviewer Administered Format - Difficulty Reading Ordinary Print in Newspapers", "submissionValue": "VFQ1-Difficulty Reading Newspapers", "synonyms": ["VFQ1-Difficulty Reading Newspapers"]}, {"conceptId": "C112760", "definition": "National Eye Institute Visual Functioning Questionnaire - 25 Version 2000 Interviewer-Administered Format - Near Vision: Wearing glasses, how much difficulty do you have reading the small print in a telephone book, on a medicine bottle, or on legal forms? Would you say:", "preferredTerm": "VFQ25-Interviewer Administered Format - Difficulty Reading Small Print", "submissionValue": "VFQ1-Difficulty Reading Small Print", "synonyms": ["VFQ1-Difficulty Reading Small Print"]}, {"conceptId": "C112736", "definition": "National Eye Institute Visual Functioning Questionnaire - 25 Version 2000 Interviewer-Administered Format - Difficulty With Activities: How much difficulty do you have reading street signs or the names of stores?", "preferredTerm": "VFQ25-Interviewer Administered Format - Difficulty Reading Street Signs", "submissionValue": "VFQ1-Difficulty Reading Street Signs", "synonyms": ["VFQ1-Difficulty Reading Street Signs"]}, {"conceptId": "C112763", "definition": "National Eye Institute Visual Functioning Questionnaire - 25 Version 2000 Interviewer-Administered Format - Distance Vision: Because of your eyesight, how much difficulty do you have recognizing people you know from across a room?", "preferredTerm": "VFQ25-Interviewer Administered Format - Difficulty Recognizing People You Know", "submissionValue": "VFQ1-Difficulty Recognizing People", "synonyms": ["VFQ1-Difficulty Recognizing People"]}, {"conceptId": "C112739", "definition": "National Eye Institute Visual Functioning Questionnaire - 25 Version 2000 Interviewer-Administered Format - Difficulty With Activities: Because of your eyesight, how much difficulty do you have seeing how people react to things you say?", "preferredTerm": "VFQ25-Interviewer Administered Format - Difficulty Seeing How People React", "submissionValue": "VFQ1-Difficulty Seeing How People React", "synonyms": ["VFQ1-Difficulty Seeing How People React"]}, {"conceptId": "C112765", "definition": "National Eye Institute Visual Functioning Questionnaire - 25 Version 2000 Interviewer-Administered Format - Distance Vision: Because of your eyesight, how much difficulty do you have seeing and enjoying programs on TV?", "preferredTerm": "VFQ25-Interviewer Administered Format - Difficulty Seeing and Enjoying Programs on TV", "submissionValue": "VFQ1-Difficulty Seeing Programs on TV", "synonyms": ["VFQ1-Difficulty Seeing Programs on TV"]}, {"conceptId": "C112762", "definition": "National Eye Institute Visual Functioning Questionnaire - 25 Version 2000 Interviewer-Administered Format - Near Vision: Because of your eyesight, how much difficulty do you have doing things like shaving, styling your hair, or putting on makeup?", "preferredTerm": "VFQ25-Interviewer Administered Format - Difficulty Shaving or Styling Hair or Putting On Makeup", "submissionValue": "VFQ1-Difficulty Shaving or Styling Hair", "synonyms": ["VFQ1-Difficulty Shaving or Styling Hair"]}, {"conceptId": "C112764", "definition": "National Eye Institute Visual Functioning Questionnaire - 25 Version 2000 Interviewer-Administered Format - Distance Vision: Because of your eyesight, how much difficulty do you have taking part in active sports or other outdoor activities that you enjoy (like golf, bowling, jogging, or walking)?", "preferredTerm": "VFQ25-Interviewer Administered Format - Difficulty Taking Part in Sports or Outdoor Activities", "submissionValue": "VFQ1-Difficulty Taking Part in Sports", "synonyms": ["VFQ1-Difficulty Taking Part in Sports"]}, {"conceptId": "C112741", "definition": "National Eye Institute Visual Functioning Questionnaire - 25 Version 2000 Interviewer-Administered Format - Difficulty With Activities: Because of your eyesight, how much difficulty do you have visiting with people in their homes, at parties, or in restaurants?", "preferredTerm": "VFQ25-Interviewer Administered Format - Difficulty Visiting People", "submissionValue": "VFQ1-Difficulty Visiting With People", "synonyms": ["VFQ1-Difficulty Visiting With People"]}, {"conceptId": "C112767", "definition": "National Eye Institute Visual Functioning Questionnaire - 25 Version 2000 Interviewer-Administered Format - Role Limitations: Do you have more help from others because of your vision?", "preferredTerm": "VFQ25-Interviewer Administered Format - Do You Have More Help From Others", "submissionValue": "VFQ1-Do You Have More Help From Others", "synonyms": ["VFQ1-Do You Have More Help From Others"]}, {"conceptId": "C112748", "definition": "National Eye Institute Visual Functioning Questionnaire - 25 Version 2000 Interviewer-Administered Format - Difficulty With Activities: How much difficulty do you have driving in difficult conditions, such as in bad weather, during rush hour, on the freeway, or in city traffic? Would you say you have:", "preferredTerm": "VFQ25-Interviewer Administered Format - Driving in Difficult Condition", "submissionValue": "VFQ1-Driving in Difficult Conditions", "synonyms": ["VFQ1-Driving in Difficult Conditions"]}, {"conceptId": "C112751", "definition": "National Eye Institute Visual Functioning Questionnaire - 25 Version 2000 Interviewer-Administered Format - Responses to Vision Problems: How much does pain or discomfort in or around your eyes, for example, burning, itching, or aching, keep you from doing what you'd like to be doing? Would you say:", "preferredTerm": "VFQ25-Interviewer Administered Format - Pain in Eyes Keep You From Doing What You Like", "submissionValue": "VFQ1-Eye Pain Keep From Doing What Like", "synonyms": ["VFQ1-Eye Pain Keep From Doing What Like"]}, {"conceptId": "C112730", "definition": "National Eye Institute Visual Functioning Questionnaire - 25 Version 2000 Interviewer-Administered Format - General Health and Vision: At the present time, would you say your eyesight using both eyes (with glasses or contact lenses, if you wear them) is excellent, good, fair, poor, or very poor or are you completely blind?", "preferredTerm": "VFQ25-Interviewer Administered Format - Eyesight Using Both Eyes", "submissionValue": "VFQ1-Eyesight Using Both Eyes Is", "synonyms": ["VFQ1-Eyesight Using Both Eyes Is"]}, {"conceptId": "C112732", "definition": "National Eye Institute Visual Functioning Questionnaire - 25 Version 2000 Interviewer-Administered Format - General Health and Vision: How much pain or discomfort have you had in and around your eyes (for example, burning, itching, or aching)? Would you say it is:", "preferredTerm": "VFQ25-Interviewer Administered Format - Pain or Discomfort You Had in and Around Eyes", "submissionValue": "VFQ1-How Much Pain in and Around Eyes", "synonyms": ["VFQ1-How Much Pain in and Around Eyes"]}, {"conceptId": "C112731", "definition": "National Eye Institute Visual Functioning Questionnaire - 25 Version 2000 Interviewer-Administered Format - General Health and Vision: How much of the time do you worry about your eyesight?", "preferredTerm": "VFQ25-Interviewer Administered Format - Time Spent Worry About Eyesight", "submissionValue": "VFQ1-How Often You Worry About Eyesight", "synonyms": ["VFQ1-How Often You Worry About Eyesight"]}, {"conceptId": "C112770", "definition": "National Eye Institute Visual Functioning Questionnaire - 25 Version 2000 Interviewer-Administered Format - Dependency: I don't go out of my home alone, because of my eyesight.", "preferredTerm": "VFQ25-Interviewer Administered Format - Don't Go Out of Home Alone Because of Eyesight", "submissionValue": "VFQ1-I Don't Go Out of My Home Alone", "synonyms": ["VFQ1-I Don't Go Out of My Home Alone"]}, {"conceptId": "C112753", "definition": "National Eye Institute Visual Functioning Questionnaire - 25 Version 2000 Interviewer-Administered Format - Responses to Vision Problems: I feel frustrated a lot of the time because of my eyesight.", "preferredTerm": "VFQ25-Interviewer Administered Format - Feel Frustrated Because of Eyesight", "submissionValue": "VFQ1-I Feel Frustrated a Lot of the Time", "synonyms": ["VFQ1-I Feel Frustrated a Lot of the Time"]}, {"conceptId": "C112756", "definition": "National Eye Institute Visual Functioning Questionnaire - 25 Version 2000 Interviewer-Administered Format - Responses to Vision Problems: I need a lot of help from others because of my eyesight.", "preferredTerm": "VFQ25-Interviewer Administered Format - Need Help From Others Because of Eyesight", "submissionValue": "VFQ1-I Need a Lot of Help From Others", "synonyms": ["VFQ1-I Need a Lot of Help From Others"]}, {"conceptId": "C112752", "definition": "National Eye Institute Visual Functioning Questionnaire - 25 Version 2000 Interviewer-Administered Format - Responses to Vision Problems: I stay home most of the time because of my eyesight.", "preferredTerm": "VFQ25-Interviewer Administered Format - Stay Home Because of Eyesight", "submissionValue": "VFQ1-I Stay Home Most of the Time", "synonyms": ["VFQ1-I Stay Home Most of the Time"]}, {"conceptId": "C112750", "definition": "National Eye Institute Visual Functioning Questionnaire - 25 Version 2000 Interviewer-Administered Format - Responses to Vision Problems: Are you limited in how long you can work or do other activities because of your vision?", "preferredTerm": "VFQ25-Interviewer Administered Format - Limited in How Long You Can Work Because of Vision", "submissionValue": "VFQ1-Limited in How Long You Can Work", "synonyms": ["VFQ1-Limited in How Long You Can Work"]}, {"conceptId": "C112768", "definition": "National Eye Institute Visual Functioning Questionnaire - 25 Version 2000 Interviewer-Administered Format - Role Limitations: Are you limited in the kinds of things you can do because of your vision?", "preferredTerm": "VFQ25-Interviewer Administered Format - Limited in Kinds of Things Can Do", "submissionValue": "VFQ1-Limited in Kinds of Things Can Do", "synonyms": ["VFQ1-Limited in Kinds of Things Can Do"]}, {"conceptId": "C112745", "definition": "National Eye Institute Visual Functioning Questionnaire - 25 Version 2000 Interviewer-Administered Format - Difficulty With Activities: If gave up driving: Was that mainly because of your eyesight, mainly for some other reason, or because of both your eyesight and other reasons?", "preferredTerm": "VFQ25-Interviewer Administered Format - Main Reason You Gave Up Driving", "submissionValue": "VFQ1-Main Reason You Gave Up Driving", "synonyms": ["VFQ1-Main Reason You Gave Up Driving"]}, {"conceptId": "C112754", "definition": "National Eye Institute Visual Functioning Questionnaire - 25 Version 2000 Interviewer-Administered Format - Responses to Vision Problems: I have much less control over what I do, because of my eyesight.", "preferredTerm": "VFQ25-Interviewer Administered Format - Have Less Control Because of Eyesight", "submissionValue": "VFQ1-Much Less Control Over What I Do", "synonyms": ["VFQ1-Much Less Control Over What I Do"]}, {"conceptId": "C112744", "definition": "National Eye Institute Visual Functioning Questionnaire - 25 Version 2000 Interviewer-Administered Format - Difficulty With Activities: If no, Have you never driven a car or have you given up driving?", "preferredTerm": "VFQ25-Interviewer Administered Format - Never Driven or Given Up Driving", "submissionValue": "VFQ1-Never Driven or Given Up Driving", "synonyms": ["VFQ1-Never Driven or Given Up Driving"]}, {"conceptId": "C112769", "definition": "National Eye Institute Visual Functioning Questionnaire - 25 Version 2000 Interviewer-Administered Format - Well-Being/Distress: I am often irritable because of my eyesight.", "preferredTerm": "VFQ25-Interviewer Administered Format - Often Irritable Because of Eyesight", "submissionValue": "VFQ1-Often Irritable Because Eyesight", "synonyms": ["VFQ1-Often Irritable Because Eyesight"]}, {"conceptId": "C112759", "definition": "National Eye Institute Visual Functioning Questionnaire - 25 Version 2000 Interviewer-Administered Format - General Vision: How would you rate your eyesight now (with glasses or contact lens on, if you wear them), on a scale of from 0 to 10, where zero means the worst possible eyesight, as bad or worse than being blind, and 10 means the best possible eyesight?", "preferredTerm": "VFQ25-Interviewer Administered Format - Rate Your Eyesight Now", "submissionValue": "VFQ1-Rate Your Eyesight Now", "synonyms": ["VFQ1-Rate Your Eyesight Now"]}, {"conceptId": "C112758", "definition": "National Eye Institute Visual Functioning Questionnaire - 25 Version 2000 Interviewer-Administered Format - General Health: How would you rate your overall health, on a scale where zero is as bad as death and 10 is best possible health?", "preferredTerm": "VFQ25-Interviewer Administered Format - Rate Your Overall Health", "submissionValue": "VFQ1-Rate Your Overall Health", "synonyms": ["VFQ1-Rate Your Overall Health"]}, {"conceptId": "C112755", "definition": "National Eye Institute Visual Functioning Questionnaire - 25 Version 2000 Interviewer-Administered Format - Responses to Vision Problems: Because of my eyesight, I have to rely too much on what other people tell me.", "preferredTerm": "VFQ25-Interviewer Administered Format - Have to Rely On Other People Because of Eyesight", "submissionValue": "VFQ1-Rely Too Much on What Others Tell", "synonyms": ["VFQ1-Rely Too Much on What Others Tell"]}, {"conceptId": "C112757", "definition": "National Eye Institute Visual Functioning Questionnaire - 25 Version 2000 Interviewer-Administered Format - Responses to Vision Problems: I worry about doing things that will embarrass myself or others, because of my eyesight.", "preferredTerm": "VFQ25-Interviewer Administered Format - Worry About Embarrass Myself or Others Because of Eyesight", "submissionValue": "VFQ1-Worry I'll Do Embarrassing Things", "synonyms": ["VFQ1-Worry I'll Do Embarrassing Things"]}, {"conceptId": "C112729", "definition": "National Eye Institute Visual Functioning Questionnaire - 25 Version 2000 Interviewer-Administered Format - General Health and Vision: In general, would you say your overall health is:", "preferredTerm": "VFQ25-Interviewer Administered Format - Overall Health", "submissionValue": "VFQ1-Your Overall Health Is", "synonyms": ["VFQ1-Your Overall Health Is"]}]}