{"_links": {"parentPackage": {"href": "/mdr/ct/packages/sdtmct-2016-06-24", "title": "SDTM Controlled Terminology Package 26 Effective 2016-06-24", "type": "Terminology"}, "priorVersion": {"href": "/mdr/ct/packages/sdtmct-2016-03-25/codelists/C118971", "title": "CDISC Clinical Classification Category Terminology", "type": "Code List"}, "rootItem": {"href": "/mdr/root/ct/sdtmct/codelists/C118971", "title": "Version-agnostic anchor resource for codelist C118971", "type": "Root Value Domain"}, "self": {"href": "/mdr/ct/packages/sdtmct-2016-06-24/codelists/C118971", "title": "CDISC Clinical Classification Category Terminology", "type": "Code List"}}, "conceptId": "C118971", "definition": "A grouping of observations within the Clinical Classification domain.", "extensible": "true", "name": "Category of Clinical Classification", "preferredTerm": "CDISC Clinical Classification Category Terminology", "submissionValue": "CCCAT", "synonyms": ["Category of Clinical Classification"], "terms": [{"conceptId": "C125755", "definition": "AJCC TNM Staging System 7th Edition (AJCC V7) (Edge SB, Byrd DR, Compton CC, Fritz AG, Greene FL, Trotti A, editors. AJCC cancer staging manual (7th ed). New York, NY: Springer; 2010).", "preferredTerm": "AJCC Cancer Staging Manual 7th Edition", "submissionValue": "AJCC V7", "synonyms": ["AJCC1"]}, {"conceptId": "C121005", "definition": "Acute Physiology and Chronic Health Evaluation II (APACHE II) (Knaus WA, Draper EA, Wagner DP, Zimmerman JE. APACHE II: a severity of disease classification system. Critical Care Medicine 1985; 13(10):818-29).", "preferredTerm": "Acute Physiology and Chronic Health Evaluation II Clinical Classification", "submissionValue": "APACHE II", "synonyms": ["APCH1"]}, {"conceptId": "C119107", "definition": "Stent Thrombosis Coronary ARC Grade (Cutlip DE, Windecker S, Mehran R, et al. Clinical End Points in Coronary Stent Trials : A Case for Standardized Definitions. Circulation. 2007;115:2344-2351).", "preferredTerm": "Stent Thrombosis Coronary ARC Grade Clinical Classification", "submissionValue": "ARC STC GRADE", "synonyms": ["STCG01"]}, {"conceptId": "C124705", "definition": "Atherosclerotic Cardiovascular Disease 10-Year Risk Estimator (Goff Jr DC et al. 2013 ACC/AHA Guideline on the Assessment of Cardiovascular Risk: A Report of the American College of Cardiology/American Heart Association Task Force on Practice Guidelines. Circulation 2014; 129: S49-S73).", "preferredTerm": "Atherosclerotic Cardiovascular Disease 10-Year Risk Estimator Clinical Classification", "submissionValue": "ASCVD 10-YEAR RISK", "synonyms": ["ASCVD1"]}, {"conceptId": "C124706", "definition": "ASSIGN Cardiovascular Disease 10-Year Risk Score (Woodward M, Brindle P, Tunstall-Pedoe H, for the SIGN group on risk estimation. Adding social deprivation and family history to cardiovascular risk assessment: the ASSIGN score from the Scottish Heart Health Extended Cohort (SHHEC). Heart 2007; 93: 172-176).", "preferredTerm": "ASSIGN Cardiovascular Disease 10-Year Risk Score Clinical Classification", "submissionValue": "ASSIGN CVD 10-YEAR RISK", "synonyms": ["ASSG01"]}, {"conceptId": "C121006", "definition": "The Body-Mass Index, Airflow Obstruction, Dyspnea, and Exercise Capacity Index (BODE Index) (Bartolome R. Celli, M.D., Claudia G. Cote, M.D., Jose M. Marin, M.D., Ciro Casanova, M.D., Maria Montes de Oca, M.D., Reina A. Mendez, M.D., Victor Pinto Plata, M.D., and Howard J. Cabral, Ph.D.; N Engl J Med 2004;350:1005-12).", "preferredTerm": "The Body-Mass Index, Airflow Obstruction, Dyspnea, and Exercise Capacity Index Clinical Classification", "submissionValue": "BODE INDEX", "synonyms": ["BODE01"]}, {"conceptId": "C124715", "definition": "CDC Classification System for HIV-Infected Adults and Adolescents (Centers for Disease Control and Prevention. 1993 Revised Classification System for HIV Infection and Expanded Surveillance Case Definition for AIDS Among Adolescents and Adults. MMWR Recomm Rep. 1992 Dec 18;41(RR-17):1-19).", "preferredTerm": "Center for Disease Control and Prevention Classification System for HIV-Infected Adults and Adolescents Clinical Classification", "submissionValue": "CDC HIV CLASSIFICATION FOR ADULTS AND ADOLESCENTS", "synonyms": ["CHIVC1"]}, {"conceptId": "C121007", "definition": "Child-Pugh Classification (Guidance for Industry Pharmacokinetics in Patients with Impaired Hepatic Function: Study Design, Data Analysis, and Impact on Dosing and Labeling. U.S. Department of Health and Human Services; Food and Drug Administration; Center for Drug Evaluation and Research (CDER); Center for Biologics Evaluation and Research (CBER). May 2003, Clinical Pharmacology. http://www.fda.gov/downloads/Drugs/GuidanceComplianceRegulatoryInformation/Guidances/UCM072123.pdf; http://www.halaven.com/sites/default/files/ChildPugh_FlashCard.pdf).", "preferredTerm": "Child-Pugh Clinical Classification", "submissionValue": "CHILD-PUGH CLASSIFICATION", "synonyms": ["CPS01"]}, {"conceptId": "C124711", "definition": "JFK Coma Recovery Scale-Revised (CRS-R) (Joseph T. Giacino, Kathleen Kalmar, John Whyte. The JFK Coma Recovery Scale-Revised: Measurement Characteristics and Diagnostic Utility. Arch Phys Med Rehabil Vol 85, December 2004).", "preferredTerm": "JFK Coma Recovery Scale-Revised Clinical Classification", "submissionValue": "CRS-R", "synonyms": ["CRSR01"]}, {"conceptId": "C117997", "definition": "Extrapyramidal Symptom Rating Scale-Abbreviated (ESRS-A) (Copyright 2006 Larry Alphs, MD, PhD, Guy Chouinard, MD, All Rights Reserved).", "preferredTerm": "Extrapyramidal Symptom Rating Scale-Abbreviated Clinical Classification", "submissionValue": "ESRSA", "synonyms": ["ESRSA1"]}, {"conceptId": "C124707", "definition": "Framingham Heart Study Cardiovascular Disease 10-Year Risk Score (D'Agostino Sr RB, Vasan RS, Pencina MJ, Wolf PA, Cobain M, Massaro JM, and Kannel WB. General Cardiovascular Risk Profile for Use in Primary Care: The Framingham Heart Study. Circulation 2008; 117: 743-753).", "preferredTerm": "Framingham Heart Study Cardiovascular Disease 10-Year Risk Score Clinical Classification", "submissionValue": "FHS CVD 10-YEAR RISK", "synonyms": ["FCVD1"]}, {"conceptId": "C124710", "definition": "Glasgow Coma Scale (GCS) The National Institute of Neurological Disorders and Stroke (NINDS) Version (Graham Teasdale and Bryan Jennett. Assessment of coma and impaired consciousness. A practical scale. Lancet. 1974 Jul 13; 2(7872):81-4).", "preferredTerm": "Glasgow Coma Scale-NINDS Version Clinical Classification", "submissionValue": "GCS NINDS VERSION", "synonyms": ["GCS01"]}, {"conceptId": "C102118", "definition": "The Hamilton Anxiety Rating Scale (HAM-A) (Hamilton M. The assessment of anxiety states by rating. Br J Med Psychol 1959; 32:50-55).", "preferredTerm": "Hamilton Anxiety Rating Scale Clinical Classification", "submissionValue": "HAM-A", "synonyms": ["HAMA1"]}, {"conceptId": "C100767", "definition": "The Hamilton Depression Rating Scale 17-Item (HAMD 17) (Hamilton M. Development of a rating scale for primary depressive illness. Br J Soc Clin Psychol 1967; 6(4):278-96).", "preferredTerm": "Hamilton Depression Rating Scale 17 Item Clinical Classification", "submissionValue": "HAMD 17", "synonyms": ["HAMD1"]}, {"conceptId": "C102119", "definition": "The Hamilton Depression Rating Scale 21-Item (HAMD 21) (Hedlund and Vieweg, The Hamilton rating scale for depression. Journal of Operational Psychiatry, 1979;10(2):149-165).", "preferredTerm": "Hamilton Depression Rating Scale 21-Item Clinical Classification", "submissionValue": "HAMD 21", "synonyms": ["HAMD2"]}, {"conceptId": "C121008", "definition": "Model for End Stage Liver Disease (MELD) (Malinchoc M, Kamath PS, Gordon FD, Peine CJ, Rank J, ter Borg PC (April 2000). A model to predict poor survival in patients undergoing transjugular intrahepatic portosystemic shunts. Hepatology 31 (4): 864-71).", "preferredTerm": "Model for End Stage Liver Disease Clinical Classification", "submissionValue": "MELD", "synonyms": ["MELD01"]}, {"conceptId": "C119105", "definition": "Coronary Artery Dissection NHLBI Grade (Coronary Artery angiographic changes after PTCA: Manual of Operations NHBLI PTCA Registry 1985-6:9).", "preferredTerm": "Coronary Artery Dissection NHLBI Grade Clinical Classification", "submissionValue": "NHLBI CAD GRADE", "synonyms": ["CADG01"]}, {"conceptId": "C121009", "definition": "Negative Symptom Assessment-16 (NSA-16) (Version 2.0, Copyright 2006, Larry Alphs, MD, PhD, All Right Reserved).", "preferredTerm": "Negative Symptom Assessment-16 Clinical Classification", "submissionValue": "NSA-16", "synonyms": ["NSA01"]}, {"conceptId": "C124712", "definition": "Positive and Negative Syndrome Scale (PANSS) (Copyright 1992 Multi-Health Systems Inc. All rights reserved).", "preferredTerm": "Positive and Negative Syndrome Scale Clinical Classification", "submissionValue": "PANSS", "synonyms": ["PANSS1"]}, {"conceptId": "C124708", "definition": "Reynolds Cardiovascular Disease 10-Year Risk Score (Ridker PM, Buring JE, Rifai N, Cook NR. Development and Validation of Improved Algorithms for the Assessment of Global Cardiovascular Risk in Women: The Reynolds Risk Score. Jama 2007; 297: 611-619), (Ridker PM, Paynter NP, Rifai N, Gaziano JM, Cook NR. C-Reactive Protein and Parental History Improve Global Cardiovascular Risk Prediction: The Reynolds Risk Score for Men. Circulation2008; 118(22): 2243-2251).", "preferredTerm": "Reynolds Cardiovascular Disease 10-Year Risk Score Clinical Classification", "submissionValue": "REYNOLDS CVD 10-YEAR RISK", "synonyms": ["RCVD01"]}, {"conceptId": "C124703", "definition": "Tanner Scale Boy (Marshall WA, Tanner JM. Variations in pattern of pubertal changes in boys. Arch Dis Child 1970 Feb;45(239):13-23).", "preferredTerm": "Tanner Scale Boy Version Clinical Classification", "submissionValue": "TANNER SCALE BOY", "synonyms": ["TANN02"]}, {"conceptId": "C124704", "definition": "Tanner Scale Girl (Marshall WA, Tanner JM. Variations in pattern of pubertal changes in girls. Arch Dis Child 1969 Jun; 44(235): 291-303).", "preferredTerm": "Tanner Scale Girl Version Clinical Classification", "submissionValue": "TANNER SCALE GIRL", "synonyms": ["TANN01"]}, {"conceptId": "C119104", "definition": "Coronary Thrombus TIMI Grade (TIMI Definitions for Commonly Used Terms in Clinical Trials. Available at http://www.timi.org/wp-content/uploads/2010/10/TIMI-Definitions.pdf. Accessed November 30, 2013).", "preferredTerm": "Coronary Thrombus TIMI Grade Clinical Classification", "submissionValue": "TIMI THROMBUS GRADE", "synonyms": ["TIMG01"]}, {"conceptId": "C124709", "definition": "West Haven Hepatic Encephalopathy Grade (Blei AT, Cordoba J. Hepatic Encephalopathy. Am J Gastroenterol. 2001 Jul. 96(7):1968-76).", "preferredTerm": "West Haven Hepatic Encephalopathy Grade Clinical Classification", "submissionValue": "WEST HAVEN HEPATIC ENCEPHALOPATHY GRADE", "synonyms": ["WHEG01"]}, {"conceptId": "C124713", "definition": "WHO Clinical Staging of HIV/AIDS for Adults and Adolescents (Copyright World Health Organization 2007, World Health Organization. WHO case definitions of HIV for surveillance and revised clinical staging and immunological classification of HIV-related disease in adults and children; 2007. Retrieved from http://www.who.int/hiv/pub/vct/hivstaging/en/).", "preferredTerm": "World Health Organization Clinical Staging of HIV/AIDS for Adults and Adolescents Clinical Classification", "submissionValue": "WHO HIV STAGING FOR ADULTS AND ADOLESCENTS", "synonyms": ["WHIVS1"]}, {"conceptId": "C124714", "definition": "WHO Clinical Staging of HIV/AIDS for Children (Copyright World Health Organization 2007, World Health Organization. WHO case definitions of HIV for surveillance and revised clinical staging and immunological classification of HIV-related disease in adults and children; 2007. Retrieved from http://www.who.int/hiv/pub/vct/hivstaging/en/).", "preferredTerm": "World Health Organization Clinical Staging of HIV/AIDS for Children Clinical Classification", "submissionValue": "WHO HIV STAGING FOR CHILDREN", "synonyms": ["WHIVS2"]}]}