{"_links": {"parentPackage": {"href": "/mdr/ct/packages/sdtmct-2016-06-24", "title": "SDTM Controlled Terminology Package 26 Effective 2016-06-24", "type": "Terminology"}, "priorVersion": {"href": "/mdr/ct/packages/sdtmct-2016-03-25/codelists/C119014", "title": "CDISC SDTM Cardiovascular Findings About Test Name Terminology", "type": "Code List"}, "rootItem": {"href": "/mdr/root/ct/sdtmct/codelists/C119014", "title": "Version-agnostic anchor resource for codelist C119014", "type": "Root Value Domain"}, "self": {"href": "/mdr/ct/packages/sdtmct-2016-06-24/codelists/C119014", "title": "CDISC SDTM Cardiovascular Findings About Test Name Terminology", "type": "Code List"}}, "conceptId": "C119014", "definition": "Terminology relevant to the test names that describe findings about a cardiovascular event or intervention.", "extensible": "false", "name": "Cardiovascular Findings About Test Name", "preferredTerm": "CDISC SDTM Cardiovascular Findings About Test Name Terminology", "submissionValue": "CVFATS", "synonyms": ["Cardiovascular Findings About Test Name"], "terms": [{"conceptId": "C118936", "definition": "Categorization of the type of acute myocardial infarction.", "preferredTerm": "Acute Myocardial Infarction Type", "submissionValue": "Acute Myocardial Infarction Type", "synonyms": ["Acute Myocardial Infarction Type"]}, {"conceptId": "C119229", "definition": "The method by which the coronary artery thrombosis event is determined or diagnosed.", "preferredTerm": "Coronary Artery Thrombosis Method of Identification", "submissionValue": "Coronary Artery Thrombosis Method Ident", "synonyms": ["Coronary Artery Thrombosis Method Ident"]}, {"conceptId": "C119230", "definition": "An indication as to whether the event meets the criteria for being a clinical endpoint.", "preferredTerm": "Endpoint Event Indicator", "submissionValue": "Endpoint Event Indicator", "synonyms": ["Endpoint Event Indicator"]}, {"conceptId": "C119237", "definition": "An indication of whether a Type 1 and Type 2 myocardial infarction is excluded as a diagnosis.", "preferredTerm": "Exclusion of Type 1 and Type 2 Myocardial Infarction Diagnosis Indicator", "submissionValue": "Exclusion of Type 1 and Type 2 MI", "synonyms": ["Exclusion of Type 1 and Type 2 MI"]}, {"conceptId": "C119231", "definition": "Categorization of the type of healthcare encounter.", "preferredTerm": "Healthcare Encounter Type", "submissionValue": "Healthcare Encounter Type", "synonyms": ["Healthcare Encounter Type"]}, {"conceptId": "C119232", "definition": "Categorization of the type(s) of new and/or worsening laboratory findings of heart failure present at the time of patient presentation.", "preferredTerm": "Lab Findings of New or Worsening Heart Failure", "submissionValue": "Heart Failure New/Worsening Lab Findings", "synonyms": ["Heart Failure New/Worsening Lab Findings"]}, {"conceptId": "C119233", "definition": "Categorization of the type(s) of new and/or worsening physical exam findings of heart failure present at the time of patient presentation.", "preferredTerm": "Physical Examination Findings of New or Worsening Heart Failure", "submissionValue": "Heart Failure New/Worsening PE Findings", "synonyms": ["Heart Failure New/Worsening PE Findings"]}, {"conceptId": "C119234", "definition": "Categorization of the type(s) of new and/or intensified treatment administered for heart failure management.", "preferredTerm": "Heart Failure Therapy Intensification Type", "submissionValue": "Heart Failure Therapy, Intensification", "synonyms": ["Heart Failure Therapy, Intensification"]}, {"conceptId": "C119235", "definition": "An indicator as to whether the subject has symptoms of ischemic discomfort.", "preferredTerm": "Ischemic Discomfort Indicator", "submissionValue": "Ischemic Discomfort Indicator", "synonyms": ["Ischemic Discomfort Indicator"]}, {"conceptId": "C119236", "definition": "Categorization of the type of objective evidence of new or worsening ischemia.", "preferredTerm": "Ischemic Evidence Type", "submissionValue": "Ischemic Evidence Type", "synonyms": ["Ischemic Evidence Type"]}, {"conceptId": "C119238", "definition": "A description of the new or worsening symptoms related to a clinical event.", "preferredTerm": "New or Worsening Symptom", "submissionValue": "New or Worsening Symptoms", "synonyms": ["New or Worsening Symptoms"]}, {"conceptId": "C123443", "definition": "A description of the clinical change to the subject after a non-invasive imaging procedure.", "preferredTerm": "Clinical Change by Non-Invasive Imaging Procedure", "submissionValue": "Non-Invasive Imaging Change", "synonyms": ["Non-Invasive Imaging Change"]}, {"conceptId": "C119239", "definition": "Categorization of the type of acute PCI angiographic complication resulting in acute myocardial ischemia.", "preferredTerm": "Acute Myocardial Infarction From PCI Complication Type", "submissionValue": "PCI Acute Angiographic Complication", "synonyms": ["PCI Acute Angiographic Complication"]}, {"conceptId": "C119240", "definition": "An indication as to whether the procedure is considered successful.", "preferredTerm": "Procedure Success Indicator", "submissionValue": "Procedure Success Indicator", "synonyms": ["Procedure Success Indicator"]}, {"conceptId": "C101230", "definition": "The degree of urgency in which a medical procedure must be performed.", "preferredTerm": "Triage Status", "submissionValue": "Procedure Urgency Status Type", "synonyms": ["Procedure Urgency Status Type"]}, {"conceptId": "C123424", "definition": "Categorization of the timing of coronary stent thrombosis occurrence per the classification schema described by the Academic Research Consortium (ARC).", "preferredTerm": "Academic Research Council Coronary Stent Thrombosis Timing", "submissionValue": "Stent Thrombosis, Coronary, ARC Timing", "synonyms": ["Stent Thrombosis, Coronary, ARC Timing"]}, {"conceptId": "C119579", "definition": "Categorization of the type of stroke.", "preferredTerm": "Stroke Type", "submissionValue": "Stroke Type", "synonyms": ["Stroke Type"]}, {"conceptId": "C119241", "definition": "An indication as to whether the subject had symptoms related to the clinical event.", "preferredTerm": "Symptom Indicator", "submissionValue": "Symptom Indicator", "synonyms": ["Symptom Indicator"]}, {"conceptId": "C119242", "definition": "The date time of the onset of symptoms of the clinical event.", "preferredTerm": "Symptom Onset Date", "submissionValue": "Symptom Onset Date", "synonyms": ["Symptom Onset Date"]}, {"conceptId": "C119243", "definition": "An indication as to whether vessel occlusion, in the native or bypass graft, occurred within 48 hours after the coronary artery bypass graft procedure.", "preferredTerm": "Vessel Occlusion 48 Hours after CABG Indicator", "submissionValue": "Vessel Occlusion After CABG 48 Ind", "synonyms": ["Vessel Occlusion After CABG 48 Ind"]}]}