{"_links": {"parentPackage": {"href": "/mdr/ct/packages/sdtmct-2016-06-24", "title": "SDTM Controlled Terminology Package 26 Effective 2016-06-24", "type": "Terminology"}, "priorVersion": {"href": "/mdr/ct/packages/sdtmct-2016-03-25/codelists/C119068", "title": "CDISC Questionnaire CHART-SF Paper Version Test Code Terminology", "type": "Code List"}, "rootItem": {"href": "/mdr/root/ct/sdtmct/codelists/C119068", "title": "Version-agnostic anchor resource for codelist C119068", "type": "Root Value Domain"}, "self": {"href": "/mdr/ct/packages/sdtmct-2016-06-24/codelists/C119068", "title": "CDISC Questionnaire CHART-SF Paper Version Test Code Terminology", "type": "Code List"}}, "conceptId": "C119068", "definition": "Craig Handicap Assessment and Reporting Technique - Short Form Paper Version test code.", "extensible": "false", "name": "Craig Handicap Assessment and Reporting Technique - Short Form Paper Version Questionnaire Test Code", "preferredTerm": "CDISC Questionnaire CHART-SF Paper Version Test Code Terminology", "submissionValue": "CHSF2TC", "synonyms": ["Craig Handicap Assessment and Reporting Technique - Short Form Paper Version Questionnaire Test Code"], "terms": [{"conceptId": "C119142", "definition": "Craig Handicap Assessment and Reporting Technique-Short Form Paper Version - How many hours in a typical 24-hour day do you have someone with you to provide physical assistance for personal care activities such as eating, bathing, dressing, toileting and mobility? (hours paid assistance).", "preferredTerm": "CHART-SF Paper Version - Paid Personal Care per Day", "submissionValue": "CHSF201A", "synonyms": ["CHSF2-Paid Personal Care per Day"]}, {"conceptId": "C119143", "definition": "Craig Handicap Assessment and Reporting Technique-Short Form Paper Version - How many hours in a typical 24-hour day do you have someone with you to provide physical assistance for personal care activities such as eating, bathing, dressing, toileting and mobility? hours unpaid (family, others).", "preferredTerm": "CHART-SF Paper Version - Unpaid Personal Care per Day", "submissionValue": "CHSF201B", "synonyms": ["CHSF2-Unpaid Personal Care per Day"]}, {"conceptId": "C119144", "definition": "Craig Handicap Assessment and Reporting Technique-Short Form Paper Version - How much time is someone with you in your home to assist you with activities that require remembering, decision making, or judgment?", "preferredTerm": "CHART-SF Paper Version - Cognitive Assistance at Home per Day", "submissionValue": "CHSF202", "synonyms": ["CHSF2-Home Cognitive Assistance per Day"]}, {"conceptId": "C119145", "definition": "Craig Handicap Assessment and Reporting Technique-Short Form Paper Version - How much of the time is someone with you to help you with remembering, decision making, or judgment when you go away from your home?", "preferredTerm": "CHART-SF Paper Version - Cognitive Assistance Away From Home per Day", "submissionValue": "CHSF203", "synonyms": ["CHSF2-Away Cognitive Assistance per Day"]}, {"conceptId": "C119146", "definition": "Craig Handicap Assessment and Reporting Technique-Short Form Paper Version - On a typical day, how many hours are you out of bed?", "preferredTerm": "CHART-SF Paper Version - Hours Out of Bed per Day", "submissionValue": "CHSF204", "synonyms": ["CHSF2-Hours Out of Bed per Day"]}, {"conceptId": "C119147", "definition": "Craig Handicap Assessment and Reporting Technique-Short Form Paper Version - In a typical week, how many days do you get out of your house and go somewhere?", "preferredTerm": "CHART-SF Paper Version - Days Out of the House per Week", "submissionValue": "CHSF205", "synonyms": ["CHSF2-Days Out of the House per Week"]}, {"conceptId": "C119148", "definition": "Craig Handicap Assessment and Reporting Technique-Short Form Paper Version - In the last year, how many nights have you spent away from your home?", "preferredTerm": "CHART-SF Paper Version - Nights Away From Home Last Year", "submissionValue": "CHSF206", "synonyms": ["CHSF2-Nights Away From Home Last Year"]}, {"conceptId": "C119149", "definition": "Craig Handicap Assessment and Reporting Technique-Short Form Paper Version - How many hours per week do you spend working in a job for which you get paid?", "preferredTerm": "CHART-SF Paper Version - Hours of Paid Work per Week", "submissionValue": "CHSF207A", "synonyms": ["CHSF2-Hours of Paid Work per Week"]}, {"conceptId": "C119150", "definition": "Craig Handicap Assessment and Reporting Technique-Short Form Paper Version - How many hours per week do you spend working in a job for which you get paid? (occupation).", "preferredTerm": "CHART-SF Paper Version - Occupation of Paid Work", "submissionValue": "CHSF207B", "synonyms": ["CHSF2-Occupation of Paid Work"]}, {"conceptId": "C119151", "definition": "Craig Handicap Assessment and Reporting Technique-Short Form Paper Version - How many hours per week do you spend in school working toward a degree or in an accredited technical training program?", "preferredTerm": "CHART-SF Paper Version - Hours of Schoolwork per Week", "submissionValue": "CHSF208", "synonyms": ["CHSF2-Hours of Schoolwork per Week"]}, {"conceptId": "C119152", "definition": "Craig Handicap Assessment and Reporting Technique-Short Form Paper Version - How many hours per week do you spend in active homemaking including parenting, housekeeping, and food preparation?", "preferredTerm": "CHART-SF Paper Version - Hours of Homemaking per Week", "submissionValue": "CHSF209", "synonyms": ["CHSF2-Hours of Homemaking per Week"]}, {"conceptId": "C119153", "definition": "Craig Handicap Assessment and Reporting Technique-Short Form Paper Version - How many hours per week do you spend in home maintenance activities such as gardening, house repairs or home improvement?", "preferredTerm": "CHART-SF Paper Version - Hours of Home Maintenance per Week", "submissionValue": "CHSF210", "synonyms": ["CHSF2-Hours of Home Maintenance per Week"]}, {"conceptId": "C119154", "definition": "Craig Handicap Assessment and Reporting Technique-Short Form Paper Version - How many hours per week do you spend in recreational activities such as sports, exercise, playing cards, or going to movies?", "preferredTerm": "CHART-SF Paper Version - Hours of Recreational Activities per Week", "submissionValue": "CHSF211", "synonyms": ["CHSF2-Hours of Recreation per Week"]}, {"conceptId": "C119155", "definition": "Craig Handicap Assessment and Reporting Technique-Short Form Paper Version - How many people do you live with?", "preferredTerm": "CHART-SF Paper Version - Number of People You Live With", "submissionValue": "CHSF212", "synonyms": ["CHSF2-Number of People You Live With"]}, {"conceptId": "C119156", "definition": "Craig Handicap Assessment and Reporting Technique-Short Form Paper Version - Is one of them your spouse or significant other?", "preferredTerm": "CHART-SF Paper Version - Live With Spouse or Significant Other", "submissionValue": "CHSF213", "synonyms": ["CHSF2-Live With Spouse or Signif Other"]}, {"conceptId": "C119157", "definition": "Craig Handicap Assessment and Reporting Technique-Short Form Paper Version - Of the people you live with how many are relatives?", "preferredTerm": "CHART-SF Paper Version - Number of Relatives You Live With", "submissionValue": "CHSF214", "synonyms": ["CHSF2-Number of Relatives You Live With"]}, {"conceptId": "C119158", "definition": "Craig Handicap Assessment and Reporting Technique-Short Form Paper Version - How many business or organizational associates do you visit, phone, or write to at least once a month?", "preferredTerm": "CHART-SF Paper Version - Associates Contacted per Month", "submissionValue": "CHSF215", "synonyms": ["CHSF2-Associates Contacted per Month"]}, {"conceptId": "C119159", "definition": "Craig Handicap Assessment and Reporting Technique-Short Form Paper Version - How many friends do you visit, phone, or write to at least once a month?", "preferredTerm": "CHART-SF Paper Version - Friends Contacted per Month", "submissionValue": "CHSF216", "synonyms": ["CHSF2-Friends Contacted per Month"]}, {"conceptId": "C119160", "definition": "Craig Handicap Assessment and Reporting Technique-Short Form Paper Version - With how many strangers have you initiated a conversation in the last month?", "preferredTerm": "CHART-SF Paper Version - Initiated Conversation With Strangers Last Month", "submissionValue": "CHSF217", "synonyms": ["CHSF2-Strangers Spoke with Last Month"]}, {"conceptId": "C119161", "definition": "Craig Handicap Assessment and Reporting Technique-Short Form Paper Version - Approximately what was the combined annual income, in the last year, of all family members in your household?", "preferredTerm": "CHART-SF Paper Version - Combined Annual Household Income Last Year", "submissionValue": "CHSF218", "synonyms": ["CHSF2-Combined Household Income Last Yr"]}, {"conceptId": "C119162", "definition": "Craig Handicap Assessment and Reporting Technique-Short Form Paper Version - Approximately how much did you pay last year for medical care expenses?", "preferredTerm": "CHART-SF Paper Version - Medical Care Expense Last Year", "submissionValue": "CHSF219", "synonyms": ["CHSF2-Medical Care Expenses Last Year"]}]}