{"_links": {"parentPackage": {"href": "/mdr/ct/packages/sdtmct-2016-06-24", "title": "SDTM Controlled Terminology Package 26 Effective 2016-06-24", "type": "Terminology"}, "priorVersion": {"href": "/mdr/ct/packages/sdtmct-2016-03-25/codelists/C120986", "title": "CDISC Clinical Classification BODE Index Test Name Terminology", "type": "Code List"}, "rootItem": {"href": "/mdr/root/ct/sdtmct/codelists/C120986", "title": "Version-agnostic anchor resource for codelist C120986", "type": "Root Value Domain"}, "self": {"href": "/mdr/ct/packages/sdtmct-2016-06-24/codelists/C120986", "title": "CDISC Clinical Classification BODE Index Test Name Terminology", "type": "Code List"}}, "conceptId": "C120986", "definition": "The Body-Mass Index, Airflow Obstruction, Dyspnea, and Exercise Capacity Index test name.", "extensible": "false", "name": "The Body-Mass Index, Airflow Obstruction, Dyspnea, and Exercise Capacity Index Clinical Classification Test Name", "preferredTerm": "CDISC Clinical Classification BODE Index Test Name Terminology", "submissionValue": "BODE01TN", "synonyms": ["The Body-Mass Index, Airflow Obstruction, Dyspnea, and Exercise Capacity Index Clinical Classification Test Name"], "terms": [{"conceptId": "C121067", "definition": "Body-Mass Index, Airflow Obstruction, Dyspnea, and Exercise Capacity Index - BODE score.", "preferredTerm": "BODE Index - Score", "submissionValue": "BODE01-BODE Score", "synonyms": ["BODE01-BODE Score"]}, {"conceptId": "C121063", "definition": "Body-Mass Index, Airflow Obstruction, Dyspnea, and Exercise Capacity Index - Body-mass index.", "preferredTerm": "BODE Index - Body-mass Index", "submissionValue": "BODE01-Body-mass Index", "synonyms": ["BODE01-Body-mass Index"]}, {"conceptId": "C121066", "definition": "Body-Mass Index, Airflow Obstruction, Dyspnea, and Exercise Capacity Index - Distance walked in 6 min (in meter).", "preferredTerm": "BODE Index - Distance Walked in 6 Minutes", "submissionValue": "BODE01-Distance Walked in 6 Minutes", "synonyms": ["BODE01-Distance Walked in 6 Minutes"]}, {"conceptId": "C121064", "definition": "Body-Mass Index, Airflow Obstruction, Dyspnea, and Exercise Capacity Index - FEV1 (% of predicted).", "preferredTerm": "BODE Index - FEV1 Percent Predicted", "submissionValue": "BODE01-FEV1 % Predicted", "synonyms": ["BODE01-FEV1 % Predicted"]}, {"conceptId": "C121065", "definition": "Body-Mass Index, Airflow Obstruction, Dyspnea, and Exercise Capacity Index - MMRC dyspnea scale.", "preferredTerm": "BODE Index - MMRC Dyspnea Scale", "submissionValue": "BODE01-MMRC Dyspnea Scale", "synonyms": ["BODE01-MMRC Dyspnea Scale"]}]}