{"_links": {"parentPackage": {"href": "/mdr/ct/packages/sdtmct-2016-06-24", "title": "SDTM Controlled Terminology Package 26 Effective 2016-06-24", "type": "Terminology"}, "priorVersion": {"href": "/mdr/ct/packages/sdtmct-2016-03-25/codelists/C123655", "title": "CDISC Functional Test AVLT-REY Test Code Terminology", "type": "Code List"}, "rootItem": {"href": "/mdr/root/ct/sdtmct/codelists/C123655", "title": "Version-agnostic anchor resource for codelist C123655", "type": "Root Value Domain"}, "self": {"href": "/mdr/ct/packages/sdtmct-2016-06-24/codelists/C123655", "title": "CDISC Functional Test AVLT-REY Test Code Terminology", "type": "Code List"}}, "conceptId": "C123655", "definition": "Rey Auditory Verbal Learning Test test code.", "extensible": "false", "name": "Rey Auditory Verbal Learning Test Functional Test Test Code", "preferredTerm": "CDISC Functional Test AVLT-REY Test Code Terminology", "submissionValue": "AVL02TC", "synonyms": ["Rey Auditory Verbal Learning Test Functional Test Test Code"], "terms": [{"conceptId": "C123683", "definition": "Auditory Verbal Learning Test - List A, Word 1.", "preferredTerm": "AVLT-REY - List A Word 1", "submissionValue": "AVL0201", "synonyms": ["AVL02-List A Word 1"]}, {"conceptId": "C123684", "definition": "Auditory Verbal Learning Test - List A, Word 2.", "preferredTerm": "AVLT-REY - List A Word 2", "submissionValue": "AVL0202", "synonyms": ["AVL02-List A Word 2"]}, {"conceptId": "C123685", "definition": "Auditory Verbal Learning Test - List A, Word 3.", "preferredTerm": "AVLT-REY - List A Word 3", "submissionValue": "AVL0203", "synonyms": ["AVL02-List A Word 3"]}, {"conceptId": "C123686", "definition": "Auditory Verbal Learning Test - List A, Word 4.", "preferredTerm": "AVLT-REY - List A Word 4", "submissionValue": "AVL0204", "synonyms": ["AVL02-List A Word 4"]}, {"conceptId": "C123687", "definition": "Auditory Verbal Learning Test - List A, Word 5.", "preferredTerm": "AVLT-REY - List A Word 5", "submissionValue": "AVL0205", "synonyms": ["AVL02-List A Word 5"]}, {"conceptId": "C123688", "definition": "Auditory Verbal Learning Test - List A, Word 6.", "preferredTerm": "AVLT-REY - List A Word 6", "submissionValue": "AVL0206", "synonyms": ["AVL02-List A Word 6"]}, {"conceptId": "C123689", "definition": "Auditory Verbal Learning Test - List A, Word 7.", "preferredTerm": "AVLT-REY - List A Word 7", "submissionValue": "AVL0207", "synonyms": ["AVL02-List A Word 7"]}, {"conceptId": "C123690", "definition": "Auditory Verbal Learning Test - List A, Word 8.", "preferredTerm": "AVLT-REY - List A Word 8", "submissionValue": "AVL0208", "synonyms": ["AVL02-List A Word 8"]}, {"conceptId": "C123691", "definition": "Auditory Verbal Learning Test - List A, Word 9.", "preferredTerm": "AVLT-REY - List A Word 9", "submissionValue": "AVL0209", "synonyms": ["AVL02-List A Word 9"]}, {"conceptId": "C123692", "definition": "Auditory Verbal Learning Test - List A, Word 10.", "preferredTerm": "AVLT-REY - List A Word 10", "submissionValue": "AVL0210", "synonyms": ["AVL02-List A Word 10"]}, {"conceptId": "C123693", "definition": "Auditory Verbal Learning Test - List A, Word 11.", "preferredTerm": "AVLT-REY - List A Word 11", "submissionValue": "AVL0211", "synonyms": ["AVL02-List A Word 11"]}, {"conceptId": "C123694", "definition": "Auditory Verbal Learning Test - List A, Word 12.", "preferredTerm": "AVLT-REY - List A Word 12", "submissionValue": "AVL0212", "synonyms": ["AVL02-List A Word 12"]}, {"conceptId": "C123695", "definition": "Auditory Verbal Learning Test - List A, Word 13.", "preferredTerm": "AVLT-REY - List A Word 13", "submissionValue": "AVL0213", "synonyms": ["AVL02-List A Word 13"]}, {"conceptId": "C123696", "definition": "Auditory Verbal Learning Test - List A, Word 14.", "preferredTerm": "AVLT-REY - List A Word 14", "submissionValue": "AVL0214", "synonyms": ["AVL02-List A Word 14"]}, {"conceptId": "C123697", "definition": "Auditory Verbal Learning Test - List A, Word 15.", "preferredTerm": "AVLT-REY - List A Word 15", "submissionValue": "AVL0215", "synonyms": ["AVL02-List A Word 15"]}, {"conceptId": "C123698", "definition": "Auditory Verbal Learning Test - The number of List A words recalled from a trial.", "preferredTerm": "AVLT-REY - List A Total", "submissionValue": "AVL0216", "synonyms": ["AVL02-List A Total"]}, {"conceptId": "C123699", "definition": "Auditory Verbal Learning Test - The number of List A intrusions while recalling from a trial.", "preferredTerm": "AVLT-REY - List A Intrusions", "submissionValue": "AVL0217", "synonyms": ["AVL02-List A Intrusions"]}, {"conceptId": "C123700", "definition": "Auditory Verbal Learning Test - List B, Word 1.", "preferredTerm": "AVLT-REY - List B Word 1", "submissionValue": "AVL0218", "synonyms": ["AVL02-List B Word 1"]}, {"conceptId": "C123701", "definition": "Auditory Verbal Learning Test - List B, Word 2.", "preferredTerm": "AVLT-REY - List B Word 2", "submissionValue": "AVL0219", "synonyms": ["AVL02-List B Word 2"]}, {"conceptId": "C123702", "definition": "Auditory Verbal Learning Test - List B, Word 3.", "preferredTerm": "AVLT-REY - List B Word 3", "submissionValue": "AVL0220", "synonyms": ["AVL02-List B Word 3"]}, {"conceptId": "C123703", "definition": "Auditory Verbal Learning Test - List B, Word 4.", "preferredTerm": "AVLT-REY - List B Word 4", "submissionValue": "AVL0221", "synonyms": ["AVL02-List B Word 4"]}, {"conceptId": "C123704", "definition": "Auditory Verbal Learning Test - List B, Word 5.", "preferredTerm": "AVLT-REY - List B Word 5", "submissionValue": "AVL0222", "synonyms": ["AVL02-List B Word 5"]}, {"conceptId": "C123705", "definition": "Auditory Verbal Learning Test - List B, Word 6.", "preferredTerm": "AVLT-REY - List B Word 6", "submissionValue": "AVL0223", "synonyms": ["AVL02-List B Word 6"]}, {"conceptId": "C123706", "definition": "Auditory Verbal Learning Test - List B, Word 7.", "preferredTerm": "AVLT-REY - List B Word 7", "submissionValue": "AVL0224", "synonyms": ["AVL02-List B Word 7"]}, {"conceptId": "C123707", "definition": "Auditory Verbal Learning Test - List B, Word 8.", "preferredTerm": "AVLT-REY - List B Word 8", "submissionValue": "AVL0225", "synonyms": ["AVL02-List B Word 8"]}, {"conceptId": "C123708", "definition": "Auditory Verbal Learning Test - List B, Word 9.", "preferredTerm": "AVLT-REY - List B Word 9", "submissionValue": "AVL0226", "synonyms": ["AVL02-List B Word 9"]}, {"conceptId": "C123709", "definition": "Auditory Verbal Learning Test - List B, Word 10.", "preferredTerm": "AVLT-REY - List B Word 10", "submissionValue": "AVL0227", "synonyms": ["AVL02-List B Word 10"]}, {"conceptId": "C123710", "definition": "Auditory Verbal Learning Test - List B, Word 11.", "preferredTerm": "AVLT-REY - List B Word 11", "submissionValue": "AVL0228", "synonyms": ["AVL02-List B Word 11"]}, {"conceptId": "C123711", "definition": "Auditory Verbal Learning Test - List B, Word 12.", "preferredTerm": "AVLT-REY - List B Word 12", "submissionValue": "AVL0229", "synonyms": ["AVL02-List B Word 12"]}, {"conceptId": "C123712", "definition": "Auditory Verbal Learning Test - List B, Word 13.", "preferredTerm": "AVLT-REY - List B Word 13", "submissionValue": "AVL0230", "synonyms": ["AVL02-List B Word 13"]}, {"conceptId": "C123713", "definition": "Auditory Verbal Learning Test - List B, Word 14.", "preferredTerm": "AVLT-REY - List B Word 14", "submissionValue": "AVL0231", "synonyms": ["AVL02-List B Word 14"]}, {"conceptId": "C123714", "definition": "Auditory Verbal Learning Test - List B, Word 15.", "preferredTerm": "AVLT-REY - List B Word 15", "submissionValue": "AVL0232", "synonyms": ["AVL02-List B Word 15"]}, {"conceptId": "C123715", "definition": "Auditory Verbal Learning Test - The number of words recalled from List B trial.", "preferredTerm": "AVLT-REY - List B Total", "submissionValue": "AVL0233", "synonyms": ["AVL02- List B Total"]}, {"conceptId": "C123716", "definition": "Auditory Verbal Learning Test - The number of intrusions while recalling from List B trial.", "preferredTerm": "AVLT-REY - List B Intrusions", "submissionValue": "AVL0234", "synonyms": ["AVL02-List B Intrusions"]}, {"conceptId": "C123717", "definition": "Auditory Verbal Learning Test - The number of words correct on recognition test.", "preferredTerm": "AVLT-REY - Recognition Total", "submissionValue": "AVL0235", "synonyms": ["AVL02-Recognition Total"]}, {"conceptId": "C123718", "definition": "Auditory Verbal Learning Test - The number of intrusions on recognition test.", "preferredTerm": "AVLT-REY - Recognition Intrusions", "submissionValue": "AVL0236", "synonyms": ["AVL02-Recognition Intrusions"]}]}