{"_links": {"parentPackage": {"href": "/mdr/ct/packages/sdtmct-2016-06-24", "title": "SDTM Controlled Terminology Package 26 Effective 2016-06-24", "type": "Terminology"}, "priorVersion": {"href": "/mdr/ct/packages/sdtmct-2016-03-25/codelists/C124674", "title": "CDISC Clinical Classification WHO Clinical Staging of HIV/AIDS for Adults and Adolescents Test Code Terminology", "type": "Code List"}, "rootItem": {"href": "/mdr/root/ct/sdtmct/codelists/C124674", "title": "Version-agnostic anchor resource for codelist C124674", "type": "Root Value Domain"}, "self": {"href": "/mdr/ct/packages/sdtmct-2016-06-24/codelists/C124674", "title": "CDISC Clinical Classification WHO Clinical Staging of HIV/AIDS for Adults and Adolescents Test Code Terminology", "type": "Code List"}}, "conceptId": "C124674", "definition": "WHO Clinical Staging of HIV/AIDS for Adults and Adolescents test code.", "extensible": "false", "name": "WHO Clinical Staging of HIV/AIDS for Adults and Adolescents Clinical Classification Test Code", "preferredTerm": "CDISC Clinical Classification WHO Clinical Staging of HIV/AIDS for Adults and Adolescents Test Code Terminology", "submissionValue": "WHIVS1TC", "synonyms": ["WHO Clinical Staging of HIV/AIDS for Adults and Adolescents Clinical Classification Test Code"], "terms": [{"conceptId": "C124777", "definition": "WHO Clinical Staging of HIV/AIDS for Adults and Adolescents - WHO clinical stage of HIV/AIDS.", "preferredTerm": "WHO Clinical Staging of HIV/AIDS for Adults and Adolescents - WHO Clinical Stage of HIV/AIDS", "submissionValue": "WHIVS101", "synonyms": ["WHIVS1-WHO Clinical Stage of HIV/AIDS"]}]}