{"_links": {"parentPackage": {"href": "/mdr/ct/packages/sdtmct-2016-06-24", "title": "SDTM Controlled Terminology Package 26 Effective 2016-06-24", "type": "Terminology"}, "priorVersion": {"href": "/mdr/ct/packages/sdtmct-2016-03-25/codelists/C124687", "title": "CDISC Functional Test TMT Test Name Terminology", "type": "Code List"}, "rootItem": {"href": "/mdr/root/ct/sdtmct/codelists/C124687", "title": "Version-agnostic anchor resource for codelist C124687", "type": "Root Value Domain"}, "self": {"href": "/mdr/ct/packages/sdtmct-2016-06-24/codelists/C124687", "title": "CDISC Functional Test TMT Test Name Terminology", "type": "Code List"}}, "conceptId": "C124687", "definition": "Trail Making Test test name.", "extensible": "false", "name": "Trail Making Test Functional Test Test Name", "preferredTerm": "CDISC Functional Test TMT Test Name Terminology", "submissionValue": "TMT01TN", "synonyms": ["Trail Making Test Functional Test Test Name"], "terms": [{"conceptId": "C124780", "definition": "Trail Making Test - Time (in seconds) to complete Trails A.", "preferredTerm": "TMT - Time to Complete Trails A", "submissionValue": "TMT01-Time to Complete Trails A", "synonyms": ["TMT01-Time to Complete Trails A"]}, {"conceptId": "C124781", "definition": "Trail Making Test - Time (in seconds) to complete Trails B.", "preferredTerm": "TMT - Time to Complete Trails B", "submissionValue": "TMT01-Time to Complete Trails B", "synonyms": ["TMT01-Time to Complete Trails B"]}]}