{"_links": {"parentPackage": {"href": "/mdr/ct/packages/sdtmct-2016-06-24", "title": "SDTM Controlled Terminology Package 26 Effective 2016-06-24", "type": "Terminology"}, "priorVersion": {"href": "/mdr/ct/packages/sdtmct-2016-03-25/codelists/C124661", "title": "CDISC Clinical Classification Tanner Scale-Boy Test Name Terminology", "type": "Code List"}, "rootItem": {"href": "/mdr/root/ct/sdtmct/codelists/C124661", "title": "Version-agnostic anchor resource for codelist C124661", "type": "Root Value Domain"}, "self": {"href": "/mdr/ct/packages/sdtmct-2016-06-24/codelists/C124661", "title": "CDISC Clinical Classification Tanner Scale-Boy Test Name Terminology", "type": "Code List"}}, "conceptId": "C124661", "definition": "Tanner Scale Boy test name.", "extensible": "false", "name": "Tanner Scale Boy Clinical Classification Test Name", "preferredTerm": "CDISC Clinical Classification Tanner Scale-Boy Test Name Terminology", "submissionValue": "TANN02TN", "synonyms": ["Tanner Scale Boy Clinical Classification Test Name"], "terms": [{"conceptId": "C124716", "definition": "Tanner Scale Boy - Genitalia stages.", "preferredTerm": "Tanner Scale-Boy - Genitalia Stages", "submissionValue": "TANN02-Genitalia Stages", "synonyms": ["TANN02-Genitalia Stages"]}, {"conceptId": "C124717", "definition": "Tanner Scale Boy - Pubic hair stages.", "preferredTerm": "Tanner Scale-Boy - Pubic Hair Stages", "submissionValue": "TANN02-Pubic Hair Stages", "synonyms": ["TANN02-Pubic Hair Stages"]}]}