{"_links": {"parentPackage": {"href": "/mdr/ct/packages/sdtmct-2016-06-24", "title": "SDTM Controlled Terminology Package 26 Effective 2016-06-24", "type": "Terminology"}, "rootItem": {"href": "/mdr/root/ct/sdtmct/codelists/C127269", "title": "Version-agnostic anchor resource for codelist C127269", "type": "Root Value Domain"}, "self": {"href": "/mdr/ct/packages/sdtmct-2016-06-24/codelists/C127269", "title": "CDISC SDTM Musculoskeletal System Finding Test Code Terminology", "type": "Code List"}}, "conceptId": "C127269", "definition": "A terminology codelist to describe the test code for a physiological examination of the musculoskeletal system.", "extensible": "true", "name": "Musculoskeletal System Finding Test Code", "preferredTerm": "CDISC SDTM Musculoskeletal System Finding Test Code Terminology", "submissionValue": "MUSCTSCD", "synonyms": ["Musculoskeletal System Finding Test Code"], "terms": [{"conceptId": "C127774", "definition": "An indication as to whether there are symptoms of swelling.", "preferredTerm": "Swollen Indicator", "submissionValue": "SWLLIND", "synonyms": ["Swollen Indicator"]}, {"conceptId": "C127775", "definition": "An indication as to whether there are symptoms of tenderness.", "preferredTerm": "Tenderness Indicator", "submissionValue": "TNDRIND", "synonyms": ["Tenderness Indicator"]}]}