{"_links": {"parentPackage": {"href": "/mdr/ct/packages/sdtmct-2016-06-24", "title": "SDTM Controlled Terminology Package 26 Effective 2016-06-24", "type": "Terminology"}, "rootItem": {"href": "/mdr/root/ct/sdtmct/codelists/C127270", "title": "Version-agnostic anchor resource for codelist C127270", "type": "Root Value Domain"}, "self": {"href": "/mdr/ct/packages/sdtmct-2016-06-24/codelists/C127270", "title": "CDISC SDTM Musculoskeletal System Finding Test Name Terminology", "type": "Code List"}}, "conceptId": "C127270", "definition": "A terminology codelist to describe the test name for a physiological examination of the musculoskeletal system.", "extensible": "true", "name": "Musculoskeletal System Finding Test Name", "preferredTerm": "CDISC SDTM Musculoskeletal System Finding Test Name Terminology", "submissionValue": "MUSCTS", "synonyms": ["Musculoskeletal System Finding Test Name"], "terms": [{"conceptId": "C127774", "definition": "An indication as to whether there are symptoms of swelling.", "preferredTerm": "Swollen Indicator", "submissionValue": "Swollen Indicator", "synonyms": ["Swollen Indicator"]}, {"conceptId": "C127775", "definition": "An indication as to whether there are symptoms of tenderness.", "preferredTerm": "Tenderness Indicator", "submissionValue": "Tenderness Indicator", "synonyms": ["Tenderness Indicator"]}]}