{"_links": {"parentPackage": {"href": "/mdr/ct/packages/sdtmct-2016-06-24", "title": "SDTM Controlled Terminology Package 26 Effective 2016-06-24", "type": "Terminology"}, "priorVersion": {"href": "/mdr/ct/packages/sdtmct-2016-03-25/codelists/C96781", "title": "CDISC SDTM Tumor Response Assessment Test Name Terminology", "type": "Code List"}, "rootItem": {"href": "/mdr/root/ct/sdtmct/codelists/C96781", "title": "Version-agnostic anchor resource for codelist C96781", "type": "Root Value Domain"}, "self": {"href": "/mdr/ct/packages/sdtmct-2016-06-24/codelists/C96781", "title": "CDISC SDTM Tumor Response Assessment Test Name Terminology", "type": "Code List"}}, "conceptId": "C96781", "definition": "Terminology for oncology studies relevant to the test names that describe an assessment of response to treatment or therapy within the disease response and clinical classification domain.", "extensible": "true", "name": "Oncology Response Assessment Test Name", "preferredTerm": "CDISC SDTM Tumor Response Assessment Test Name Terminology", "submissionValue": "ONCRTS", "synonyms": ["Oncology Response Assessment Test Name"], "terms": [{"conceptId": "C94536", "definition": "An assessment of the most clinically favorable overall response of the disease to the therapy.", "preferredTerm": "Best Overall Response", "submissionValue": "Best Overall Response", "synonyms": ["Best Overall Response", "Best Response"]}, {"conceptId": "C123619", "definition": "An assessment of the clinical response of the disease to the therapy.", "preferredTerm": "Clinical Response", "submissionValue": "Clinical Response", "synonyms": ["Clinical Response"]}, {"conceptId": "C123620", "definition": "An assessment of the cytogenetic response of the disease to the therapy.", "preferredTerm": "Cytogenetic Response", "submissionValue": "Cytogenetic Response", "synonyms": ["Cytogenetic Response"]}, {"conceptId": "C123621", "definition": "An indication as to whether disease recurrence occurred.", "preferredTerm": "Disease Recurrence Indicator", "submissionValue": "Disease Recurrence Indicator", "synonyms": ["Disease Recurrence Indicator"]}, {"conceptId": "C123622", "definition": "An assessment of the hematologic response of the disease to the therapy.", "preferredTerm": "Hematologic Response", "submissionValue": "Hematologic Response", "synonyms": ["Hematologic Response"]}, {"conceptId": "C123623", "definition": "An assessment of the metabolic response of the disease to the therapy.", "preferredTerm": "Metabolic Response", "submissionValue": "Metabolic Response", "synonyms": ["Metabolic Response"]}, {"conceptId": "C124433", "definition": "An assessment of the minimal residual disease response of the disease to the therapy.", "preferredTerm": "Minimal Residual Disease Response", "submissionValue": "Minimal Residual Disease Response", "synonyms": ["MRD Response", "Minimal Residual Disease Response"]}, {"conceptId": "C123624", "definition": "An assessment of the molecular response of the disease to the therapy.", "preferredTerm": "Molecular Response", "submissionValue": "Molecular Response", "synonyms": ["Molecular Response"]}, {"conceptId": "C123625", "definition": "An assessment of the morphologic response of the disease to the therapy.", "preferredTerm": "Morphologic Response", "submissionValue": "Morphologic Response", "synonyms": ["Morphologic Response"]}, {"conceptId": "C103420", "definition": "An assessment of the equivocality of disease progression based on a newly identified lesion.", "preferredTerm": "New Lesion Progression", "submissionValue": "New Lesion Progression", "synonyms": ["New Lesion Progression"]}, {"conceptId": "C94535", "definition": "An assessment of the response of a non-target tumor(s) to the therapy.", "preferredTerm": "Response in Non-Target Lesion", "submissionValue": "Non-target Response", "synonyms": ["Non-target Response"]}, {"conceptId": "C96613", "definition": "An assessment of the overall response of the disease to the therapy. (NCI)", "preferredTerm": "Overall Response", "submissionValue": "Overall Response", "synonyms": ["Overall Response"]}, {"conceptId": "C123626", "definition": "An assessment of the pathologic response of the disease to the therapy.", "preferredTerm": "Pathologic Response", "submissionValue": "Pathologic Response", "synonyms": ["Pathologic Response"]}, {"conceptId": "C123627", "definition": "An assessment of the radiologic response of the disease to the therapy.", "preferredTerm": "Radiologic Response", "submissionValue": "Radiologic Response", "synonyms": ["Radiologic Response"]}, {"conceptId": "C124434", "definition": "A global deterioration of health status providing evidence of disease progression not covered by disease response criteria (eg. RECIST).", "preferredTerm": "Symptomatic Deterioration", "submissionValue": "Symptomatic Deterioration", "synonyms": ["Symptomatic Deterioration"]}, {"conceptId": "C94534", "definition": "An assessment of the response of a target tumor(s) to the therapy.", "preferredTerm": "Response in Target Lesion", "submissionValue": "Target Response", "synonyms": ["Target Response"]}, {"conceptId": "C123628", "definition": "An assessment of the change in tumor antigen quantity in response to the therapy.", "preferredTerm": "Tumor Antigen Response", "submissionValue": "Tumor Antigen Response", "synonyms": ["Tumor Antigen Response"]}]}