{"_links": {"parentPackage": {"href": "/mdr/ct/packages/sendct-2015-03-27", "title": "SEND Controlled Terminology Package 21 Effective 2015-03-27", "type": "Terminology"}, "rootItem": {"href": "/mdr/root/ct/sendct/codelists/C120536", "title": "Version-agnostic anchor resource for codelist C120536", "type": "Root Value Domain"}, "self": {"href": "/mdr/ct/packages/sendct-2015-03-27/codelists/C120536", "title": "CDISC SEND SEND Vital Signs Test Code Terminology", "type": "Code List"}}, "conceptId": "C120536", "definition": "The name given to the test code that analyzes a vital sign in nonclinical studies.", "extensible": "true", "name": "SEND Vital Signs Test Code", "preferredTerm": "CDISC SEND SEND Vital Signs Test Code Terminology", "submissionValue": "SVSTSTCD", "synonyms": ["SEND Vital Signs Test Code"], "terms": [{"conceptId": "C60832", "definition": "A measurement of the oxygen-hemoglobin saturation of a volume of blood.", "preferredTerm": "Oxygen Saturation Measurement", "submissionValue": "OXYSAT", "synonyms": ["Oxygen Saturation"]}, {"conceptId": "C49676", "definition": "The rate of the pulse as observed in an artery, expressed as beats per minute. It can be measured at several anatomical sites, including the wrist, neck, temple, groin, behind the knees, or on top of the foot. (NCI)", "preferredTerm": "Pulse Rate", "submissionValue": "PULSE", "synonyms": ["Pulse Rate"]}, {"conceptId": "C25206", "definition": "The property of a body or region of space that determines whether or not there will be a net flow of heat into it or out of it from a neighboring body or region and in which direction (if any) the heat will flow, perceptible by living organism as a somatic sensation of cold or heat. It is a measure of the average translational kinetic energy associated with the disordered microscopic motion of atoms and molecules. Temperature is measured in one of the three standard temperature scales: Celsius, Kelvin, and Fahrenheit. (NCI)", "preferredTerm": "Temperature", "submissionValue": "TEMP", "synonyms": ["Temperature"]}]}