{"_links": {"parentPackage": {"href": "/mdr/ct/packages/sendct-2015-03-27", "title": "SEND Controlled Terminology Package 21 Effective 2015-03-27", "type": "Terminology"}, "priorVersion": {"href": "/mdr/ct/packages/sendct-2014-12-19/codelists/C66732", "title": "CDISC SDTM Sex of Study Group Terminology", "type": "Code List"}, "rootItem": {"href": "/mdr/root/ct/sendct/codelists/C66732", "title": "Version-agnostic anchor resource for codelist C66732", "type": "Root Value Domain"}, "self": {"href": "/mdr/ct/packages/sendct-2015-03-27/codelists/C66732", "title": "CDISC SDTM Sex of Study Group Terminology", "type": "Code List"}}, "conceptId": "C66732", "definition": "The specific sex, either male, female, or mixed of the subject group being studied. (NCI)", "extensible": "false", "name": "Sex of Participants", "preferredTerm": "CDISC SDTM Sex of Study Group Terminology", "submissionValue": "SEXPOP", "synonyms": ["Sex of Participants"], "terms": [{"conceptId": "C49636", "definition": "One and the other; relating to or being two in conjunction. (NCI)", "preferredTerm": "Both", "submissionValue": "BOTH"}, {"conceptId": "C16576", "definition": "A person who belongs to the sex that normally produces ova. The term is used to indicate biological sex distinctions, or cultural gender role distinctions, or both. (NCI)", "preferredTerm": "Female", "submissionValue": "F", "synonyms": ["Female"]}, {"conceptId": "C20197", "definition": "A person who belongs to the sex that normally produces sperm. The term is used to indicate biological sex distinctions, cultural gender role distinctions, or both. (NCI)", "preferredTerm": "Male", "submissionValue": "M", "synonyms": ["Male"]}]}