{"_links": {"parentPackage": {"href": "/mdr/ct/packages/sendct-2015-03-27", "title": "SEND Controlled Terminology Package 21 Effective 2015-03-27", "type": "Terminology"}, "priorVersion": {"href": "/mdr/ct/packages/sendct-2014-12-19/codelists/C88026", "title": "CDISC SEND Body System Terminology", "type": "Code List"}, "rootItem": {"href": "/mdr/root/ct/sendct/codelists/C88026", "title": "Version-agnostic anchor resource for codelist C88026", "type": "Root Value Domain"}, "self": {"href": "/mdr/ct/packages/sendct-2015-03-27/codelists/C88026", "title": "CDISC SEND Body System Terminology", "type": "Code List"}}, "conceptId": "C88026", "definition": "The terminology that includes concepts relevant to anatomical structure that consists of organs and organ subclasses responsible for certain body functions.", "extensible": "true", "name": "Body System", "preferredTerm": "CDISC SEND Body System Terminology", "submissionValue": "BODSYS", "synonyms": ["Body System"], "terms": [{"conceptId": "C35552", "definition": "Symptoms, physical examination results, and/or laboratory test results related to the cardiovascular system. (NCI)", "preferredTerm": "Cardiovascular System Finding", "submissionValue": "CARDIOVASCULAR SYSTEM"}, {"conceptId": "C36285", "definition": "Symptoms, physical examination results, and/or laboratory test results related to the endocrine system. (NCI)", "preferredTerm": "Endocrine System Finding", "submissionValue": "ENDOCRINE SYSTEM"}, {"conceptId": "C36279", "definition": "Symptoms, physical examination results, and/or laboratory test results related to the gastrointestinal system. (NCI)", "preferredTerm": "Digestive System Finding", "submissionValue": "GASTROINTESTINAL SYSTEM"}, {"conceptId": "C36289", "definition": "Symptoms, physical examination results, and/or laboratory test results related to the hematopoietic system. (NCI)", "preferredTerm": "Hematopoietic System Finding", "submissionValue": "HEMATOPOIETIC SYSTEM"}, {"conceptId": "C39723", "definition": "Symptoms, physical examination results, and/or laboratory test results related to the immune system. (NCI)", "preferredTerm": "Immune System Finding", "submissionValue": "IMMUNE SYSTEM"}, {"conceptId": "C36281", "definition": "Symptoms, physical examination results, and/or laboratory test results related to the integumentary system. (NCI)", "preferredTerm": "Integumentary System Finding", "submissionValue": "INTEGUMENTARY SYSTEM"}, {"conceptId": "C36288", "definition": "Symptoms, physical examination results, and/or laboratory test results related to the musculoskeletal system, also including connective and soft tissue.", "preferredTerm": "Connective and Soft Tissue Finding", "submissionValue": "MUSCULOSKELETAL SYSTEM"}, {"conceptId": "C36280", "definition": "Symptoms, physical examination results, and/or laboratory test results related to the nervous system. (NCI)", "preferredTerm": "Nervous System Finding", "submissionValue": "NERVOUS SYSTEM"}, {"conceptId": "C36284", "definition": "Symptoms, physical examination results, and/or laboratory test results related to the reproductive system. (NCI)", "preferredTerm": "Reproductive System Finding", "submissionValue": "REPRODUCTIVE SYSTEM"}, {"conceptId": "C45233", "definition": "Symptoms, physical examination results, and/or laboratory test results related to the respiratory system. (NCI)", "preferredTerm": "Respiratory System Finding", "submissionValue": "RESPIRATORY SYSTEM"}, {"conceptId": "C36283", "definition": "Symptoms, physical examination results, and/or laboratory test results related to the organs of special sense. (NCI)", "preferredTerm": "Eye and Ear Finding", "submissionValue": "SPECIAL SENSES SYSTEM"}, {"conceptId": "C36286", "definition": "Symptoms, physical examination results, and/or laboratory test results related to the urinary system.", "preferredTerm": "Urinary System Finding", "submissionValue": "URINARY SYSTEM"}]}