{"_links": {"parentPackage": {"href": "/mdr/ct/packages/sendct-2015-03-27", "title": "SEND Controlled Terminology Package 21 Effective 2015-03-27", "type": "Terminology"}, "priorVersion": {"href": "/mdr/ct/packages/sendct-2014-12-19/codelists/C89981", "title": "CDISC SEND Subject Characteristic Test Code Terminology", "type": "Code List"}, "rootItem": {"href": "/mdr/root/ct/sendct/codelists/C89981", "title": "Version-agnostic anchor resource for codelist C89981", "type": "Root Value Domain"}, "self": {"href": "/mdr/ct/packages/sendct-2015-03-27/codelists/C89981", "title": "CDISC SEND Subject Characteristic Test Code Terminology", "type": "Code List"}}, "conceptId": "C89981", "definition": "Terminology for the test codes concerned with the distinguishing qualities or prominent aspect of a person, object, action, process, or substance.", "extensible": "true", "name": "SEND Subject Characteristics Test Code", "preferredTerm": "CDISC SEND Subject Characteristic Test Code Terminology", "submissionValue": "SBCCDSND", "synonyms": ["SEND Subject Characteristics Test Code"], "terms": [{"conceptId": "C90353", "definition": "A secondary sequence of characters used to identify a subject.", "preferredTerm": "Alternate Identifier", "submissionValue": "ALTID", "synonyms": ["Alternate Identifier"]}, {"conceptId": "C90383", "definition": "A plan that specifies a diet, amount and schedule of nutritional intake.", "preferredTerm": "Feeding Regimen", "submissionValue": "FEEDREG", "synonyms": ["Feeding Regimen"]}, {"conceptId": "C90392", "definition": "The hue of a subject's hair or fur. (NCI)", "preferredTerm": "Hair Coat Color", "submissionValue": "HAIRCOLR", "synonyms": ["Hair Coat Color"]}, {"conceptId": "C90435", "definition": "A distinctive observable characteristic of an object. (NCI)", "preferredTerm": "Physical Marking", "submissionValue": "PHYMARK", "synonyms": ["Physical Marking"]}, {"conceptId": "C90474", "definition": "The geographic location of the organization that supplied the test subjects.", "preferredTerm": "Test Subject Supplier Site", "submissionValue": "SPLRLOC", "synonyms": ["Test Subject Supplier Site"]}, {"conceptId": "C90473", "definition": "The name of the organization that supplied the test subjects. (NCI)", "preferredTerm": "Test Subject Supplier", "submissionValue": "SPLRNAM", "synonyms": ["Test Subject Supplier", "Test Subject Supplier Name"]}, {"conceptId": "C68551", "definition": "Numeric ID assignment by United States Department of Agriculture for test facilities.", "preferredTerm": "USDA_ID", "submissionValue": "USDANUM", "synonyms": ["USDA Number"]}]}