{"_links": {"parentPackage": {"href": "/mdr/ct/packages/sendct-2020-12-18", "title": "SEND Controlled Terminology Package 44 Effective 2020-12-18", "type": "Terminology"}, "priorVersion": {"href": "/mdr/ct/packages/sendct-2020-11-06/codelists/C120534", "title": "CDISC SEND Respiratory Test Code Terminology", "type": "Code List"}, "rootItem": {"href": "/mdr/root/ct/sendct/codelists/C120534", "title": "Version-agnostic anchor resource for codelist C120534", "type": "Root Value Domain"}, "self": {"href": "/mdr/ct/packages/sendct-2020-12-18/codelists/C120534", "title": "CDISC SEND Respiratory Test Code Terminology", "type": "Code List"}}, "conceptId": "C120534", "definition": "Terminology related to the non-clinical respiratory test code codelist.", "extensible": "true", "name": "SEND Respiratory Test Code", "preferredTerm": "CDISC SEND Respiratory Test Code Terminology", "submissionValue": "SRETSTCD", "synonyms": ["SEND Respiratory Test Code"], "terms": [{"conceptId": "C120927", "definition": "A measurement of respiratory tract resistance to airflow during inspiration and expiration.", "preferredTerm": "Airway Resistance", "submissionValue": "AIRRES", "synonyms": ["Airway Resistance"]}, {"conceptId": "C158354", "definition": "A measurement of the apnea duration, determined by total sleep time minus the sum of inspiration time and expiration time.", "preferredTerm": "Apnea Time", "submissionValue": "AT", "synonyms": ["Apnea Time"]}, {"conceptId": "C120928", "definition": "An assessment of the amount of air that is being inspired and expired.", "preferredTerm": "Depth of Respiration", "submissionValue": "DEPTHRES", "synonyms": ["Depth of Respiration"]}, {"conceptId": "C158353", "definition": "The rate of gas flow during exhalation, beginning at the point at which tidal volume is decreased by 50%.", "preferredTerm": "Expiratory Flow 50%", "submissionValue": "EF50", "synonyms": ["Expiratory Flow 50%"]}, {"conceptId": "C158355", "definition": "The amount of time between one breath to the next breath calculated by inspiration time plus expiration time, per single respiratory cycle.", "preferredTerm": "Elapsed Time Between Breaths", "submissionValue": "ELTMBB", "synonyms": ["Elapsed Time Between Breaths"]}, {"conceptId": "C120929", "definition": "The brief period at the end of exhalation when respiration ceases to adjust for oxygen consumption. The length of the pause varies with oxygen demand.", "preferredTerm": "End Expiratory Pause", "submissionValue": "ENDEXPPR", "synonyms": ["End Expiratory Pause"]}, {"conceptId": "C120930", "definition": "The brief period at the end of inhalation when respiration ceases to adjust for oxygen consumption. The length of the pause varies with oxygen demand.", "preferredTerm": "End Inspiratory Pause", "submissionValue": "ENDINSPR", "synonyms": ["End Inspiratory Pause"]}, {"conceptId": "C120931", "definition": "The time required to exhale 63.2% of the total expiratory volume, as measured from the start of exhalation.", "preferredTerm": "Expiration Relaxation Time", "submissionValue": "EXPRELTM", "synonyms": ["Expiration Relaxation Time"]}, {"conceptId": "C120932", "definition": "The amount of time it takes for exhalation of air to occur.", "preferredTerm": "Expiratory Time", "submissionValue": "EXPTIME", "synonyms": ["Expiration Time"]}, {"conceptId": "C120933", "definition": "Volume of air that a subject with fully inflated lungs can breathe out per unit time.", "preferredTerm": "Forced Expiratory Volume", "submissionValue": "FEV", "synonyms": ["Forced Expiratory Volume"]}, {"conceptId": "C120934", "definition": "The amount of time it takes for inhalation of air to occur.", "preferredTerm": "Inspiratory Time", "submissionValue": "INSTIME", "synonyms": ["Inspiration Time"]}, {"conceptId": "C120935", "definition": "The mean pressure of the blood within the pulmonary circulation. The pulmonary pressure may be directly measured by insertion of an intra-arterial catheter connected to a transducer.", "preferredTerm": "Mean Pulmonary Arterial Pressure", "submissionValue": "MPAP", "synonyms": ["Mean Pulmonary Arterial Pressure"]}, {"conceptId": "C120936", "definition": "The amount of gas inspired or expired in one minute.", "preferredTerm": "Minute Volume", "submissionValue": "MV", "synonyms": ["Minute Volume"]}, {"conceptId": "C163739", "definition": "A measurement of the minute volume, which has been calculated using the corrected tidal volume.", "preferredTerm": "Corrected Minute Volume", "submissionValue": "MVCR", "synonyms": ["Minute Volume Adjusted", "Minute Volume, Corrected", "Mvadj"]}, {"conceptId": "C41372", "definition": "The maximum rate of exhalation.", "preferredTerm": "Peak Expiratory Flow", "submissionValue": "PEF", "synonyms": ["Peak Expiratory Flow"]}, {"conceptId": "C120937", "definition": "A unitless index of airway hyperreactivity used to evaluate changes in the shape of the airflow pattern of a subject using a whole-body flow plethysmograph.", "preferredTerm": "Enhanced Pause", "submissionValue": "PENH", "synonyms": ["Enhanced Pause"]}, {"conceptId": "C120938", "definition": "The peak pressure in the lungs during expiration.", "preferredTerm": "Peak Expiratory Pressure", "submissionValue": "PKEXPPR", "synonyms": ["Peak Expiratory Pressure"]}, {"conceptId": "C120939", "definition": "The maximum rate of inhalation.", "preferredTerm": "Peak Inspiratory Flow Rate", "submissionValue": "PKINSFL", "synonyms": ["Peak Inspiratory Flow"]}, {"conceptId": "C120940", "definition": "The maximum pressure of inhaled air.", "preferredTerm": "Peak Inspiratory Pressure", "submissionValue": "PKINSPR", "synonyms": ["Peak Inspiratory Pressure"]}, {"conceptId": "C120941", "definition": "The blood pressure in the pulmonary artery after the contraction of the heart while the chambers of the heart refill with blood.", "preferredTerm": "Pulmonary Artery Diastolic Pressure", "submissionValue": "PULDIABP", "synonyms": ["Pulmonary Diastolic Pressure"]}, {"conceptId": "C120942", "definition": "The elasticity of the pulmonary walls.", "preferredTerm": "Pulmonary Compliance", "submissionValue": "PULMCOMP", "synonyms": ["Pulmonary Compliance"]}, {"conceptId": "C120943", "definition": "The blood pressure in the pulmonary artery during the contraction of the left ventricle of the heart.", "preferredTerm": "Pulmonary Artery Systolic Pressure", "submissionValue": "PULSYSBP", "synonyms": ["Pulmonary Systolic Pressure"]}, {"conceptId": "C49678", "definition": "The rate of breathing (inhalation and exhalation) measured within in a unit time, usually expressed as breaths per minute. (NCI)", "preferredTerm": "Respiratory Rate", "submissionValue": "RESPRATE", "synonyms": ["Respiratory Rate"]}, {"conceptId": "C111324", "definition": "The volume of air moved into and out of the lungs during breathing at rest.", "preferredTerm": "Tidal Volume", "submissionValue": "TIDALVOL", "synonyms": ["Tidal Volume"]}, {"conceptId": "C111325", "definition": "The total volume of air in the lungs after maximum inhalation.", "preferredTerm": "Total Lung Capacity", "submissionValue": "TLUNGCAP", "synonyms": ["Total Lung Capacity"]}, {"conceptId": "C163740", "definition": "A measurement of the tidal volume, corrected using an adjustment factor that takes into account temperature, pressure, and humidity.", "preferredTerm": "Corrected Tidal Volume", "submissionValue": "TVCR", "synonyms": ["Tidal Volume, Adjusted", "Tidal Volume, Corrected", "Tvadj"]}]}