{"_links": {"parentPackage": {"href": "/mdr/ct/packages/sendct-2020-12-18", "title": "SEND Controlled Terminology Package 44 Effective 2020-12-18", "type": "Terminology"}, "priorVersion": {"href": "/mdr/ct/packages/sendct-2020-11-06/codelists/C78737", "title": "CDISC SDTM Relationship Type Terminology", "type": "Code List"}, "rootItem": {"href": "/mdr/root/ct/sendct/codelists/C78737", "title": "Version-agnostic anchor resource for codelist C78737", "type": "Root Value Domain"}, "self": {"href": "/mdr/ct/packages/sendct-2020-12-18/codelists/C78737", "title": "CDISC SDTM Relationship Type Terminology", "type": "Code List"}}, "conceptId": "C78737", "definition": "The description of relationship types between a record or set of records.", "extensible": "false", "name": "Relationship Type", "preferredTerm": "CDISC SDTM Relationship Type Terminology", "submissionValue": "RELTYPE", "synonyms": ["Relationship Type"], "terms": [{"conceptId": "C170512", "definition": "A side of a dataset-to-dataset relationship that contains more than one element.", "preferredTerm": "Many Relationship Type", "submissionValue": "MANY"}, {"conceptId": "C66832", "definition": "A textual representation of the numeral 1.", "preferredTerm": "One", "submissionValue": "ONE"}]}