{"_links": {"parentPackage": {"href": "/mdr/ct/packages/sdtmct-2021-09-24", "title": "SDTM Controlled Terminology Package 47 Effective 2021-09-24", "type": "Terminology"}, "priorVersion": {"href": "/mdr/ct/packages/sdtmct-2021-06-25/codelists/C106657", "title": "CDISC Clinical Classification TDI Test Code Terminology", "type": "Code List"}, "rootItem": {"href": "/mdr/root/ct/sdtmct/codelists/C106657", "title": "Version-agnostic anchor resource for codelist C106657", "type": "Root Value Domain"}, "self": {"href": "/mdr/ct/packages/sdtmct-2021-09-24/codelists/C106657", "title": "CDISC Clinical Classification TDI Test Code Terminology", "type": "Code List"}}, "conceptId": "C106657", "definition": "Transition Dyspnea Index test code.", "extensible": "false", "name": "Transition Dyspnea Index Clinical Classification Test Code", "preferredTerm": "CDISC Clinical Classification TDI Test Code Terminology", "submissionValue": "TDI01TC", "synonyms": ["Transition Dyspnea Index Clinical Classification Test Code"], "terms": [{"conceptId": "C106704", "definition": "Transition Dyspnea Index - Change in functional impairment.", "preferredTerm": "TDI - Change in Functional Impairment", "submissionValue": "TDI0101", "synonyms": ["TDI01-Change in Functional Impairment"]}, {"conceptId": "C106705", "definition": "Transition Dyspnea Index - Change in magnitude of task.", "preferredTerm": "TDI - Change in Magnitude of Task", "submissionValue": "TDI0102", "synonyms": ["TDI01-Change in Magnitude of Task"]}, {"conceptId": "C106706", "definition": "Transition Dyspnea Index - Change in magnitude of effort.", "preferredTerm": "TDI - Change in Magnitude of Effort", "submissionValue": "TDI0103", "synonyms": ["TDI01-Change in Magnitude of Effort"]}, {"conceptId": "C161763", "definition": "Transition Dyspnea Index - Transition focal score.", "preferredTerm": "TDI - Transition Focal Score", "submissionValue": "TDI0104", "synonyms": ["TDI01-Transition Focal Score"]}]}