{"_links": {"parentPackage": {"href": "/mdr/ct/packages/sdtmct-2021-09-24", "title": "SDTM Controlled Terminology Package 47 Effective 2021-09-24", "type": "Terminology"}, "priorVersion": {"href": "/mdr/ct/packages/sdtmct-2021-06-25/codelists/C111106", "title": "CDISC SDTM Respiratory Test Code Terminology", "type": "Code List"}, "rootItem": {"href": "/mdr/root/ct/sdtmct/codelists/C111106", "title": "Version-agnostic anchor resource for codelist C111106", "type": "Root Value Domain"}, "self": {"href": "/mdr/ct/packages/sdtmct-2021-09-24/codelists/C111106", "title": "CDISC SDTM Respiratory Test Code Terminology", "type": "Code List"}}, "conceptId": "C111106", "definition": "A terminology codelist based on the test codes for physiological findings related to the respiratory system, including the organs that are involved in breathing such as the nose, throat, larynx, trachea, bronchi and lungs.", "extensible": "true", "name": "Respiratory Test Code", "preferredTerm": "CDISC SDTM Respiratory Test Code Terminology", "submissionValue": "RETESTCD", "synonyms": ["Respiratory Test Code"], "terms": [{"conceptId": "C170620", "definition": "A measurement of the gas retention in a specified intrapulmonary space at the end of exhalation.", "preferredTerm": "Air Trapping Measurement", "submissionValue": "AIRTRAP", "synonyms": ["Air Trapping"]}, {"conceptId": "C156584", "definition": "The quantity of gas that enters the alveoli during inspiration.", "preferredTerm": "Alveolar Volume", "submissionValue": "ALVVOL", "synonyms": ["Alveolar Volume", "VA"]}, {"conceptId": "C170457", "definition": "The total volume of gas in a specified airway or set of airways at a specified point in time in the respiratory cycle.", "preferredTerm": "Airway Volume", "submissionValue": "AWVOL", "synonyms": ["Airway Volume"]}, {"conceptId": "C170621", "definition": "The total volume of gas in a specified airway or set of airways at a specified point in time in the respiratory cycle, expressed as a proportion of the predicted normal value.", "preferredTerm": "Percent Predicted Airway Volume", "submissionValue": "AWVOLPP", "synonyms": ["Percent Predicted Airway Volume"]}, {"conceptId": "C170619", "definition": "The volume of the entirety of the airway tissue in a specified intrapulmonary region.", "preferredTerm": "Airway Wall Volume", "submissionValue": "AWWVOL", "synonyms": ["Airway Wall Volume"]}, {"conceptId": "C94866", "definition": "The volume of blood per unit time passing through a specified location, such as a point in a blood vessel or an entire organ.", "preferredTerm": "Blood Flow Rate", "submissionValue": "BLDFLRT", "synonyms": ["Blood Flow Rate"]}, {"conceptId": "C38083", "definition": "The volume of the carbon monoxide that is transferred from inspired air into the pulmonary capillary blood.", "preferredTerm": "Carbon Monoxide Diffusing Capability Test", "submissionValue": "DLCO", "synonyms": ["Diffusion Capacity of Lung for CO", "TLCO", "Transfer Factor of Lung for CO"]}, {"conceptId": "C120825", "definition": "The diffusing capacity of the lungs for carbon monoxide adjusted for hemoglobin concentration.", "preferredTerm": "Hemoglobin Corrected Diffusion Capacity of the Lung for Carbon Monoxide", "submissionValue": "DLCOHC", "synonyms": ["HGB Corrected DLCO"]}, {"conceptId": "C120826", "definition": "The diffusing capacity of the lungs for carbon monoxide expressed as a proportion of the predicted normal value, adjusted for hemoglobin concentration.", "preferredTerm": "Percent Predicted Hemoglobin Corrected Diffusion Capacity of the Lung for Carbon Monoxide", "submissionValue": "DLCOHCPP", "synonyms": ["Percent Predicted HGB Corrected DLCO"]}, {"conceptId": "C120827", "definition": "The diffusing capacity of the lungs for carbon monoxide expressed as a proportion of the alveolar volume, adjusted for hemoglobin concentration.", "preferredTerm": "Hemoglobin Corrected Diffusion Capacity of the Lung for Carbon Monoxide/Alveolar Volume Ratio", "submissionValue": "DLCOHCVA", "synonyms": ["HGB Corrected DLCO/VA"]}, {"conceptId": "C120828", "definition": "The proportion of diffusing capacity of the lungs for carbon monoxide to the alveolar volume expressed as a proportion of the predicted normal value, adjusted for hemoglobin concentration.", "preferredTerm": "Percent Predicted Hemoglobin Corrected Diffusion Capacity of the Lung for Carbon Monoxide/Alveolar Volume Ratio", "submissionValue": "DLCOHVAP", "synonyms": ["Percent Predicted HGB Corrected DLCO/VA"]}, {"conceptId": "C123564", "definition": "The mean volume of the carbon monoxide that is transferred from inspired air into the pulmonary capillary blood.", "preferredTerm": "Mean Carbon Monoxide Diffusing Capability Test", "submissionValue": "DLCOM", "synonyms": ["Mean Diffusion Capacity of Lung for CO"]}, {"conceptId": "C120829", "definition": "The diffusing capacity of the lungs for carbon monoxide expressed as a proportion of the predicted normal value.", "preferredTerm": "Percent Predicted Diffusion Capacity of the Lung for Carbon Monoxide", "submissionValue": "DLCOPP", "synonyms": ["Percent Predicted DLCO"]}, {"conceptId": "C120830", "definition": "The diffusing capacity of the lungs for carbon monoxide expressed as a proportion of the alveolar volume.", "preferredTerm": "Diffusion Capacity of the Lung for Carbon Monoxide/Alveolar Volume Ratio", "submissionValue": "DLCOVA", "synonyms": ["DLCO/VA"]}, {"conceptId": "C120831", "definition": "The proportion of the diffusing capacity of the lungs for carbon monoxide to alveolar volume, expressed as a proportion of the predicted normal value.", "preferredTerm": "Percent Predicted Diffusion Capacity of the Lung for Carbon Monoxide/Alveolar Volume Ratio", "submissionValue": "DLCOVAPP", "synonyms": ["Percent Predicted DLCO/VA"]}, {"conceptId": "C161422", "definition": "An indication as to whether effusion is present.", "preferredTerm": "Effusion Indicator", "submissionValue": "EFFIND", "synonyms": ["Effusion Indicator"]}, {"conceptId": "C161424", "definition": "The amount of three dimensional space occupied by the effusion fluid.", "preferredTerm": "Effusion Volume Measurement", "submissionValue": "EFFVOL", "synonyms": ["Effusion Volume"]}, {"conceptId": "C135493", "definition": "A measure of the resistance of a system to expand, i.e. the pressure change that is required to elicit a unit volume change in the lungs. Elastance is the reciprocal of compliance.", "preferredTerm": "Elastance", "submissionValue": "ELSTNCE", "synonyms": ["Elastance"]}, {"conceptId": "C111200", "definition": "The maximum volume of air a subject can exhale from the lungs after a tidal exhalation.", "preferredTerm": "Expiratory Reserve Volume", "submissionValue": "ERV", "synonyms": ["Expiratory Reserve Volume"]}, {"conceptId": "C112375", "definition": "The maximum volume of air a subject can exhale from the lungs after a tidal exhalation as a proportion of the predicted normal value.", "preferredTerm": "Percent Predicted Expiratory Reserve Volume", "submissionValue": "ERVPP", "synonyms": ["Percent Predicted ERV"]}, {"conceptId": "C139243", "definition": "The ratio of the volume of gas that is forcibly exhaled during the first 0.05 seconds following maximal inhalation to that of the forced vital capacity.", "preferredTerm": "Forced Expiratory Volume in 0.05 Second to FVC Ratio Measurement", "submissionValue": "EV_05FVC", "synonyms": ["Forced Expiratory Volume in 0.05 S/FVC", "Forced Expiratory Volume in 0.05 Seconds over FVC"]}, {"conceptId": "C139244", "definition": "The ratio of the volume of gas that is forcibly exhaled during the first 0.1 seconds following maximal inhalation to that of the forced vital capacity.", "preferredTerm": "Forced Expiratory Volume in 0.1 Second to FVC Ratio Measurement", "submissionValue": "EV_1FVC", "synonyms": ["Forced Expiratory Volume in 0.1 S/FVC", "Forced Expiratory Volume in 0.1 Seconds over FVC"]}, {"conceptId": "C139245", "definition": "The ratio of the volume of gas that is forcibly exhaled during the first 0.2 seconds following maximal inhalation to that of the forced vital capacity.", "preferredTerm": "Forced Expiratory Volume in 0.2 Second to FVC Ratio Measurement", "submissionValue": "EV_2FVC", "synonyms": ["Forced Expiratory Volume in 0.2 S/FVC", "Forced Expiratory Volume in 0.2 Seconds over FVC"]}, {"conceptId": "C147484", "definition": "The maximum volume of air an individual can exhale from the point of maximal inhalation.", "preferredTerm": "Expiratory Vital Capacity", "submissionValue": "EVC", "synonyms": ["Expiratory Vital Capacity"]}, {"conceptId": "C120931", "definition": "The time required to exhale 63.2% of the total expiratory volume, as measured from the start of exhalation.", "preferredTerm": "Expiration Relaxation Time", "submissionValue": "EXPRELTM", "synonyms": ["Expiration Relaxation Time"]}, {"conceptId": "C119545", "definition": "The mean forced expiratory flow rate at 25-75% of the forced vital capacity. (NCI)", "preferredTerm": "Forced Expiratory Flow at 25-75 Percent", "submissionValue": "FEF2575", "synonyms": ["Forced Expiratory Flow 25-75%"]}, {"conceptId": "C119546", "definition": "The mean forced expiratory flow rate at 25-75% of the forced vital capacity as a proportion of the predicted normal value. (NCI)", "preferredTerm": "Percent Predicted Forced Expiratory Flow at 25-75 Percent", "submissionValue": "FEF2575P", "synonyms": ["Percent Predicted FEF25-75"]}, {"conceptId": "C139253", "definition": "The mean forced expiratory flow rate at 50% of the forced vital capacity. (NCI)", "preferredTerm": "Forced Expiratory Flow at 50 Percent Forced Vital Capacity", "submissionValue": "FEF50", "synonyms": ["Forced Expiratory Flow 50%"]}, {"conceptId": "C139250", "definition": "The forced expiratory flow rate during the first 0.05 second of a forced exhalation.", "preferredTerm": "Forced Expiratory Flow in 0.05 Second", "submissionValue": "FEF_05", "synonyms": ["Forced Expiratory Flow in 0.05 Second"]}, {"conceptId": "C139251", "definition": "The forced expiratory flow rate during the first 0.1 second of a forced exhalation.", "preferredTerm": "Forced Expiratory Flow in 0.1 Second", "submissionValue": "FEF_1", "synonyms": ["Forced Expiratory Flow in 0.1 Second"]}, {"conceptId": "C139252", "definition": "The forced expiratory flow rate during the first 0.2 second of a forced exhalation.", "preferredTerm": "Forced Expiratory Flow in 0.2 Second", "submissionValue": "FEF_2", "synonyms": ["Forced Expiratory Flow in 0.2 Second"]}, {"conceptId": "C38084", "definition": "The volume of air that can be forcibly exhaled during the first second following maximal inhalation.", "preferredTerm": "Forced Expiratory Volume in 1 Second", "submissionValue": "FEV1", "synonyms": ["Forced Expiratory Volume in 1 Second"]}, {"conceptId": "C111359", "definition": "A relative measurement (ratio or percentage) of the forced expiratory volume during the first second of exhalation to the largest observed expired volume during a forced vital capacity maneuver.", "preferredTerm": "Forced Expiratory Volume in 1 Second to Forced Vital Capacity Ratio Measurement", "submissionValue": "FEV1FVC", "synonyms": ["FEV1/FVC"]}, {"conceptId": "C123565", "definition": "A relative measurement (ratio or percentage) of the forced expiratory volume during the first second of exhalation to the observed expired volume during the first six seconds of a forced vital capacity maneuver.", "preferredTerm": "Forced Expiratory Volume in 1 Second to Forced Vital Capacity in 6 Seconds", "submissionValue": "FEV1FVC6", "synonyms": ["FEV1/FVC6"]}, {"conceptId": "C112377", "definition": "The proportion of total forced vital capacity that is expelled during the first second of a forced exhalation as a proportion of the predicted normal value.", "preferredTerm": "Percent Predicted Forced Expiratory Volume in 1 Second Divided by Forced Vital Capacity", "submissionValue": "FEV1FVCP", "synonyms": ["Percent Predicted FEV1/FVC"]}, {"conceptId": "C112376", "definition": "Forced expiratory volume in one second as a proportion of the predicted normal value.", "preferredTerm": "Percent Predicted Forced Expiratory Volume in 1 Second", "submissionValue": "FEV1PP", "synonyms": ["Percent Predicted FEV1"]}, {"conceptId": "C112285", "definition": "The change in FEV1 following administration of a bronchodilator relative to the pre-treatment FEV1 value.", "preferredTerm": "Forced Expiratory Volume in 1 Second Reversibility", "submissionValue": "FEV1REV", "synonyms": ["FEV1 Reversibility"]}, {"conceptId": "C170626", "definition": "A relative measurement (ratio or percentage) of the forced expiratory volume during the first second of exhalation to the largest observed expired volume during a slow vital capacity maneuver.", "preferredTerm": "Forced Expiratory Volume in 1 Second to Slow Vital Capacity Ratio Measurement", "submissionValue": "FEV1SVC", "synonyms": ["FEV1/SVC"]}, {"conceptId": "C132453", "definition": "The volume of air that can be forcibly exhaled during the first three seconds following maximal inhalation.", "preferredTerm": "Forced Expiratory Volume in 3 Seconds", "submissionValue": "FEV3", "synonyms": ["Forced Expiratory Volume in 3 Seconds"]}, {"conceptId": "C170625", "definition": "A relative measurement (ratio or percentage) of the forced expiratory volume during the first three seconds of exhalation to the largest observed expired volume during a forced vital capacity maneuver.", "preferredTerm": "Forced Expiratory Volume in 3 Seconds to Forced Vital Capacity Ratio Measurement", "submissionValue": "FEV3FVC", "synonyms": ["FEV3/FVC"]}, {"conceptId": "C170627", "definition": "Forced expiratory volume in three seconds as a proportion of the predicted normal value.", "preferredTerm": "Percent Predicted Forced Expiratory Volume in 3 Seconds", "submissionValue": "FEV3PP", "synonyms": ["Percent Predicted FEV3"]}, {"conceptId": "C47843", "definition": "The volume of air that can be forcibly exhaled during the first six seconds following maximal inhalation.", "preferredTerm": "Forced Expiratory Volume in 6 Seconds", "submissionValue": "FEV6", "synonyms": ["Forced Expiratory Volume in 6 Seconds"]}, {"conceptId": "C112378", "definition": "Forced expiratory volume in six seconds as a proportion of the predicted normal value.", "preferredTerm": "Percent Predicted Forced Expiratory Volume in 6 Seconds", "submissionValue": "FEV6PP", "synonyms": ["Percent Predicted FEV6"]}, {"conceptId": "C139246", "definition": "The volume of air that can be forcibly exhaled during the first 0.05 second following maximal inhalation.", "preferredTerm": "Forced Expiratory Volume in 0.05 Second", "submissionValue": "FEV_05", "synonyms": ["Forced Expiratory Volume in 0.05 Second"]}, {"conceptId": "C139247", "definition": "The volume of air that can be forcibly exhaled during the first 0.1 second following maximal inhalation.", "preferredTerm": "Forced Expiratory Volume in 0.1 Second", "submissionValue": "FEV_1", "synonyms": ["Forced Expiratory Volume in 0.1 Second"]}, {"conceptId": "C139248", "definition": "The volume of air that can be forcibly exhaled during the first 0.2 second following maximal inhalation.", "preferredTerm": "Forced Expiratory Volume in 0.2 Second", "submissionValue": "FEV_2", "synonyms": ["Forced Expiratory Volume in 0.2 Second"]}, {"conceptId": "C139262", "definition": "The volume of air that can be forcibly exhaled during the first half second following maximal inhalation.", "preferredTerm": "Forced Expiratory Volume in 0.5 Second", "submissionValue": "FEV_5", "synonyms": ["Forced Expiratory Volume in 0.5 Second"]}, {"conceptId": "C174362", "definition": "The volume of air that can be forcibly exhaled during the first 0.75 second following maximal inhalation.", "preferredTerm": "Forced Expiratory Volume in 0.75 Second", "submissionValue": "FEV_75", "synonyms": ["Forced Expiratory Volume in 0.75 Second"]}, {"conceptId": "C139249", "definition": "The volume of gas that is forcibly exhaled at the peak of expiratory flow.", "preferredTerm": "Forced Expiratory Volume at Peak Expiratory Flow", "submissionValue": "FEV_PEF", "synonyms": ["FEV at PEF", "Forced Expiratory Volume at Peak Expiratory Flow"]}, {"conceptId": "C124418", "definition": "The forced inspiratory flow rate at the point on the inspiratory flow-volume curve where 25 percent of the total volume of air has been inhaled.", "preferredTerm": "Forced Inspiratory Flow at 25%", "submissionValue": "FIF25", "synonyms": ["Forced Inspiratory Flow at 25%"]}, {"conceptId": "C124419", "definition": "The forced inspiratory flow rate at the point on the inspiratory flow-volume curve where 50 percent of the total volume of air has been inhaled.", "preferredTerm": "Forced Inspiratory Flow at 50%", "submissionValue": "FIF50", "synonyms": ["Forced Inspiratory Flow at 50%"]}, {"conceptId": "C124420", "definition": "The forced inspiratory flow rate at the point on the inspiratory flow-volume curve where 75 percent of the total volume of air has been inhaled.", "preferredTerm": "Forced Inspiratory Flow at 75%", "submissionValue": "FIF75", "synonyms": ["Forced Inspiratory Flow at 75%"]}, {"conceptId": "C112333", "definition": "The fastest rate of inspired air achieved during a forced inspiration maneuver.", "preferredTerm": "Maximum Forced Inspiratory Flow", "submissionValue": "FIFMAX", "synonyms": ["Maximum Forced Inspiratory Flow"]}, {"conceptId": "C112379", "definition": "The fastest rate of inspired air achieved during a forced inspiration maneuver expressed as a percentage of the expected result value for healthy individuals with similar characteristics.", "preferredTerm": "Percent Predicted Forced Inspiratory Flow Maximum", "submissionValue": "FIFMAXPP", "synonyms": ["Percent Predicted FIFmax"]}, {"conceptId": "C38082", "definition": "A measurement of the volumetric fraction of oxygen in the inhaled gas.", "preferredTerm": "Fraction of Inspired Oxygen", "submissionValue": "FIO2", "synonyms": ["Fraction of Inspired Oxygen"]}, {"conceptId": "C111360", "definition": "The volume of air that a subject can breathe in during the first second of inhalation after maximum exhalation.", "preferredTerm": "Forced Inspiratory Volume in 1 Second", "submissionValue": "FIV1", "synonyms": ["Forced Inspiratory Volume in 1 Second"]}, {"conceptId": "C112380", "definition": "The volume of air that a subject can breathe in during the first second of inhalation after maximum exhalation as a proportion of the predicted normal value.", "preferredTerm": "Percent Predicted Forced Inspiratory Volume in 1 Second", "submissionValue": "FIV1PP", "synonyms": ["Percent Predicted FIV1"]}, {"conceptId": "C139263", "definition": "The difference in lung volume between maximal expiration to residual volume followed immediately by full inspiration to total lung capacity during forceful inhalation.", "preferredTerm": "Forced Inspiratory Vital Capacity", "submissionValue": "FIVC", "synonyms": ["Forced Inspiratory Vital Capacity"]}, {"conceptId": "C89800", "definition": "The volume of air remaining in the lungs after a normal exhalation. (NCI)", "preferredTerm": "Functional Residual Capacity", "submissionValue": "FRC", "synonyms": ["Functional Residual Capacity"]}, {"conceptId": "C126052", "definition": "The functional residual capacity as a proportion of the predicted normal value.", "preferredTerm": "Percent Predicted Functional Residual Capacity", "submissionValue": "FRCPP", "synonyms": ["Percent Predicted FRC"]}, {"conceptId": "C111361", "definition": "The volume of air that can be forcibly exhaled following maximal inhalation.", "preferredTerm": "Forced Vital Capacity", "submissionValue": "FVC", "synonyms": ["Forced Vital Capacity"]}, {"conceptId": "C124421", "definition": "The volume of air that can be forcibly exhaled during the first six seconds following maximal inhalation.", "preferredTerm": "Forced Vital Capacity in 6 Seconds", "submissionValue": "FVC6", "synonyms": ["Forced Vital Capacity in 6 Seconds"]}, {"conceptId": "C112381", "definition": "Forced vital capacity as a proportion of the predicted normal value.", "preferredTerm": "Percent Predicted Forced Vital Capacity", "submissionValue": "FVCPP", "synonyms": ["Percent Predicted Forced Vital Capacity"]}, {"conceptId": "C124422", "definition": "The instantaneous rate of air flow in the airway, expressed as the pressure difference between any given part of the airway and the alveoli; it is the reciprocal of airway resistance (Raw).", "preferredTerm": "Airway Conductance", "submissionValue": "GAW", "synonyms": ["Airway Conductance"]}, {"conceptId": "C111362", "definition": "The maximum volume of air a subject can inhale into the lungs after a tidal exhalation (IRV plus TV).", "preferredTerm": "Inspiratory Capacity", "submissionValue": "IC", "synonyms": ["Inspiratory Capacity"]}, {"conceptId": "C112382", "definition": "The maximum volume of air a subject can inhale into the lungs after a tidal exhalation (IRV plus TV) as a proportion of the predicted normal value.", "preferredTerm": "Percent Predicted Inspiratory Capacity", "submissionValue": "ICPP", "synonyms": ["Percent Predicted Inspiratory Capacity"]}, {"conceptId": "C112321", "definition": "The change in IC following administration of a bronchodilator relative to the pre-treatment IC value.", "preferredTerm": "Inspiratory Capacity Reversibility", "submissionValue": "ICREV", "synonyms": ["IC Reversibility"]}, {"conceptId": "C139254", "definition": "The measure of the force of the column of air in the conducting airways.", "preferredTerm": "Pulmonary Inertance", "submissionValue": "INERTANC", "synonyms": ["Inertance"]}, {"conceptId": "C171512", "definition": "An indication as to whether infiltrates have occurred.", "preferredTerm": "Infiltrates Indicator", "submissionValue": "INFLTIND", "synonyms": ["Infiltrates Indicator"]}, {"conceptId": "C41255", "definition": "An act or process of elucidation; explication, or explanation of the meaning of the event or thing via the assignment of objects from the domain to the constants of a formal language, truth-values to the proposition symbols, truth-functions to the connectives, other functions to the function symbols, and extensions to the predicates, if any. The assignments are result of human logic application and are not native to the symbols of the formal language.", "preferredTerm": "Interpretation", "submissionValue": "INTP", "synonyms": ["Interpretation"]}, {"conceptId": "C111237", "definition": "The maximum volume of air a subject can inhale into the lungs after a tidal inhalation.", "preferredTerm": "Inspiratory Reserve Volume", "submissionValue": "IRV", "synonyms": ["Inspiratory Reserve Volume"]}, {"conceptId": "C112383", "definition": "The maximum volume of air a subject can inhale into the lungs after a tidal inhalation as a proportion of the predicted normal value.", "preferredTerm": "Percent Predicted Inspiratory Reserve Volume", "submissionValue": "IRVPP", "synonyms": ["Percent Predicted IRV"]}, {"conceptId": "C124423", "definition": "The maximum volume of air an individual can inhale from the point of maximal exhalation.", "preferredTerm": "Inspiratory Vital Capacity", "submissionValue": "IVC", "synonyms": ["Inspiratory Vital Capacity"]}, {"conceptId": "C124424", "definition": "The maximum volume of air an individual can inhale from the point of maximal exhalation as a percentage of the predicted normal value.", "preferredTerm": "Percent Predicted Inspiratory Vital Capacity", "submissionValue": "IVCPP", "synonyms": ["Percent Predicted IVC"]}, {"conceptId": "C124425", "definition": "A representative measurement of the number of times the volume of air in the lung at the start of the washout (the Functional Residual Capacity) must be recycled to eliminate the tracer to the pre-defined endpoint.", "preferredTerm": "Lung Clearance Index", "submissionValue": "LCI", "synonyms": ["Lung Clearance Index"]}, {"conceptId": "C174232", "definition": "The total volume of gas in a lobe of the lung at a specified point in time during the respiratory cycle.", "preferredTerm": "Lobar Volume", "submissionValue": "LOBVOL", "synonyms": ["Lobar Volume"]}, {"conceptId": "C174361", "definition": "The total volume of gas in a lobe of the lung at a specified point in time during the respiratory cycle, as a proportion of the predicted normal value.", "preferredTerm": "Percent Predicted Lobar Volume", "submissionValue": "LOBVOLPP", "synonyms": ["Percent Predicted Lobar Volume"]}, {"conceptId": "C161312", "definition": "The basis for the determination that a malignancy is present.", "preferredTerm": "Evidence of Malignant Disease Description", "submissionValue": "MALEVDES", "synonyms": ["Malignancy Evidence Description"]}, {"conceptId": "C161423", "definition": "An indication as to whether a malignancy is present.", "preferredTerm": "Malignant Disease Indicator", "submissionValue": "MALIND", "synonyms": ["Malignancy Indicator"]}, {"conceptId": "C135494", "definition": "The greatest amount of pressure that can be generated by exhaling against a mouthpiece, which is a measure of the strength of respiratory muscles. (NCI)", "preferredTerm": "Maximal Expiratory Pressure", "submissionValue": "MEP", "synonyms": ["Maximal Expiratory Pressure"]}, {"conceptId": "C135495", "definition": "The greatest amount of pressure that can be generated by exhaling against a mouthpiece, which is a measure of the strength of respiratory muscles expressed as a proportion of the predicted normal value. (NCI)", "preferredTerm": "Percent Predicted Maximal Expiratory Pressure", "submissionValue": "MEPPP", "synonyms": ["Percent Predicted MEP"]}, {"conceptId": "C135496", "definition": "The greatest amount of pressure that can be generated during inhalation against a fully occluded airway, which is used to measure the strength of respiratory muscles. (NCI)", "preferredTerm": "Maximal Inspiratory Pressure", "submissionValue": "MIP", "synonyms": ["Maximal Inspiratory Pressure", "NIF", "Negative Inspiratory Force"]}, {"conceptId": "C135497", "definition": "The greatest amount of pressure that can be generated during inhalation against a fully occluded airway, which is used to measure the strength of respiratory muscles expressed as a proportion of the predicted normal value. (NCI)", "preferredTerm": "Percent Predicted Maximal Inspiratory Pressure", "submissionValue": "MIPPP", "synonyms": ["Percent Predicted MIP"]}, {"conceptId": "C123566", "definition": "The volume of oxygen per heartbeat consumed by the body while at rest.", "preferredTerm": "Oxygen Pulse", "submissionValue": "OXYPULSE", "synonyms": ["Oxygen Pulse"]}, {"conceptId": "C135498", "definition": "The maximum rate of air flow expelled through the mouth, endotracheal, or tracheostomy tube during a cough. (NCI)", "preferredTerm": "Peak Cough Flow", "submissionValue": "PCF", "synonyms": ["Peak Cough Flow"]}, {"conceptId": "C41372", "definition": "The maximum rate of exhalation.", "preferredTerm": "Peak Expiratory Flow", "submissionValue": "PEF", "synonyms": ["Peak Expiratory Flow"]}, {"conceptId": "C112384", "definition": "The maximal flow achieved during the maximally forced expiration initiated at maximum inhalation as a proportion of the predicted normal value.", "preferredTerm": "Percent Predicted Peak Expiratory Flow", "submissionValue": "PEFPP", "synonyms": ["Percent Predicted Peak Expiratory Flow"]}, {"conceptId": "C112368", "definition": "The change in PEF following administration of a bronchodilator relative to the pre-treatment PEF value.", "preferredTerm": "Peak Expiratory Flow Reversibility", "submissionValue": "PEFREV", "synonyms": ["PEF Reversibility"]}, {"conceptId": "C139259", "definition": "The time from the start of the test until the subject reaches his maximum expiratory gas flow rate.", "preferredTerm": "Peak Expiratory Flow Time", "submissionValue": "PEFTIME", "synonyms": ["Peak Expiratory Flow Time"]}, {"conceptId": "C120939", "definition": "The maximum rate of inhalation.", "preferredTerm": "Peak Inspiratory Flow Rate", "submissionValue": "PIF", "synonyms": ["Peak Inspiratory Flow"]}, {"conceptId": "C123567", "definition": "A measurement of the ability of the lung to store energy, which is required for passive expiration.", "preferredTerm": "Pulmonary Reactance", "submissionValue": "PLMXRS", "synonyms": ["Pulmonary Reactance"]}, {"conceptId": "C171521", "definition": "An indication as to whether pneumonia has occurred.", "preferredTerm": "Pneumonia Indicator", "submissionValue": "PNEUMIND", "synonyms": ["Pneumonia Indicator"]}, {"conceptId": "C119547", "definition": "The maximal flow achieved during the maximally forced inspiration through the nose initiated at maximum exhalation. (NCI)", "preferredTerm": "Peak Nasal Inspiratory Flow", "submissionValue": "PNIF", "synonyms": ["Peak Nasal Inspiratory Flow"]}, {"conceptId": "C119293", "definition": "A relative measurement (ratio or percentage) of the force per unit area (pressure) of oxygen dissolved in arterial blood to the percentage oxygen of an inhaled mixture of gasses.", "preferredTerm": "Partial Pressure Arterial Oxygen to Fraction Inspired Oxygen Ratio Measurement", "submissionValue": "PO2FIO2", "synonyms": ["PAO2/FIO2", "PP Arterial O2/Fraction Inspired O2"]}, {"conceptId": "C139255", "definition": "The static elastic recoil pressure of the lungs at a given lung volume.", "preferredTerm": "Quasi-Static Compliance", "submissionValue": "QUASCOMP", "synonyms": ["Quasi-Static Compliance"]}, {"conceptId": "C120927", "definition": "A measurement of respiratory tract resistance to airflow during inspiration and expiration.", "preferredTerm": "Airway Resistance", "submissionValue": "RAW", "synonyms": ["Airway Resistance"]}, {"conceptId": "C170623", "definition": "A measurement of respiratory tract resistance to airflow during inspiration and expiration, as a proportion of the predicted normal value.", "preferredTerm": "Percent Predicted Airway Resistance", "submissionValue": "RAWPP", "synonyms": ["Percent Predicted Airway Resistance"]}, {"conceptId": "C163556", "definition": "An assessment of the size difference in comparison to a baseline or previous value.", "preferredTerm": "Relative Size Change", "submissionValue": "RELSZCHG", "synonyms": ["Relative Size Change"]}, {"conceptId": "C123568", "definition": "The ratio between the amount of carbon dioxide produced and oxygen consumed in one breath.", "preferredTerm": "Respiratory Exchange Ratio", "submissionValue": "RER", "synonyms": ["Respiratory Exchange Ratio"]}, {"conceptId": "C122185", "definition": "A calculated value based on all factors that influence the flow of gas from the airway opening to the alveoli, including airway resistance, and tissue resistance of the lung and chest wall. (NCI)", "preferredTerm": "Total Respiratory System Resistance", "submissionValue": "RRS", "synonyms": ["Total Respiratory System Resistance"]}, {"conceptId": "C89836", "definition": "The volume of air remaining in the lungs after maximum exhalation.", "preferredTerm": "Residual Volume", "submissionValue": "RV", "synonyms": ["Residual Volume"]}, {"conceptId": "C112385", "definition": "The volume of air remaining in the lungs after maximum exhalation as a proportion of the predicted normal value.", "preferredTerm": "Percent Predicted Residual Volume", "submissionValue": "RVPP", "synonyms": ["Percent Predicted Residual Volume"]}, {"conceptId": "C139256", "definition": "A representation of the exponential function described by the Salazar-Knowles equation, and an estimation of a subject's inspiratory capacity.", "preferredTerm": "Salazar-Knowles Equation Parameter A", "submissionValue": "SALKA", "synonyms": ["Salazar-Knowles Equation Parameter A"]}, {"conceptId": "C139257", "definition": "The difference between the volume at total lung capacity and the hypothesized volume at a transpulmonary pressure of zero.", "preferredTerm": "Salazar-Knowles Equation Parameter B", "submissionValue": "SALKB", "synonyms": ["Salazar-Knowles Equation Parameter B"]}, {"conceptId": "C139258", "definition": "The reflection of the curvature of the upper portion of the deflationary limb of the pressure-volume curve.", "preferredTerm": "Salazar-Knowles Equation, K Parameter", "submissionValue": "SALKK", "synonyms": ["Salazar-Knowles Equation, K"]}, {"conceptId": "C174311", "definition": "A relative measurement (ratio or percentage) of the oxygen-hemoglobin saturation of a volume of blood to the volumetric fraction of oxygen in the inhaled gas.", "preferredTerm": "Oxygen Saturation/Fraction Inspired O2", "submissionValue": "SAO2FIO2", "synonyms": ["Oxygen Saturation/Fraction Inspired O2"]}, {"conceptId": "C170618", "definition": "A parameter used in functional respiratory imaging, derived by dividing the airway volume of a specified intrapulmonary region by the total volume of the same specified intrapulmonary region.", "preferredTerm": "Specific Airway Volume", "submissionValue": "SAWVOL", "synonyms": ["Specific Airway Volume"]}, {"conceptId": "C170622", "definition": "A parameter used in functional respiratory imaging, derived by dividing the airway volume of a specified intrapulmonary region by the total volume of the same specified intrapulmonary region, expressed as a proportion of the predicted normal value.", "preferredTerm": "Percent Predicted Specific Airway Volume", "submissionValue": "SAWVOLPP", "synonyms": ["Percent Predicted Specific Airway Volume"]}, {"conceptId": "C122186", "definition": "A measurement of the airway conductance relative to lung volume. (NCI)", "preferredTerm": "Specific Airway Conductance", "submissionValue": "SGAW", "synonyms": ["Specific Airway Conductance"]}, {"conceptId": "C123569", "definition": "A measurement used to describe airway behavior irrespective of lung volume; it is calculated as airway resistance (Raw) multiplied by functional residual capacity (FRC).", "preferredTerm": "Specific Airway Resistance", "submissionValue": "SRAW", "synonyms": ["Specific Airway Resistance"]}, {"conceptId": "C170624", "definition": "A measurement used to describe airway behavior irrespective of lung volume; it is calculated as airway resistance (Raw) multiplied by functional residual capacity (FRC), as a proportion of the predicted normal value.", "preferredTerm": "Percent Predicted Specific Airway Resistance", "submissionValue": "SRAWPP", "synonyms": ["Percent Predicted Sp Airway Resistance", "Percent Predicted Specific Airway Resistance"]}, {"conceptId": "C111315", "definition": "The maximum volume of air that can be exhaled after slow maximum inhalation.", "preferredTerm": "Slow Vital Capacity", "submissionValue": "SVC", "synonyms": ["Slow Vital Capacity"]}, {"conceptId": "C112386", "definition": "The maximum volume of air that can be exhaled after slow maximum inhalation as a proportion of the predicted normal value.", "preferredTerm": "Percent Predicted Slow Vital Capacity", "submissionValue": "SVCPP", "synonyms": ["Percent Predicted Slow Vital Capacity"]}, {"conceptId": "C124426", "definition": "The absolute volume of air contained in the thoracic cavity at any given point in time and at any level of alveolar pressure.", "preferredTerm": "Thoracic Gas Volume", "submissionValue": "TGV", "synonyms": ["Thoracic Gas Volume"]}, {"conceptId": "C111325", "definition": "The total volume of air in the lungs after maximum inhalation.", "preferredTerm": "Total Lung Capacity", "submissionValue": "TLC", "synonyms": ["Total Lung Capacity"]}, {"conceptId": "C112388", "definition": "The total volume of air in the lungs after maximum inhalation as a proportion of the predicted normal value.", "preferredTerm": "Percent Predicted Total Lung Capacity", "submissionValue": "TLCPP", "synonyms": ["Percent Predicted Total Lung Capacity"]}, {"conceptId": "C139260", "definition": "A measurement of the reflection of energy conservation within a given tissue.", "preferredTerm": "Tissue Elastance", "submissionValue": "TSUELAS", "synonyms": ["Tissue Elastance"]}, {"conceptId": "C139261", "definition": "The energy dissipated relative to the elastic energy stored in the tissue in a P-V cycle. (Fredberg JJ, Stamenovic D. On the imperfect elasticity of lung tissue. J Appl Physiol (1985). 1989 Dec;67(6):2408-19).", "preferredTerm": "Tissue Hysteresivity Measurement", "submissionValue": "TSUHYS", "synonyms": ["Tissue Hysteresivity"]}, {"conceptId": "C111324", "definition": "The volume of air moved into and out of the lungs during breathing at rest.", "preferredTerm": "Tidal Volume", "submissionValue": "TV", "synonyms": ["Tidal Volume"]}, {"conceptId": "C112387", "definition": "The volume of air moved into and out of the lungs during breathing at rest as a proportion of the predicted normal value.", "preferredTerm": "Percent Predicted Tidal Volume", "submissionValue": "TVPP", "synonyms": ["Percent Predicted Tidal Volume"]}, {"conceptId": "C123570", "definition": "The rate at which oxygen is absorbed and utilized by any given tissue in the body.", "preferredTerm": "Oxygen Consumption", "submissionValue": "VO2", "synonyms": ["Oxygen Consumption"]}, {"conceptId": "C178242", "definition": "The maximum rate of oxygen utilization at which oxygen uptake no longer increases and beyond which no level of effort can raise it.", "preferredTerm": "Maximal Oxygen Uptake", "submissionValue": "VO2MAX", "synonyms": ["Maximal Oxygen Consumption"]}, {"conceptId": "C174363", "definition": "The predicted maximum rate of oxygen uptake that is derived from physiological responses to submaximal exercise performance and is used as a measure of cardiorespiratory fitness.", "preferredTerm": "Maximal Oxygen Consumption, Estimated", "submissionValue": "VO2MAXE", "synonyms": ["Estimated Maximal Aerobic Capacity", "Maximal Oxygen Consumption, Estimated"]}]}