{"_links": {"parentPackage": {"href": "/mdr/ct/packages/sdtmct-2021-09-24", "title": "SDTM Controlled Terminology Package 47 Effective 2021-09-24", "type": "Terminology"}, "priorVersion": {"href": "/mdr/ct/packages/sdtmct-2021-06-25/codelists/C111345", "title": "CDISC Questionnaire FAQ-NACC UDS Version 2.0 Test Name Terminology", "type": "Code List"}, "rootItem": {"href": "/mdr/root/ct/sdtmct/codelists/C111345", "title": "Version-agnostic anchor resource for codelist C111345", "type": "Root Value Domain"}, "self": {"href": "/mdr/ct/packages/sdtmct-2021-09-24/codelists/C111345", "title": "CDISC Questionnaire FAQ-NACC UDS Version 2.0 Test Name Terminology", "type": "Code List"}}, "conceptId": "C111345", "definition": "Functional Assessment Questionnaire-NACC UDS V2.0 test name.", "extensible": "false", "name": "Functional Assessment Questionnaire-NACC UDS V2.0 Questionnaire Test Name", "preferredTerm": "CDISC Questionnaire FAQ-NACC UDS Version 2.0 Test Name Terminology", "submissionValue": "FAQNA1TN", "synonyms": ["Functional Assessment Questionnaire-NACC UDS V2.0 Questionnaire Test Name"], "terms": [{"conceptId": "C111511", "definition": "Functional Assessment Questionnaire-NACC UDS V2.0 - Assembling tax records, business affairs, or other papers.", "preferredTerm": "FAQ-NACC UDS Version 2.0 - Assemble", "submissionValue": "FAQNA1-Assembling", "synonyms": ["FAQNA1-Assembling"]}, {"conceptId": "C111514", "definition": "Functional Assessment Questionnaire-NACC UDS V2.0 - Heating water, making a cup of coffee, turning off the stove.", "preferredTerm": "FAQ-NACC UDS Version 2.0 - Heat water, Make Coffee, Turn Off Stove", "submissionValue": "FAQNA1-Heat Water/Make Coffee/Stove Off", "synonyms": ["FAQNA1-Heat Water/Make Coffee/Stove Off"]}, {"conceptId": "C111516", "definition": "Functional Assessment Questionnaire-NACC UDS V2.0 - Keeping track of current events.", "preferredTerm": "FAQ-NACC UDS Version 2.0 - Keep Track of Current Events", "submissionValue": "FAQNA1-Keeping Track of Current Events", "synonyms": ["FAQNA1-Keeping Track of Current Events"]}, {"conceptId": "C111517", "definition": "Functional Assessment Questionnaire-NACC UDS V2.0 - Paying attention to and understanding a TV program, book, or magazine.", "preferredTerm": "FAQ-NACC UDS Version 2.0 - Pay Attention, Understand, Discuss", "submissionValue": "FAQNA1-Paying Attention", "synonyms": ["FAQNA1-Paying Attention"]}, {"conceptId": "C111513", "definition": "Functional Assessment Questionnaire-NACC UDS V2.0 - Playing a game of skill such as bridge or chess, working on a hobby.", "preferredTerm": "FAQ-NACC UDS Version 2.0 - Play Game of Skill, Work on Hobby", "submissionValue": "FAQNA1-Playing a Game of Skill", "synonyms": ["FAQNA1-Playing a Game of Skill"]}, {"conceptId": "C111515", "definition": "Functional Assessment Questionnaire-NACC UDS V2.0 - Preparing a balanced meal.", "preferredTerm": "FAQ-NACC UDS Version 2.0 - Prepare a Meal", "submissionValue": "FAQNA1-Preparing a Balanced Meal", "synonyms": ["FAQNA1-Preparing a Balanced Meal"]}, {"conceptId": "C111518", "definition": "Functional Assessment Questionnaire-NACC UDS V2.0 - Remembering appointments, family occasions, holidays, medications.", "preferredTerm": "FAQ-NACC UDS Version 2.0 - Remember", "submissionValue": "FAQNA1-Remembering", "synonyms": ["FAQNA1-Remembering"]}, {"conceptId": "C111512", "definition": "Functional Assessment Questionnaire-NACC UDS V2.0 - Shopping alone for clothes, household necessities, or groceries.", "preferredTerm": "FAQ-NACC UDS Version 2.0 - Shop Alone", "submissionValue": "FAQNA1-Shopping Alone", "synonyms": ["FAQNA1-Shopping Alone"]}, {"conceptId": "C111519", "definition": "Functional Assessment Questionnaire-NACC UDS V2.0 - Traveling out of the neighborhood, driving, or arranging to take public transportation.", "preferredTerm": "FAQ-NACC UDS Version 2.0 - Travel", "submissionValue": "FAQNA1-Traveling", "synonyms": ["FAQNA1-Traveling"]}, {"conceptId": "C111510", "definition": "Functional Assessment Questionnaire-NACC UDS V2.0 - Writing checks, paying bills, or balancing a checkbook.", "preferredTerm": "FAQ-NACC UDS Version 2.0 - Write checks, Pay bills, Balance checkbook", "submissionValue": "FAQNA1-Write Checks/Pay Bills/Checkbook", "synonyms": ["FAQNA1-Write Checks/Pay Bills/Checkbook"]}]}