{"_links": {"parentPackage": {"href": "/mdr/ct/packages/sdtmct-2021-09-24", "title": "SDTM Controlled Terminology Package 47 Effective 2021-09-24", "type": "Terminology"}, "priorVersion": {"href": "/mdr/ct/packages/sdtmct-2021-06-25/codelists/C115394", "title": "CDISC Functional Test PASAT Test Code Terminology", "type": "Code List"}, "rootItem": {"href": "/mdr/root/ct/sdtmct/codelists/C115394", "title": "Version-agnostic anchor resource for codelist C115394", "type": "Root Value Domain"}, "self": {"href": "/mdr/ct/packages/sdtmct-2021-09-24/codelists/C115394", "title": "CDISC Functional Test PASAT Test Code Terminology", "type": "Code List"}}, "conceptId": "C115394", "definition": "Paced Auditory Serial Addition Test test code.", "extensible": "false", "name": "Paced Auditory Serial Addition Test Functional Test Test Code", "preferredTerm": "CDISC Functional Test PASAT Test Code Terminology", "submissionValue": "PASAT1TC", "synonyms": ["Paced Auditory Serial Addition Test Functional Test Test Code"], "terms": [{"conceptId": "C115809", "definition": "Paced Auditory Serial Addition Test - Total correct.", "preferredTerm": "PASAT - Total Correct", "submissionValue": "PASAT101", "synonyms": ["PASAT1-Total Correct"]}, {"conceptId": "C115810", "definition": "Paced Auditory Serial Addition Test - Percent correct.", "preferredTerm": "PASAT - Percent Correct", "submissionValue": "PASAT102", "synonyms": ["PASAT1-Percent Correct"]}, {"conceptId": "C115811", "definition": "Paced Auditory Serial Addition Test - Did it take more than one attempt to get one successful trial?", "preferredTerm": "PASAT - More Than One Attempt", "submissionValue": "PASAT103", "synonyms": ["PASAT1-More Than One Attempt"]}, {"conceptId": "C115812", "definition": "Paced Auditory Serial Addition Test - Total correct in first half.", "preferredTerm": "PASAT - Total Correct in First Half", "submissionValue": "PASAT104", "synonyms": ["PASAT1-Total Correct in First Half"]}, {"conceptId": "C115813", "definition": "Paced Auditory Serial Addition Test - Total correct in second half.", "preferredTerm": "PASAT - Total Correct in Second Half", "submissionValue": "PASAT105", "synonyms": ["PASAT1-Total Correct in Second Half"]}, {"conceptId": "C115814", "definition": "Paced Auditory Serial Addition Test - Total commission errors.", "preferredTerm": "PASAT - Total Commission Errors", "submissionValue": "PASAT106", "synonyms": ["PASAT1-Total Commission Errors"]}, {"conceptId": "C115815", "definition": "Paced Auditory Serial Addition Test - Total omission errors.", "preferredTerm": "PASAT - Total Omission Errors", "submissionValue": "PASAT107", "synonyms": ["PASAT1-Total Omission Errors"]}]}