{"_links": {"parentPackage": {"href": "/mdr/ct/packages/sdtmct-2021-09-24", "title": "SDTM Controlled Terminology Package 47 Effective 2021-09-24", "type": "Terminology"}, "priorVersion": {"href": "/mdr/ct/packages/sdtmct-2021-06-25/codelists/C120525", "title": "CDISC SDTM Immunogenicity Specimen Assessments Test Code Terminology", "type": "Code List"}, "rootItem": {"href": "/mdr/root/ct/sdtmct/codelists/C120525", "title": "Version-agnostic anchor resource for codelist C120525", "type": "Root Value Domain"}, "self": {"href": "/mdr/ct/packages/sdtmct-2021-09-24/codelists/C120525", "title": "CDISC SDTM Immunogenicity Specimen Assessments Test Code Terminology", "type": "Code List"}}, "conceptId": "C120525", "definition": "Terminology relevant to the immunogenicity specimen test codes of the CDISC Study Data Tabulation Model.", "extensible": "true", "name": "Immunogenicity Specimen Assessments Test Code", "preferredTerm": "CDISC SDTM Immunogenicity Specimen Assessments Test Code Terminology", "submissionValue": "ISTESTCD", "synonyms": ["Immunogenicity Specimen Assessments Test Code"], "terms": [{"conceptId": "C181399", "definition": "A measurement of the antibody-secreting cells in a biological specimen.", "preferredTerm": "Antibody-secreting Cells Measurement", "submissionValue": "ABSCCL", "synonyms": ["Antibody-secreting Cells"]}, {"conceptId": "C147272", "definition": "A measurement of the binding antidrug antibody in a biological specimen. A binding antidrug antibody is an antibody that binds to a test article, and/or portion(s) of the test article.", "preferredTerm": "Binding Antidrug Antibody Measurement", "submissionValue": "ADA_BAB", "synonyms": ["Binding Antidrug Antibody"]}, {"conceptId": "C147273", "definition": "A measurement of the neutralizing binding antidrug antibody in a biological specimen. A neutralizing binding antidrug antibody is a type of ADA that binds to the functional portion of a test article leading to diminished or negated pharmacological activity.", "preferredTerm": "Neutralizing Binding Antidrug Antibody Measurement", "submissionValue": "ADA_NAB", "synonyms": ["Neutralizing Binding Antidrug Antibody"]}, {"conceptId": "C147274", "definition": "A measurement of the neutralizing cross-reactive binding antidrug antibody in a biological specimen. A neutralizing cross-reactive binding antidrug antibody is a type of ADA that binds to an endogenous molecule that is structurally similar to an analogue test article and diminishes or negates its function.", "preferredTerm": "Neutralizing Cross-Reacting Binding Antidrug Antibody Measurement", "submissionValue": "ADA_NX", "synonyms": ["Neutraliz Cross-React Bind Antidrug AB", "Neutralizing Cross-Reactive Binding Antidrug Antibody"]}, {"conceptId": "C147275", "definition": "A measurement of the cross-reactive binding antidrug antibody in a biological specimen. A cross-reactive binding antidrug antibody is a type of ADA that binds to the endogenous molecule that is structurally similar to an analogue test article.", "preferredTerm": "Cross-Reactive Binding Antidrug Antibody Measurement", "submissionValue": "ADA_X", "synonyms": ["Cross-Reactive Binding Antidrug Antibody"]}, {"conceptId": "C181362", "definition": "A measurement of the binding antidrug IgA antibody in a biological specimen.", "preferredTerm": "Binding Antidrug IgA Antibody Measurement", "submissionValue": "ADBIGA", "synonyms": ["Binding Antidrug IgA Antibody"]}, {"conceptId": "C181363", "definition": "A measurement of the binding antidrug IgE antibody in a biological specimen.", "preferredTerm": "Binding Antidrug IgE Antibody Measurement", "submissionValue": "ADBIGE", "synonyms": ["Binding Antidrug IgE Antibody"]}, {"conceptId": "C181188", "definition": "A measurement of the binding antidrug IgG antibody in a biological specimen.", "preferredTerm": "Binding Antidrug IgG Antibody Measurement", "submissionValue": "ADBIGG", "synonyms": ["Binding Antidrug IgG Antibody"]}, {"conceptId": "C181366", "definition": "A measurement of the binding antidrug IgG1 antibody in a biological specimen.", "preferredTerm": "Binding Antidrug IgG1 Antibody Measurement", "submissionValue": "ADBIGG1", "synonyms": ["Binding Antidrug IgG1 Antibody"]}, {"conceptId": "C181367", "definition": "A measurement of the binding antidrug IgG2 antibody in a biological specimen.", "preferredTerm": "Binding Antidrug IgG2 Antibody Measurement", "submissionValue": "ADBIGG2", "synonyms": ["Binding Antidrug IgG2 Antibody"]}, {"conceptId": "C181368", "definition": "A measurement of the binding antidrug IgG3 antibody in a biological specimen.", "preferredTerm": "Binding Antidrug IgG3 Antibody Measurement", "submissionValue": "ADBIGG3", "synonyms": ["Binding Antidrug IgG3 Antibody"]}, {"conceptId": "C181369", "definition": "A measurement of the binding antidrug IgG4 antibody in a biological specimen.", "preferredTerm": "Binding Antidrug IgG4 Antibody Measurement", "submissionValue": "ADBIGG4", "synonyms": ["Binding Antidrug IgG4 Antibody"]}, {"conceptId": "C181365", "definition": "A measurement of the binding antidrug IgG and/or IgM antibody in a biological specimen.", "preferredTerm": "Binding Antidrug IgG/IgM Antibody Measurement", "submissionValue": "ADBIGGM", "synonyms": ["Binding Antidrug IgG/IgM Antibody"]}, {"conceptId": "C181364", "definition": "A measurement of the binding antidrug IgM antibody in a biological specimen.", "preferredTerm": "Binding Antidrug IgM Antibody Measurement", "submissionValue": "ADBIGM", "synonyms": ["Binding Antidrug IgM Antibody"]}, {"conceptId": "C181378", "definition": "A measurement of the cross-reactive binding antidrug IgA antibody in a biological specimen.", "preferredTerm": "Cross-Reactive Binding Antidrug IgA Antibody Measurement", "submissionValue": "ADBXIGA", "synonyms": ["Cross-Reactive Binding Antidrug IgA AB", "Cross-Reactive Binding Antidrug IgA Antibody"]}, {"conceptId": "C181379", "definition": "A measurement of the cross-reactive binding antidrug IgE antibody in a biological specimen.", "preferredTerm": "Cross-Reactive Binding Antidrug IgE Antibody Measurement", "submissionValue": "ADBXIGE", "synonyms": ["Cross-Reactive Binding Antidrug IgE AB", "Cross-Reactive Binding Antidrug IgE Antibody"]}, {"conceptId": "C181190", "definition": "A measurement of the cross-reactive binding antidrug IgG antibody in a biological specimen.", "preferredTerm": "Cross-Reactive Binding Antidrug IgG Antibody Measurement", "submissionValue": "ADBXIGG", "synonyms": ["Cross-Reactive Binding Antidrug IgG AB", "Cross-Reactive Binding Antidrug IgG Antibody"]}, {"conceptId": "C181382", "definition": "A measurement of the cross-reactive binding antidrug IgG1 antibody in a biological specimen.", "preferredTerm": "Cross-Reactive Binding Antidrug IgG1 Antibody Measurement", "submissionValue": "ADBXIGG1", "synonyms": ["Cross-Reactive Binding Antidrug IgG1 AB", "Cross-Reactive Binding Antidrug IgG1 Antibody"]}, {"conceptId": "C181383", "definition": "A measurement of the cross-reactive binding antidrug IgG2 antibody in a biological specimen.", "preferredTerm": "Cross-Reactive Binding Antidrug IgG2 Antibody Measurement", "submissionValue": "ADBXIGG2", "synonyms": ["Cross-Reactive Binding Antidrug IgG2 AB", "Cross-Reactive Binding Antidrug IgG2 Antibody"]}, {"conceptId": "C181384", "definition": "A measurement of the cross-reactive binding antidrug IgG3 antibody in a biological specimen.", "preferredTerm": "Cross-Reactive Binding Antidrug IgG3 Antibody Measurement", "submissionValue": "ADBXIGG3", "synonyms": ["Cross-Reactive Binding Antidrug IgG3 AB", "Cross-Reactive Binding Antidrug IgG3 Antibody"]}, {"conceptId": "C181385", "definition": "A measurement of the cross-reactive binding antidrug IgG4 antibody in a biological specimen.", "preferredTerm": "Cross-Reactive Binding Antidrug IgG4 Antibody Measurement", "submissionValue": "ADBXIGG4", "synonyms": ["Cross-Reactive Binding Antidrug IgG4 AB", "Cross-Reactive Binding Antidrug IgG4 Antibody"]}, {"conceptId": "C181381", "definition": "A measurement of the cross-reactive binding antidrug IgG and/or IgM antibody in a biological specimen.", "preferredTerm": "Cross-Reactive Binding Antidrug Antibody IgG/IgM Measurement", "submissionValue": "ADBXIGGM", "synonyms": ["Cross-Reactive Binding ADA IgG/IgM", "Cross-Reactive Binding Antidrug IgG/IgM Antibody"]}, {"conceptId": "C181380", "definition": "A measurement of the cross-reactive binding antidrug IgM antibody in a biological specimen.", "preferredTerm": "Cross-Reactive Binding Antidrug IgM Antibody Measurement", "submissionValue": "ADBXIGM", "synonyms": ["Cross-Reactive Binding Antidrug IgM AB", "Cross-Reactive Binding Antidrug IgM Antibody"]}, {"conceptId": "C181370", "definition": "A measurement of the neutralizing binding antidrug IgA antibody in a biological specimen.", "preferredTerm": "Neutralizing Binding Antidrug IgA Antibody Measurement", "submissionValue": "ADNIGA", "synonyms": ["Neutralizing Binding Antidrug IgA AB", "Neutralizing Binding Antidrug IgA Antibody"]}, {"conceptId": "C181371", "definition": "A measurement of the neutralizing binding antidrug IgE antibody in a biological specimen.", "preferredTerm": "Neutralizing Binding Antidrug IgE Antibody Measurement", "submissionValue": "ADNIGE", "synonyms": ["Neutralizing Binding Antidrug IgE AB", "Neutralizing Binding Antidrug IgE Antibody"]}, {"conceptId": "C181189", "definition": "A measurement of the neutralizing binding antidrug IgG antibody in a biological specimen.", "preferredTerm": "Neutralizing Binding Antidrug IgG Antibody Measurement", "submissionValue": "ADNIGG", "synonyms": ["Neutralizing Binding Antidrug IgG AB", "Neutralizing Binding Antidrug IgG Antibody"]}, {"conceptId": "C181374", "definition": "A measurement of the neutralizing binding antidrug IgG1 antibody in a biological specimen.", "preferredTerm": "Neutralizing Binding Antidrug IgG1 Antibody Measurement", "submissionValue": "ADNIGG1", "synonyms": ["Neutralizing Binding Antidrug IgG1 AB", "Neutralizing Binding Antidrug IgG1 Antibody"]}, {"conceptId": "C181375", "definition": "A measurement of the neutralizing binding antidrug IgG2 antibody in a biological specimen.", "preferredTerm": "Neutralizing Binding Antidrug IgG2 Antibody Measurement", "submissionValue": "ADNIGG2", "synonyms": ["Neutralizing Binding Antidrug IgG2 AB", "Neutralizing Binding Antidrug IgG2 Antibody"]}, {"conceptId": "C181376", "definition": "A measurement of the neutralizing binding antidrug IgG3 antibody in a biological specimen.", "preferredTerm": "Neutralizing Binding Antidrug IgG3 Antibody Measurement", "submissionValue": "ADNIGG3", "synonyms": ["Neutralizing Binding Antidrug IgG3 AB", "Neutralizing Binding Antidrug IgG3 Antibody"]}, {"conceptId": "C181377", "definition": "A measurement of the neutralizing binding antidrug IgG4 antibody in a biological specimen.", "preferredTerm": "Neutralizing Binding Antidrug IgG4 Antibody Measurement", "submissionValue": "ADNIGG4", "synonyms": ["Neutralizing Binding Antidrug IgG4 AB", "Neutralizing Binding Antidrug IgG4 Antibody"]}, {"conceptId": "C181373", "definition": "A measurement of the neutralizing binding antidrug IgG and/or IgM antibody in a biological specimen.", "preferredTerm": "Neutralizing Binding Antidrug IgG/IgM Antibody Measurement", "submissionValue": "ADNIGGM", "synonyms": ["Neutralizing Binding Antidrug IgG/IgM AB"]}, {"conceptId": "C181372", "definition": "A measurement of the neutralizing binding antidrug IgM antibody in a biological specimen.", "preferredTerm": "Neutralizing Binding Antidrug IgM Antibody Measurement", "submissionValue": "ADNIGM", "synonyms": ["Neutralizing Binding Antidrug IgM AB", "Neutralizing Binding Antidrug IgM Antibody"]}, {"conceptId": "C181386", "definition": "A measurement of the neutralizing cross-reactive binding antidrug IgA antibody in a biological specimen.", "preferredTerm": "Neutralizing Cross-Reactive Binding Antidrug Antibody IgA Measurement", "submissionValue": "ADNXIGA", "synonyms": ["Neut Cross-Reactive Binding ADA IgA", "Neutralizing Cross-Reactive Binding Antidrug IgA Antibody"]}, {"conceptId": "C181387", "definition": "A measurement of the neutralizing cross-reactive binding antidrug IgE antibody in a biological specimen.", "preferredTerm": "Neutralizing Cross-Reactive Binding Antidrug Antibody IgE Measurement", "submissionValue": "ADNXIGE", "synonyms": ["Neut Cross-Reactive Binding ADA IgE", "Neutralizing Cross-Reactive Binding Antidrug IgE Antibody"]}, {"conceptId": "C181191", "definition": "A measurement of the neutralizing cross-reactive binding antidrug IgG antibody in a biological specimen.", "preferredTerm": "Neutralizing Cross-Reactive Binding Antidrug Antibody IgG Measurement", "submissionValue": "ADNXIGG", "synonyms": ["Neut Cross-Reactive Binding ADA IgG", "Neutralizing Cross-Reactive Binding Antidrug IgG Antibody"]}, {"conceptId": "C181390", "definition": "A measurement of the neutralizing cross-reactive binding antidrug IgG1 antibody in a biological specimen.", "preferredTerm": "Neutralizing Cross-Reactive Binding Antidrug Antibody IgG1 Measurement", "submissionValue": "ADNXIGG1", "synonyms": ["Neut Cross-Reactive Binding ADA IgG1", "Neutralizing Cross-Reactive Binding Antidrug IgG1 Antibody"]}, {"conceptId": "C181391", "definition": "A measurement of the neutralizing cross-reactive binding antidrug IgG2 antibody in a biological specimen.", "preferredTerm": "Neutralizing Cross-Reactive Binding Antidrug Antibody IgG2 Measurement", "submissionValue": "ADNXIGG2", "synonyms": ["Neut Cross-Reactive Binding ADA IgG2", "Neutralizing Cross-Reactive Binding Antidrug IgG2 Antibody"]}, {"conceptId": "C181392", "definition": "A measurement of the neutralizing cross-reactive binding antidrug IgG3 antibody in a biological specimen.", "preferredTerm": "Neutralizing Cross-Reactive Binding Antidrug Antibody IgG3 Measurement", "submissionValue": "ADNXIGG3", "synonyms": ["Neut Cross-Reactive Binding ADA IgG3", "Neutralizing Cross-Reactive Binding Antidrug IgG3 Antibody"]}, {"conceptId": "C181393", "definition": "A measurement of the neutralizing cross-reactive binding antidrug IgG4 antibody in a biological specimen.", "preferredTerm": "Neutralizing Cross-Reactive Binding Antidrug Antibody IgG4 Measurement", "submissionValue": "ADNXIGG4", "synonyms": ["Neut Cross-Reactive Binding ADA IgG4", "Neutralizing Cross-Reactive Binding Antidrug IgG4 Antibody"]}, {"conceptId": "C181389", "definition": "A measurement of the neutralizing cross-reactive binding antidrug IgG and/or IgM antibody in a biological specimen.", "preferredTerm": "Neutralizing Cross-Reactive Binding Antidrug Antibody IgG/IgM Measurement", "submissionValue": "ADNXIGGM", "synonyms": ["Neut Cross-Reactive Binding ADA IgG/IgM", "Neutralizing Cross-Reactive Binding Antidrug IgG/IgM Antibody"]}, {"conceptId": "C181388", "definition": "A measurement of the neutralizing cross-reactive binding antidrug IgM antibody in a biological specimen.", "preferredTerm": "Neutralizing Cross-Reactive Binding Antidrug Antibody IgM Measurement", "submissionValue": "ADNXIGM", "synonyms": ["Neut Cross-Reactive Binding ADA IgM", "Neutralizing Cross-Reactive Binding Antidrug IgM Antibody"]}, {"conceptId": "C181398", "definition": "A measurement of the binding allergen-induced IgE antibody in a biological specimen.", "preferredTerm": "Allergen-induced IgE Antibody Measurement", "submissionValue": "ARIGEAB", "synonyms": ["Allergen-induced IgE Antibody"]}, {"conceptId": "C181397", "definition": "A measurement of the binding autoantibody in a biological specimen.", "preferredTerm": "Autoantibody Measurement", "submissionValue": "ATAB", "synonyms": ["Autoantibody"]}, {"conceptId": "C181400", "definition": "A measurement of the cytokine-secreting cells in a biological specimen.", "preferredTerm": "Cytokine-secreting Cells Measurement", "submissionValue": "CYKSCCL", "synonyms": ["Cytokine-secreting Cells"]}, {"conceptId": "C132360", "definition": "A measurement of the Ebola virus specific IgG antibody secreting cells in a biological specimen.", "preferredTerm": "Ebola Virus Specific IgG Antibody Secreting Cell Count", "submissionValue": "EVIGGASC", "synonyms": ["EBOV Specific IgG AB Secreting Cells"]}, {"conceptId": "C132361", "definition": "A measurement of the Ebola virus specific IgM antibody secreting cells in a biological specimen.", "preferredTerm": "Ebola Virus Specific IgM Antibody Secreting Cell Count", "submissionValue": "EVIGMASC", "synonyms": ["EBOV Specific IgM AB Secreting Cells"]}, {"conceptId": "C120622", "definition": "A measurement of the H1 specific IgG antibody secreting cells in a biological specimen.", "preferredTerm": "Influenza Hemagglutinin 1 Specific IgG Antibody Secreting Cell Count", "submissionValue": "H1IGGASC", "synonyms": ["H1 Specific IgG ASCs", "H1 Specific IgG Antibody Secreting Cells"]}, {"conceptId": "C120623", "definition": "A measurement of the H3 specific IgG antibody secreting cells in a biological specimen.", "preferredTerm": "Influenza Hemagglutinin 3 Specific IgG Antibody Secreting Cell Count", "submissionValue": "H3IGGASC", "synonyms": ["H3 Specific IgG ASCs", "H3 Specific IgG Antibody Secreting Cells"]}, {"conceptId": "C158217", "definition": "A measurement of the HIV-1 seroreactivity in a biological specimen.", "preferredTerm": "HIV-1 Seroreactivity Measurement", "submissionValue": "HIV1SR", "synonyms": ["HIV-1 Seroreactivity"]}, {"conceptId": "C158216", "definition": "A measurement of the HIV-2 seroreactivity in a biological specimen.", "preferredTerm": "HIV-2 Seroreactivity Measurement", "submissionValue": "HIV2SR", "synonyms": ["HIV-2 Seroreactivity"]}, {"conceptId": "C132362", "definition": "A measurement of the total IgM antibody secreting cells in a biological specimen.", "preferredTerm": "IgM Antibody Secreting Cell Count", "submissionValue": "IGMABSC", "synonyms": ["IgM Antibody Secreting Cells"]}, {"conceptId": "C181395", "definition": "A measurement of the functional binding microbial-induced antibody in a biological specimen. A functional microbial-induced antibody is defined as antibodies that have agonist or antagonist effects on pathogens or their toxins in the presence of other effector molecules or cells. For example, the effects of functional antibodies can include neutralization, phagocytosis, antibody-dependent cellular cytotoxicity, and complement-mediated lysis. The production of this antibody may be triggered by naturally occurring infection and/or vaccination using a whole microbe or component(s) of a microbe.", "preferredTerm": "Functional Microbial-induced Antibody Measurement", "submissionValue": "MBFAB", "synonyms": ["Functional Microbial-induced Antibody"]}, {"conceptId": "C181394", "definition": "A measurement of the binding microbial-induced IgG antibody in a biological specimen; the production of this antibody may be triggered by naturally occurring infection and/or vaccination using a whole microbe or component(s) of a microbe.", "preferredTerm": "Microbial-induced IgG Antibody Measurement", "submissionValue": "MBIGGAB", "synonyms": ["Microbial-induced IgG Antibody"]}, {"conceptId": "C181396", "definition": "A measurement of the neutralizing binding microbial-induced antibody in a biological specimen. A neutralizing microbial-induced antibody is a type of functional antibody that's defined as antibodies that bind to, block and prevent microbes from infecting cells. The production of this antibody may be triggered by naturally occurring infection and/or vaccination using a whole microbe or component(s) of a microbe.", "preferredTerm": "Neutralizing Microbial-induced Antibody Measurement", "submissionValue": "MBNAB", "synonyms": ["Neutralizing Microbial-induced Antibody"]}, {"conceptId": "C120624", "definition": "A measurement of the total IgG antibody secreting cells in a biological specimen.", "preferredTerm": "Total IgG Antibody Secreting Cell Count", "submissionValue": "TIGGASC", "synonyms": ["Total IgG ASCs", "Total IgG Antibody Secreting Cells"]}, {"conceptId": "C161337", "definition": "A relative measurement (ratio or percentage) of T-lymphocyte proliferation due to stimulation by an antigen of interest to a non-stimulated T-lymphocyte proliferation control.", "preferredTerm": "T-Lymphocyte Proliferation Index", "submissionValue": "TLYMPIDX", "synonyms": ["T-Lymphocyte Proliferation Index"]}]}