{"_links": {"parentPackage": {"href": "/mdr/ct/packages/sdtmct-2021-09-24", "title": "SDTM Controlled Terminology Package 47 Effective 2021-09-24", "type": "Terminology"}, "priorVersion": {"href": "/mdr/ct/packages/sdtmct-2021-06-25/codelists/C120523", "title": "CDISC SDTM Holter ECG Test Code Terminology", "type": "Code List"}, "rootItem": {"href": "/mdr/root/ct/sdtmct/codelists/C120523", "title": "Version-agnostic anchor resource for codelist C120523", "type": "Root Value Domain"}, "self": {"href": "/mdr/ct/packages/sdtmct-2021-09-24/codelists/C120523", "title": "CDISC SDTM Holter ECG Test Code Terminology", "type": "Code List"}}, "conceptId": "C120523", "definition": "Terminology relevant to the test codes that describe Holter ECG interpretative findings.", "extensible": "true", "name": "Holter ECG Test Code", "preferredTerm": "CDISC SDTM Holter ECG Test Code Terminology", "submissionValue": "HETESTCD", "synonyms": ["Holter ECG Test Code"], "terms": [{"conceptId": "C111131", "definition": "An electrocardiographic assessment of cardiac atrioventricular conduction.", "preferredTerm": "Atrioventricular Conduction ECG Assessment", "submissionValue": "AVCOND", "synonyms": ["Atrioventricular Conduction"]}, {"conceptId": "C111132", "definition": "An electrocardiographic assessment of mean cardiac electrical vector and the ECG voltage.", "preferredTerm": "Axis and Voltage ECG Assessment", "submissionValue": "AXISVOLT", "synonyms": ["Axis and Voltage"]}, {"conceptId": "C111155", "definition": "An electrocardiographic assessment of chamber hypertrophy or enlargement.", "preferredTerm": "Chamber Hypertrophy or Enlargement ECG Assessment", "submissionValue": "CHYPTENL", "synonyms": ["Chamber Hypertrophy or Enlargement"]}, {"conceptId": "C117761", "definition": "A comparative interpretation of an ECG relative to a previous (comparator) ECG. The definition of the comparator ECG may be specified elsewhere. Common comparator result values include improved, no change, deteriorated.", "preferredTerm": "Comparison to a Prior ECG", "submissionValue": "EGCOMP", "synonyms": ["Comparison to a Prior ECG"]}, {"conceptId": "C41255", "definition": "An act or process of elucidation; explication, or explanation of the meaning of the event or thing via the assignment of objects from the domain to the constants of a formal language, truth-values to the proposition symbols, truth-functions to the connectives, other functions to the function symbols, and extensions to the predicates, if any. The assignments are result of human logic application and are not native to the symbols of the formal language.", "preferredTerm": "Interpretation", "submissionValue": "INTP", "synonyms": ["Interpretation"]}, {"conceptId": "C111238", "definition": "An electrocardiographic assessment of intraventricular and intra-atrial conduction.", "preferredTerm": "Intraventricular and Intraatrial Conduction ECG Assessment", "submissionValue": "IVTIACD", "synonyms": ["Intraventricular-Intraatrial Conduction"]}, {"conceptId": "C111280", "definition": "An electrocardiographic assessment of findings suggestive of myocardial infarction.", "preferredTerm": "Myocardial Infarction ECG Assessment", "submissionValue": "MI", "synonyms": ["Myocardial Infarction"]}, {"conceptId": "C111285", "definition": "An electrocardiographic assessment of presence of artificial electronic pacing.", "preferredTerm": "Pacemaker ECG Assessment", "submissionValue": "PACEMAKR", "synonyms": ["Pacemaker"]}, {"conceptId": "C111307", "definition": "An electrocardiographic assessment of cardiac rhythm not otherwise specified.", "preferredTerm": "Rhythm Not Otherwise Specified ECG Assessment", "submissionValue": "RHYNOS", "synonyms": ["Rhythm Not Otherwise Specified"]}, {"conceptId": "C111312", "definition": "An electrocardiographic assessment of sinus node rhythms and arrhythmias.", "preferredTerm": "Sinus Node Rhythm and Arrhythmia ECG Assessment", "submissionValue": "SNRARRY", "synonyms": ["Sinus Node Rhythms and Arrhythmias"]}, {"conceptId": "C111320", "definition": "An electrocardiographic assessment of supraventricular arrhythmias excluding tachycardias.", "preferredTerm": "Supraventricular Arrhythmia ECG Assessment", "submissionValue": "SPRARRY", "synonyms": ["Supraventricular Arrhythmias"]}, {"conceptId": "C111321", "definition": "An electrocardiographic assessment of supraventricular tachyarrhythmias.", "preferredTerm": "Supraventricular Tachyarrhythmia ECG Assessment", "submissionValue": "SPRTARRY", "synonyms": ["Supraventricular Tachyarrhythmias"]}, {"conceptId": "C111363", "definition": "An electrocardiographic assessment of the characteristics of the ST segment, T wave, and U wave.", "preferredTerm": "ST Segment, T wave, and U wave ECG Assessment", "submissionValue": "STSTWUW", "synonyms": ["ST Segment, T wave, and U wave"]}, {"conceptId": "C117807", "definition": "A statement about an electrocardiographic recording describing technical issues or interference during the recording, processing, or transmission of the data. This does not represent an electrocardiographic diagnosis.", "preferredTerm": "ECG Technical Quality", "submissionValue": "TECHQUAL", "synonyms": ["Technical Quality"]}, {"conceptId": "C111330", "definition": "An electrocardiographic assessment of ventricular arrhythmias excluding tachycardias.", "preferredTerm": "Ventricular Arrhythmia ECG Assessment", "submissionValue": "VTARRY", "synonyms": ["Ventricular Arrhythmias"]}, {"conceptId": "C111331", "definition": "An electrocardiographic assessment of ventricular tachyarrhythmias.", "preferredTerm": "Ventricular Tachyarrhythmia ECG Assessment", "submissionValue": "VTTARRY", "synonyms": ["Ventricular Tachyarrhythmias"]}]}