{"_links": {"parentPackage": {"href": "/mdr/ct/packages/sdtmct-2021-09-24", "title": "SDTM Controlled Terminology Package 47 Effective 2021-09-24", "type": "Terminology"}, "priorVersion": {"href": "/mdr/ct/packages/sdtmct-2021-06-25/codelists/C120988", "title": "CDISC Clinical Classification Child-Pugh Test Name Terminology", "type": "Code List"}, "rootItem": {"href": "/mdr/root/ct/sdtmct/codelists/C120988", "title": "Version-agnostic anchor resource for codelist C120988", "type": "Root Value Domain"}, "self": {"href": "/mdr/ct/packages/sdtmct-2021-09-24/codelists/C120988", "title": "CDISC Clinical Classification Child-Pugh Test Name Terminology", "type": "Code List"}}, "conceptId": "C120988", "definition": "Child-Pugh Classification test name.", "extensible": "false", "name": "Child-Pugh Classification Clinical Classification Test Name", "preferredTerm": "CDISC Clinical Classification Child-Pugh Test Name Terminology", "submissionValue": "CPS01TN", "synonyms": ["Child-Pugh Classification Clinical Classification Test Name"], "terms": [{"conceptId": "C121069", "definition": "Child-Pugh Classification - Ascites.", "preferredTerm": "Child-Pugh - Ascites", "submissionValue": "CPS01-Ascites", "synonyms": ["CPS01-Ascites"]}, {"conceptId": "C121068", "definition": "Child-Pugh Classification - Encephalopathy grade.", "preferredTerm": "Child-Pugh - Encephalopathy Grade", "submissionValue": "CPS01-Encephalopathy Grade", "synonyms": ["CPS01-Encephalopathy Grade"]}, {"conceptId": "C121075", "definition": "Child-Pugh Classification - Child-Pugh grade.", "preferredTerm": "Child-Pugh - Grade", "submissionValue": "CPS01-Grade", "synonyms": ["CPS01-Grade"]}, {"conceptId": "C121073", "definition": "Child-Pugh Classification - Prothrombin time, international normalized ratio (INR).", "preferredTerm": "Child-Pugh - PT, INR", "submissionValue": "CPS01-PT, INR", "synonyms": ["CPS01-PT, INR"]}, {"conceptId": "C121072", "definition": "Child-Pugh Classification - Prothrombin time, sec prolonged.", "preferredTerm": "Child-Pugh - PT, Sec Prolonged", "submissionValue": "CPS01-PT, Sec Prolonged", "synonyms": ["CPS01-PT, Sec Prolonged"]}, {"conceptId": "C121071", "definition": "Child-Pugh Classification - Serum albumin, g/dL.", "preferredTerm": "Child-Pugh - Serum Albumin", "submissionValue": "CPS01-Serum Albumin", "synonyms": ["CPS01-Serum Albumin"]}, {"conceptId": "C121070", "definition": "Child-Pugh Classification - Serum bilirubin, mg/dL.", "preferredTerm": "Child-Pugh - Serum Bilirubin", "submissionValue": "CPS01-Serum Bilirubin", "synonyms": ["CPS01-Serum Bilirubin"]}, {"conceptId": "C121074", "definition": "Child-Pugh Classification - Child-Pugh total score.", "preferredTerm": "Child-Pugh - Total Score", "submissionValue": "CPS01-Total Score", "synonyms": ["CPS01-Total Score"]}]}