{"_links": {"parentPackage": {"href": "/mdr/ct/packages/sdtmct-2021-09-24", "title": "SDTM Controlled Terminology Package 47 Effective 2021-09-24", "type": "Terminology"}, "priorVersion": {"href": "/mdr/ct/packages/sdtmct-2021-06-25/codelists/C124309", "title": "CDISC SDTM Tumor or Lesion Properties Test Result Terminology", "type": "Code List"}, "rootItem": {"href": "/mdr/root/ct/sdtmct/codelists/C124309", "title": "Version-agnostic anchor resource for codelist C124309", "type": "Root Value Domain"}, "self": {"href": "/mdr/ct/packages/sdtmct-2021-09-24/codelists/C124309", "title": "CDISC SDTM Tumor or Lesion Properties Test Result Terminology", "type": "Code List"}}, "conceptId": "C124309", "definition": "Terminology relevant to the results from the assessment or measurement of a tumor, lesion or site of disease.", "extensible": "true", "name": "Tumor or Lesion Properties Test Result", "preferredTerm": "CDISC SDTM Tumor or Lesion Properties Test Result Terminology", "submissionValue": "TRPROPRS", "synonyms": ["Tumor or Lesion Properties Test Result"], "terms": [{"conceptId": "C48190", "definition": "Not existing in a specified place at a specified time. (NCI)", "preferredTerm": "Absent", "submissionValue": "ABSENT"}, {"conceptId": "C25640", "definition": "Made less in size, amount, degree, or extent.", "preferredTerm": "Reduced", "submissionValue": "DECREASED", "synonyms": ["Reduced"]}, {"conceptId": "C147486", "definition": "An indication that the increase is homogenously dispersed.", "preferredTerm": "Diffusely Increased", "submissionValue": "DIFFUSELY INCREASED"}, {"conceptId": "C73432", "definition": "An increase in size, volume, quantity or scope in comparison to normal or previous state.", "preferredTerm": "Enlargement", "submissionValue": "ENLARGEMENT"}, {"conceptId": "C156593", "definition": "An increase in size, volume, or quantity in comparison to nadir.", "preferredTerm": "Enlargement from Nadir", "submissionValue": "ENLARGEMENT FROM NADIR"}, {"conceptId": "C86071", "definition": "Open to question.", "preferredTerm": "Equivocal", "submissionValue": "EQUIVOCAL"}, {"conceptId": "C147487", "definition": "An indication that the increase is concentrated in a specific area(s).", "preferredTerm": "Focally Increased", "submissionValue": "FOCALLY INCREASED"}, {"conceptId": "C142367", "definition": "An increase in size, volume, quantity or scope in comparison to a previous enlarged state.", "preferredTerm": "Further Enlargement", "submissionValue": "FURTHER ENLARGEMENT"}, {"conceptId": "C156594", "definition": "An increase in size, volume, or quantity in comparison to a previous state that was enlarged from nadir.", "preferredTerm": "Further Enlargement from Nadir", "submissionValue": "FURTHER ENLARGEMENT FROM NADIR"}, {"conceptId": "C25533", "definition": "A process of becoming larger, more intense, more extensive, more numerous, more important, or more likely.", "preferredTerm": "Increase", "submissionValue": "INCREASED"}, {"conceptId": "C126054", "definition": "The absence of disease or pathology. (NCI)", "preferredTerm": "Non-Pathological", "submissionValue": "NON-PATHOLOGICAL"}, {"conceptId": "C124445", "definition": "Incapable of being handled, touched or felt through palpation. (NCI)", "preferredTerm": "Non-Palpable", "submissionValue": "NONPALPABLE"}, {"conceptId": "C14165", "definition": "Being approximately average or within certain limits; conforming with or constituting a norm or standard or level or type or social norm. (NCI)", "preferredTerm": "Normal", "submissionValue": "NORMAL"}, {"conceptId": "C25606", "definition": "Capable of being handled, touched or felt through palpation. (NCI)", "preferredTerm": "Palpable", "submissionValue": "PALPABLE"}, {"conceptId": "C25610", "definition": "Manifesting disease or pathology.", "preferredTerm": "Pathologic", "submissionValue": "PATHOLOGICAL"}, {"conceptId": "C25626", "definition": "Being or existing in a specified place or at the specified time. (NCI)", "preferredTerm": "Present", "submissionValue": "PRESENT"}, {"conceptId": "C94525", "definition": "An indication that multiple tumors have coalesced into one tumor.", "preferredTerm": "Matted Tumor Mass Present", "submissionValue": "TUMOR MERGED", "synonyms": ["Tumor Merged"]}, {"conceptId": "C71687", "definition": "In an unchanged or similar condition.", "preferredTerm": "About The Same", "submissionValue": "UNCHANGED"}, {"conceptId": "C123645", "definition": "Leaving no doubt; not open to question. (NCI)", "preferredTerm": "Unequivocal", "submissionValue": "UNEQUIVOCAL"}]}