{"_links": {"parentPackage": {"href": "/mdr/ct/packages/sdtmct-2021-09-24", "title": "SDTM Controlled Terminology Package 47 Effective 2021-09-24", "type": "Terminology"}, "priorVersion": {"href": "/mdr/ct/packages/sdtmct-2021-06-25/codelists/C124306", "title": "CDISC SDTM Subject Status Test Name Terminology", "type": "Code List"}, "rootItem": {"href": "/mdr/root/ct/sdtmct/codelists/C124306", "title": "Version-agnostic anchor resource for codelist C124306", "type": "Root Value Domain"}, "self": {"href": "/mdr/ct/packages/sdtmct-2021-09-24/codelists/C124306", "title": "CDISC SDTM Subject Status Test Name Terminology", "type": "Code List"}}, "conceptId": "C124306", "definition": "Terminology relevant to test name for subject characteristics that are evaluated periodically to determine if they have changed.", "extensible": "true", "name": "Subject Status Test Name", "preferredTerm": "CDISC SDTM Subject Status Test Name Terminology", "submissionValue": "SSTEST", "synonyms": ["Subject Status Test Name"], "terms": [{"conceptId": "C25717", "definition": "The state or condition of being living or deceased; also includes the case where the vital status is unknown.", "preferredTerm": "Vital Status", "submissionValue": "Survival Status", "synonyms": ["Survival Status"]}]}