{"_links": {"parentPackage": {"href": "/mdr/ct/packages/sdtmct-2021-09-24", "title": "SDTM Controlled Terminology Package 47 Effective 2021-09-24", "type": "Terminology"}, "priorVersion": {"href": "/mdr/ct/packages/sdtmct-2021-06-25/codelists/C129088", "title": "CDISC Questionnaire FACIT-F Version 4 Test Code Terminology", "type": "Code List"}, "rootItem": {"href": "/mdr/root/ct/sdtmct/codelists/C129088", "title": "Version-agnostic anchor resource for codelist C129088", "type": "Root Value Domain"}, "self": {"href": "/mdr/ct/packages/sdtmct-2021-09-24/codelists/C129088", "title": "CDISC Questionnaire FACIT-F Version 4 Test Code Terminology", "type": "Code List"}}, "conceptId": "C129088", "definition": "Functional Assessment of Chronic Illness Therapy-Fatigue Version 4 test code.", "extensible": "false", "name": "Functional Assessment of Chronic Illness Therapy-Fatigue Version 4 Questionnaire Test Code", "preferredTerm": "CDISC Questionnaire FACIT-F Version 4 Test Code Terminology", "submissionValue": "FAC071TC", "synonyms": ["Functional Assessment of Chronic Illness Therapy-Fatigue Version 4 Questionnaire Test Code"], "terms": [{"conceptId": "C129111", "definition": "Functional Assessment of Chronic Illness Therapy-Fatigue Version 4 - Physical Well-Being: I have a lack of energy.", "preferredTerm": "FACIT-F Version 4 - I Have a Lack of Energy", "submissionValue": "FAC07101", "synonyms": ["FAC071-I Have a Lack of Energy"]}, {"conceptId": "C129112", "definition": "Functional Assessment of Chronic Illness Therapy-Fatigue Version 4 - Physical Well-Being: I have nausea.", "preferredTerm": "FACIT-F Version 4 - I Have Nausea", "submissionValue": "FAC07102", "synonyms": ["FAC071-I Have Nausea"]}, {"conceptId": "C129113", "definition": "Functional Assessment of Chronic Illness Therapy-Fatigue Version 4 - Physical Well-Being: Because of my physical condition, I have trouble meeting the needs of my family.", "preferredTerm": "FACIT-F Version 4 - Trouble Meeting Needs of Family", "submissionValue": "FAC07103", "synonyms": ["FAC071-Trouble Meeting Needs of Family"]}, {"conceptId": "C129114", "definition": "Functional Assessment of Chronic Illness Therapy-Fatigue Version 4 - Physical Well-Being: I have pain.", "preferredTerm": "FACIT-F Version 4 - I Have Pain", "submissionValue": "FAC07104", "synonyms": ["FAC071-I Have Pain"]}, {"conceptId": "C129115", "definition": "Functional Assessment of Chronic Illness Therapy-Fatigue Version 4 - Physical Well-Being: I am bothered by side effects of treatment.", "preferredTerm": "FACIT-F Version 4 - Bothered by Treatment Side Effect", "submissionValue": "FAC07105", "synonyms": ["FAC071-Bothered by Treatment Side Effect"]}, {"conceptId": "C129116", "definition": "Functional Assessment of Chronic Illness Therapy-Fatigue Version 4 - Physical Well-Being: I feel ill.", "preferredTerm": "FACIT-F Version 4 - I Feel Ill", "submissionValue": "FAC07106", "synonyms": ["FAC071-I Feel Ill"]}, {"conceptId": "C129117", "definition": "Functional Assessment of Chronic Illness Therapy-Fatigue Version 4 - Physical Well-Being: I am forced to spend time in bed.", "preferredTerm": "FACIT-F Version 4 - I Am Forced to Spend Time in Bed", "submissionValue": "FAC07107", "synonyms": ["FAC071-I Am Forced to Spend Time in Bed"]}, {"conceptId": "C129118", "definition": "Functional Assessment of Chronic Illness Therapy-Fatigue Version 4 - Social/Family Well-Being: I feel close to my friends.", "preferredTerm": "FACIT-F Version 4 - I Feel Close to My Friends", "submissionValue": "FAC07108", "synonyms": ["FAC071-I Feel Close to My Friends"]}, {"conceptId": "C129119", "definition": "Functional Assessment of Chronic Illness Therapy-Fatigue Version 4 - Social/Family Well-Being: I get emotional support from my family.", "preferredTerm": "FACIT-F Version 4 - Get Emotional Support From Family", "submissionValue": "FAC07109", "synonyms": ["FAC071-Get Emotional Support From Family"]}, {"conceptId": "C129120", "definition": "Functional Assessment of Chronic Illness Therapy-Fatigue Version 4 - Social/Family Well-Being: I get support from my friends.", "preferredTerm": "FACIT-F Version 4 - I Get Support From My Friends", "submissionValue": "FAC07110", "synonyms": ["FAC071-I Get Support From My Friends"]}, {"conceptId": "C129121", "definition": "Functional Assessment of Chronic Illness Therapy-Fatigue Version 4 - Social/Family Well-Being: My family has accepted my illness.", "preferredTerm": "FACIT-F Version 4 - My Family Has Accepted My Illness", "submissionValue": "FAC07111", "synonyms": ["FAC071-My Family Has Accepted My Illness"]}, {"conceptId": "C129122", "definition": "Functional Assessment of Chronic Illness Therapy-Fatigue Version 4 - Social/Family Well-Being: I am satisfied with family communication about my illness.", "preferredTerm": "FACIT-F Version 4 - Satisfied Family Communication of Illness", "submissionValue": "FAC07112", "synonyms": ["FAC071-Satisfied Communication Illness"]}, {"conceptId": "C129123", "definition": "Functional Assessment of Chronic Illness Therapy-Fatigue Version 4 - Social/Family Well-Being: I feel close to my partner (or the person who is my main support).", "preferredTerm": "FACIT-F Version 4 - I Feel Close to My Partner", "submissionValue": "FAC07113", "synonyms": ["FAC071-I Feel Close to My Partner"]}, {"conceptId": "C129124", "definition": "Functional Assessment of Chronic Illness Therapy-Fatigue Version 4 - Social/Family Well-Being: I am satisfied with my sex life.", "preferredTerm": "FACIT-F Version 4 - I Am Satisfied With My Sex Life", "submissionValue": "FAC07114", "synonyms": ["FAC071-I Am Satisfied With My Sex Life"]}, {"conceptId": "C129125", "definition": "Functional Assessment of Chronic Illness Therapy-Fatigue Version 4 - Emotional Well-Being: I feel sad.", "preferredTerm": "FACIT-F Version 4 - I Feel Sad", "submissionValue": "FAC07115", "synonyms": ["FAC071-I Feel Sad"]}, {"conceptId": "C129126", "definition": "Functional Assessment of Chronic Illness Therapy-Fatigue Version 4 - Emotional Well-Being: I am satisfied with how I am coping with my illness.", "preferredTerm": "FACIT-F Version 4 - Satisfied With How I Am Coping", "submissionValue": "FAC07116", "synonyms": ["FAC071-Satisfied With How I Am Coping"]}, {"conceptId": "C129127", "definition": "Functional Assessment of Chronic Illness Therapy-Fatigue Version 4 - Emotional Well-Being: I am losing hope in the fight against my illness.", "preferredTerm": "FACIT-F Version 4 - Losing Hope Against Illness", "submissionValue": "FAC07117", "synonyms": ["FAC071-Losing Hope Against Illness"]}, {"conceptId": "C129128", "definition": "Functional Assessment of Chronic Illness Therapy-Fatigue Version 4 - Emotional Well-Being: I feel nervous.", "preferredTerm": "FACIT-F Version 4 - I Feel Nervous", "submissionValue": "FAC07118", "synonyms": ["FAC071-I Feel Nervous"]}, {"conceptId": "C129129", "definition": "Functional Assessment of Chronic Illness Therapy-Fatigue Version 4 - Emotional Well-Being: I worry about dying.", "preferredTerm": "FACIT-F Version 4 - I Worry About Dying", "submissionValue": "FAC07119", "synonyms": ["FAC071-I Worry About Dying"]}, {"conceptId": "C129130", "definition": "Functional Assessment of Chronic Illness Therapy-Fatigue Version 4 - Emotional Well-Being: I worry that my condition will get worse.", "preferredTerm": "FACIT-F Version 4 - Worry My Condition Will Get Worse", "submissionValue": "FAC07120", "synonyms": ["FAC071-Worry My Condition Will Get Worse"]}, {"conceptId": "C129131", "definition": "Functional Assessment of Chronic Illness Therapy-Fatigue Version 4 - Functional Well-Being: I am able to work (include work at home).", "preferredTerm": "FACIT-F Version 4 - I Am Able to Work", "submissionValue": "FAC07121", "synonyms": ["FAC071-I Am Able to Work"]}, {"conceptId": "C129132", "definition": "Functional Assessment of Chronic Illness Therapy-Fatigue Version 4 - Functional Well-Being: My work (include work at home) is fulfilling.", "preferredTerm": "FACIT-F Version 4 - My Work Is Fulfilling", "submissionValue": "FAC07122", "synonyms": ["FAC071-My Work Is Fulfilling"]}, {"conceptId": "C129133", "definition": "Functional Assessment of Chronic Illness Therapy-Fatigue Version 4 - Functional Well-Being: I am able to enjoy life.", "preferredTerm": "FACIT-F Version 4 - I Am Able to Enjoy Life", "submissionValue": "FAC07123", "synonyms": ["FAC071-I Am Able to Enjoy Life"]}, {"conceptId": "C129134", "definition": "Functional Assessment of Chronic Illness Therapy-Fatigue Version 4 - Functional Well-Being: I have accepted my illness.", "preferredTerm": "FACIT-F Version 4 - I Have Accepted My Illness", "submissionValue": "FAC07124", "synonyms": ["FAC071-I Have Accepted My Illness"]}, {"conceptId": "C129135", "definition": "Functional Assessment of Chronic Illness Therapy-Fatigue Version 4 - Functional Well-Being: I am sleeping well.", "preferredTerm": "FACIT-F Version 4 - I Am Sleeping Well", "submissionValue": "FAC07125", "synonyms": ["FAC071-I Am Sleeping Well"]}, {"conceptId": "C129136", "definition": "Functional Assessment of Chronic Illness Therapy-Fatigue Version 4 - Functional Well-Being: I am enjoying the things I usually do for fun.", "preferredTerm": "FACIT-F Version 4 - Enjoy Things I Usually Do for Fun", "submissionValue": "FAC07126", "synonyms": ["FAC071-Enjoy Things I Usually Do for Fun"]}, {"conceptId": "C129137", "definition": "Functional Assessment of Chronic Illness Therapy-Fatigue Version 4 - Functional Well-Being: I am content with the quality of my life right now.", "preferredTerm": "FACIT-F Version 4 - Content With Quality of My Life", "submissionValue": "FAC07127", "synonyms": ["FAC071-Content With Quality of My Life"]}, {"conceptId": "C129138", "definition": "Functional Assessment of Chronic Illness Therapy-Fatigue Version 4 - Additional Concerns: I feel fatigued.", "preferredTerm": "FACIT-F Version 4 - I Feel Fatigued", "submissionValue": "FAC07128", "synonyms": ["FAC071-I Feel Fatigued"]}, {"conceptId": "C129139", "definition": "Functional Assessment of Chronic Illness Therapy-Fatigue Version 4 - Additional Concerns: I feel weak all over.", "preferredTerm": "FACIT-F Version 4 - I Feel Weak All Over", "submissionValue": "FAC07129", "synonyms": ["FAC071-I Feel Weak All Over"]}, {"conceptId": "C129140", "definition": "Functional Assessment of Chronic Illness Therapy-Fatigue Version 4 - Additional Concerns: I feel listless ('washed out').", "preferredTerm": "FACIT-F Version 4 - I Feel Listless", "submissionValue": "FAC07130", "synonyms": ["FAC071-I Feel Listless"]}, {"conceptId": "C129141", "definition": "Functional Assessment of Chronic Illness Therapy-Fatigue Version 4 - Additional Concerns: I feel tired.", "preferredTerm": "FACIT-F Version 4 - I Feel Tired", "submissionValue": "FAC07131", "synonyms": ["FAC071-I Feel Tired"]}, {"conceptId": "C129142", "definition": "Functional Assessment of Chronic Illness Therapy-Fatigue Version 4 - Additional Concerns: I have trouble starting things because I am tired.", "preferredTerm": "FACIT-F Version 4 - Trouble Starting Things", "submissionValue": "FAC07132", "synonyms": ["FAC071-Trouble Starting Things"]}, {"conceptId": "C129143", "definition": "Functional Assessment of Chronic Illness Therapy-Fatigue Version 4 - Additional Concerns: I have trouble finishing things because I am tired.", "preferredTerm": "FACIT-F Version 4 - Trouble Finishing Things", "submissionValue": "FAC07133", "synonyms": ["FAC071-Trouble Finishing Things"]}, {"conceptId": "C129144", "definition": "Functional Assessment of Chronic Illness Therapy-Fatigue Version 4 - Additional Concerns: I have energy.", "preferredTerm": "FACIT-F Version 4 - I Have Energy", "submissionValue": "FAC07134", "synonyms": ["FAC071-I Have Energy"]}, {"conceptId": "C129145", "definition": "Functional Assessment of Chronic Illness Therapy-Fatigue Version 4 - Additional Concerns: I am able to do my usual activities.", "preferredTerm": "FACIT-F Version 4 - Able to Do My Usual Activities", "submissionValue": "FAC07135", "synonyms": ["FAC071-Able to Do My Usual Activities"]}, {"conceptId": "C129146", "definition": "Functional Assessment of Chronic Illness Therapy-Fatigue Version 4 - Additional Concerns: I need to sleep during the day.", "preferredTerm": "FACIT-F Version 4 - I Need to Sleep During the Day", "submissionValue": "FAC07136", "synonyms": ["FAC071-I Need to Sleep During the Day"]}, {"conceptId": "C129147", "definition": "Functional Assessment of Chronic Illness Therapy-Fatigue Version 4 - Additional Concerns: I am too tired to eat.", "preferredTerm": "FACIT-F Version 4 - I Am Too Tired to Eat", "submissionValue": "FAC07137", "synonyms": ["FAC071-I Am Too Tired to Eat"]}, {"conceptId": "C129148", "definition": "Functional Assessment of Chronic Illness Therapy-Fatigue Version 4 - Additional Concerns: I need help doing my usual activities.", "preferredTerm": "FACIT-F Version 4 - Need Help Doing Usual Activities", "submissionValue": "FAC07138", "synonyms": ["FAC071-Need Help Doing Usual Activities"]}, {"conceptId": "C129149", "definition": "Functional Assessment of Chronic Illness Therapy-Fatigue Version 4 - Additional Concerns: I am frustrated by being too tired to do the things I want to do.", "preferredTerm": "FACIT-F Version 4 - Frustrated by Being Too Tired", "submissionValue": "FAC07139", "synonyms": ["FAC071-Frustrated by Being Too Tired"]}, {"conceptId": "C129150", "definition": "Functional Assessment of Chronic Illness Therapy-Fatigue Version 4 - Additional Concerns: I have to limit my social activity because I am tired.", "preferredTerm": "FACIT-F Version 4 - Limit Social Activity, I am Tired", "submissionValue": "FAC07140", "synonyms": ["FAC071-Limit Social Activity, I am Tired"]}, {"conceptId": "C166341", "definition": "Functional Assessment of Chronic Illness Therapy-Fatigue Version 4 - Physical Well-Being: Subscale score.", "preferredTerm": "FACIT-F Version 4 - Physical Subscale Score", "submissionValue": "FAC07141", "synonyms": ["FAC071-Physical Subscale Score"]}, {"conceptId": "C166342", "definition": "Functional Assessment of Chronic Illness Therapy-Fatigue Version 4 - Socia/Family Well-Being: Subscale score.", "preferredTerm": "FACIT-F Version 4 - Social/Family Subscale Score", "submissionValue": "FAC07142", "synonyms": ["FAC071-Social/Family Subscale Score"]}, {"conceptId": "C166343", "definition": "Functional Assessment of Chronic Illness Therapy-Fatigue Version 4 - Emotional Well-Being: Subscale score.", "preferredTerm": "FACIT-F Version 4 - Emotional Subscale Score", "submissionValue": "FAC07143", "synonyms": ["FAC071-Emotional Subscale Score"]}, {"conceptId": "C166344", "definition": "Functional Assessment of Chronic Illness Therapy-Fatigue Version 4 - Functional Well-Being: Subscale score.", "preferredTerm": "FACIT-F Version 4 - Functional Subscale Score", "submissionValue": "FAC07144", "synonyms": ["FAC071-Functional Subscale Score"]}, {"conceptId": "C166345", "definition": "Functional Assessment of Chronic Illness Therapy-Fatigue Version 4 - Additional Concerns: Subscale score.", "preferredTerm": "FACIT-F Version 4 - Additional Concern Subscale Score", "submissionValue": "FAC07145", "synonyms": ["FAC071-Additional Concern Subscale Score"]}, {"conceptId": "C166346", "definition": "Functional Assessment of Chronic Illness Therapy-Fatigue Version 4 - Trial outcome index score.", "preferredTerm": "FACIT-F Version 4 - Trial Outcome Index Score", "submissionValue": "FAC07146", "synonyms": ["FAC071-Trial Outcome Index Score"]}, {"conceptId": "C166347", "definition": "Functional Assessment of Chronic Illness Therapy-Fatigue Version 4 - FACT-G total score.", "preferredTerm": "FACIT-F Version 4 - FACT-G Total Score", "submissionValue": "FAC07147", "synonyms": ["FAC071-FACT-G Total Score"]}, {"conceptId": "C166348", "definition": "Functional Assessment of Chronic Illness Therapy-Fatigue Version 4 - Total score.", "preferredTerm": "FACIT-F Version 4 - Total Score", "submissionValue": "FAC07148", "synonyms": ["FAC071-Total Score"]}]}