{"_links": {"parentPackage": {"href": "/mdr/ct/packages/sdtmct-2021-09-24", "title": "SDTM Controlled Terminology Package 47 Effective 2021-09-24", "type": "Terminology"}, "priorVersion": {"href": "/mdr/ct/packages/sdtmct-2021-06-25/codelists/C129939", "title": "CDISC SDTM Diabetic Kidney Findings About Test Name Terminology", "type": "Code List"}, "rootItem": {"href": "/mdr/root/ct/sdtmct/codelists/C129939", "title": "Version-agnostic anchor resource for codelist C129939", "type": "Root Value Domain"}, "self": {"href": "/mdr/ct/packages/sdtmct-2021-09-24/codelists/C129939", "title": "CDISC SDTM Diabetic Kidney Findings About Test Name Terminology", "type": "Code List"}}, "conceptId": "C129939", "definition": "Terminology relevant to the test names that describe findings about a diabetic kidney disease event or intervention.", "extensible": "true", "name": "Diabetic Kidney Disease Findings About Test Name", "preferredTerm": "CDISC SDTM Diabetic Kidney Findings About Test Name Terminology", "submissionValue": "DKFATS", "synonyms": ["Diabetic Kidney Disease Findings About Test Name"], "terms": [{"conceptId": "C130057", "definition": "The total number of events that have occurred.", "preferredTerm": "Number of Events", "submissionValue": "Number of Events", "synonyms": ["Number of Events"]}]}