{"_links": {"parentPackage": {"href": "/mdr/ct/packages/sdtmct-2021-09-24", "title": "SDTM Controlled Terminology Package 47 Effective 2021-09-24", "type": "Terminology"}, "priorVersion": {"href": "/mdr/ct/packages/sdtmct-2021-06-25/codelists/C132262", "title": "CDISC SDTM Microscopic Findings Test Name Terminology", "type": "Code List"}, "rootItem": {"href": "/mdr/root/ct/sdtmct/codelists/C132262", "title": "Version-agnostic anchor resource for codelist C132262", "type": "Root Value Domain"}, "self": {"href": "/mdr/ct/packages/sdtmct-2021-09-24/codelists/C132262", "title": "CDISC SDTM Microscopic Findings Test Name Terminology", "type": "Code List"}}, "conceptId": "C132262", "definition": "Terminology for the test names concerned with the clinical findings from a specimen that are visible by microscopic analysis.", "extensible": "true", "name": "SDTM Microscopic Findings Test Name", "preferredTerm": "CDISC SDTM Microscopic Findings Test Name Terminology", "submissionValue": "MITS", "synonyms": ["SDTM Microscopic Findings Test Name"], "terms": [{"conceptId": "C111124", "definition": "A measurement of the abnormal cells in a biological specimen.", "preferredTerm": "Abnormal Cell Count", "submissionValue": "Abnormal Cells", "synonyms": ["Abnormal Cells"]}, {"conceptId": "C181485", "definition": "An evaluation of acidophil bodies in a biological specimen.", "preferredTerm": "Acidophil Body Assessment", "submissionValue": "Acidophil Body", "synonyms": ["Acidophil Bodies", "Acidophil Body"]}, {"conceptId": "C154805", "definition": "A measurement of the ALK receptor tyrosine kinase in a biological specimen.", "preferredTerm": "ALK Protein Measurement", "submissionValue": "ALK Protein", "synonyms": ["ALK Protein"]}, {"conceptId": "C132364", "definition": "A measurement of the alpha-methylacyl coenzyme A racemase in a biological specimen.", "preferredTerm": "Alpha-Methylacyl Coenzyme A Racemase Measurement", "submissionValue": "Alpha-Methylacyl Coenzyme A Racemase", "synonyms": ["Alpha-Methylacyl Coenzyme A Racemase"]}, {"conceptId": "C181495", "definition": "A measurement of the apoptotic cells in a biological specimen.", "preferredTerm": "Apoptotic Cell Count", "submissionValue": "Apoptotic Cells", "synonyms": ["Apoptotic Cells"]}, {"conceptId": "C181494", "definition": "A relative measurement (ratio or percentage) of the apoptotic cells to total cells in a biological specimen.", "preferredTerm": "Apoptotic Cell to Total Cell Count", "submissionValue": "Apoptotic Cells/Total Cells", "synonyms": ["Apoptotic Cells/Total Cells"]}, {"conceptId": "C178037", "definition": "An evaluation of tissue architectural changes in a biological specimen.", "preferredTerm": "Architectural Changes Assessment", "submissionValue": "Architectural Changes", "synonyms": ["Architectural Changes"]}, {"conceptId": "C135463", "definition": "An evaluation of the arteriolar hyaline thickening of vessels in a biological specimen.", "preferredTerm": "Arteriolar Hyaline Thickening Assessment", "submissionValue": "Arteriolar Hyaline Thickening", "synonyms": ["Arteriolar Hyaline Thickening"]}, {"conceptId": "C135464", "definition": "The histologic evaluation and diagnosis of the type of renal allograft rejection based on kidney biopsies and the Banff Working Classification from the Banff Foundation for Allograft Pathology. (NCI)", "preferredTerm": "Banff Renal Diagnostic Category Assessment", "submissionValue": "Banff Diagnostic Category Renal", "synonyms": ["Banff Diagnostic Category Renal"]}, {"conceptId": "C156546", "definition": "A measurement of the beta-defensin 1 in a biological specimen.", "preferredTerm": "Beta-defensin 1 Measurement", "submissionValue": "Beta-defensin 1", "synonyms": ["Beta-defensin 1"]}, {"conceptId": "C122102", "definition": "A measurement of the beta-defensin 2 in a biological specimen.", "preferredTerm": "Beta-defensin 2 Measurement", "submissionValue": "Beta-defensin 2", "synonyms": ["Beta-defensin 2"]}, {"conceptId": "C156545", "definition": "An evaluation of the blood vessel density in a biological specimen.", "preferredTerm": "Blood Vessel Density", "submissionValue": "Blood Vessel Density", "synonyms": ["Blood Vessel Density"]}, {"conceptId": "C139099", "definition": "A measurement of the bradykinin receptor B1 in a biological specimen.", "preferredTerm": "Bradykinin Receptor B1 Measurement", "submissionValue": "Bradykinin Receptor B1", "synonyms": ["BK-1 Receptor", "Bradykinin Receptor B1"]}, {"conceptId": "C123555", "definition": "A measurement of BRCA1 protein in a biological specimen.", "preferredTerm": "Breast Cancer Type 1 Susceptibility Protein Measurement", "submissionValue": "Breast Cancer Type 1 Susceptibility Prot", "synonyms": ["Breast Cancer Type 1 Susceptibility Prot"]}, {"conceptId": "C123556", "definition": "A relative measurement (ratio or percentage) of the neoplastic cells to total cells in a biological specimen.", "preferredTerm": "Cancer Cellularity Measurement", "submissionValue": "Cancer Cellularity", "synonyms": ["Cancer Cellularity"]}, {"conceptId": "C103809", "definition": "A count of the CD3 expressing cells per unit in a biological specimen.", "preferredTerm": "CD3 Expressing Cell Count", "submissionValue": "CD3", "synonyms": ["CD3"]}, {"conceptId": "C103810", "definition": "A count of the CD4 expressing cells per unit in a biological specimen.", "preferredTerm": "CD4 Expressing Cell Count", "submissionValue": "CD4", "synonyms": ["CD4"]}, {"conceptId": "C103370", "definition": "A count of the CD56 expressing cells per unit of a biological specimen.", "preferredTerm": "CD56 Expressing Cell Measurement", "submissionValue": "CD56", "synonyms": ["CD56"]}, {"conceptId": "C156544", "definition": "A count of the CD68 expressing cells per unit in a biological specimen.", "preferredTerm": "CD68 Expressing Cell Count", "submissionValue": "CD68", "synonyms": ["CD68"]}, {"conceptId": "C103811", "definition": "A count of the CD8 expressing cells per unit in a biological specimen.", "preferredTerm": "CD8 Expressing Cell Count", "submissionValue": "CD8", "synonyms": ["CD8"]}, {"conceptId": "C139098", "definition": "A measurement of the CDX2 antigen in a biological specimen.", "preferredTerm": "CDX2 Antigen Measurement", "submissionValue": "CDX2 Antigen", "synonyms": ["CDX2 Antigen"]}, {"conceptId": "C132430", "definition": "An evaluation of cellular maturity and specialization in a biological specimen.", "preferredTerm": "Cellular Differentiation Assessment", "submissionValue": "Cellular Differentiation", "synonyms": ["Cellular Differentiation"]}, {"conceptId": "C178042", "definition": "An evaluation of chronic inflammatory infiltrate in a biological specimen.", "preferredTerm": "Chronic Inflammatory Infiltrate Assessment", "submissionValue": "Chronic Inflammatory Infiltrate", "synonyms": ["Chronic Inflammatory Infiltrate"]}, {"conceptId": "C176336", "definition": "An evaluation of crypt abscess in a biological specimen.", "preferredTerm": "Crypt Abscess Assessment", "submissionValue": "Crypt Abscess", "synonyms": ["Crypt Abscess"]}, {"conceptId": "C176337", "definition": "An evaluation of the extent of the architectural damage to the crypts in a biological specimen.", "preferredTerm": "Crypt Architectural Damage Assessment", "submissionValue": "Crypt Architectural Damage", "synonyms": ["Crypt Architectural Damage"]}, {"conceptId": "C176335", "definition": "An evaluation of cryptitis in a biological specimen.", "preferredTerm": "Cryptitis Assessment", "submissionValue": "Cryptitis", "synonyms": ["Cryptitis"]}, {"conceptId": "C18280", "definition": "An assessment by microscopic analysis of chromosomal and subchromosomal structure and function.", "preferredTerm": "Cytogenetic Analysis", "submissionValue": "Cytogenetic Examination", "synonyms": ["Cytogenetic Examination"]}, {"conceptId": "C127763", "definition": "A measurement of the cytokeratin 16 in a biological specimen.", "preferredTerm": "Cytokeratin 16 Measurement", "submissionValue": "Cytokeratin 16", "synonyms": ["Cytokeratin 16"]}, {"conceptId": "C127764", "definition": "A measurement of the dendritic cell-lysosomal-associated membrane protein in a biological specimen.", "preferredTerm": "Dendritic Cell Lysosomal-Associated Membrane Protein Measurement", "submissionValue": "Dendritic Cell-Lysosomal-Assoc Memb Prot", "synonyms": ["Dendritic Cell-Lysosomal-Assoc Memb Prot"]}, {"conceptId": "C15220", "definition": "The investigation, analysis and recognition of the presence and nature of disease, condition, or injury from expressed signs and symptoms; also, the scientific determination of any kind; the concise results or summary of such an investigation. (NCI)", "preferredTerm": "Diagnosis", "submissionValue": "Diagnosis", "synonyms": ["Diagnostic"]}, {"conceptId": "C181656", "definition": "A measurement of ecto-5'-nucleotidase in a biological specimen.", "preferredTerm": "Ecto-5'-Nucleotidase Measurement", "submissionValue": "Ecto-5'-Nucleotidase", "synonyms": ["5'-NT", "5'-Nucleotidase", "5'-Nucleotidase Ecto", "CD73", "E5NT", "Ecto-5'-Nucleotidase"]}, {"conceptId": "C154806", "definition": "A measurement of the EGFR protein with a specified variation(s) (mutations, deletions, insertions, etc.) in a biological specimen.", "preferredTerm": "EGFR Variant Protein Measurement", "submissionValue": "EGFR Variant Protein", "synonyms": ["EGFR Variant Protein"]}, {"conceptId": "C156547", "definition": "A relative measurement (ratio or percentage) of the intact epithelial reticular basement membrane length to the total epithelial reticular basement membrane length in a biological specimen.", "preferredTerm": "Intact Epithelial Reticular Basement Membrane Length to Total Epithelial Reticular Basement Membrane Length Ratio Measurement", "submissionValue": "Epi RBM Lngth, Intact/Epi RBM Lngth, Tot", "synonyms": ["Epi RBM Lngth, Intact/Epi RBM Lngth, Tot", "Epithelial RBM Length, Intact/Epithelial RBM Length, Total"]}, {"conceptId": "C112273", "definition": "A measurement of the epidermal growth factor receptor in a biological specimen.", "preferredTerm": "Epidermal Growth Factor Receptor Measurement", "submissionValue": "Epidermal Growth Factor Receptor", "synonyms": ["ERBB1", "Epidermal Growth Factor Receptor", "HER1"]}, {"conceptId": "C178036", "definition": "An evaluation of epithelial damage in a biological specimen.", "preferredTerm": "Epithelial Damage Assessment", "submissionValue": "Epithelial Damage", "synonyms": ["Epithelial Damage"]}, {"conceptId": "C176338", "definition": "An evaluation of the integrity of the epithelium in a biological specimen.", "preferredTerm": "Epithelial Integrity Assessment", "submissionValue": "Epithelial Integrity", "synonyms": ["Epithelial Integrity"]}, {"conceptId": "C178045", "definition": "An evaluation of the erosion and/or ulceration in a biological specimen.", "preferredTerm": "Erosion and/or Ulceration Assessment", "submissionValue": "Erosion and/or Ulceration", "synonyms": ["Erosion and/or Ulceration"]}, {"conceptId": "C112274", "definition": "A measurement of estrogen receptor protein in a biological specimen.", "preferredTerm": "Estrogen Receptor Measurement", "submissionValue": "Estrogen Receptor", "synonyms": ["ER", "ESR", "Estrogen Receptor", "Oestrogen Receptor"]}, {"conceptId": "C127765", "definition": "An evaluation of fibrosis in a biological specimen.", "preferredTerm": "Fibrosis Assessment", "submissionValue": "Fibrosis", "synonyms": ["Fibrosis"]}, {"conceptId": "C132431", "definition": "A measurement of the folate hydrolase 1 in a biological specimen.", "preferredTerm": "Folate Hydrolase 1 Measurement", "submissionValue": "Folate Hydrolase 1", "synonyms": ["Folate Hydrolase 1"]}, {"conceptId": "C166072", "definition": "A measurement of the forkhead box protein 3 in a biological specimen.", "preferredTerm": "Forkhead Box Protein P3 Measurement", "submissionValue": "Forkhead Box Protein 3", "synonyms": ["AIID", "DIETER", "Forkhead Box P3", "Forkhead Box Protein 3", "IPEX", "JM2", "PIDX", "SCURFIN", "XPID"]}, {"conceptId": "C135465", "definition": "An evaluation of glomerulitis in a biological specimen.", "preferredTerm": "Glomerulitis Assessment", "submissionValue": "Glomerulitis", "synonyms": ["Glomerulitis"]}, {"conceptId": "C135466", "definition": "An evaluation of glomerulopathy in a biological specimen.", "preferredTerm": "Glomerulopathy Assessment", "submissionValue": "Glomerulopathy", "synonyms": ["Glomerulopathy"]}, {"conceptId": "C176334", "definition": "An evaluation of granuloma(s) in a biological specimen.", "preferredTerm": "Granuloma Assessment", "submissionValue": "Granuloma", "synonyms": ["Granuloma"]}, {"conceptId": "C166073", "definition": "A measurement of the granzyme B in a biological specimen.", "preferredTerm": "Granzyme B Measurement", "submissionValue": "Granzyme B", "synonyms": ["C11", "CCPI", "CGL1", "CSPB", "CTLA1", "CTSGL1", "Granzyme B", "HLP", "SECT"]}, {"conceptId": "C181484", "definition": "An evaluation of hepatocellular ballooning in a biological specimen.", "preferredTerm": "Hepatocellular Ballooning Assessment", "submissionValue": "Hepatocellular Ballooning", "synonyms": ["Ballooning Degeneration", "Hepatocellular Ballooning"]}, {"conceptId": "C172514", "definition": "A measurement of the hepatocyte growth factor receptor in a biological specimen.", "preferredTerm": "Hepatocyte Growth Factor Receptor Measurement", "submissionValue": "Hepatocyte Growth Factor Receptor", "synonyms": ["Hepatocyte Growth Factor Receptor", "MET Proto-Oncogene, Receptor Tyrosine Kinase", "Tyrosine-Protein Kinase Met", "c-Met"]}, {"conceptId": "C154802", "definition": "The determination of the histologic type of cancer in a biological specimen.", "preferredTerm": "Histologic Type of Cancer", "submissionValue": "Histologic Type of Cancer", "synonyms": ["Histologic Type of Cancer"]}, {"conceptId": "C112312", "definition": "A measurement of HER2 protein in a biological specimen.", "preferredTerm": "Human Epidermal Growth Factor Receptor 2 Measurement", "submissionValue": "Human Epidermal Growth Factor Receptor 2", "synonyms": ["ERBB2", "HER2/NEU", "Human Epidermal Growth Factor Receptor 2"]}, {"conceptId": "C178038", "definition": "An evaluation of infiltration of mononuclear cells in the lamina propria in a biological specimen.", "preferredTerm": "Infiltration of Mononuclear Cells in Lamina Propria Assessment", "submissionValue": "Infilt of Mono Cells in Lamina Propria", "synonyms": ["Infilt of Mono Cells in Lamina Propria", "Infiltration of Mononuclear Cells in Lamina Propria"]}, {"conceptId": "C178039", "definition": "An evaluation of infiltration of polymorphonuclear cells in the lamina propria in a biological specimen.", "preferredTerm": "Infiltration of Polymorphonuclear Cells in Lamina Propria Assessment", "submissionValue": "Infilt of PMN Cells in Lamina Propria", "synonyms": ["Infilt of PMN Cells in Lamina Propria", "Infiltration of Polymorphonuclear Cells in Lamina Propria"]}, {"conceptId": "C124345", "definition": "A measurement of the intercellular adhesion molecule 1 in a biological specimen.", "preferredTerm": "Intercellular Adhesion Molecule 1 Measurement", "submissionValue": "Intercellular Adhesion Molecule 1", "synonyms": ["CD54", "Intercellular Adhesion Molecule 1"]}, {"conceptId": "C135468", "definition": "An evaluation of interstitial fibrosis in a biological specimen.", "preferredTerm": "Interstitial Fibrosis Assessment", "submissionValue": "Interstitial Fibrosis", "synonyms": ["Interstitial Fibrosis"]}, {"conceptId": "C135467", "definition": "An evaluation of intimal arteritis in a biological specimen.", "preferredTerm": "Intimal Arteritis Assessment", "submissionValue": "Intimal Arteritis", "synonyms": ["Intimal Arteritis"]}, {"conceptId": "C142347", "definition": "A measurement of the intraepidermal nerve fiber density in a biological specimen.", "preferredTerm": "Intraepidermal Nerve Fiber Density", "submissionValue": "Intraepidermal Nerve Fiber Density", "synonyms": ["Intraepidermal Nerve Fiber Density"]}, {"conceptId": "C178035", "definition": "A relative measurement (ratio or percentage) of the lymphocytes to enterocytes within the epithelium of a biological specimen.", "preferredTerm": "Intraepithelial Lymphocytes to Enterocytes Ratio Measurement", "submissionValue": "Intraepithelial Lymphocytes/Enterocytes", "synonyms": ["Epithelial Lymphocytes/Enterocytes", "Intraepithelial Lymphocytes/Enterocytes"]}, {"conceptId": "C181490", "definition": "An evaluation of intraepithelial neoplasia in a biological specimen.", "preferredTerm": "Intraepithelial Neoplasia Assessment", "submissionValue": "Intraepithelial Neoplasia", "synonyms": ["Epithelial Neoplasia", "Intraepithelial Neoplasia"]}, {"conceptId": "C123557", "definition": "A measurement of the Ki-67 protein in a biological specimen.", "preferredTerm": "Ki67 Measurement", "submissionValue": "Ki-67", "synonyms": ["KI67", "Ki-67", "MKI67", "pKi-67"]}, {"conceptId": "C181482", "definition": "An evaluation of large lipogranuloma in a biological specimen.", "preferredTerm": "Large Lipogranuloma Assessment", "submissionValue": "Large Lipogranuloma", "synonyms": ["Large Lipogranuloma"]}, {"conceptId": "C106539", "definition": "A measurement of lipocalin-2 in a biological specimen.", "preferredTerm": "Lipocalin-2 Measurement", "submissionValue": "Lipocalin-2", "synonyms": ["Lipocalin-2", "NGAL", "Neutrophil Gelatinase-Associated Lipocalin", "Oncogene 24p3"]}, {"conceptId": "C181480", "definition": "An evaluation of lobular inflammation in a biological specimen.", "preferredTerm": "Lobular Inflammation Assessment", "submissionValue": "Lobular Inflammation", "synonyms": ["Lobular Inflammation"]}, {"conceptId": "C181493", "definition": "An indication as to whether cancer is present in the lymph nodes.", "preferredTerm": "Lymph Node Involvement Indicator", "submissionValue": "Lymph Node Involvement Indicator", "synonyms": ["Lymph Node Involvement Indicator"]}, {"conceptId": "C124448", "definition": "A condition or state of a lymph node at a particular time.", "preferredTerm": "Lymph Node State", "submissionValue": "Lymph Node State", "synonyms": ["Lymph Node State"]}, {"conceptId": "C127766", "definition": "An evaluation of lymphatic invasion in a biological specimen.", "preferredTerm": "Lymphatic Invasion Assessment", "submissionValue": "Lymphatic Invasion", "synonyms": ["Lymphatic Invasion"]}, {"conceptId": "C176341", "definition": "A measurement of the lymphocyte function-associated antigen 1 in a biological specimen.", "preferredTerm": "Lymphocyte Function-Associated Antigen 1 Measurement", "submissionValue": "Lymphocyte Function-Associated Antigen 1", "synonyms": ["Lymphocyte Function-Associated Antigen 1"]}, {"conceptId": "C181486", "definition": "An evaluation of pigmented macrophages in a biological specimen.", "preferredTerm": "Pigmented Macrophage Assessment", "submissionValue": "Macrophage, Pigmented", "synonyms": ["Macrophage, Pigmented", "Pigmented Macrophage"]}, {"conceptId": "C181488", "definition": "An evaluation of Mallory bodies in a biological specimen.", "preferredTerm": "Mallory Body Assessment", "submissionValue": "Mallory Body", "synonyms": ["Mallory Body", "Mallory Hyaline", "Mallory's Hyaline", "Mallory-Denk Body"]}, {"conceptId": "C181487", "definition": "An evaluation of megamitochondria in a biological specimen.", "preferredTerm": "Megamitochondria Assessment", "submissionValue": "Megamitochondria", "synonyms": ["Megamitochondria"]}, {"conceptId": "C135471", "definition": "An evaluation of mesangial matrix in a biological specimen.", "preferredTerm": "Mesangial Matrix Assessment", "submissionValue": "Mesangial Matrix", "synonyms": ["Mesangial Matrix"]}, {"conceptId": "C181481", "definition": "An evaluation of microgranuloma in a biological specimen.", "preferredTerm": "Microgranuloma Assessment", "submissionValue": "Microgranuloma", "synonyms": ["Microgranuloma"]}, {"conceptId": "C90424", "definition": "An assessment by microscope (e.g., light, electron, confocal, etc.).", "preferredTerm": "Microscopic Examination", "submissionValue": "Microscopic Examination", "synonyms": ["Microscopic Examination"]}, {"conceptId": "C181479", "definition": "An evaluation of microvesicular steatosis in a biological specimen.", "preferredTerm": "Microvesicular Steatosis Assessment", "submissionValue": "Microvesicular Steatosis", "synonyms": ["Microvesicular Steatosis"]}, {"conceptId": "C139093", "definition": "The determination of the meaning of protein expression assessments across multiple mismatch repair proteins.", "preferredTerm": "Mismatch Repair Proteins Interpretation", "submissionValue": "Mismatch Repair Proteins Interpretation", "synonyms": ["Mismatch Repair Proteins Interpretation"]}, {"conceptId": "C135470", "definition": "A measurement of the cells containing mitotic figures in a biological specimen.", "preferredTerm": "Mitotic Figure Assessment", "submissionValue": "Mitotic Figure", "synonyms": ["Mitotic Figure", "Mitotic Figures"]}, {"conceptId": "C138982", "definition": "An evaluation of the mitotic score in a biological specimen.", "preferredTerm": "Mitotic Rate Score", "submissionValue": "Mitotic Score", "synonyms": ["Mitotic Count Score", "Mitotic Score"]}, {"conceptId": "C135469", "definition": "An evaluation of mononuclear cell interstitial inflammation in a biological specimen.", "preferredTerm": "Mononuclear Cell Interstitial Inflammation Assessment", "submissionValue": "Mononuc Cell Interstitial Inflammation", "synonyms": ["Mononuc Cell Interstitial Inflammation"]}, {"conceptId": "C154757", "definition": "A measurement of the mononuclear cells in a biological specimen.", "preferredTerm": "Mononuclear Cell Count", "submissionValue": "Mononuclear Cells", "synonyms": ["Mononuclear Cells", "Mononucleated Cells"]}, {"conceptId": "C139094", "definition": "A measurement of the MLH1 mismatch repair protein in a biological specimen.", "preferredTerm": "MutL Homolog 1 Measurement", "submissionValue": "MutL Homolog 1", "synonyms": ["MutL Homolog 1"]}, {"conceptId": "C139095", "definition": "A measurement of the MSH2 mismatch repair protein in a biological specimen.", "preferredTerm": "MutS Homolog 2 Measurement", "submissionValue": "MutS Homolog 2", "synonyms": ["MutS Homolog 2"]}, {"conceptId": "C139096", "definition": "A measurement of the MSH6 mismatch repair protein in a biological specimen.", "preferredTerm": "MutS Homolog 6 Measurement", "submissionValue": "MutS Homolog 6", "synonyms": ["MutS Homolog 6"]}, {"conceptId": "C154803", "definition": "An evaluation of myelofibrosis in a biological specimen.", "preferredTerm": "Myelofibrosis Assessment", "submissionValue": "Myelofibrosis", "synonyms": ["Myelofibrosis"]}, {"conceptId": "C178044", "definition": "An evaluation of neutrophils in the epithelium in a biological specimen.", "preferredTerm": "Neutrophils in Epithelium Assessment", "submissionValue": "Neutrophils in Epithelium", "synonyms": ["Neutrophils in Epithelium"]}, {"conceptId": "C178043", "definition": "An evaluation of neutrophils in the lamina propria in a biological specimen.", "preferredTerm": "Neutrophils in Lamina Propria Assessment", "submissionValue": "Neutrophils in Lamina Propria", "synonyms": ["Lamina Propria Neutrophils", "Neutrophils in Lamina Propria"]}, {"conceptId": "C123558", "definition": "A measurement of NK2 homeobox 1 protein in a biological specimen.", "preferredTerm": "NK2 Homeobox 1 Measurement", "submissionValue": "NK2 Homeobox 1", "synonyms": ["NK2 Homeobox 1", "TEBP", "TTF1", "Thyroid Transcription Factor 1"]}, {"conceptId": "C127767", "definition": "A relative measurement (ratio or percentage) of the normal cells to total cells in a biological specimen.", "preferredTerm": "Normal Cell to Total Cell Ratio Measurement", "submissionValue": "Normal Cells/Total Cells", "synonyms": ["Normal Cells/Total Cells"]}, {"conceptId": "C181492", "definition": "An evaluation of nuclear pleomorphism in a biological specimen.", "preferredTerm": "Nuclear Pleomorphism Assessment", "submissionValue": "Nuclear Pleomorphism", "synonyms": ["Nuclear Pleomorphism"]}, {"conceptId": "C181489", "definition": "An evaluation of glycogenated nuclei in a biological specimen.", "preferredTerm": "Glycogenated Nuclei Assessment", "submissionValue": "Nuclei, Glycogenated", "synonyms": ["Glycogenated Nuclei", "Nuclei, Glycogenated"]}, {"conceptId": "C176340", "definition": "The total number of tissue samples in which a pathological abnormality has been observed.", "preferredTerm": "Number of Abnormal Tissue Samples", "submissionValue": "Number of Abnormal Tissue Samples", "synonyms": ["Number of Abnormal Tissue Samples"]}, {"conceptId": "C178041", "definition": "The total number of biopsy specimens in which a finding has been observed.", "preferredTerm": "Number of Biopsy Specimens Affected", "submissionValue": "Number of Biopsy Specimens Affected", "synonyms": ["Number of Biopsy Specimens Affected"]}, {"conceptId": "C139092", "definition": "A measurement of the total number of core biopsies that contain malignant tissue. (NCI)", "preferredTerm": "Number of Malignant Biopsy Cores", "submissionValue": "Number of Malignant Biopsy Cores", "synonyms": ["Number of Malignant Biopsy Cores"]}, {"conceptId": "C18000", "definition": "An assigned tumor grade based on a defined scoring system.", "preferredTerm": "Histologic Grade", "submissionValue": "Overall Tumor Grade", "synonyms": ["Overall Tumor Grade", "Tumor Grade"]}, {"conceptId": "C179766", "definition": "A measurement of the p16-INK4A in a biological specimen.", "preferredTerm": "p16-INK4A Measurement", "submissionValue": "p16-INK4A", "synonyms": ["CDK4I", "Cyclin Dependent Kinase Inhibitor 2A p16", "p16", "p16 Inhibitors of CDK4", "p16-INK4a"]}, {"conceptId": "C176339", "definition": "An evaluation of paneth cell metaplasia in a biological specimen.", "preferredTerm": "Paneth Cell Metaplasia Assessment", "submissionValue": "Paneth Cell Metaplasia", "synonyms": ["Paneth Cell Metaplasia"]}, {"conceptId": "C142348", "definition": "A measurement of the PAX3-FKHR fusion protein in a biological specimen.", "preferredTerm": "PAX3-FKHR Fusion Protein Measurement", "submissionValue": "PAX3-FKHR Fusion Protein", "synonyms": ["PAX3-FKHR Fusion Protein"]}, {"conceptId": "C123559", "definition": "A relative measurement (percentage) of in situ component present in a carcinoma compared to the entire malignant cellular proliferation. (NCI)", "preferredTerm": "Percentage of in situ Carcinoma", "submissionValue": "Percentage of In situ Carcinoma", "synonyms": ["Percentage of In situ Carcinoma"]}, {"conceptId": "C127768", "definition": "An evaluation of perineural invasion in a biological specimen.", "preferredTerm": "Perineural Invasion Assessment", "submissionValue": "Perineural Invasion", "synonyms": ["Perineural Invasion"]}, {"conceptId": "C135473", "definition": "An evaluation of peritubular capillaritis in a biological specimen.", "preferredTerm": "Peritubular Capillaritis Assessment", "submissionValue": "Peritubular Capillaritis", "synonyms": ["Peritubular Capillaritis"]}, {"conceptId": "C147470", "definition": "A measurement of the phosphatase and tensin homolog in a biological specimen.", "preferredTerm": "Phosphatase and Tensin Homolog Measurement", "submissionValue": "Phosphatase and Tensin Homolog", "synonyms": ["Phosphatase and Tensin Homolog"]}, {"conceptId": "C135472", "definition": "A measurement of the platelet and endothelial cell adhesion molecule 1 in a biological specimen.", "preferredTerm": "Platelet Endothelial Cell Adhesion Molecule 1 Measurement", "submissionValue": "Platelet Endo Cell Adhesion Molecule 1", "synonyms": ["CD31", "CD31 Antigen", "PECAM", "PECAM-1", "PECAM1", "Platelet And Endothelial Cell Adhesion Molecule 1", "Platelet Endo Cell Adhesion Molecule 1", "Platelet Endothelial Adhesion Molecule"]}, {"conceptId": "C139097", "definition": "A measurement of the PMS2 mismatch repair protein in a biological specimen.", "preferredTerm": "PMS1 Homolog 2 Measurement", "submissionValue": "PMS1 Homolog 2", "synonyms": ["PMS1 Homolog 2"]}, {"conceptId": "C178040", "definition": "An evaluation of polymorphonuclear cells in the epithelium in a biological specimen.", "preferredTerm": "Polymorphonuclear Cells in Epithelium Assessment", "submissionValue": "Polymorphonuclear Cells in Epithelium", "synonyms": ["Polymorphonuclear Cells in Epithelium"]}, {"conceptId": "C178047", "definition": "A measurement of the polysaccharides and mucosubstances in a biological specimen.", "preferredTerm": "Polysaccharides and Mucosubstances Measurement", "submissionValue": "Polysaccharides and Mucosubstances", "synonyms": ["Polysaccharides and Mucosubstances"]}, {"conceptId": "C181483", "definition": "An evaluation of portal inflammation in a biological specimen.", "preferredTerm": "Portal Inflammation Assessment", "submissionValue": "Portal Inflammation", "synonyms": ["Portal Inflammation"]}, {"conceptId": "C117846", "definition": "A measurement of the progesterone receptor protein in a biological specimen.", "preferredTerm": "Progesterone Receptor Measurement", "submissionValue": "Progesterone Receptor", "synonyms": ["NR3C3", "PGR", "PR", "PgR", "Progesterone Receptor"]}, {"conceptId": "C154807", "definition": "A measurement of the programmed death ligand 1 in a biological specimen.", "preferredTerm": "Programmed Death Ligand 1 Measurement", "submissionValue": "Programmed Death Ligand 1", "synonyms": ["CD274", "PD-L1", "Programmed Cell Death 1 Ligand 1", "Programmed Death Ligand 1"]}, {"conceptId": "C80204", "definition": "A measurement of the prostatic acid phosphatase in a biological specimen.", "preferredTerm": "Prostatic Acid Phosphatase Measurement", "submissionValue": "Prostatic Acid Phosphatase", "synonyms": ["Prostatic Acid Phosphatase"]}, {"conceptId": "C154804", "definition": "A measurement of the ROS proto-oncogene 1 protein in a biological specimen.", "preferredTerm": "ROS1 Protein Measurement", "submissionValue": "ROS1 Protein", "synonyms": ["ROS Proto-oncogene 1 Protein", "ROS1 Protein"]}, {"conceptId": "C127769", "definition": "A measurement of the S100 calcium binding protein A7 in a biological specimen.", "preferredTerm": "S100 Calcium Binding Protein A7 Measurement", "submissionValue": "S100 Calcium Binding Protein A7", "synonyms": ["S100 Calcium Binding Protein A7"]}, {"conceptId": "C111317", "definition": "A measurement of the total smooth muscle antibody in a biological specimen.", "preferredTerm": "Smooth Muscle Antibody Measurement", "submissionValue": "Smooth Muscle Antibody", "synonyms": ["Anti-Smooth Muscle Antibody", "Smooth Muscle Antibody"]}, {"conceptId": "C181477", "definition": "An evaluation of the amount or degree of steatosis (fatty tissue) in a biological specimen.", "preferredTerm": "Steatosis Extent", "submissionValue": "Steatosis Extent", "synonyms": ["Steatosis Extent", "Steatosis Grade"]}, {"conceptId": "C181478", "definition": "An evaluation of the predominant distribution pattern of steatosis (fatty tissue) in a biological specimen.", "preferredTerm": "Steatosis Location", "submissionValue": "Steatosis Location", "synonyms": ["Steatosis Location"]}, {"conceptId": "C127770", "definition": "A relative measurement (ratio or percentage) of the stromal cells to total cells in a biological specimen.", "preferredTerm": "Stromal Cell to Total Cell Ratio Measurement", "submissionValue": "Stromal Cells/Total Cells", "synonyms": ["Stromal Cells/Total Cells"]}, {"conceptId": "C123560", "definition": "The determination of the presence of actual or potential neoplastic tissue which has been left outside the boundary of a resected specimen within the patient. (NCI)", "preferredTerm": "Surgical Margins Status", "submissionValue": "Surgical Margins Status", "synonyms": ["Surgical Margins Status"]}, {"conceptId": "C41145", "definition": "The dimension between two surfaces of an object, usually the smallest dimension as opposed to the width or the length.", "preferredTerm": "Thickness", "submissionValue": "Thickness", "synonyms": ["Thickness"]}, {"conceptId": "C117861", "definition": "A measurement of the transforming growth factor beta 1 in a biological specimen.", "preferredTerm": "Transforming Growth Factor Beta 1 Measurement", "submissionValue": "Transforming Growth Factor Beta 1", "synonyms": ["Transforming Growth Factor Beta 1"]}, {"conceptId": "C154800", "definition": "A relative measurement (ratio or percentage) of the transitional cells to the tumor cells in a biological specimen.", "preferredTerm": "Transitional Cell to Tumor Cell Ratio Measurement", "submissionValue": "Transitional Cells/Tumor Cells", "synonyms": ["Transitional Cells/Tumor Cells"]}, {"conceptId": "C135474", "definition": "An evaluation of tubular atrophy in a biological specimen.", "preferredTerm": "Tubular Atrophy Assessment", "submissionValue": "Tubular Atrophy", "synonyms": ["Tubular Atrophy"]}, {"conceptId": "C181491", "definition": "An evaluation of tubule formation in a biological specimen.", "preferredTerm": "Tubule Formation Assessment", "submissionValue": "Tubule Formation", "synonyms": ["Tubule Formation"]}, {"conceptId": "C135475", "definition": "An evaluation of tubulitis in a biological specimen.", "preferredTerm": "Tubulitis Assessment", "submissionValue": "Tubulitis", "synonyms": ["Tubulitis"]}, {"conceptId": "C154801", "definition": "A measurement of the tumor cells in a biological specimen.", "preferredTerm": "Tumor Cell Count", "submissionValue": "Tumor Cells", "synonyms": ["Tumor Cells"]}, {"conceptId": "C127771", "definition": "A relative measurement (ratio or percentage) of the tumor cells to total cells in a biological specimen.", "preferredTerm": "Tumor Cell to Total Cell Ratio Measurement", "submissionValue": "Tumor Cells/Total Cells", "synonyms": ["Tumor Cells/Total Cells"]}, {"conceptId": "C178046", "definition": "An evaluation of tumor regression in a biological specimen.", "preferredTerm": "Tumor Regression Assessment", "submissionValue": "Tumor Regression", "synonyms": ["Tumor Regression"]}, {"conceptId": "C176333", "definition": "An evaluation of ulceration in a biological specimen.", "preferredTerm": "Ulceration Assessment", "submissionValue": "Ulceration", "synonyms": ["Ulceration"]}, {"conceptId": "C135476", "definition": "An evaluation of the fibrointimal thickening of vessels in a biological specimen.", "preferredTerm": "Vascular Fibrous Intimal Thickening Assessment", "submissionValue": "Vascular Fibrous Intimal Thickening", "synonyms": ["Vascular Fibrous Intimal Thickening"]}, {"conceptId": "C127772", "definition": "An evaluation of vascular invasion in a biological specimen.", "preferredTerm": "Vascular Invasion Assessment", "submissionValue": "Vascular Invasion", "synonyms": ["Vascular Invasion"]}]}