{"_links": {"parentPackage": {"href": "/mdr/ct/packages/sdtmct-2021-09-24", "title": "SDTM Controlled Terminology Package 47 Effective 2021-09-24", "type": "Terminology"}, "priorVersion": {"href": "/mdr/ct/packages/sdtmct-2021-06-25/codelists/C132521", "title": "CDISC Questionnaire EPDS Test Code Terminology", "type": "Code List"}, "rootItem": {"href": "/mdr/root/ct/sdtmct/codelists/C132521", "title": "Version-agnostic anchor resource for codelist C132521", "type": "Root Value Domain"}, "self": {"href": "/mdr/ct/packages/sdtmct-2021-09-24/codelists/C132521", "title": "CDISC Questionnaire EPDS Test Code Terminology", "type": "Code List"}}, "conceptId": "C132521", "definition": "Edinburgh Postnatal Depression Scale test code.", "extensible": "false", "name": "Edinburgh Postnatal Depression Scale Questionnaire Test Code", "preferredTerm": "CDISC Questionnaire EPDS Test Code Terminology", "submissionValue": "EPDS01TC", "synonyms": ["Edinburgh Postnatal Depression Scale Questionnaire Test Code"], "terms": [{"conceptId": "C132563", "definition": "Edinburgh Postnatal Depression Scale - I have been able to laugh and see the funny side of things.", "preferredTerm": "EPDS - Able to Laugh and See Funny Side", "submissionValue": "EPDS0101", "synonyms": ["EPDS01-Able to Laugh and See Funny Side"]}, {"conceptId": "C132564", "definition": "Edinburgh Postnatal Depression Scale - I have looked forward with enjoyment to things.", "preferredTerm": "EPDS - Looked Forward With Enjoyment", "submissionValue": "EPDS0102", "synonyms": ["EPDS01-Looked Forward With Enjoyment"]}, {"conceptId": "C132565", "definition": "Edinburgh Postnatal Depression Scale - I have blamed myself unnecessarily when things went wrong.", "preferredTerm": "EPDS - Blamed Myself Unnecessarily", "submissionValue": "EPDS0103", "synonyms": ["EPDS01-Blamed Myself Unnecessarily"]}, {"conceptId": "C132566", "definition": "Edinburgh Postnatal Depression Scale - I have been anxious or worried for no good reason.", "preferredTerm": "EPDS - Anxious or Worried No Good Reason", "submissionValue": "EPDS0104", "synonyms": ["EPDS01-Anxious/Worried No Good Reason"]}, {"conceptId": "C132567", "definition": "Edinburgh Postnatal Depression Scale - I have felt scared or panicky for no very good reason.", "preferredTerm": "EPDS - Scared or Panicky for No Good Reason", "submissionValue": "EPDS0105", "synonyms": ["EPDS01-Scared/Panicky for No Good Reason"]}, {"conceptId": "C132568", "definition": "Edinburgh Postnatal Depression Scale - Things have been getting on top of me.", "preferredTerm": "EPDS - Things Getting on Top of Me", "submissionValue": "EPDS0106", "synonyms": ["EPDS01-Things Getting on Top of Me"]}, {"conceptId": "C132569", "definition": "Edinburgh Postnatal Depression Scale - I have been so unhappy that I have had difficulty sleeping.", "preferredTerm": "EPDS - Unhappy Had Difficulty Sleeping", "submissionValue": "EPDS0107", "synonyms": ["EPDS01-Unhappy Had Difficulty Sleeping"]}, {"conceptId": "C132570", "definition": "Edinburgh Postnatal Depression Scale - I have felt sad or miserable.", "preferredTerm": "EPDS - I Have Felt Sad or Miserable", "submissionValue": "EPDS0108", "synonyms": ["EPDS01-I Have Felt Sad or Miserable"]}, {"conceptId": "C132571", "definition": "Edinburgh Postnatal Depression Scale - I have been so unhappy that I have been crying.", "preferredTerm": "EPDS - So Unhappy I Have Been Crying", "submissionValue": "EPDS0109", "synonyms": ["EPDS01-So Unhappy I Have Been Crying"]}, {"conceptId": "C132572", "definition": "Edinburgh Postnatal Depression Scale - The thought of harming myself has occurred to me.", "preferredTerm": "EPDS - Thought of Harming Myself", "submissionValue": "EPDS0110", "synonyms": ["EPDS01-Thought of Harming Myself"]}]}