{"_links": {"parentPackage": {"href": "/mdr/ct/packages/sdtmct-2021-09-24", "title": "SDTM Controlled Terminology Package 47 Effective 2021-09-24", "type": "Terminology"}, "priorVersion": {"href": "/mdr/ct/packages/sdtmct-2021-06-25/codelists/C138234", "title": "CDISC Questionnaire PedsQL Neuromuscular Module Acute Version 3.0 Parent Report for Young Adults Test Name Terminology", "type": "Code List"}, "rootItem": {"href": "/mdr/root/ct/sdtmct/codelists/C138234", "title": "Version-agnostic anchor resource for codelist C138234", "type": "Root Value Domain"}, "self": {"href": "/mdr/ct/packages/sdtmct-2021-09-24/codelists/C138234", "title": "CDISC Questionnaire PedsQL Neuromuscular Module Acute Version 3.0 Parent Report for Young Adults Test Name Terminology", "type": "Code List"}}, "conceptId": "C138234", "definition": "Pediatric Quality of Life Neuromuscular Module Acute Version 3 Young Adult Parent Report test name.", "extensible": "false", "name": "Pediatric Quality of Life Neuromuscular Module Acute Version 3 Young Adult Parent Report Questionnaire Test Name", "preferredTerm": "CDISC Questionnaire PedsQL Neuromuscular Module Acute Version 3.0 Parent Report for Young Adults Test Name Terminology", "submissionValue": "PQL11TN", "synonyms": ["Pediatric Quality of Life Neuromuscular Module Acute Version 3 Young Adult Parent Report Questionnaire Test Name"], "terms": [{"conceptId": "C138570", "definition": "Pediatric Quality of Life Neuromuscular Module Acute Version 3 Young Adult Parent Report - In the past 7 days, how much of a problem has this been for your child: My child's back feels stiff.", "preferredTerm": "PedsQL Neuromuscular Module Acute Version 3.0 Parent Report for Young Adults - Back Feels Stiff", "submissionValue": "PQL11-Back Feels Stiff", "synonyms": ["PQL11-Back Feels Stiff"]}, {"conceptId": "C138589", "definition": "Pediatric Quality of Life Neuromuscular Module Acute Version 3 Young Adult Parent Report - In the past 7 days, how much of a problem has this been for your child: My child does not have the equipment he or she needs.", "preferredTerm": "PedsQL Neuromuscular Module Acute Version 3.0 Parent Report for Young Adults - Do Not Have Equipment Need", "submissionValue": "PQL11-Do Not Have Equipment Need", "synonyms": ["PQL11-Do Not Have Equipment Need"]}, {"conceptId": "C138588", "definition": "Pediatric Quality of Life Neuromuscular Module Acute Version 3 Young Adult Parent Report - In the past 7 days, how much of a problem has this been for your child: I think our family has a lot of problems.", "preferredTerm": "PedsQL Neuromuscular Module Acute Version 3.0 Parent Report for Young Adults - Family Has Lot of Problems", "submissionValue": "PQL11-Family Has Lot of Problems", "synonyms": ["PQL11-Family Has Lot of Problems"]}, {"conceptId": "C138569", "definition": "Pediatric Quality of Life Neuromuscular Module Acute Version 3 Young Adult Parent Report - In the past 7 days, how much of a problem has this been for your child: My child feels tired.", "preferredTerm": "PedsQL Neuromuscular Module Acute Version 3.0 Parent Report for Young Adults - Feel Tired", "submissionValue": "PQL11-Feel Tired", "synonyms": ["PQL11-Feel Tired"]}, {"conceptId": "C138578", "definition": "Pediatric Quality of Life Neuromuscular Module Acute Version 3 Young Adult Parent Report - In the past 7 days, how much of a problem has this been for your child: My child gets hurt accidentally.", "preferredTerm": "PedsQL Neuromuscular Module Acute Version 3.0 Parent Report for Young Adults - Get Hurt Accidentally", "submissionValue": "PQL11-Get Hurt Accidentally", "synonyms": ["PQL11-Get Hurt Accidentally"]}, {"conceptId": "C138566", "definition": "Pediatric Quality of Life Neuromuscular Module Acute Version 3 Young Adult Parent Report - In the past 7 days, how much of a problem has this been for your child: My child gets sick easily.", "preferredTerm": "PedsQL Neuromuscular Module Acute Version 3.0 Parent Report for Young Adults - Get Sick Easily", "submissionValue": "PQL11-Get Sick Easily", "synonyms": ["PQL11-Get Sick Easily"]}, {"conceptId": "C138567", "definition": "Pediatric Quality of Life Neuromuscular Module Acute Version 3 Young Adult Parent Report - In the past 7 days, how much of a problem has this been for your child: My child gets sores and/or rashes.", "preferredTerm": "PedsQL Neuromuscular Module Acute Version 3.0 Parent Report for Young Adults - Get Sores and/or Rashes", "submissionValue": "PQL11-Get Sores and/or Rashes", "synonyms": ["PQL11-Get Sores and/or Rashes"]}, {"conceptId": "C138572", "definition": "Pediatric Quality of Life Neuromuscular Module Acute Version 3 Young Adult Parent Report - In the past 7 days, how much of a problem has this been for your child: My child's hands are weak.", "preferredTerm": "PedsQL Neuromuscular Module Acute Version 3.0 Parent Report for Young Adults - Hands Are Weak", "submissionValue": "PQL11-Hands Are Weak", "synonyms": ["PQL11-Hands Are Weak"]}, {"conceptId": "C138583", "definition": "Pediatric Quality of Life Neuromuscular Module Acute Version 3 Young Adult Parent Report - In the past 7 days, how much of a problem has this been for your child: It is hard for my child to ask the doctors and nurses questions.", "preferredTerm": "PedsQL Neuromuscular Module Acute Version 3.0 Parent Report for Young Adults - Hard Ask Doctors and Nurses Questions", "submissionValue": "PQL11-Hard Ask Doctors/Nurses Questions", "synonyms": ["PQL11-Hard Ask Doctors/Nurses Questions"]}, {"conceptId": "C138584", "definition": "Pediatric Quality of Life Neuromuscular Module Acute Version 3 Young Adult Parent Report - In the past 7 days, how much of a problem has this been for your child: It is hard for my child to explain his or her illness to other people.", "preferredTerm": "PedsQL Neuromuscular Module Acute Version 3.0 Parent Report for Young Adults - Hard Explain Illness to People", "submissionValue": "PQL11-Hard Explain Illness to People", "synonyms": ["PQL11-Hard Explain Illness to People"]}, {"conceptId": "C138585", "definition": "Pediatric Quality of Life Neuromuscular Module Acute Version 3 Young Adult Parent Report - In the past 7 days, how much of a problem has this been for your child: It is hard for our family to plan activities like vacations.", "preferredTerm": "PedsQL Neuromuscular Module Acute Version 3.0 Parent Report for Young Adults - Hard for Family to Plan Activities", "submissionValue": "PQL11-Hard for Family to Plan Activities", "synonyms": ["PQL11-Hard for Family to Plan Activities"]}, {"conceptId": "C138586", "definition": "Pediatric Quality of Life Neuromuscular Module Acute Version 3 Young Adult Parent Report - In the past 7 days, how much of a problem has this been for your child: It is hard for our family to get enough rest.", "preferredTerm": "PedsQL Neuromuscular Module Acute Version 3.0 Parent Report for Young Adults - Hard for Family to Rest", "submissionValue": "PQL11-Hard for Family to Rest", "synonyms": ["PQL11-Hard for Family to Rest"]}, {"conceptId": "C138582", "definition": "Pediatric Quality of Life Neuromuscular Module Acute Version 3 Young Adult Parent Report - In the past 7 days, how much of a problem has this been for your child: It is hard for my child to tell the doctors and nurses how he or she feels.", "preferredTerm": "PedsQL Neuromuscular Module Acute Version 3.0 Parent Report for Young Adults - Hard Tell Doctors and Nurses How Feel", "submissionValue": "PQL11-Hard Tell Doctors/Nurses How Feel", "synonyms": ["PQL11-Hard Tell Doctors/Nurses How Feel"]}, {"conceptId": "C138565", "definition": "Pediatric Quality of Life Neuromuscular Module Acute Version 3 Young Adult Parent Report - In the past 7 days, how much of a problem has this been for your child: It is hard for my child to breathe.", "preferredTerm": "PedsQL Neuromuscular Module Acute Version 3.0 Parent Report for Young Adults - Hard to Breathe", "submissionValue": "PQL11-Hard to Breathe", "synonyms": ["PQL11-Hard to Breathe"]}, {"conceptId": "C138574", "definition": "Pediatric Quality of Life Neuromuscular Module Acute Version 3 Young Adult Parent Report - In the past 7 days, how much of a problem has this been for your child: It is hard for my child to gain or lose weight when he or she wants to.", "preferredTerm": "PedsQL Neuromuscular Module Acute Version 3.0 Parent Report for Young Adults - Hard to Gain or Lose Weight", "submissionValue": "PQL11-Hard to Gain/Lose Weight", "synonyms": ["PQL11-Hard to Gain/Lose Weight"]}, {"conceptId": "C138581", "definition": "Pediatric Quality of Life Neuromuscular Module Acute Version 3 Young Adult Parent Report - In the past 7 days, how much of a problem has this been for your child: It is hard for my child to go places with his or her equipment.", "preferredTerm": "PedsQL Neuromuscular Module Acute Version 3.0 Parent Report for Young Adults - Hard to Go Places With Equipment", "submissionValue": "PQL11-Hard to Go Places With Equipment", "synonyms": ["PQL11-Hard to Go Places With Equipment"]}, {"conceptId": "C138576", "definition": "Pediatric Quality of Life Neuromuscular Module Acute Version 3 Young Adult Parent Report - In the past 7 days, how much of a problem has this been for your child: It is hard for my child to swallow food.", "preferredTerm": "PedsQL Neuromuscular Module Acute Version 3.0 Parent Report for Young Adults - Hard to Swallow Food", "submissionValue": "PQL11-Hard to Swallow Food", "synonyms": ["PQL11-Hard to Swallow Food"]}, {"conceptId": "C138580", "definition": "Pediatric Quality of Life Neuromuscular Module Acute Version 3 Young Adult Parent Report - In the past 7 days, how much of a problem has this been for your child: It is hard for my child to turn him or herself during the night.", "preferredTerm": "PedsQL Neuromuscular Module Acute Version 3.0 Parent Report for Young Adults - Hard to Turn During Night", "submissionValue": "PQL11-Hard to Turn During Night", "synonyms": ["PQL11-Hard to Turn During Night"]}, {"conceptId": "C138573", "definition": "Pediatric Quality of Life Neuromuscular Module Acute Version 3 Young Adult Parent Report - In the past 7 days, how much of a problem has this been for your child: It is hard for my child to use the bathroom.", "preferredTerm": "PedsQL Neuromuscular Module Acute Version 3.0 Parent Report for Young Adults - Hard to Use Bathroom", "submissionValue": "PQL11-Hard to Use Bathroom", "synonyms": ["PQL11-Hard to Use Bathroom"]}, {"conceptId": "C138575", "definition": "Pediatric Quality of Life Neuromuscular Module Acute Version 3 Young Adult Parent Report - In the past 7 days, how much of a problem has this been for your child: It is hard for my child to use his or her hands.", "preferredTerm": "PedsQL Neuromuscular Module Acute Version 3.0 Parent Report for Young Adults - Hard to Use Hands", "submissionValue": "PQL11-Hard to Use Hands", "synonyms": ["PQL11-Hard to Use Hands"]}, {"conceptId": "C138568", "definition": "Pediatric Quality of Life Neuromuscular Module Acute Version 3 Young Adult Parent Report - In the past 7 days, how much of a problem has this been for your child: My child's legs hurt.", "preferredTerm": "PedsQL Neuromuscular Module Acute Version 3.0 Parent Report for Young Adults - Legs Hurt", "submissionValue": "PQL11-Legs Hurt", "synonyms": ["PQL11-Legs Hurt"]}, {"conceptId": "C138577", "definition": "Pediatric Quality of Life Neuromuscular Module Acute Version 3 Young Adult Parent Report - In the past 7 days, how much of a problem has this been for your child: It takes my child a long time to bathe or shower.", "preferredTerm": "PedsQL Neuromuscular Module Acute Version 3.0 Parent Report for Young Adults - Long Time to Bathe or Shower", "submissionValue": "PQL11-Long Time to Bathe/Shower", "synonyms": ["PQL11-Long Time to Bathe/Shower"]}, {"conceptId": "C138587", "definition": "Pediatric Quality of Life Neuromuscular Module Acute Version 3 Young Adult Parent Report - In the past 7 days, how much of a problem has this been for your child: I think money is a problem in our family.", "preferredTerm": "PedsQL Neuromuscular Module Acute Version 3.0 Parent Report for Young Adults - Money Problem in Our Family", "submissionValue": "PQL11-Money Problem in Our Family", "synonyms": ["PQL11-Money Problem in Our Family"]}, {"conceptId": "C138579", "definition": "Pediatric Quality of Life Neuromuscular Module Acute Version 3 Young Adult Parent Report - In the past 7 days, how much of a problem has this been for your child: My child takes a long time to eat.", "preferredTerm": "PedsQL Neuromuscular Module Acute Version 3.0 Parent Report for Young Adults - Take Long Time to Eat", "submissionValue": "PQL11-Take Long Time to Eat", "synonyms": ["PQL11-Take Long Time to Eat"]}, {"conceptId": "C138571", "definition": "Pediatric Quality of Life Neuromuscular Module Acute Version 3 Young Adult Parent Report - In the past 7 days, how much of a problem has this been for your child: My child wakes up tired.", "preferredTerm": "PedsQL Neuromuscular Module Acute Version 3.0 Parent Report for Young Adults - Wake Up Tired", "submissionValue": "PQL11-Wake Up Tired", "synonyms": ["PQL11-Wake Up Tired"]}]}