{"_links": {"parentPackage": {"href": "/mdr/ct/packages/sdtmct-2021-09-24", "title": "SDTM Controlled Terminology Package 47 Effective 2021-09-24", "type": "Terminology"}, "priorVersion": {"href": "/mdr/ct/packages/sdtmct-2021-06-25/codelists/C138217", "title": "CDISC Functional Test PUL 1.2 Test Code Terminology", "type": "Code List"}, "rootItem": {"href": "/mdr/root/ct/sdtmct/codelists/C138217", "title": "Version-agnostic anchor resource for codelist C138217", "type": "Root Value Domain"}, "self": {"href": "/mdr/ct/packages/sdtmct-2021-09-24/codelists/C138217", "title": "CDISC Functional Test PUL 1.2 Test Code Terminology", "type": "Code List"}}, "conceptId": "C138217", "definition": "Performance of the Upper Limb Module for DMD Version 1.2 test code.", "extensible": "false", "name": "Performance of the Upper Limb Module for DMD Version 1.2 Functional Test Test Code", "preferredTerm": "CDISC Functional Test PUL 1.2 Test Code Terminology", "submissionValue": "PUL01TC", "synonyms": ["Performance of the Upper Limb Module for DMD Version 1.2 Functional Test Test Code"], "terms": [{"conceptId": "C138365", "definition": "Performance of the Upper Limb Module for DMD Version 1.2 - Preferred arm.", "preferredTerm": "PUL 1.2 - Preferred Arm", "submissionValue": "PUL0101", "synonyms": ["PUL01-Preferred Arm"]}, {"conceptId": "C138366", "definition": "Performance of the Upper Limb Module for DMD Version 1.2 - Elbow contractures of the preferred arm.", "preferredTerm": "PUL 1.2 - Elbow Contractures", "submissionValue": "PUL0102", "synonyms": ["PUL01-Elbow Contractures"]}, {"conceptId": "C138393", "definition": "Performance of the Upper Limb Module for DMD Version 1.2 - High level shoulder dimension score.", "preferredTerm": "PUL 1.2 - High Level Shoulder Dimension", "submissionValue": "PUL0103", "synonyms": ["PUL01-High Level Shoulder Dimension"]}, {"conceptId": "C138394", "definition": "Performance of the Upper Limb Module for DMD Version 1.2 - Mid level elbow dimension score.", "preferredTerm": "PUL 1.2 - Mid Level Elbow Dimension", "submissionValue": "PUL0104", "synonyms": ["PUL01-Mid Level Elbow Dimension"]}, {"conceptId": "C138395", "definition": "Performance of the Upper Limb Module for DMD Version 1.2 - Distal wrist and hand dimension score.", "preferredTerm": "PUL 1.2 - Distal Wrist or Hand Dimension", "submissionValue": "PUL0105", "synonyms": ["PUL01-Distal Wrist/Hand Dimension"]}, {"conceptId": "C138396", "definition": "Performance of the Upper Limb Module for DMD Version 1.2 - Total Score.", "preferredTerm": "PUL 1.2 - Total Score", "submissionValue": "PUL0106", "synonyms": ["PUL01-Total Score"]}, {"conceptId": "C138367", "definition": "Performance of the Upper Limb Module for DMD Version 1.2 - Entry item.", "preferredTerm": "PUL 1.2 - Entry Item", "submissionValue": "PUL01A", "synonyms": ["PUL01-Entry Item"]}, {"conceptId": "C138368", "definition": "Performance of the Upper Limb Module for DMD Version 1.2 - Shoulder abduction to shoulder height.", "preferredTerm": "PUL 1.2 - Shoulder Abduction to Height", "submissionValue": "PUL01B", "synonyms": ["PUL01-Shoulder Abduction to Shldr Hgt"]}, {"conceptId": "C138369", "definition": "Performance of the Upper Limb Module for DMD Version 1.2 - Shoulder abduction above shoulder height.", "preferredTerm": "PUL 1.2 - Shoulder Abduction Above Height", "submissionValue": "PUL01C", "synonyms": ["PUL01-Shoulder Abduction Above Shldr Hgt"]}, {"conceptId": "C138370", "definition": "Performance of the Upper Limb Module for DMD Version 1.2 - Shoulder flexion to shoulder height.", "preferredTerm": "PUL 1.2 - Shoulder Flexion to Height", "submissionValue": "PUL01D", "synonyms": ["PUL01-Shoulder Flexion to Shldr Height"]}, {"conceptId": "C138371", "definition": "Performance of the Upper Limb Module for DMD Version 1.2 - Shoulder flexion above shoulder height.", "preferredTerm": "PUL 1.2 - Shoulder Flexion Above Height", "submissionValue": "PUL01E", "synonyms": ["PUL01-Shoulder Flexion Above Shldr Hgt"]}, {"conceptId": "C138372", "definition": "Performance of the Upper Limb Module for DMD Version 1.2 - Hand(s) to mouth.", "preferredTerm": "PUL 1.2 - Hand(s) to Mouth", "submissionValue": "PUL01F", "synonyms": ["PUL01-Hand(s) to Mouth"]}, {"conceptId": "C138373", "definition": "Performance of the Upper Limb Module for DMD Version 1.2 - Hand(s) to table from lap.", "preferredTerm": "PUL 1.2 - Hand(s) to Table From Lap", "submissionValue": "PUL01G", "synonyms": ["PUL01-Hand(s) to Table From Lap"]}, {"conceptId": "C138374", "definition": "Performance of the Upper Limb Module for DMD Version 1.2 - Move weight on table.", "preferredTerm": "PUL 1.2 - Move Weight on Table", "submissionValue": "PUL01H", "synonyms": ["PUL01-Move Weight on Table"]}, {"conceptId": "C138375", "definition": "Performance of the Upper Limb Module for DMD Version 1.2 - Lifting light cans.", "preferredTerm": "PUL 1.2 - Lifting Light Cans", "submissionValue": "PUL01I", "synonyms": ["PUL01-Lifting Light Cans"]}, {"conceptId": "C138376", "definition": "Performance of the Upper Limb Module for DMD Version 1.2 - Lifting light cans, time.", "preferredTerm": "PUL 1.2 - Lifting Light Cans Time", "submissionValue": "PUL01I1", "synonyms": ["PUL01-Lifting Light Cans Time"]}, {"conceptId": "C138377", "definition": "Performance of the Upper Limb Module for DMD Version 1.2 - Lifting heavy cans.", "preferredTerm": "PUL 1.2 - Lifting Heavy Cans", "submissionValue": "PUL01J", "synonyms": ["PUL01-Lifting Heavy Cans"]}, {"conceptId": "C138378", "definition": "Performance of the Upper Limb Module for DMD Version 1.2 - Lifting heavy cans, time.", "preferredTerm": "PUL 1.2 - Lifting Heavy Cans Time", "submissionValue": "PUL01J1", "synonyms": ["PUL01-Lifting Heavy Cans Time"]}, {"conceptId": "C138379", "definition": "Performance of the Upper Limb Module for DMD Version 1.2 - Stacking light cans.", "preferredTerm": "PUL 1.2 - Stacking Light Cans", "submissionValue": "PUL01K", "synonyms": ["PUL01-Stacking Light Cans"]}, {"conceptId": "C138380", "definition": "Performance of the Upper Limb Module for DMD Version 1.2 - Stacking light cans, time.", "preferredTerm": "PUL 1.2 - Stacking Light Cans Time", "submissionValue": "PUL01K1", "synonyms": ["PUL01-Stacking Light Cans Time"]}, {"conceptId": "C138381", "definition": "Performance of the Upper Limb Module for DMD Version 1.2 - Stacking heavy cans.", "preferredTerm": "PUL 1.2 - Stacking Heavy Cans", "submissionValue": "PUL01L", "synonyms": ["PUL01-Stacking Heavy Cans"]}, {"conceptId": "C138382", "definition": "Performance of the Upper Limb Module for DMD Version 1.2 - Stacking heavy cans, time.", "preferredTerm": "PUL 1.2 - Stacking Heavy Cans Time", "submissionValue": "PUL01L1", "synonyms": ["PUL01-Stacking Heavy Cans Time"]}, {"conceptId": "C138383", "definition": "Performance of the Upper Limb Module for DMD Version 1.2 - Remove lid from container.", "preferredTerm": "PUL 1.2 - Remove Lid From Container", "submissionValue": "PUL01M", "synonyms": ["PUL01-Remove Lid From Container"]}, {"conceptId": "C138384", "definition": "Performance of the Upper Limb Module for DMD Version 1.2 - Tearing paper.", "preferredTerm": "PUL 1.2 - Tearing Paper", "submissionValue": "PUL01N", "synonyms": ["PUL01-Tearing Paper"]}, {"conceptId": "C138385", "definition": "Performance of the Upper Limb Module for DMD Version 1.2 - Tracing path.", "preferredTerm": "PUL 1.2 - Tracing Path", "submissionValue": "PUL01O", "synonyms": ["PUL01-Tracing Path"]}, {"conceptId": "C138386", "definition": "Performance of the Upper Limb Module for DMD Version 1.2 - Push on the light.", "preferredTerm": "PUL 1.2 - Push on The Light", "submissionValue": "PUL01P", "synonyms": ["PUL01-Push on The Light"]}, {"conceptId": "C138387", "definition": "Performance of the Upper Limb Module for DMD Version 1.2 - Supination.", "preferredTerm": "PUL 1.2 - Supination", "submissionValue": "PUL01Q", "synonyms": ["PUL01-Supination"]}, {"conceptId": "C138388", "definition": "Performance of the Upper Limb Module for DMD Version 1.2 - Picking up coins.", "preferredTerm": "PUL 1.2 - Picking Up Coins", "submissionValue": "PUL01R", "synonyms": ["PUL01-Picking Up Coins"]}, {"conceptId": "C138389", "definition": "Performance of the Upper Limb Module for DMD Version 1.2 - Placing finger on number diagram.", "preferredTerm": "PUL 1.2 - Placing Finger on Number Diagram", "submissionValue": "PUL01S", "synonyms": ["PUL01-Placing Finger on Number Diagram"]}, {"conceptId": "C138390", "definition": "Performance of the Upper Limb Module for DMD Version 1.2 - Finger pinch grip.", "preferredTerm": "PUL 1.2 - Finger Pinch Grip", "submissionValue": "PUL01T", "synonyms": ["PUL01-Finger Pinch Grip"]}, {"conceptId": "C138391", "definition": "Performance of the Upper Limb Module for DMD Version 1.2 - 3 point grip.", "preferredTerm": "PUL 1.2 - 3 Point Grip", "submissionValue": "PUL01U", "synonyms": ["PUL01-3 Point Grip"]}, {"conceptId": "C138392", "definition": "Performance of the Upper Limb Module for DMD Version 1.2 - Thumb (key) grip.", "preferredTerm": "PUL 1.2 - Thumb (Key) Grip", "submissionValue": "PUL01V", "synonyms": ["PUL01-Thumb (Key) Grip"]}]}