{"_links": {"parentPackage": {"href": "/mdr/ct/packages/sdtmct-2021-09-24", "title": "SDTM Controlled Terminology Package 47 Effective 2021-09-24", "type": "Terminology"}, "priorVersion": {"href": "/mdr/ct/packages/sdtmct-2021-06-25/codelists/C138237", "title": "CDISC Questionnaire PedsQL Neuromuscular Module Acute Version 3.0 Parent Report for Young Child Test Code Terminology", "type": "Code List"}, "rootItem": {"href": "/mdr/root/ct/sdtmct/codelists/C138237", "title": "Version-agnostic anchor resource for codelist C138237", "type": "Root Value Domain"}, "self": {"href": "/mdr/ct/packages/sdtmct-2021-09-24/codelists/C138237", "title": "CDISC Questionnaire PedsQL Neuromuscular Module Acute Version 3.0 Parent Report for Young Child Test Code Terminology", "type": "Code List"}}, "conceptId": "C138237", "definition": "Pediatric Quality of Life Neuromuscular Module Acute Version 3 Young Child Parent Report test code.", "extensible": "false", "name": "Pediatric Quality of Life Neuromuscular Module Acute Version 3 Young Child Parent Report Questionnaire Test Code", "preferredTerm": "CDISC Questionnaire PedsQL Neuromuscular Module Acute Version 3.0 Parent Report for Young Child Test Code Terminology", "submissionValue": "PQL17TC", "synonyms": ["Pediatric Quality of Life Neuromuscular Module Acute Version 3 Young Child Parent Report Questionnaire Test Code"], "terms": [{"conceptId": "C138590", "definition": "Pediatric Quality of Life Neuromuscular Module Acute Version 3 Young Child Parent Report - In the past 7 days, how much of a problem has this been for your child: It is hard for my child to breathe.", "preferredTerm": "PedsQL Neuromuscular Module Acute Version 3.0 Parent Report for Young Child - Hard to Breathe", "submissionValue": "PQL1701", "synonyms": ["PQL17-Hard to Breathe"]}, {"conceptId": "C138591", "definition": "Pediatric Quality of Life Neuromuscular Module Acute Version 3 Young Child Parent Report - In the past 7 days, how much of a problem has this been for your child: My child gets sick easily.", "preferredTerm": "PedsQL Neuromuscular Module Acute Version 3.0 Parent Report for Young Child - Get Sick Easily", "submissionValue": "PQL1702", "synonyms": ["PQL17-Get Sick Easily"]}, {"conceptId": "C138592", "definition": "Pediatric Quality of Life Neuromuscular Module Acute Version 3 Young Child Parent Report - In the past 7 days, how much of a problem has this been for your child: My child gets sores and/or rashes.", "preferredTerm": "PedsQL Neuromuscular Module Acute Version 3.0 Parent Report for Young Child - Get Sores and/or Rashes", "submissionValue": "PQL1703", "synonyms": ["PQL17-Get Sores and/or Rashes"]}, {"conceptId": "C138593", "definition": "Pediatric Quality of Life Neuromuscular Module Acute Version 3 Young Child Parent Report - In the past 7 days, how much of a problem has this been for your child: My child's legs hurt.", "preferredTerm": "PedsQL Neuromuscular Module Acute Version 3.0 Parent Report for Young Child - Legs Hurt", "submissionValue": "PQL1704", "synonyms": ["PQL17-Legs Hurt"]}, {"conceptId": "C138594", "definition": "Pediatric Quality of Life Neuromuscular Module Acute Version 3 Young Child Parent Report - In the past 7 days, how much of a problem has this been for your child: My child feels tired.", "preferredTerm": "PedsQL Neuromuscular Module Acute Version 3.0 Parent Report for Young Child - Feel Tired", "submissionValue": "PQL1705", "synonyms": ["PQL17-Feel Tired"]}, {"conceptId": "C138595", "definition": "Pediatric Quality of Life Neuromuscular Module Acute Version 3 Young Child Parent Report - In the past 7 days, how much of a problem has this been for your child: My child's back feels stiff.", "preferredTerm": "PedsQL Neuromuscular Module Acute Version 3.0 Parent Report for Young Child - Back Feels Stiff", "submissionValue": "PQL1706", "synonyms": ["PQL17-Back Feels Stiff"]}, {"conceptId": "C138596", "definition": "Pediatric Quality of Life Neuromuscular Module Acute Version 3 Young Child Parent Report - In the past 7 days, how much of a problem has this been for your child: My child wakes up tired.", "preferredTerm": "PedsQL Neuromuscular Module Acute Version 3.0 Parent Report for Young Child - Wake Up Tired", "submissionValue": "PQL1707", "synonyms": ["PQL17-Wake Up Tired"]}, {"conceptId": "C138597", "definition": "Pediatric Quality of Life Neuromuscular Module Acute Version 3 Young Child Parent Report - In the past 7 days, how much of a problem has this been for your child: My child's hands are weak.", "preferredTerm": "PedsQL Neuromuscular Module Acute Version 3.0 Parent Report for Young Child - Hands Are Weak", "submissionValue": "PQL1708", "synonyms": ["PQL17-Hands Are Weak"]}, {"conceptId": "C138598", "definition": "Pediatric Quality of Life Neuromuscular Module Acute Version 3 Young Child Parent Report - In the past 7 days, how much of a problem has this been for your child: It is hard for my child to use the bathroom.", "preferredTerm": "PedsQL Neuromuscular Module Acute Version 3.0 Parent Report for Young Child - Hard to Use Bathroom", "submissionValue": "PQL1709", "synonyms": ["PQL17-Hard to Use Bathroom"]}, {"conceptId": "C138599", "definition": "Pediatric Quality of Life Neuromuscular Module Acute Version 3 Young Child Parent Report - In the past 7 days, how much of a problem has this been for your child: It is hard for my child to gain or lose weight when he or she wants to.", "preferredTerm": "PedsQL Neuromuscular Module Acute Version 3.0 Parent Report for Young Child - Hard to Gain or Lose Weight", "submissionValue": "PQL1710", "synonyms": ["PQL17-Hard to Gain/Lose Weight"]}, {"conceptId": "C138600", "definition": "Pediatric Quality of Life Neuromuscular Module Acute Version 3 Young Child Parent Report - In the past 7 days, how much of a problem has this been for your child: It is hard for my child to use his or her hands.", "preferredTerm": "PedsQL Neuromuscular Module Acute Version 3.0 Parent Report for Young Child - Hard to Use Hands", "submissionValue": "PQL1711", "synonyms": ["PQL17-Hard to Use Hands"]}, {"conceptId": "C138601", "definition": "Pediatric Quality of Life Neuromuscular Module Acute Version 3 Young Child Parent Report - In the past 7 days, how much of a problem has this been for your child: It is hard for my child to swallow food.", "preferredTerm": "PedsQL Neuromuscular Module Acute Version 3.0 Parent Report for Young Child - Hard to Swallow Food", "submissionValue": "PQL1712", "synonyms": ["PQL17-Hard to Swallow Food"]}, {"conceptId": "C138602", "definition": "Pediatric Quality of Life Neuromuscular Module Acute Version 3 Young Child Parent Report - In the past 7 days, how much of a problem has this been for your child: It takes my child a long time to bathe or shower.", "preferredTerm": "PedsQL Neuromuscular Module Acute Version 3.0 Parent Report for Young Child - Long Time to Bathe or Shower", "submissionValue": "PQL1713", "synonyms": ["PQL17-Long Time to Bathe/Shower"]}, {"conceptId": "C138603", "definition": "Pediatric Quality of Life Neuromuscular Module Acute Version 3 Young Child Parent Report - In the past 7 days, how much of a problem has this been for your child: My child gets hurt accidentally.", "preferredTerm": "PedsQL Neuromuscular Module Acute Version 3.0 Parent Report for Young Child - Get Hurt Accidentally", "submissionValue": "PQL1714", "synonyms": ["PQL17-Get Hurt Accidentally"]}, {"conceptId": "C138604", "definition": "Pediatric Quality of Life Neuromuscular Module Acute Version 3 Young Child Parent Report - In the past 7 days, how much of a problem has this been for your child: My child takes a long time to eat.", "preferredTerm": "PedsQL Neuromuscular Module Acute Version 3.0 Parent Report for Young Child - Take Long Time to Eat", "submissionValue": "PQL1715", "synonyms": ["PQL17-Take Long Time to Eat"]}, {"conceptId": "C138605", "definition": "Pediatric Quality of Life Neuromuscular Module Acute Version 3 Young Child Parent Report - In the past 7 days, how much of a problem has this been for your child: It is hard for my child to turn him or herself during the night.", "preferredTerm": "PedsQL Neuromuscular Module Acute Version 3.0 Parent Report for Young Child - Hard to Turn During Night", "submissionValue": "PQL1716", "synonyms": ["PQL17-Hard to Turn During Night"]}, {"conceptId": "C138606", "definition": "Pediatric Quality of Life Neuromuscular Module Acute Version 3 Young Child Parent Report - In the past 7 days, how much of a problem has this been for your child: It is hard for my child to go places with his or her equipment.", "preferredTerm": "PedsQL Neuromuscular Module Acute Version 3.0 Parent Report for Young Child - Hard to Go Places With Equipment", "submissionValue": "PQL1717", "synonyms": ["PQL17-Hard to Go Places With Equipment"]}, {"conceptId": "C138607", "definition": "Pediatric Quality of Life Neuromuscular Module Acute Version 3 Young Child Parent Report - In the past 7 days, how much of a problem has this been for your child: It is hard for my child to tell the doctors and nurses how he or she feels.", "preferredTerm": "PedsQL Neuromuscular Module Acute Version 3.0 Parent Report for Young Child - Hard Tell Doctors and Nurses How Feel", "submissionValue": "PQL1718", "synonyms": ["PQL17-Hard Tell Doctors/Nurses How Feel"]}, {"conceptId": "C138608", "definition": "Pediatric Quality of Life Neuromuscular Module Acute Version 3 Young Child Parent Report - In the past 7 days, how much of a problem has this been for your child: It is hard for my child to ask the doctors and nurses questions.", "preferredTerm": "PedsQL Neuromuscular Module Acute Version 3.0 Parent Report for Young Child - Hard Ask Doctors and Nurses Questions", "submissionValue": "PQL1719", "synonyms": ["PQL17-Hard Ask Doctors/Nurses Questions"]}, {"conceptId": "C138609", "definition": "Pediatric Quality of Life Neuromuscular Module Acute Version 3 Young Child Parent Report - In the past 7 days, how much of a problem has this been for your child: It is hard for my child to explain his or her illness to other people.", "preferredTerm": "PedsQL Neuromuscular Module Acute Version 3.0 Parent Report for Young Child - Hard Explain Illness to People", "submissionValue": "PQL1720", "synonyms": ["PQL17-Hard Explain Illness to People"]}, {"conceptId": "C138610", "definition": "Pediatric Quality of Life Neuromuscular Module Acute Version 3 Young Child Parent Report - In the past 7 days, how much of a problem has this been for your child: It is hard for our family to plan activities like vacations.", "preferredTerm": "PedsQL Neuromuscular Module Acute Version 3.0 Parent Report for Young Child - Hard for Family to Plan Activities", "submissionValue": "PQL1721", "synonyms": ["PQL17-Hard for Family to Plan Activities"]}, {"conceptId": "C138611", "definition": "Pediatric Quality of Life Neuromuscular Module Acute Version 3 Young Child Parent Report - In the past 7 days, how much of a problem has this been for your child: It is hard for our family to get enough rest.", "preferredTerm": "PedsQL Neuromuscular Module Acute Version 3.0 Parent Report for Young Child - Hard for Family to Rest", "submissionValue": "PQL1722", "synonyms": ["PQL17-Hard for Family to Rest"]}, {"conceptId": "C138612", "definition": "Pediatric Quality of Life Neuromuscular Module Acute Version 3 Young Child Parent Report - In the past 7 days, how much of a problem has this been for your child: I think money is a problem in our family.", "preferredTerm": "PedsQL Neuromuscular Module Acute Version 3.0 Parent Report for Young Child - Money Problem in Our Family", "submissionValue": "PQL1723", "synonyms": ["PQL17-Money Problem in Our Family"]}, {"conceptId": "C138613", "definition": "Pediatric Quality of Life Neuromuscular Module Acute Version 3 Young Child Parent Report - In the past 7 days, how much of a problem has this been for your child: I think our family has a lot of problems.", "preferredTerm": "PedsQL Neuromuscular Module Acute Version 3.0 Parent Report for Young Child - Family Has Lot of Problems", "submissionValue": "PQL1724", "synonyms": ["PQL17-Family Has Lot of Problems"]}, {"conceptId": "C138614", "definition": "Pediatric Quality of Life Neuromuscular Module Acute Version 3 Young Child Parent Report - In the past 7 days, how much of a problem has this been for your child: My child does not have the equipment he or she needs.", "preferredTerm": "PedsQL Neuromuscular Module Acute Version 3.0 Parent Report for Young Child - Do Not Have Equipment Need", "submissionValue": "PQL1725", "synonyms": ["PQL17-Do Not Have Equipment Need"]}]}