{"_links": {"parentPackage": {"href": "/mdr/ct/packages/sdtmct-2021-09-24", "title": "SDTM Controlled Terminology Package 47 Effective 2021-09-24", "type": "Terminology"}, "priorVersion": {"href": "/mdr/ct/packages/sdtmct-2021-06-25/codelists/C138245", "title": "CDISC Questionnaire PedsQL Neuromuscular Module Version 3.0 Child Report Test Code Terminology", "type": "Code List"}, "rootItem": {"href": "/mdr/root/ct/sdtmct/codelists/C138245", "title": "Version-agnostic anchor resource for codelist C138245", "type": "Root Value Domain"}, "self": {"href": "/mdr/ct/packages/sdtmct-2021-09-24/codelists/C138245", "title": "CDISC Questionnaire PedsQL Neuromuscular Module Version 3.0 Child Report Test Code Terminology", "type": "Code List"}}, "conceptId": "C138245", "definition": "Pediatric Quality of Life Neuromuscular Module Version 3 Child test code.", "extensible": "false", "name": "Pediatric Quality of Life Neuromuscular Module Version 3 Child Questionnaire Test Code", "preferredTerm": "CDISC Questionnaire PedsQL Neuromuscular Module Version 3.0 Child Report Test Code Terminology", "submissionValue": "PQL05TC", "synonyms": ["Pediatric Quality of Life Neuromuscular Module Version 3 Child Questionnaire Test Code"], "terms": [{"conceptId": "C138682", "definition": "Pediatric Quality of Life Neuromuscular Module Version 3 Child - In the past one month, how much of a problem has this been for you: It is hard to breathe.", "preferredTerm": "PedsQL Neuromuscular Module Version 3.0 Child Report - Hard to Breathe", "submissionValue": "PQL0501", "synonyms": ["PQL05-Hard to Breathe"]}, {"conceptId": "C138683", "definition": "Pediatric Quality of Life Neuromuscular Module Version 3 Child - In the past one month, how much of a problem has this been for you: I get sick easily.", "preferredTerm": "PedsQL Neuromuscular Module Version 3.0 Child Report - Get Sick Easily", "submissionValue": "PQL0502", "synonyms": ["PQL05-Get Sick Easily"]}, {"conceptId": "C138684", "definition": "Pediatric Quality of Life Neuromuscular Module Version 3 Child - In the past one month, how much of a problem has this been for you: I get sores and/or rashes.", "preferredTerm": "PedsQL Neuromuscular Module Version 3.0 Child Report - Get Sores and/or Rashes", "submissionValue": "PQL0503", "synonyms": ["PQL05-Get Sores and/or Rashes"]}, {"conceptId": "C138685", "definition": "Pediatric Quality of Life Neuromuscular Module Version 3 Child - In the past one month, how much of a problem has this been for you: My legs hurt.", "preferredTerm": "PedsQL Neuromuscular Module Version 3.0 Child Report - Legs Hurt", "submissionValue": "PQL0504", "synonyms": ["PQL05-Legs Hurt"]}, {"conceptId": "C138686", "definition": "Pediatric Quality of Life Neuromuscular Module Version 3 Child - In the past one month, how much of a problem has this been for you: I feel tired.", "preferredTerm": "PedsQL Neuromuscular Module Version 3.0 Child Report - Feel Tired", "submissionValue": "PQL0505", "synonyms": ["PQL05-Feel Tired"]}, {"conceptId": "C138687", "definition": "Pediatric Quality of Life Neuromuscular Module Version 3 Child - In the past one month, how much of a problem has this been for you: My back feels stiff.", "preferredTerm": "PedsQL Neuromuscular Module Version 3.0 Child Report - Back Feels Stiff", "submissionValue": "PQL0506", "synonyms": ["PQL05-Back Feels Stiff"]}, {"conceptId": "C138688", "definition": "Pediatric Quality of Life Neuromuscular Module Version 3 Child - In the past one month, how much of a problem has this been for you: I wake up tired.", "preferredTerm": "PedsQL Neuromuscular Module Version 3.0 Child Report - Wake Up Tired", "submissionValue": "PQL0507", "synonyms": ["PQL05-Wake Up Tired"]}, {"conceptId": "C138689", "definition": "Pediatric Quality of Life Neuromuscular Module Version 3 Child - In the past one month, how much of a problem has this been for you: My hands are weak.", "preferredTerm": "PedsQL Neuromuscular Module Version 3.0 Child Report - Hands Are Weak", "submissionValue": "PQL0508", "synonyms": ["PQL05-Hands Are Weak"]}, {"conceptId": "C138690", "definition": "Pediatric Quality of Life Neuromuscular Module Version 3 Child - In the past one month, how much of a problem has this been for you: It is hard to use the bathroom.", "preferredTerm": "PedsQL Neuromuscular Module Version 3.0 Child Report - Hard to Use Bathroom", "submissionValue": "PQL0509", "synonyms": ["PQL05-Hard to Use Bathroom"]}, {"conceptId": "C138691", "definition": "Pediatric Quality of Life Neuromuscular Module Version 3 Child - In the past one month, how much of a problem has this been for you: It is hard to gain or lose weight when I want to.", "preferredTerm": "PedsQL Neuromuscular Module Version 3.0 Child Report - Hard to Gain or Lose Weight", "submissionValue": "PQL0510", "synonyms": ["PQL05-Hard to Gain/Lose Weight"]}, {"conceptId": "C138692", "definition": "Pediatric Quality of Life Neuromuscular Module Version 3 Child - In the past one month, how much of a problem has this been for you: It is hard to use my hands.", "preferredTerm": "PedsQL Neuromuscular Module Version 3.0 Child Report - Hard to Use Hands", "submissionValue": "PQL0511", "synonyms": ["PQL05-Hard to Use Hands"]}, {"conceptId": "C138693", "definition": "Pediatric Quality of Life Neuromuscular Module Version 3 Child - In the past one month, how much of a problem has this been for you: It is hard to swallow food.", "preferredTerm": "PedsQL Neuromuscular Module Version 3.0 Child Report - Hard to Swallow Food", "submissionValue": "PQL0512", "synonyms": ["PQL05-Hard to Swallow Food"]}, {"conceptId": "C138694", "definition": "Pediatric Quality of Life Neuromuscular Module Version 3 Child - In the past one month, how much of a problem has this been for you: It takes me a long time to bathe or shower.", "preferredTerm": "PedsQL Neuromuscular Module Version 3.0 Child Report - Long Time to Bathe or Shower", "submissionValue": "PQL0513", "synonyms": ["PQL05-Long Time to Bathe/Shower"]}, {"conceptId": "C138695", "definition": "Pediatric Quality of Life Neuromuscular Module Version 3 Child - In the past one month, how much of a problem has this been for you: I get hurt accidentally.", "preferredTerm": "PedsQL Neuromuscular Module Version 3.0 Child Report - Get Hurt Accidentally", "submissionValue": "PQL0514", "synonyms": ["PQL05-Get Hurt Accidentally"]}, {"conceptId": "C138696", "definition": "Pediatric Quality of Life Neuromuscular Module Version 3 Child - In the past one month, how much of a problem has this been for you: I take a long time to eat.", "preferredTerm": "PedsQL Neuromuscular Module Version 3.0 Child Report - Take Long Time to Eat", "submissionValue": "PQL0515", "synonyms": ["PQL05-Take Long Time to Eat"]}, {"conceptId": "C138697", "definition": "Pediatric Quality of Life Neuromuscular Module Version 3 Child - In the past one month, how much of a problem has this been for you: It is hard to turn myself during the night.", "preferredTerm": "PedsQL Neuromuscular Module Version 3.0 Child Report - Hard to Turn During Night", "submissionValue": "PQL0516", "synonyms": ["PQL05-Hard to Turn During Night"]}, {"conceptId": "C138698", "definition": "Pediatric Quality of Life Neuromuscular Module Version 3 Child - In the past one month, how much of a problem has this been for you: It is hard for me to go places with my equipment.", "preferredTerm": "PedsQL Neuromuscular Module Version 3.0 Child Report - Hard to Go Places With Equipment", "submissionValue": "PQL0517", "synonyms": ["PQL05-Hard to Go Places With Equipment"]}, {"conceptId": "C138699", "definition": "Pediatric Quality of Life Neuromuscular Module Version 3 Child - In the past one month, how much of a problem has this been for you: It is hard for me to tell the doctors and nurses how I feel.", "preferredTerm": "PedsQL Neuromuscular Module Version 3.0 Child Report - Hard Tell Doctors and Nurses How Feel", "submissionValue": "PQL0518", "synonyms": ["PQL05-Hard Tell Doctors/Nurses How Feel"]}, {"conceptId": "C138700", "definition": "Pediatric Quality of Life Neuromuscular Module Version 3 Child - In the past one month, how much of a problem has this been for you: It is hard for me to ask the doctors and nurses questions.", "preferredTerm": "PedsQL Neuromuscular Module Version 3.0 Child Report - Hard Ask Doctors and Nurses Questions", "submissionValue": "PQL0519", "synonyms": ["PQL05-Hard Ask Doctors/Nurses Questions"]}, {"conceptId": "C138701", "definition": "Pediatric Quality of Life Neuromuscular Module Version 3 Child - In the past one month, how much of a problem has this been for you: It is hard for me to explain my illness to other people.", "preferredTerm": "PedsQL Neuromuscular Module Version 3.0 Child Report - Hard Explain Illness to People", "submissionValue": "PQL0520", "synonyms": ["PQL05-Hard Explain Illness to People"]}, {"conceptId": "C138702", "definition": "Pediatric Quality of Life Neuromuscular Module Version 3 Child - In the past one month, how much of a problem has this been for you: It is hard for my family to plan activities like vacations.", "preferredTerm": "PedsQL Neuromuscular Module Version 3.0 Child Report - Hard for Family to Plan Activities", "submissionValue": "PQL0521", "synonyms": ["PQL05-Hard for Family to Plan Activities"]}, {"conceptId": "C138703", "definition": "Pediatric Quality of Life Neuromuscular Module Version 3 Child - In the past one month, how much of a problem has this been for you: It is hard for my family to get enough rest.", "preferredTerm": "PedsQL Neuromuscular Module Version 3.0 Child Report - Hard for Family to Rest", "submissionValue": "PQL0522", "synonyms": ["PQL05-Hard for Family to Rest"]}, {"conceptId": "C138704", "definition": "Pediatric Quality of Life Neuromuscular Module Version 3 Child - In the past one month, how much of a problem has this been for you: I think money is a problem in our family.", "preferredTerm": "PedsQL Neuromuscular Module Version 3.0 Child Report - Money Problem in Our Family", "submissionValue": "PQL0523", "synonyms": ["PQL05-Money Problem in Our Family"]}, {"conceptId": "C138705", "definition": "Pediatric Quality of Life Neuromuscular Module Version 3 Child - In the past one month, how much of a problem has this been for you: I think my family has a lot of problems.", "preferredTerm": "PedsQL Neuromuscular Module Version 3.0 Child Report - Family Has Lot of Problems", "submissionValue": "PQL0524", "synonyms": ["PQL05-Family Has Lot of Problems"]}, {"conceptId": "C138706", "definition": "Pediatric Quality of Life Neuromuscular Module Version 3 Child - In the past one month, how much of a problem has this been for you: I do not have the equipment I need.", "preferredTerm": "PedsQL Neuromuscular Module Version 3.0 Child Report - Do Not Have Equipment Need", "submissionValue": "PQL0525", "synonyms": ["PQL05-Do Not Have Equipment Need"]}]}