{"_links": {"parentPackage": {"href": "/mdr/ct/packages/sdtmct-2021-09-24", "title": "SDTM Controlled Terminology Package 47 Effective 2021-09-24", "type": "Terminology"}, "priorVersion": {"href": "/mdr/ct/packages/sdtmct-2021-06-25/codelists/C138220", "title": "CDISC Questionnaire FBRSI Test Name Terminology", "type": "Code List"}, "rootItem": {"href": "/mdr/root/ct/sdtmct/codelists/C138220", "title": "Version-agnostic anchor resource for codelist C138220", "type": "Root Value Domain"}, "self": {"href": "/mdr/ct/packages/sdtmct-2021-09-24/codelists/C138220", "title": "CDISC Questionnaire FBRSI Test Name Terminology", "type": "Code List"}}, "conceptId": "C138220", "definition": "Functional Assessment of Cancer Therapy-Brain Symptom Index test name.", "extensible": "false", "name": "Functional Assessment of Cancer Therapy-Brain Symptom Index Questionnaire Test Name", "preferredTerm": "CDISC Questionnaire FBRSI Test Name Terminology", "submissionValue": "FAC029TN", "synonyms": ["Functional Assessment of Cancer Therapy-Brain Symptom Index Questionnaire Test Name"], "terms": [{"conceptId": "C138438", "definition": "Functional Assessment of Cancer Therapy-Brain Symptom Index - I am able to find the right word(s) to say what I mean.", "preferredTerm": "FBRSI - Able to Find the Right Words", "submissionValue": "FAC029-Able to Find the Right Words", "synonyms": ["FAC029-Able to Find the Right Words"]}, {"conceptId": "C138434", "definition": "Functional Assessment of Cancer Therapy-Brain Symptom Index - I have difficulty expressing my thoughts.", "preferredTerm": "FBRSI - Difficulty Expressing My Thoughts", "submissionValue": "FAC029-Difficulty Expressing My Thoughts", "synonyms": ["FAC029-Difficulty Expressing My Thoughts"]}, {"conceptId": "C138436", "definition": "Functional Assessment of Cancer Therapy-Brain Symptom Index - I get frustrated that I cannot do things I used to.", "preferredTerm": "FBRSI - Frustrated I Cannot Do Things", "submissionValue": "FAC029-Frustrated I Cannot Do Things", "synonyms": ["FAC029-Frustrated I Cannot Do Things"]}, {"conceptId": "C138431", "definition": "Functional Assessment of Cancer Therapy-Brain Symptom Index - I have weakness in my arms or legs.", "preferredTerm": "FBRSI - Have Weakness in My Arms or Legs", "submissionValue": "FAC029-Have Weakness in My Arms or Legs", "synonyms": ["FAC029-Have Weakness in My Arms or Legs"]}, {"conceptId": "C138443", "definition": "Functional Assessment of Cancer Therapy-Brain Symptom Index - I am able to enjoy life.", "preferredTerm": "FBRSI - I Am Able to Enjoy Life", "submissionValue": "FAC029-I Am Able to Enjoy Life", "synonyms": ["FAC029-I Am Able to Enjoy Life"]}, {"conceptId": "C138442", "definition": "Functional Assessment of Cancer Therapy-Brain Symptom Index - I am afraid of having a seizure (convulsion).", "preferredTerm": "FBRSI - I Am Afraid of Having a Seizure", "submissionValue": "FAC029-I Am Afraid of Having a Seizure", "synonyms": ["FAC029-I Am Afraid of Having a Seizure"]}, {"conceptId": "C138429", "definition": "Functional Assessment of Cancer Therapy-Brain Symptom Index - I get headaches.", "preferredTerm": "FBRSI - I Get Headaches", "submissionValue": "FAC029-I Get Headaches", "synonyms": ["FAC029-I Get Headaches"]}, {"conceptId": "C138433", "definition": "Functional Assessment of Cancer Therapy-Brain Symptom Index - I have a lack of energy.", "preferredTerm": "FBRSI - I Have a Lack of Energy", "submissionValue": "FAC029-I Have a Lack of Energy", "synonyms": ["FAC029-I Have a Lack of Energy"]}, {"conceptId": "C138430", "definition": "Functional Assessment of Cancer Therapy-Brain Symptom Index - I have had seizures (convulsions).", "preferredTerm": "FBRSI - I Have Had Seizures", "submissionValue": "FAC029-I Have Had Seizures", "synonyms": ["FAC029-I Have Had Seizures"]}, {"conceptId": "C138437", "definition": "Functional Assessment of Cancer Therapy-Brain Symptom Index - I have nausea.", "preferredTerm": "FBRSI - I Have Nausea", "submissionValue": "FAC029-I Have Nausea", "synonyms": ["FAC029-I Have Nausea"]}, {"conceptId": "C138435", "definition": "Functional Assessment of Cancer Therapy-Brain Symptom Index - I have trouble with coordination.", "preferredTerm": "FBRSI - I Have Trouble With Coordination", "submissionValue": "FAC029-I Have Trouble With Coordination", "synonyms": ["FAC029-I Have Trouble With Coordination"]}, {"conceptId": "C138432", "definition": "Functional Assessment of Cancer Therapy-Brain Symptom Index - I need help in caring for myself (bathing, dressing, eating, etc.).", "preferredTerm": "FBRSI - I Need Help in Caring for Myself", "submissionValue": "FAC029-I Need Help in Caring for Myself", "synonyms": ["FAC029-I Need Help in Caring for Myself"]}, {"conceptId": "C138439", "definition": "Functional Assessment of Cancer Therapy-Brain Symptom Index - I am losing hope in the fight against my illness.", "preferredTerm": "FBRSI - Losing Hope Against Illness", "submissionValue": "FAC029-Losing Hope Against Illness", "synonyms": ["FAC029-Losing Hope Against Illness"]}, {"conceptId": "C138440", "definition": "Functional Assessment of Cancer Therapy-Brain Symptom Index - Because of my physical condition, I have trouble meeting the needs of my family.", "preferredTerm": "FBRSI - Trouble Meeting Needs of Family", "submissionValue": "FAC029-Trouble Meeting Needs of Family", "synonyms": ["FAC029-Trouble Meeting Needs of Family"]}, {"conceptId": "C138441", "definition": "Functional Assessment of Cancer Therapy-Brain Symptom Index - I worry that my condition will get worse.", "preferredTerm": "FBRSI - Worry My Condition Will Get Worse", "submissionValue": "FAC029-Worry My Condition Will Get Worse", "synonyms": ["FAC029-Worry My Condition Will Get Worse"]}]}