{"_links": {"parentPackage": {"href": "/mdr/ct/packages/sdtmct-2021-09-24", "title": "SDTM Controlled Terminology Package 47 Effective 2021-09-24", "type": "Terminology"}, "priorVersion": {"href": "/mdr/ct/packages/sdtmct-2021-06-25/codelists/C141659", "title": "CDISC Functional Test Rising From Floor Test Code Terminology", "type": "Code List"}, "rootItem": {"href": "/mdr/root/ct/sdtmct/codelists/C141659", "title": "Version-agnostic anchor resource for codelist C141659", "type": "Root Value Domain"}, "self": {"href": "/mdr/ct/packages/sdtmct-2021-09-24/codelists/C141659", "title": "CDISC Functional Test Rising From Floor Test Code Terminology", "type": "Code List"}}, "conceptId": "C141659", "definition": "Rising From Floor test code.", "extensible": "false", "name": "Rising From Floor Functional Test Test Code", "preferredTerm": "CDISC Functional Test Rising From Floor Test Code Terminology", "submissionValue": "RISEF1TC", "synonyms": ["Rising From Floor Functional Test Test Code"], "terms": [{"conceptId": "C174105", "definition": "Rising From Floor - Was Rising From Floor performed?", "preferredTerm": "Rising From Floor - Was Rising From Floor Performed", "submissionValue": "RISEF101", "synonyms": ["RISEF1-Was Rising From Floor Performed"]}, {"conceptId": "C141702", "definition": "Rising From Floor - If yes, time taken to rise from floor.", "preferredTerm": "Rising From Floor - Time to Rise From Floor", "submissionValue": "RISEF102", "synonyms": ["RISEF1-Time to Rise From Floor"]}, {"conceptId": "C151073", "definition": "Rising From Floor - If yes, did subject wear orthoses?", "preferredTerm": "Rising From Floor - Wear Orthoses", "submissionValue": "RISEF103", "synonyms": ["RISEF1-Wear Orthoses"]}, {"conceptId": "C141703", "definition": "Rising From Floor - Test grade.", "preferredTerm": "Rising From Floor - Test Grade", "submissionValue": "RISEF104", "synonyms": ["RISEF1-Test Grade"]}]}