{"_links": {"parentPackage": {"href": "/mdr/ct/packages/sdtmct-2021-09-24", "title": "SDTM Controlled Terminology Package 47 Effective 2021-09-24", "type": "Terminology"}, "priorVersion": {"href": "/mdr/ct/packages/sdtmct-2021-06-25/codelists/C150780", "title": "CDISC Questionnaire FACT/GOG-NTX Version 4 Test Code Terminology", "type": "Code List"}, "rootItem": {"href": "/mdr/root/ct/sdtmct/codelists/C150780", "title": "Version-agnostic anchor resource for codelist C150780", "type": "Root Value Domain"}, "self": {"href": "/mdr/ct/packages/sdtmct-2021-09-24/codelists/C150780", "title": "CDISC Questionnaire FACT/GOG-NTX Version 4 Test Code Terminology", "type": "Code List"}}, "conceptId": "C150780", "definition": "Functional Assessment of Cancer Therapy/Gynecologic Oncology Group-Neurotoxicity Version 4 test code.", "extensible": "false", "name": "Functional Assessment of Cancer Therapy/Gynecologic Oncology Group-Neurotoxicity Version 4 Questionnaire Test Code", "preferredTerm": "CDISC Questionnaire FACT/GOG-NTX Version 4 Test Code Terminology", "submissionValue": "FAC057TC", "synonyms": ["Functional Assessment of Cancer Therapy/Gynecologic Oncology Group-Neurotoxicity Version 4 Questionnaire Test Code"], "terms": [{"conceptId": "C151196", "definition": "Functional Assessment of Cancer Therapy/Gynecologic Oncology Group-Neurotoxicity Version 4 - Physical Well-Being: I have a lack of energy.", "preferredTerm": "FACT/GOG-NTX Version 4 - I Have a Lack of Energy", "submissionValue": "FAC05701", "synonyms": ["FAC057-I Have a Lack of Energy"]}, {"conceptId": "C151197", "definition": "Functional Assessment of Cancer Therapy/Gynecologic Oncology Group-Neurotoxicity Version 4 - Physical Well-Being: I have nausea.", "preferredTerm": "FACT/GOG-NTX Version 4 - I Have Nausea", "submissionValue": "FAC05702", "synonyms": ["FAC057-I Have Nausea"]}, {"conceptId": "C151198", "definition": "Functional Assessment of Cancer Therapy/Gynecologic Oncology Group-Neurotoxicity Version 4 - Physical Well-Being: Because of my physical condition, I have trouble meeting the needs of my family.", "preferredTerm": "FACT/GOG-NTX Version 4 - Trouble Meeting Needs of Family", "submissionValue": "FAC05703", "synonyms": ["FAC057-Trouble Meeting Needs of Family"]}, {"conceptId": "C151199", "definition": "Functional Assessment of Cancer Therapy/Gynecologic Oncology Group-Neurotoxicity Version 4 - Physical Well-Being: I have pain.", "preferredTerm": "FACT/GOG-NTX Version 4 - I Have Pain", "submissionValue": "FAC05704", "synonyms": ["FAC057-I Have Pain"]}, {"conceptId": "C151200", "definition": "Functional Assessment of Cancer Therapy/Gynecologic Oncology Group-Neurotoxicity Version 4 - Physical Well-Being: I am bothered by side effects of treatment.", "preferredTerm": "FACT/GOG-NTX Version 4 - Bothered by Treatment Side Effect", "submissionValue": "FAC05705", "synonyms": ["FAC057-Bothered by Treatment Side Effect"]}, {"conceptId": "C151201", "definition": "Functional Assessment of Cancer Therapy/Gynecologic Oncology Group-Neurotoxicity Version 4 - Physical Well-Being: I feel ill.", "preferredTerm": "FACT/GOG-NTX Version 4 - I Feel Ill", "submissionValue": "FAC05706", "synonyms": ["FAC057-I Feel Ill"]}, {"conceptId": "C151202", "definition": "Functional Assessment of Cancer Therapy/Gynecologic Oncology Group-Neurotoxicity Version 4 - Physical Well-Being: I am forced to spend time in bed.", "preferredTerm": "FACT/GOG-NTX Version 4 - I Am Forced to Spend Time in Bed", "submissionValue": "FAC05707", "synonyms": ["FAC057-I Am Forced to Spend Time in Bed"]}, {"conceptId": "C151203", "definition": "Functional Assessment of Cancer Therapy/Gynecologic Oncology Group-Neurotoxicity Version 4 - Social/Family Well-Being: I feel close to my friends.", "preferredTerm": "FACT/GOG-NTX Version 4 - I Feel Close to My Friends", "submissionValue": "FAC05708", "synonyms": ["FAC057-I Feel Close to My Friends"]}, {"conceptId": "C151204", "definition": "Functional Assessment of Cancer Therapy/Gynecologic Oncology Group-Neurotoxicity Version 4 - Social/Family Well-Being: I get emotional support from my family.", "preferredTerm": "FACT/GOG-NTX Version 4 - Get Emotional Support From Family", "submissionValue": "FAC05709", "synonyms": ["FAC057-Get Emotional Support From Family"]}, {"conceptId": "C151205", "definition": "Functional Assessment of Cancer Therapy/Gynecologic Oncology Group-Neurotoxicity Version 4 - Social/Family Well-Being: I get support from my friends.", "preferredTerm": "FACT/GOG-NTX Version 4 - I Get Support From My Friends", "submissionValue": "FAC05710", "synonyms": ["FAC057-I Get Support From My Friends"]}, {"conceptId": "C151206", "definition": "Functional Assessment of Cancer Therapy/Gynecologic Oncology Group-Neurotoxicity Version 4 - Social/Family Well-Being: My family has accepted my illness.", "preferredTerm": "FACT/GOG-NTX Version 4 - My Family Has Accepted My Illness", "submissionValue": "FAC05711", "synonyms": ["FAC057-My Family Has Accepted My Illness"]}, {"conceptId": "C151207", "definition": "Functional Assessment of Cancer Therapy/Gynecologic Oncology Group-Neurotoxicity Version 4 - Social/Family Well-Being: I am satisfied with family communication about my illness.", "preferredTerm": "FACT/GOG-NTX Version 4 - Satisfied Communication Illness", "submissionValue": "FAC05712", "synonyms": ["FAC057-Satisfied Communication Illness"]}, {"conceptId": "C151208", "definition": "Functional Assessment of Cancer Therapy/Gynecologic Oncology Group-Neurotoxicity Version 4 - Social/Family Well-Being: I feel close to my partner (or the person who is my main support).", "preferredTerm": "FACT/GOG-NTX Version 4 - I Feel Close to My Partner", "submissionValue": "FAC05713", "synonyms": ["FAC057-I Feel Close to My Partner"]}, {"conceptId": "C151209", "definition": "Functional Assessment of Cancer Therapy/Gynecologic Oncology Group-Neurotoxicity Version 4 - Social/Family Well-Being: I am satisfied with my sex life.", "preferredTerm": "FACT/GOG-NTX Version 4 - I Am Satisfied With My Sex Life", "submissionValue": "FAC05714", "synonyms": ["FAC057-I Am Satisfied With My Sex Life"]}, {"conceptId": "C151210", "definition": "Functional Assessment of Cancer Therapy/Gynecologic Oncology Group-Neurotoxicity Version 4 - Emotional Well-Being: I feel sad.", "preferredTerm": "FACT/GOG-NTX Version 4 - I Feel Sad", "submissionValue": "FAC05715", "synonyms": ["FAC057-I Feel Sad"]}, {"conceptId": "C151211", "definition": "Functional Assessment of Cancer Therapy/Gynecologic Oncology Group-Neurotoxicity Version 4 - Emotional Well-Being: I am satisfied with how I am coping with my illness.", "preferredTerm": "FACT/GOG-NTX Version 4 - Satisfied With How I Am Coping", "submissionValue": "FAC05716", "synonyms": ["FAC057-Satisfied With How I Am Coping"]}, {"conceptId": "C151212", "definition": "Functional Assessment of Cancer Therapy/Gynecologic Oncology Group-Neurotoxicity Version 4 - Emotional Well-Being: I am losing hope in the fight against my illness.", "preferredTerm": "FACT/GOG-NTX Version 4 - Losing Hope Against Illness", "submissionValue": "FAC05717", "synonyms": ["FAC057-Losing Hope Against Illness"]}, {"conceptId": "C151213", "definition": "Functional Assessment of Cancer Therapy/Gynecologic Oncology Group-Neurotoxicity Version 4 - Emotional Well-Being: I feel nervous.", "preferredTerm": "FACT/GOG-NTX Version 4 - I Feel Nervous", "submissionValue": "FAC05718", "synonyms": ["FAC057-I Feel Nervous"]}, {"conceptId": "C151214", "definition": "Functional Assessment of Cancer Therapy/Gynecologic Oncology Group-Neurotoxicity Version 4 - Emotional Well-Being: I worry about dying.", "preferredTerm": "FACT/GOG-NTX Version 4 - I Worry About Dying", "submissionValue": "FAC05719", "synonyms": ["FAC057-I Worry About Dying"]}, {"conceptId": "C151215", "definition": "Functional Assessment of Cancer Therapy/Gynecologic Oncology Group-Neurotoxicity Version 4 - Emotional Well-Being: I worry that my condition will get worse.", "preferredTerm": "FACT/GOG-NTX Version 4 - Worry My Condition Will Get Worse", "submissionValue": "FAC05720", "synonyms": ["FAC057-Worry My Condition Will Get Worse"]}, {"conceptId": "C151216", "definition": "Functional Assessment of Cancer Therapy/Gynecologic Oncology Group-Neurotoxicity Version 4 - Functional Well-Being: I am able to work (include work at home).", "preferredTerm": "FACT/GOG-NTX Version 4 - I Am Able to Work", "submissionValue": "FAC05721", "synonyms": ["FAC057-I Am Able to Work"]}, {"conceptId": "C151217", "definition": "Functional Assessment of Cancer Therapy/Gynecologic Oncology Group-Neurotoxicity Version 4 - Functional Well-Being: My work (include work at home) is fulfilling.", "preferredTerm": "FACT/GOG-NTX Version 4 - My Work Is Fulfilling", "submissionValue": "FAC05722", "synonyms": ["FAC057-My Work Is Fulfilling"]}, {"conceptId": "C151218", "definition": "Functional Assessment of Cancer Therapy/Gynecologic Oncology Group-Neurotoxicity Version 4 - Functional Well-Being: I am able to enjoy life.", "preferredTerm": "FACT/GOG-NTX Version 4 - I Am Able to Enjoy Life", "submissionValue": "FAC05723", "synonyms": ["FAC057-I Am Able to Enjoy Life"]}, {"conceptId": "C151219", "definition": "Functional Assessment of Cancer Therapy/Gynecologic Oncology Group-Neurotoxicity Version 4 - Functional Well-Being: I have accepted my illness.", "preferredTerm": "FACT/GOG-NTX Version 4 - I Have Accepted My Illness", "submissionValue": "FAC05724", "synonyms": ["FAC057-I Have Accepted My Illness"]}, {"conceptId": "C151220", "definition": "Functional Assessment of Cancer Therapy/Gynecologic Oncology Group-Neurotoxicity Version 4 - Functional Well-Being: I am sleeping well.", "preferredTerm": "FACT/GOG-NTX Version 4 - I Am Sleeping Well", "submissionValue": "FAC05725", "synonyms": ["FAC057-I Am Sleeping Well"]}, {"conceptId": "C151221", "definition": "Functional Assessment of Cancer Therapy/Gynecologic Oncology Group-Neurotoxicity Version 4 - Functional Well-Being: I am enjoying the things I usually do for fun.", "preferredTerm": "FACT/GOG-NTX Version 4 - Enjoy Things I Usually Do for Fun", "submissionValue": "FAC05726", "synonyms": ["FAC057-Enjoy Things I Usually Do for Fun"]}, {"conceptId": "C151222", "definition": "Functional Assessment of Cancer Therapy/Gynecologic Oncology Group-Neurotoxicity Version 4 - Functional Well-Being: I am content with the quality of my life right now.", "preferredTerm": "FACT/GOG-NTX Version 4 - Content With Quality of My Life", "submissionValue": "FAC05727", "synonyms": ["FAC057-Content With Quality of My Life"]}, {"conceptId": "C151223", "definition": "Functional Assessment of Cancer Therapy/Gynecologic Oncology Group-Neurotoxicity Version 4 - Additional Concerns: I have numbness or tingling in my hands.", "preferredTerm": "FACT/GOG-NTX Version 4 - Numbness or Tingling in My Hands", "submissionValue": "FAC05728", "synonyms": ["FAC057-Numbness or Tingling in My Hands"]}, {"conceptId": "C151224", "definition": "Functional Assessment of Cancer Therapy/Gynecologic Oncology Group-Neurotoxicity Version 4 - Additional Concerns: I have numbness or tingling in my feet.", "preferredTerm": "FACT/GOG-NTX Version 4 - Numbness or Tingling in My Feet", "submissionValue": "FAC05729", "synonyms": ["FAC057-Numbness or Tingling in My Feet"]}, {"conceptId": "C151225", "definition": "Functional Assessment of Cancer Therapy/Gynecologic Oncology Group-Neurotoxicity Version 4 - Additional Concerns: I feel discomfort in my hands.", "preferredTerm": "FACT/GOG-NTX Version 4 - I Feel Discomfort in My Hands", "submissionValue": "FAC05730", "synonyms": ["FAC057-I Feel Discomfort in My Hands"]}, {"conceptId": "C151226", "definition": "Functional Assessment of Cancer Therapy/Gynecologic Oncology Group-Neurotoxicity Version 4 - Additional Concerns: I feel discomfort in my feet.", "preferredTerm": "FACT/GOG-NTX Version 4 - I Feel Discomfort in My Feet", "submissionValue": "FAC05731", "synonyms": ["FAC057-I Feel Discomfort in My Feet"]}, {"conceptId": "C151227", "definition": "Functional Assessment of Cancer Therapy/Gynecologic Oncology Group-Neurotoxicity Version 4 - Additional Concerns: I have joint pain or muscle cramps.", "preferredTerm": "FACT/GOG-NTX Version 4 - Have Joint Pain or Muscle Cramps", "submissionValue": "FAC05732", "synonyms": ["FAC057-Have Joint Pain or Muscle Cramps"]}, {"conceptId": "C151228", "definition": "Functional Assessment of Cancer Therapy/Gynecologic Oncology Group-Neurotoxicity Version 4 - Additional Concerns: I feel weak all over.", "preferredTerm": "FACT/GOG-NTX Version 4 - I Feel Weak All Over", "submissionValue": "FAC05733", "synonyms": ["FAC057-I Feel Weak All Over"]}, {"conceptId": "C151229", "definition": "Functional Assessment of Cancer Therapy/Gynecologic Oncology Group-Neurotoxicity Version 4 - Additional Concerns: I have trouble hearing.", "preferredTerm": "FACT/GOG-NTX Version 4 - I Have Trouble Hearing", "submissionValue": "FAC05734", "synonyms": ["FAC057-I Have Trouble Hearing"]}, {"conceptId": "C151230", "definition": "Functional Assessment of Cancer Therapy/Gynecologic Oncology Group-Neurotoxicity Version 4 - Additional Concerns: I get a ringing or buzzing in my ears.", "preferredTerm": "FACT/GOG-NTX Version 4 - Get Ringing or Buzzing in My Ears", "submissionValue": "FAC05735", "synonyms": ["FAC057-Get Ringing or Buzzing in My Ears"]}, {"conceptId": "C151231", "definition": "Functional Assessment of Cancer Therapy/Gynecologic Oncology Group-Neurotoxicity Version 4 - Additional Concerns: I have trouble buttoning buttons.", "preferredTerm": "FACT/GOG-NTX Version 4 - I Have Trouble Buttoning Buttons", "submissionValue": "FAC05736", "synonyms": ["FAC057-I Have Trouble Buttoning Buttons"]}, {"conceptId": "C151232", "definition": "Functional Assessment of Cancer Therapy/Gynecologic Oncology Group-Neurotoxicity Version 4 - Additional Concerns: I have trouble feeling the shape of small objects when they are in my hand.", "preferredTerm": "FACT/GOG-NTX Version 4 - Trouble Feeling Shape of Objects", "submissionValue": "FAC05737", "synonyms": ["FAC057-Trouble Feeling Shape of Objects"]}, {"conceptId": "C151233", "definition": "Functional Assessment of Cancer Therapy/Gynecologic Oncology Group-Neurotoxicity Version 4 - Additional Concerns: I have trouble walking.", "preferredTerm": "FACT/GOG-NTX Version 4 - I Have Trouble Walking", "submissionValue": "FAC05738", "synonyms": ["FAC057-I Have Trouble Walking"]}]}