{"_links": {"parentPackage": {"href": "/mdr/ct/packages/sdtmct-2021-09-24", "title": "SDTM Controlled Terminology Package 47 Effective 2021-09-24", "type": "Terminology"}, "priorVersion": {"href": "/mdr/ct/packages/sdtmct-2021-06-25/codelists/C160924", "title": "CDISC SDTM Implementation Guide Version Response Terminology", "type": "Code List"}, "rootItem": {"href": "/mdr/root/ct/sdtmct/codelists/C160924", "title": "Version-agnostic anchor resource for codelist C160924", "type": "Root Value Domain"}, "self": {"href": "/mdr/ct/packages/sdtmct-2021-09-24/codelists/C160924", "title": "CDISC SDTM Implementation Guide Version Response Terminology", "type": "Code List"}}, "conceptId": "C160924", "definition": "Terminology relevant to the version of the study data tabulation model implementation guide used in the study.", "extensible": "true", "name": "SDTM IG Version Response", "preferredTerm": "CDISC SDTM Implementation Guide Version Response Terminology", "submissionValue": "SDTMIGRS", "synonyms": ["SDTM IG Version Response"], "terms": [{"conceptId": "C161432", "definition": "Version 3.1.1 of the CDISC Study Data Tabulation Model (SDTM) Implementation Guide.", "preferredTerm": "CDISC SDTM Implementation Guide Version 3.1.1", "submissionValue": "3.1.1", "synonyms": ["SDTMIG Version 3.1.1"]}, {"conceptId": "C161433", "definition": "Version 3.1.2 of the CDISC Study Data Tabulation Model (SDTM) Implementation Guide.", "preferredTerm": "CDISC SDTM Implementation Guide Version 3.1.2", "submissionValue": "3.1.2", "synonyms": ["SDTMIG Version 3.1.2"]}, {"conceptId": "C161435", "definition": "Version 3.1.3 of the CDISC Study Data Tabulation Model (SDTM) Implementation Guide.", "preferredTerm": "CDISC SDTM Implementation Guide Version 3.1.3", "submissionValue": "3.1.3", "synonyms": ["SDTMIG Version 3.1.3"]}, {"conceptId": "C161436", "definition": "Version 3.2 of the CDISC Study Data Tabulation Model (SDTM) Implementation Guide.", "preferredTerm": "CDISC SDTM Implementation Guide Version 3.2", "submissionValue": "3.2", "synonyms": ["SDTMIG Version 3.2"]}, {"conceptId": "C161437", "definition": "Version 3.3 of the CDISC Study Data Tabulation Model (SDTM) Implementation Guide.", "preferredTerm": "CDISC SDTM Implementation Guide Version 3.3", "submissionValue": "3.3", "synonyms": ["SDTMIG Version 3.3"]}, {"conceptId": "C161434", "definition": "Amendment 1 of the 3.1.2 version of the CDISC Study Data Tabulation Model (SDTM) Implementation Guide.", "preferredTerm": "CDISC SDTM Implementation Guide Version 3.1.2 Amendment 1", "submissionValue": "Version 3.1.2 Amendment 1", "synonyms": ["SDTMIG Version 3.1.2 Amendment 1"]}]}