{"_links": {"parentPackage": {"href": "/mdr/ct/packages/sdtmct-2021-09-24", "title": "SDTM Controlled Terminology Package 47 Effective 2021-09-24", "type": "Terminology"}, "priorVersion": {"href": "/mdr/ct/packages/sdtmct-2021-06-25/codelists/C161616", "title": "CDISC Questionnaire EORTC QLQ-C15-PAL Version 1 Test Name Terminology", "type": "Code List"}, "rootItem": {"href": "/mdr/root/ct/sdtmct/codelists/C161616", "title": "Version-agnostic anchor resource for codelist C161616", "type": "Root Value Domain"}, "self": {"href": "/mdr/ct/packages/sdtmct-2021-09-24/codelists/C161616", "title": "CDISC Questionnaire EORTC QLQ-C15-PAL Version 1 Test Name Terminology", "type": "Code List"}}, "conceptId": "C161616", "definition": "European Organisation for the Research and Treatment of Cancer Quality of Life Questionnaire - Palliative Care Version 1.0 test name.", "extensible": "false", "name": "European Organisation for the Research and Treatment of Cancer Quality of Life Questionnaire - Palliative Care Version 1.0 Questionnaire Test Name", "preferredTerm": "CDISC Questionnaire EORTC QLQ-C15-PAL Version 1 Test Name Terminology", "submissionValue": "EOR02TN", "synonyms": ["European Organisation for the Research and Treatment of Cancer Quality of Life Questionnaire - Palliative Care Version 1.0 Questionnaire Test Name"], "terms": [{"conceptId": "C161672", "definition": "European Organisation for the Research and Treatment of Cancer Quality of Life Questionnaire - Palliative Care Version 1.0 - During the past week: Did you feel depressed?", "preferredTerm": "EORTC QLQ-C15-PAL Version 1 - Did You Feel Depressed", "submissionValue": "EOR02-Did You Feel Depressed", "synonyms": ["EOR02-Did You Feel Depressed"]}, {"conceptId": "C161671", "definition": "European Organisation for the Research and Treatment of Cancer Quality of Life Questionnaire - Palliative Care Version 1.0 - During the past week: Did you feel tense?", "preferredTerm": "EORTC QLQ-C15-PAL Version 1 - Did You Feel Tense", "submissionValue": "EOR02-Did You Feel Tense", "synonyms": ["EOR02-Did You Feel Tense"]}, {"conceptId": "C161668", "definition": "European Organisation for the Research and Treatment of Cancer Quality of Life Questionnaire - Palliative Care Version 1.0 - During the past week: Have you been constipated?", "preferredTerm": "EORTC QLQ-C15-PAL Version 1 - Have You Been Constipated", "submissionValue": "EOR02-Have You Been Constipated", "synonyms": ["EOR02-Have You Been Constipated"]}, {"conceptId": "C161667", "definition": "European Organisation for the Research and Treatment of Cancer Quality of Life Questionnaire - Palliative Care Version 1.0 - During the past week: Have you felt nauseated?", "preferredTerm": "EORTC QLQ-C15-PAL Version 1 - Have You Felt Nauseated", "submissionValue": "EOR02-Have You Felt Nauseated", "synonyms": ["EOR02-Have You Felt Nauseated"]}, {"conceptId": "C161665", "definition": "European Organisation for the Research and Treatment of Cancer Quality of Life Questionnaire - Palliative Care Version 1.0 - During the past week: Have you felt weak?", "preferredTerm": "EORTC QLQ-C15-PAL Version 1 - Have You Felt Weak", "submissionValue": "EOR02-Have You Felt Weak", "synonyms": ["EOR02-Have You Felt Weak"]}, {"conceptId": "C161663", "definition": "European Organisation for the Research and Treatment of Cancer Quality of Life Questionnaire - Palliative Care Version 1.0 - During the past week: Have you had pain?", "preferredTerm": "EORTC QLQ-C15-PAL Version 1 - Have You Had Pain", "submissionValue": "EOR02-Have You Had Pain", "synonyms": ["EOR02-Have You Had Pain"]}, {"conceptId": "C161664", "definition": "European Organisation for the Research and Treatment of Cancer Quality of Life Questionnaire - Palliative Care Version 1.0 - During the past week: Have you had trouble sleeping?", "preferredTerm": "EORTC QLQ-C15-PAL Version 1 - Have You Had Trouble Sleeping", "submissionValue": "EOR02-Have You Had Trouble Sleeping", "synonyms": ["EOR02-Have You Had Trouble Sleeping"]}, {"conceptId": "C161666", "definition": "European Organisation for the Research and Treatment of Cancer Quality of Life Questionnaire - Palliative Care Version 1.0 - During the past week: Have you lacked appetite?", "preferredTerm": "EORTC QLQ-C15-PAL Version 1 - Have You Lacked Appetite", "submissionValue": "EOR02-Have You Lacked Appetite", "synonyms": ["EOR02-Have You Lacked Appetite"]}, {"conceptId": "C161661", "definition": "European Organisation for the Research and Treatment of Cancer Quality of Life Questionnaire - Palliative Care Version 1.0 - Do you need help with eating, dressing, washing yourself or using the toilet?", "preferredTerm": "EORTC QLQ-C15-PAL Version 1 - Need Help Eating, Dressing, Washing", "submissionValue": "EOR02-Need Help Eating/Dressing/Washing", "synonyms": ["EOR02-Need Help Eating/Dressing/Washing"]}, {"conceptId": "C161670", "definition": "European Organisation for the Research and Treatment of Cancer Quality of Life Questionnaire - Palliative Care Version 1.0 - During the past week: Did pain interfere with your daily activities?", "preferredTerm": "EORTC QLQ-C15-PAL Version 1 - Pain Interfere Daily Activities", "submissionValue": "EOR02-Pain Interfere Daily Activities", "synonyms": ["EOR02-Pain Interfere Daily Activities"]}, {"conceptId": "C161673", "definition": "European Organisation for the Research and Treatment of Cancer Quality of Life Questionnaire - Palliative Care Version 1.0 - How would you rate your overall quality of life during the past week?", "preferredTerm": "EORTC QLQ-C15-PAL Version 1 - Rate Your Overall Quality of Life", "submissionValue": "EOR02-Rate Your Overall Quality of Life", "synonyms": ["EOR02-Rate Your Overall Quality of Life"]}, {"conceptId": "C161660", "definition": "European Organisation for the Research and Treatment of Cancer Quality of Life Questionnaire - Palliative Care Version 1.0 - Do you need to stay in bed or a chair during the day?", "preferredTerm": "EORTC QLQ-C15-PAL Version 1 - Stay in Bed or Chair During the Day", "submissionValue": "EOR02-Stay in Bed/Chair During the Day", "synonyms": ["EOR02-Stay in Bed/Chair During the Day"]}, {"conceptId": "C161659", "definition": "European Organisation for the Research and Treatment of Cancer Quality of Life Questionnaire - Palliative Care Version 1.0 - Do you have any trouble taking a short walk outside of the house?", "preferredTerm": "EORTC QLQ-C15-PAL Version 1 - Trouble Taking Short Walk Outside", "submissionValue": "EOR02-Trouble Taking Short Walk Outside", "synonyms": ["EOR02-Trouble Taking Short Walk Outside"]}, {"conceptId": "C161662", "definition": "European Organisation for the Research and Treatment of Cancer Quality of Life Questionnaire - Palliative Care Version 1.0 - During the past week: Were you short of breath?", "preferredTerm": "EORTC QLQ-C15-PAL Version 1 - Were You Short of Breath", "submissionValue": "EOR02-Were You Short of Breath", "synonyms": ["EOR02-Were You Short of Breath"]}, {"conceptId": "C161669", "definition": "European Organisation for the Research and Treatment of Cancer Quality of Life Questionnaire - Palliative Care Version 1.0 - During the past week: Were you tired?", "preferredTerm": "EORTC QLQ-C15-PAL Version 1 - Were You Tired", "submissionValue": "EOR02-Were You Tired", "synonyms": ["EOR02-Were You Tired"]}]}