{"_links": {"parentPackage": {"href": "/mdr/ct/packages/sdtmct-2021-09-24", "title": "SDTM Controlled Terminology Package 47 Effective 2021-09-24", "type": "Terminology"}, "priorVersion": {"href": "/mdr/ct/packages/sdtmct-2021-06-25/codelists/C161619", "title": "CDISC Questionnaire EORTC QLQ-C30 Version 3 Test Code Terminology", "type": "Code List"}, "rootItem": {"href": "/mdr/root/ct/sdtmct/codelists/C161619", "title": "Version-agnostic anchor resource for codelist C161619", "type": "Root Value Domain"}, "self": {"href": "/mdr/ct/packages/sdtmct-2021-09-24/codelists/C161619", "title": "CDISC Questionnaire EORTC QLQ-C30 Version 3 Test Code Terminology", "type": "Code List"}}, "conceptId": "C161619", "definition": "European Organisation for the Research and Treatment of Cancer Quality of Life Questionnaire - Core 30 Version 3.0 test code.", "extensible": "false", "name": "European Organisation for the Research and Treatment of Cancer Quality of Life Questionnaire - Core 30 Version 3.0 Questionnaire Test Code", "preferredTerm": "CDISC Questionnaire EORTC QLQ-C30 Version 3 Test Code Terminology", "submissionValue": "EOR01TC", "synonyms": ["European Organisation for the Research and Treatment of Cancer Quality of Life Questionnaire - Core 30 Version 3.0 Questionnaire Test Code"], "terms": [{"conceptId": "C161674", "definition": "European Organisation for the Research and Treatment of Cancer Quality of Life Questionnaire - Core 30 Version 3.0 - Do you have any trouble doing strenuous activities, like carrying a heavy shopping bag or a suitcase?", "preferredTerm": "EORTC QLQ-C30 Version 3 - Trouble Doing Strenuous Activities", "submissionValue": "EOR0101", "synonyms": ["EOR01-Trouble Doing Strenuous Activities"]}, {"conceptId": "C161675", "definition": "European Organisation for the Research and Treatment of Cancer Quality of Life Questionnaire - Core 30 Version 3.0 - Do you have any trouble taking a long walk?", "preferredTerm": "EORTC QLQ-C30 Version 3 - Trouble Taking Long Walk", "submissionValue": "EOR0102", "synonyms": ["EOR01-Trouble Taking Long Walk"]}, {"conceptId": "C161676", "definition": "European Organisation for the Research and Treatment of Cancer Quality of Life Questionnaire - Core 30 Version 3.0 - Do you have any trouble taking a short walk outside of the house?", "preferredTerm": "EORTC QLQ-C30 Version 3 - Trouble Taking Short Walk Outside", "submissionValue": "EOR0103", "synonyms": ["EOR01-Trouble Taking Short Walk Outside"]}, {"conceptId": "C161677", "definition": "European Organisation for the Research and Treatment of Cancer Quality of Life Questionnaire - Core 30 Version 3.0 - Do you need to stay in bed or a chair during the day?", "preferredTerm": "EORTC QLQ-C30 Version 3 - Stay in Bed or Chair During the Day", "submissionValue": "EOR0104", "synonyms": ["EOR01-Stay in Bed/Chair During the Day"]}, {"conceptId": "C161678", "definition": "European Organisation for the Research and Treatment of Cancer Quality of Life Questionnaire - Core 30 Version 3.0 - Do you need help with eating, dressing, washing yourself or using the toilet?", "preferredTerm": "EORTC QLQ-C30 Version 3 - Need Help Eating, Dressing, Washing", "submissionValue": "EOR0105", "synonyms": ["EOR01-Need Help Eating/Dressing/Washing"]}, {"conceptId": "C161679", "definition": "European Organisation for the Research and Treatment of Cancer Quality of Life Questionnaire - Core 30 Version 3.0 - During the past week: Were you limited in doing either your work or other daily activities?", "preferredTerm": "EORTC QLQ-C30 Version 3 - Limited in Work or Daily Activities", "submissionValue": "EOR0106", "synonyms": ["EOR01-Limited in Work/Daily Activities"]}, {"conceptId": "C161680", "definition": "European Organisation for the Research and Treatment of Cancer Quality of Life Questionnaire - Core 30 Version 3.0 - During the past week: Were you limited in pursuing your hobbies or other leisure time activities?", "preferredTerm": "EORTC QLQ-C30 Version 3 - Limited Hobbies or Leisure Activities", "submissionValue": "EOR0107", "synonyms": ["EOR01-Limited Hobbies/Leisure Activities"]}, {"conceptId": "C161681", "definition": "European Organisation for the Research and Treatment of Cancer Quality of Life Questionnaire - Core 30 Version 3.0 - During the past week: Were you short of breath?", "preferredTerm": "EORTC QLQ-C30 Version 3 - Were You Short of Breath", "submissionValue": "EOR0108", "synonyms": ["EOR01-Were You Short of Breath"]}, {"conceptId": "C161682", "definition": "European Organisation for the Research and Treatment of Cancer Quality of Life Questionnaire - Core 30 Version 3.0 - During the past week: Have you had pain?", "preferredTerm": "EORTC QLQ-C30 Version 3 - Have You Had Pain", "submissionValue": "EOR0109", "synonyms": ["EOR01-Have You Had Pain"]}, {"conceptId": "C161683", "definition": "European Organisation for the Research and Treatment of Cancer Quality of Life Questionnaire - Core 30 Version 3.0 - During the past week: Did you need to rest?", "preferredTerm": "EORTC QLQ-C30 Version 3 - Did You Need to Rest", "submissionValue": "EOR0110", "synonyms": ["EOR01-Did You Need to Rest"]}, {"conceptId": "C161684", "definition": "European Organisation for the Research and Treatment of Cancer Quality of Life Questionnaire - Core 30 Version 3.0 - During the past week: Have you had trouble sleeping?", "preferredTerm": "EORTC QLQ-C30 Version 3 - Have You Had Trouble Sleeping", "submissionValue": "EOR0111", "synonyms": ["EOR01-Have You Had Trouble Sleeping"]}, {"conceptId": "C161685", "definition": "European Organisation for the Research and Treatment of Cancer Quality of Life Questionnaire - Core 30 Version 3.0 - During the past week: Have you felt weak?", "preferredTerm": "EORTC QLQ-C30 Version 3 - Have You Felt Weak", "submissionValue": "EOR0112", "synonyms": ["EOR01-Have You Felt Weak"]}, {"conceptId": "C161686", "definition": "European Organisation for the Research and Treatment of Cancer Quality of Life Questionnaire - Core 30 Version 3.0 - During the past week: Have you lacked appetite?", "preferredTerm": "EORTC QLQ-C30 Version 3 - Have You Lacked Appetite", "submissionValue": "EOR0113", "synonyms": ["EOR01-Have You Lacked Appetite"]}, {"conceptId": "C161687", "definition": "European Organisation for the Research and Treatment of Cancer Quality of Life Questionnaire - Core 30 Version 3.0 - During the past week: Have you felt nauseated?", "preferredTerm": "EORTC QLQ-C30 Version 3 - Have You Felt Nauseated", "submissionValue": "EOR0114", "synonyms": ["EOR01-Have You Felt Nauseated"]}, {"conceptId": "C161688", "definition": "European Organisation for the Research and Treatment of Cancer Quality of Life Questionnaire - Core 30 Version 3.0 - During the past week: Have you vomited?", "preferredTerm": "EORTC QLQ-C30 Version 3 - Have You Vomited", "submissionValue": "EOR0115", "synonyms": ["EOR01-Have You Vomited"]}, {"conceptId": "C161689", "definition": "European Organisation for the Research and Treatment of Cancer Quality of Life Questionnaire - Core 30 Version 3.0 - During the past week: Have you been constipated?", "preferredTerm": "EORTC QLQ-C30 Version 3 - Have You Been Constipated", "submissionValue": "EOR0116", "synonyms": ["EOR01-Have You Been Constipated"]}, {"conceptId": "C161690", "definition": "European Organisation for the Research and Treatment of Cancer Quality of Life Questionnaire - Core 30 Version 3.0 - During the past week: Have you had diarrhea?", "preferredTerm": "EORTC QLQ-C30 Version 3 - Have You Had Diarrhea", "submissionValue": "EOR0117", "synonyms": ["EOR01-Have You Had Diarrhea"]}, {"conceptId": "C161691", "definition": "European Organisation for the Research and Treatment of Cancer Quality of Life Questionnaire - Core 30 Version 3.0 - During the past week: Were you tired?", "preferredTerm": "EORTC QLQ-C30 Version 3 - Were You Tired", "submissionValue": "EOR0118", "synonyms": ["EOR01-Were You Tired"]}, {"conceptId": "C161692", "definition": "European Organisation for the Research and Treatment of Cancer Quality of Life Questionnaire - Core 30 Version 3.0 - During the past week: Did pain interfere with your daily activities?", "preferredTerm": "EORTC QLQ-C30 Version 3 - Pain Interfere Daily Activities", "submissionValue": "EOR0119", "synonyms": ["EOR01-Pain Interfere Daily Activities"]}, {"conceptId": "C161693", "definition": "European Organisation for the Research and Treatment of Cancer Quality of Life Questionnaire - Core 30 Version 3.0 - During the past week: Have you had difficulty in concentrating on things, like reading a newspaper or watching television?", "preferredTerm": "EORTC QLQ-C30 Version 3 - Difficulty Concentrating on Things", "submissionValue": "EOR0120", "synonyms": ["EOR01-Difficulty Concentrating on Things"]}, {"conceptId": "C161694", "definition": "European Organisation for the Research and Treatment of Cancer Quality of Life Questionnaire - Core 30 Version 3.0 - During the past week: Did you feel tense?", "preferredTerm": "EORTC QLQ-C30 Version 3 - Did You Feel Tense", "submissionValue": "EOR0121", "synonyms": ["EOR01-Did You Feel Tense"]}, {"conceptId": "C161695", "definition": "European Organisation for the Research and Treatment of Cancer Quality of Life Questionnaire - Core 30 Version 3.0 - During the past week: Did you worry?", "preferredTerm": "EORTC QLQ-C30 Version 3 - Did You Worry", "submissionValue": "EOR0122", "synonyms": ["EOR01-Did You Worry"]}, {"conceptId": "C161696", "definition": "European Organisation for the Research and Treatment of Cancer Quality of Life Questionnaire - Core 30 Version 3.0 - During the past week: Did you feel irritable?", "preferredTerm": "EORTC QLQ-C30 Version 3 - Did You Feel Irritable", "submissionValue": "EOR0123", "synonyms": ["EOR01-Did You Feel Irritable"]}, {"conceptId": "C161697", "definition": "European Organisation for the Research and Treatment of Cancer Quality of Life Questionnaire - Core 30 Version 3.0 - During the past week: Did you feel depressed?", "preferredTerm": "EORTC QLQ-C30 Version 3 - Did You Feel Depressed", "submissionValue": "EOR0124", "synonyms": ["EOR01-Did You Feel Depressed"]}, {"conceptId": "C161698", "definition": "European Organisation for the Research and Treatment of Cancer Quality of Life Questionnaire - Core 30 Version 3.0 - During the past week: Have you had difficulty remembering things?", "preferredTerm": "EORTC QLQ-C30 Version 3 - Had Difficulty Remembering Things", "submissionValue": "EOR0125", "synonyms": ["EOR01-Had Difficulty Remembering Things"]}, {"conceptId": "C161699", "definition": "European Organisation for the Research and Treatment of Cancer Quality of Life Questionnaire - Core 30 Version 3.0 - During the past week: Has your physical condition or medical treatment interfered with your family life?", "preferredTerm": "EORTC QLQ-C30 Version 3 - Condition Interfered Family Life", "submissionValue": "EOR0126", "synonyms": ["EOR01-Condition Interfered Family Life"]}, {"conceptId": "C161700", "definition": "European Organisation for the Research and Treatment of Cancer Quality of Life Questionnaire - Core 30 Version 3.0 - During the past week: Has your physical condition or medical treatment interfered with your social activities?", "preferredTerm": "EORTC QLQ-C30 Version 3 - Condition Interfered Social Activities", "submissionValue": "EOR0127", "synonyms": ["EOR01-Condition Interfered Social Activ"]}, {"conceptId": "C161701", "definition": "European Organisation for the Research and Treatment of Cancer Quality of Life Questionnaire - Core 30 Version 3.0 - During the past week: Has your physical condition or medical treatment caused you financial difficulties?", "preferredTerm": "EORTC QLQ-C30 Version 3 - Condition Caused Financial Difficulties", "submissionValue": "EOR0128", "synonyms": ["EOR01-Condition Caused Financial Diff"]}, {"conceptId": "C161702", "definition": "European Organisation for the Research and Treatment of Cancer Quality of Life Questionnaire - Core 30 Version 3.0 - How would you rate your overall health during the past week?", "preferredTerm": "EORTC QLQ-C30 Version 3 - Rate Your Overall Health", "submissionValue": "EOR0129", "synonyms": ["EOR01-Rate Your Overall Health"]}, {"conceptId": "C161703", "definition": "European Organisation for the Research and Treatment of Cancer Quality of Life Questionnaire - Core 30 Version 3.0 - How would you rate your overall quality of life during the past week?", "preferredTerm": "EORTC QLQ-C30 Version 3 - Rate Your Overall Quality of Life", "submissionValue": "EOR0130", "synonyms": ["EOR01-Rate Your Overall Quality of Life"]}, {"conceptId": "C181142", "definition": "European Organisation for the Research and Treatment of Cancer Quality of Life Questionnaire - Core 30 Version 3.0 - Global health status/QoL.", "preferredTerm": "EORTC QLQ-C30 Version 3 - EOR01-Global Health Status/QoL", "submissionValue": "EOR0131", "synonyms": ["EOR01-Global Health Status/QoL"]}, {"conceptId": "C181143", "definition": "European Organisation for the Research and Treatment of Cancer Quality of Life Questionnaire - Core 30 Version 3.0 - Functional scale: physical functioning.", "preferredTerm": "EORTC QLQ-C30 Version 3 - EOR01-FS:Physical Functioning", "submissionValue": "EOR0132", "synonyms": ["EOR01-FS:Physical Functioning"]}, {"conceptId": "C181144", "definition": "European Organisation for the Research and Treatment of Cancer Quality of Life Questionnaire - Core 30 Version 3.0 - Functional scale: role functioning.", "preferredTerm": "EORTC QLQ-C30 Version 3 - EOR01-FS:Role Functioning", "submissionValue": "EOR0133", "synonyms": ["EOR01-FS:Role Functioning"]}, {"conceptId": "C181145", "definition": "European Organisation for the Research and Treatment of Cancer Quality of Life Questionnaire - Core 30 Version 3.0 - Functional scale: emotional functioning.", "preferredTerm": "EORTC QLQ-C30 Version 3 - EOR01-FS:Emotional Functioning", "submissionValue": "EOR0134", "synonyms": ["EOR01-FS:Emotional Functioning"]}, {"conceptId": "C181146", "definition": "European Organisation for the Research and Treatment of Cancer Quality of Life Questionnaire - Core 30 Version 3.0 - Functional scale: cognitive functioning.", "preferredTerm": "EORTC QLQ-C30 Version 3 - EOR01-FS:Cognitive Functioning", "submissionValue": "EOR0135", "synonyms": ["EOR01-FS:Cognitive Functioning"]}, {"conceptId": "C181147", "definition": "European Organisation for the Research and Treatment of Cancer Quality of Life Questionnaire - Core 30 Version 3.0 - Functional scale: social functioning.", "preferredTerm": "EORTC QLQ-C30 Version 3 - EOR01-FS:Social Functioning", "submissionValue": "EOR0136", "synonyms": ["EOR01-FS:Social Functioning"]}, {"conceptId": "C181148", "definition": "European Organisation for the Research and Treatment of Cancer Quality of Life Questionnaire - Core 30 Version 3.0 - Symptom scale: fatigue.", "preferredTerm": "EORTC QLQ-C30 Version 3 - EOR01-SS:Fatigue", "submissionValue": "EOR0137", "synonyms": ["EOR01-SS:Fatigue"]}, {"conceptId": "C181149", "definition": "European Organisation for the Research and Treatment of Cancer Quality of Life Questionnaire - Core 30 Version 3.0 - Symptom scale: nausea and vomiting.", "preferredTerm": "EORTC QLQ-C30 Version 3 - EOR01-SS:Nausea and Vomiting", "submissionValue": "EOR0138", "synonyms": ["EOR01-SS:Nausea and Vomiting"]}, {"conceptId": "C181150", "definition": "European Organisation for the Research and Treatment of Cancer Quality of Life Questionnaire - Core 30 Version 3.0 - Symptom scale: pain.", "preferredTerm": "EORTC QLQ-C30 Version 3 - EOR01-SS:Pain", "submissionValue": "EOR0139", "synonyms": ["EOR01-SS:Pain"]}, {"conceptId": "C181151", "definition": "European Organisation for the Research and Treatment of Cancer Quality of Life Questionnaire - Core 30 Version 3.0 - Symptom scale: dyspnoea.", "preferredTerm": "EORTC QLQ-C30 Version 3 - EOR01-SS:Dyspnoea", "submissionValue": "EOR0140", "synonyms": ["EOR01-SS:Dyspnoea"]}, {"conceptId": "C181152", "definition": "European Organisation for the Research and Treatment of Cancer Quality of Life Questionnaire - Core 30 Version 3.0 - Symptom scale: insomnia.", "preferredTerm": "EORTC QLQ-C30 Version 3 - EOR01-SS:Insomnia", "submissionValue": "EOR0141", "synonyms": ["EOR01-SS:Insomnia"]}, {"conceptId": "C181153", "definition": "European Organisation for the Research and Treatment of Cancer Quality of Life Questionnaire - Core 30 Version 3.0 - Symptom scale: appetite loss.", "preferredTerm": "EORTC QLQ-C30 Version 3 - EOR01-SS:Appetite Loss", "submissionValue": "EOR0142", "synonyms": ["EOR01-SS:Appetite Loss"]}, {"conceptId": "C181154", "definition": "European Organisation for the Research and Treatment of Cancer Quality of Life Questionnaire - Core 30 Version 3.0 - Symptom scale: constipation.", "preferredTerm": "EORTC QLQ-C30 Version 3 - EOR01-SS:Constipation", "submissionValue": "EOR0143", "synonyms": ["EOR01-SS:Constipation"]}, {"conceptId": "C181155", "definition": "European Organisation for the Research and Treatment of Cancer Quality of Life Questionnaire - Core 30 Version 3.0 - Symptom scale: diarrhoea.", "preferredTerm": "EORTC QLQ-C30 Version 3 - EOR01-SS:Diarrhoea", "submissionValue": "EOR0144", "synonyms": ["EOR01-SS:Diarrhoea"]}, {"conceptId": "C181156", "definition": "European Organisation for the Research and Treatment of Cancer Quality of Life Questionnaire - Core 30 Version 3.0 - Symptom scale: financial difficulties.", "preferredTerm": "EORTC QLQ-C30 Version 3 - EOR01-SS:Financial Difficulties", "submissionValue": "EOR0145", "synonyms": ["EOR01-SS:Financial Difficulties"]}]}