{"_links": {"parentPackage": {"href": "/mdr/ct/packages/sdtmct-2021-09-24", "title": "SDTM Controlled Terminology Package 47 Effective 2021-09-24", "type": "Terminology"}, "priorVersion": {"href": "/mdr/ct/packages/sdtmct-2021-06-25/codelists/C176046", "title": "CDISC Clinical Classification APGAR Score Version 1 Test Name Terminology", "type": "Code List"}, "rootItem": {"href": "/mdr/root/ct/sdtmct/codelists/C176046", "title": "Version-agnostic anchor resource for codelist C176046", "type": "Root Value Domain"}, "self": {"href": "/mdr/ct/packages/sdtmct-2021-09-24/codelists/C176046", "title": "CDISC Clinical Classification APGAR Score Version 1 Test Name Terminology", "type": "Code List"}}, "conceptId": "C176046", "definition": "Apgar Score V1 test name.", "extensible": "false", "name": "Apgar Score V1 Clinical Classification Test Name", "preferredTerm": "CDISC Clinical Classification APGAR Score Version 1 Test Name Terminology", "submissionValue": "APGR01TN", "synonyms": ["Apgar Score V1 Clinical Classification Test Name"], "terms": [{"conceptId": "C176064", "definition": "Apgar Score V1 - Activity or muscle tone score.", "preferredTerm": "Apgar Score Version 1 - Activity or Muscle Tone", "submissionValue": "APGR01-Activity/Muscle Tone", "synonyms": ["APGR01-Activity/Muscle Tone"]}, {"conceptId": "C176061", "definition": "Apgar Score V1 - Appearance, skin color, or color score.", "preferredTerm": "Apgar Score Version 1 - Appearance or Color", "submissionValue": "APGR01-Appearance/Color", "synonyms": ["APGR01-Appearance/Color"]}, {"conceptId": "C176063", "definition": "Apgar Score V1 - Grimace or reflex irritability score.", "preferredTerm": "Apgar Score Version 1 - Grimace or Reflex Irritability", "submissionValue": "APGR01-Grimace/Reflex Irritability", "synonyms": ["APGR01-Grimace/Reflex Irritability"]}, {"conceptId": "C176062", "definition": "Apgar Score V1 - Pulse or heart rate score.", "preferredTerm": "Apgar Score Version 1 - Pulse or Heart Rate", "submissionValue": "APGR01-Pulse/Heart Rate", "synonyms": ["APGR01-Pulse/Heart Rate"]}, {"conceptId": "C176065", "definition": "Apgar Score V1 - Respiration or respiratory effort score.", "preferredTerm": "Apgar Score Version 1 - Respiration or Respiratory Effort", "submissionValue": "APGR01-Respiration/Respiratory Effort", "synonyms": ["APGR01-Respiration/Respiratory Effort"]}, {"conceptId": "C176066", "definition": "Apgar Score V1 - Total Apgar score.", "preferredTerm": "Apgar Score Version 1 - Total Apgar Score", "submissionValue": "APGR01-Total Apgar Score", "synonyms": ["APGR01-Total Apgar Score"]}]}