{"_links": {"parentPackage": {"href": "/mdr/ct/packages/sdtmct-2021-09-24", "title": "SDTM Controlled Terminology Package 47 Effective 2021-09-24", "type": "Terminology"}, "priorVersion": {"href": "/mdr/ct/packages/sdtmct-2021-06-25/codelists/C176050", "title": "CDISC Clinical Classification SES-CD Version 1 Test Name Terminology", "type": "Code List"}, "rootItem": {"href": "/mdr/root/ct/sdtmct/codelists/C176050", "title": "Version-agnostic anchor resource for codelist C176050", "type": "Root Value Domain"}, "self": {"href": "/mdr/ct/packages/sdtmct-2021-09-24/codelists/C176050", "title": "CDISC Clinical Classification SES-CD Version 1 Test Name Terminology", "type": "Code List"}}, "conceptId": "C176050", "definition": "Simple Endoscopic Score for Crohn's Disease Version 1 test name.", "extensible": "false", "name": "Simple Endoscopic Score for Crohn's Disease Version 1 Clinical Classification Test Name", "preferredTerm": "CDISC Clinical Classification SES-CD Version 1 Test Name Terminology", "submissionValue": "SES01TN", "synonyms": ["Simple Endoscopic Score for Crohn's Disease Version 1 Clinical Classification Test Name"], "terms": [{"conceptId": "C176115", "definition": "Simple Endoscopic Score for Crohn's Disease Version 1 - Ileum subscore.", "preferredTerm": "SES-CD Version 1 - Ileum Subscore", "submissionValue": "SES01-Ileum Subscore", "synonyms": ["SES01-Ileum Subscore"]}, {"conceptId": "C176093", "definition": "Simple Endoscopic Score for Crohn's Disease Version 1 - Affected surface - ileum.", "preferredTerm": "SES-CD Version 1 - Ileum: Affected Surface", "submissionValue": "SES01-Ileum: Affected Surface", "synonyms": ["SES01-Ileum: Affected Surface"]}, {"conceptId": "C176090", "definition": "Simple Endoscopic Score for Crohn's Disease Version 1 - Was ileum explored?", "preferredTerm": "SES-CD Version 1 - Ileum: Explored", "submissionValue": "SES01-Ileum: Explored", "synonyms": ["SES01-Ileum: Explored"]}, {"conceptId": "C176094", "definition": "Simple Endoscopic Score for Crohn's Disease Version 1 - Presence of narrowing - ileum.", "preferredTerm": "SES-CD Version 1 - Ileum: Presence of Narrowing", "submissionValue": "SES01-Ileum: Presence of Narrowing", "synonyms": ["SES01-Ileum: Presence of Narrowing"]}, {"conceptId": "C176091", "definition": "Simple Endoscopic Score for Crohn's Disease Version 1 - Size of ulcers - ileum.", "preferredTerm": "SES-CD Version 1 - Ileum: Size of Ulcers", "submissionValue": "SES01-Ileum: Size of Ulcers", "synonyms": ["SES01-Ileum: Size of Ulcers"]}, {"conceptId": "C176092", "definition": "Simple Endoscopic Score for Crohn's Disease Version 1 - Ulcerated surface - ileum.", "preferredTerm": "SES-CD Version 1 - Ileum: Ulcerated Surface", "submissionValue": "SES01-Ileum: Ulcerated Surface", "synonyms": ["SES01-Ileum: Ulcerated Surface"]}, {"conceptId": "C176118", "definition": "Simple Endoscopic Score for Crohn's Disease Version 1 - Sigmoid and left colon subscore.", "preferredTerm": "SES-CD Version 1 - Left Colon Subscore", "submissionValue": "SES01-Left Colon Subscore", "synonyms": ["SES01-Left Colon Subscore"]}, {"conceptId": "C176108", "definition": "Simple Endoscopic Score for Crohn's Disease Version 1 - Affected surface - sigmoid and left colon.", "preferredTerm": "SES-CD Version 1 - Left Colon: Affected Surface", "submissionValue": "SES01-Left Colon: Affected Surface", "synonyms": ["SES01-Left Colon: Affected Surface"]}, {"conceptId": "C176105", "definition": "Simple Endoscopic Score for Crohn's Disease Version 1 - Was sigmoid and left colon explored?", "preferredTerm": "SES-CD Version 1 - Left Colon: Explored", "submissionValue": "SES01-Left Colon: Explored", "synonyms": ["SES01-Left Colon: Explored"]}, {"conceptId": "C176109", "definition": "Simple Endoscopic Score for Crohn's Disease Version 1 - Presence of narrowing - sigmoid and left colon.", "preferredTerm": "SES-CD Version 1 - Left Colon: Presence of Narrowing", "submissionValue": "SES01-Left Colon: Presence of Narrowing", "synonyms": ["SES01-Left Colon: Presence of Narrowing"]}, {"conceptId": "C176106", "definition": "Simple Endoscopic Score for Crohn's Disease Version 1 - Size of ulcers - sigmoid and left colon.", "preferredTerm": "SES-CD Version 1 - Left Colon: Size of Ulcers", "submissionValue": "SES01-Left Colon: Size of Ulcers", "synonyms": ["SES01-Left Colon: Size of Ulcers"]}, {"conceptId": "C176107", "definition": "Simple Endoscopic Score for Crohn's Disease Version 1 - Ulcerated surface - sigmoid and left colon.", "preferredTerm": "SES-CD Version 1 - Left Colon: Ulcerated Surface", "submissionValue": "SES01-Left Colon: Ulcerated Surface", "synonyms": ["SES01-Left Colon: Ulcerated Surface"]}, {"conceptId": "C176119", "definition": "Simple Endoscopic Score for Crohn's Disease Version 1 - Rectum subscore.", "preferredTerm": "SES-CD Version 1 - Rectum Subscore", "submissionValue": "SES01-Rectum Subscore", "synonyms": ["SES01-Rectum Subscore"]}, {"conceptId": "C176113", "definition": "Simple Endoscopic Score for Crohn's Disease Version 1 - Affected surface - rectum.", "preferredTerm": "SES-CD Version 1 - Rectum: Affected Surface", "submissionValue": "SES01-Rectum: Affected Surface", "synonyms": ["SES01-Rectum: Affected Surface"]}, {"conceptId": "C176110", "definition": "Simple Endoscopic Score for Crohn's Disease Version 1 - Was rectum explored?", "preferredTerm": "SES-CD Version 1 - Rectum: Explored", "submissionValue": "SES01-Rectum: Explored", "synonyms": ["SES01-Rectum: Explored"]}, {"conceptId": "C176114", "definition": "Simple Endoscopic Score for Crohn's Disease Version 1 - Presence of narrowing - rectum.", "preferredTerm": "SES-CD Version 1 - Rectum: Presence of Narrowing", "submissionValue": "SES01-Rectum: Presence of Narrowing", "synonyms": ["SES01-Rectum: Presence of Narrowing"]}, {"conceptId": "C176111", "definition": "Simple Endoscopic Score for Crohn's Disease Version 1 - Size of ulcers - rectum.", "preferredTerm": "SES-CD Version 1 - Rectum: Size of Ulcers", "submissionValue": "SES01-Rectum: Size of Ulcers", "synonyms": ["SES01-Rectum: Size of Ulcers"]}, {"conceptId": "C176112", "definition": "Simple Endoscopic Score for Crohn's Disease Version 1 - Ulcerated surface - rectum.", "preferredTerm": "SES-CD Version 1 - Rectum: Ulcerated Surface", "submissionValue": "SES01-Rectum: Ulcerated Surface", "synonyms": ["SES01-Rectum: Ulcerated Surface"]}, {"conceptId": "C176116", "definition": "Simple Endoscopic Score for Crohn's Disease Version 1 - Right colon subscore.", "preferredTerm": "SES-CD Version 1 - Right Colon Subscore", "submissionValue": "SES01-Right Colon Subscore", "synonyms": ["SES01-Right Colon Subscore"]}, {"conceptId": "C176098", "definition": "Simple Endoscopic Score for Crohn's Disease Version 1 - Affected surface - right colon.", "preferredTerm": "SES-CD Version 1 - Right Colon: Affected Surface", "submissionValue": "SES01-Right Colon: Affected Surface", "synonyms": ["SES01-Right Colon: Affected Surface"]}, {"conceptId": "C176095", "definition": "Simple Endoscopic Score for Crohn's Disease Version 1 - Was right colon explored?", "preferredTerm": "SES-CD Version 1 - Right Colon: Explored", "submissionValue": "SES01-Right Colon: Explored", "synonyms": ["SES01-Right Colon: Explored"]}, {"conceptId": "C176099", "definition": "Simple Endoscopic Score for Crohn's Disease Version 1 - Presence of narrowing - right colon.", "preferredTerm": "SES-CD Version 1 - Right Colon: Presence of Narrowing", "submissionValue": "SES01-Right Colon: Presence of Narrowing", "synonyms": ["SES01-Right Colon: Presence of Narrowing"]}, {"conceptId": "C176096", "definition": "Simple Endoscopic Score for Crohn's Disease Version 1 - Size of ulcers - right colon.", "preferredTerm": "SES-CD Version 1 - Right Colon: Size of Ulcers", "submissionValue": "SES01-Right Colon: Size of Ulcers", "synonyms": ["SES01-Right Colon: Size of Ulcers"]}, {"conceptId": "C176097", "definition": "Simple Endoscopic Score for Crohn's Disease Version 1 - Ulcerated surface - right colon.", "preferredTerm": "SES-CD Version 1 - Right Colon: Ulcerated Surface", "submissionValue": "SES01-Right Colon: Ulcerated Surface", "synonyms": ["SES01-Right Colon: Ulcerated Surface"]}, {"conceptId": "C176120", "definition": "Simple Endoscopic Score for Crohn's Disease Version 1 - SES-CD total score.", "preferredTerm": "SES-CD Version 1 - Total Score", "submissionValue": "SES01-Total Score", "synonyms": ["SES01-Total Score"]}, {"conceptId": "C176117", "definition": "Simple Endoscopic Score for Crohn's Disease Version 1 - Transverse colon subscore.", "preferredTerm": "SES-CD Version 1 - Trans Colon Subscore", "submissionValue": "SES01-Trans Colon Subscore", "synonyms": ["SES01-Trans Colon Subscore"]}, {"conceptId": "C176103", "definition": "Simple Endoscopic Score for Crohn's Disease Version 1 - Affected surface - transverse colon.", "preferredTerm": "SES-CD Version 1 - Trans Colon: Affected Surface", "submissionValue": "SES01-Trans Colon: Affected Surface", "synonyms": ["SES01-Trans Colon: Affected Surface"]}, {"conceptId": "C176100", "definition": "Simple Endoscopic Score for Crohn's Disease Version 1 - Was transverse colon explored?", "preferredTerm": "SES-CD Version 1 - Trans Colon: Explored", "submissionValue": "SES01-Trans Colon: Explored", "synonyms": ["SES01-Trans Colon: Explored"]}, {"conceptId": "C176104", "definition": "Simple Endoscopic Score for Crohn's Disease Version 1 - Presence of narrowing - transverse colon.", "preferredTerm": "SES-CD Version 1 - Trans Colon: Presence of Narrowing", "submissionValue": "SES01-Trans Colon: Presence of Narrowing", "synonyms": ["SES01-Trans Colon: Presence of Narrowing"]}, {"conceptId": "C176101", "definition": "Simple Endoscopic Score for Crohn's Disease Version 1 - Size of ulcers - transverse colon.", "preferredTerm": "SES-CD Version 1 - Trans Colon: Size of Ulcers", "submissionValue": "SES01-Trans Colon: Size of Ulcers", "synonyms": ["SES01-Trans Colon: Size of Ulcers"]}, {"conceptId": "C176102", "definition": "Simple Endoscopic Score for Crohn's Disease Version 1 - Ulcerated surface - transverse colon.", "preferredTerm": "SES-CD Version 1 - Trans Colon: Ulcerated Surface", "submissionValue": "SES01-Trans Colon: Ulcerated Surface", "synonyms": ["SES01-Trans Colon: Ulcerated Surface"]}]}