{"_links": {"parentPackage": {"href": "/mdr/ct/packages/sdtmct-2021-09-24", "title": "SDTM Controlled Terminology Package 47 Effective 2021-09-24", "type": "Terminology"}, "priorVersion": {"href": "/mdr/ct/packages/sdtmct-2021-06-25/codelists/C177708", "title": "CDISC Questionnaire SF8 v1.0 Standard Test Code Terminology", "type": "Code List"}, "rootItem": {"href": "/mdr/root/ct/sdtmct/codelists/C177708", "title": "Version-agnostic anchor resource for codelist C177708", "type": "Root Value Domain"}, "self": {"href": "/mdr/ct/packages/sdtmct-2021-09-24/codelists/C177708", "title": "CDISC Questionnaire SF8 v1.0 Standard Test Code Terminology", "type": "Code List"}}, "conceptId": "C177708", "definition": "Short Form 8 Health Survey Standard, US Version 1.0 test code.", "extensible": "false", "name": "Short Form 8 Health Survey Standard, US Version 1.0 Questionnaire Test Code", "preferredTerm": "CDISC Questionnaire SF8 v1.0 Standard Test Code Terminology", "submissionValue": "SF81TC", "synonyms": ["Short Form 8 Health Survey Standard, US Version 1.0 Questionnaire Test Code"], "terms": [{"conceptId": "C177819", "definition": "The Short Form 8 Health Survey Standard, US Version 1.0 - Overall, how would you rate your health during the past 4 weeks?", "preferredTerm": "SF8 v1.0 Standard - Overall How You Rate Your Health", "submissionValue": "SF8101", "synonyms": ["SF81-Overall How You Rate Your Health"]}, {"conceptId": "C177820", "definition": "The Short Form 8 Health Survey Standard, US Version 1.0 - During the past 4 weeks, how much did physical health problems limit your usual physical activities (walking, climbing stairs)?.", "preferredTerm": "SF8 v1.0 Standard - How Much Limit Physical Activities", "submissionValue": "SF8102", "synonyms": ["SF81-How Much Limit Physical Activities"]}, {"conceptId": "C177821", "definition": "The Short Form 8 Health Survey Standard, US Version 1.0 - During the past 4 weeks, how much difficulty did you have doing your daily work, both at home and away from home, because of your physical health?", "preferredTerm": "SF8 v1.0 Standard - Difficulty Doing Daily Work", "submissionValue": "SF8103", "synonyms": ["SF81-Difficulty Doing Daily Work"]}, {"conceptId": "C177822", "definition": "The Short Form 8 Health Survey Standard, US Version 1.0 - How much bodily pain have you had during the past 4 weeks?", "preferredTerm": "SF8 v1.0 Standard - How Much Bodily Pain You Have Had", "submissionValue": "SF8104", "synonyms": ["SF81-How Much Bodily Pain You Have Had"]}, {"conceptId": "C177823", "definition": "The Short Form 8 Health Survey Standard, US Version 1.0 - During the past 4 weeks, how much energy did you have?", "preferredTerm": "SF8 v1.0 Standard - How Much Energy Did You Have", "submissionValue": "SF8105", "synonyms": ["SF81-How Much Energy Did You Have"]}, {"conceptId": "C177824", "definition": "The Short Form 8 Health Survey Standard, US Version 1.0 - During the past 4 weeks, how much did your physical health or emotional problems limit your usual social activities with family or friends?", "preferredTerm": "SF8 v1.0 Standard - Physical, Emotional Limit Activities", "submissionValue": "SF8106", "synonyms": ["SF81-Physical/Emotional Limit Activities"]}, {"conceptId": "C177825", "definition": "The Short Form 8 Health Survey Standard, US Version 1.0 - During the past 4 weeks, how much have you been bothered by emotional problems (such as feeling anxious, depressed or irritable)?", "preferredTerm": "SF8 v1.0 Standard - Bothered by Emotional Problems", "submissionValue": "SF8107", "synonyms": ["SF81-Bothered by Emotional Problems"]}, {"conceptId": "C177826", "definition": "The Short Form 8 Health Survey Standard, US Version 1.0 - During the past 4 weeks, how much did personal or emotional problems keep you from doing your usual work, school or other daily activities?", "preferredTerm": "SF8 v1.0 Standard - Emotional Problems Keep From Work", "submissionValue": "SF8108", "synonyms": ["SF81-Emotional Problems Keep From Work"]}, {"conceptId": "C180444", "definition": "The Short Form 8 Health Survey Standard, US Version 1.0 - Physical functioning norm-based score.", "preferredTerm": "SF8 v1.0 Standard - Physical Functioning Norm-Based Score", "submissionValue": "SF8109", "synonyms": ["SF81-Phys. Functioning Norm-Based Score"]}, {"conceptId": "C180445", "definition": "The Short Form 8 Health Survey Standard, US Version 1.0 - Role physical norm-based score.", "preferredTerm": "SF8 v1.0 Standard - Role Physical Norm-Based Score", "submissionValue": "SF8110", "synonyms": ["SF81-Role Physical Norm-Based Score"]}, {"conceptId": "C180446", "definition": "The Short Form 8 Health Survey Standard, US Version 1.0 - Bodily pain norm-based score.", "preferredTerm": "SF8 v1.0 Standard - Bodily Pain Norm-Based Score", "submissionValue": "SF8111", "synonyms": ["SF81-Bodily Pain Norm-Based Score"]}, {"conceptId": "C180447", "definition": "The Short Form 8 Health Survey Standard, US Version 1.0 - General health norm-based score.", "preferredTerm": "SF8 v1.0 Standard - General Health Norm-Based Score", "submissionValue": "SF8112", "synonyms": ["SF81-General Health Norm-Based Score"]}, {"conceptId": "C180448", "definition": "The Short Form 8 Health Survey Standard, US Version 1.0 - Vitality norm-based score.", "preferredTerm": "SF8 v1.0 Standard - Vitality Norm-Based Score", "submissionValue": "SF8113", "synonyms": ["SF81-Vitality Norm-Based Score"]}, {"conceptId": "C180449", "definition": "The Short Form 8 Health Survey Standard, US Version 1.0 - Social functioning norm-based score.", "preferredTerm": "SF8 v1.0 Standard - Social Functioning Norm-Based Score", "submissionValue": "SF8114", "synonyms": ["SF81-Social Functioning Norm-Based Score"]}, {"conceptId": "C180450", "definition": "The Short Form 8 Health Survey Standard, US Version 1.0 - Role emotional norm-based score.", "preferredTerm": "SF8 v1.0 Standard - Role Emotional Norm-Based Score", "submissionValue": "SF8115", "synonyms": ["SF81-Role Emotional Norm-Based Score"]}, {"conceptId": "C180451", "definition": "The Short Form 8 Health Survey Standard, US Version 1.0 - Mental health norm-based score.", "preferredTerm": "SF8 v1.0 Standard - Mental Health Norm-Based Score", "submissionValue": "SF8116", "synonyms": ["SF81-Mental Health Norm-Based Score"]}, {"conceptId": "C180452", "definition": "The Short Form 8 Health Survey Standard, US Version 1.0 - Physical component score.", "preferredTerm": "SF8 v1.0 Standard - Physical Component Score", "submissionValue": "SF8117", "synonyms": ["SF81-Physical Component Score"]}, {"conceptId": "C180453", "definition": "The Short Form 8 Health Survey Standard, US Version 1.0 - Mental component score.", "preferredTerm": "SF8 v1.0 Standard - Mental Component Score", "submissionValue": "SF8118", "synonyms": ["SF81-Mental Component Score"]}]}