{"_links": {"parentPackage": {"href": "/mdr/ct/packages/sdtmct-2021-09-24", "title": "SDTM Controlled Terminology Package 47 Effective 2021-09-24", "type": "Terminology"}, "priorVersion": {"href": "/mdr/ct/packages/sdtmct-2021-06-25/codelists/C177712", "title": "CDISC Questionnaire SF10 v1.0 Children Standard Test Code Terminology", "type": "Code List"}, "rootItem": {"href": "/mdr/root/ct/sdtmct/codelists/C177712", "title": "Version-agnostic anchor resource for codelist C177712", "type": "Root Value Domain"}, "self": {"href": "/mdr/ct/packages/sdtmct-2021-09-24/codelists/C177712", "title": "CDISC Questionnaire SF10 v1.0 Children Standard Test Code Terminology", "type": "Code List"}}, "conceptId": "C177712", "definition": "Short Form 10 Health Survey for Children Standard, US Version 1.0 test code.", "extensible": "false", "name": "Short Form 10 Health Survey for Children Standard, US Version 1.0 Questionnaire Test Code", "preferredTerm": "CDISC Questionnaire SF10 v1.0 Children Standard Test Code Terminology", "submissionValue": "SF101TC", "synonyms": ["Short Form 10 Health Survey for Children Standard, US Version 1.0 Questionnaire Test Code"], "terms": [{"conceptId": "C177837", "definition": "The Short Form 10 Health Survey Children Standard, US Version 1.0 - In general, would you say your child's health is.", "preferredTerm": "SF10 v1.0 Children Standard - In General You Say Child Health Is", "submissionValue": "SF10101", "synonyms": ["SF101-In General You Say Child Health Is"]}, {"conceptId": "C177838", "definition": "The Short Form 10 Health Survey Children Standard, US Version 1.0 - During the past 4 weeks, has your child been limited in any activities due to HEALTH problems - Doing things that take some energy such as riding a bike or skating?", "preferredTerm": "SF10 v1.0 Children Standard - Doing Things That Take Some Energy", "submissionValue": "SF10102A", "synonyms": ["SF101-Doing Things That Take Some Energy"]}, {"conceptId": "C177839", "definition": "The Short Form 10 Health Survey Children Standard, US Version 1.0 - During the past 4 weeks, has your child been limited in any activities due to HEALTH problems - bending, lifting, or stooping?", "preferredTerm": "SF10 v1.0 Children Standard - Bending, Lifting, Stooping", "submissionValue": "SF10102B", "synonyms": ["SF101-Bending/Lifting/Stooping"]}, {"conceptId": "C177840", "definition": "The Short Form 10 Health Survey Children Standard, US Version 1.0 - During the past 4 weeks, has your child been limited in the KIND of schoolwork or activities with friends he/she could do because of PHYSICAL health problems?", "preferredTerm": "SF10 v1.0 Children Standard - Physical: Schoolwork, Activities", "submissionValue": "SF10103", "synonyms": ["SF101-Physical: Schoolwork/Activities"]}, {"conceptId": "C177841", "definition": "The Short Form 10 Health Survey Children Standard, US Version 1.0 - During the past 4 weeks, has your child been limited in the KIND of schoolwork or activities with friends he/she could do because of EMOTIONAL or BEHAVIORAL problems?.", "preferredTerm": "SF10 v1.0 Children Standard - Emotional: Schoolwork, Activities", "submissionValue": "SF10104", "synonyms": ["SF101-Emotional: Schoolwork/Activities"]}, {"conceptId": "C177842", "definition": "The Short Form 10 Health Survey Children Standard, US Version 1.0 - During the past 4 weeks, how much bodily pain or discomfort has your child had?", "preferredTerm": "SF10 v1.0 Children Standard - How Much Bodily Pain Child Had", "submissionValue": "SF10105", "synonyms": ["SF101-How Much Bodily Pain Child Had"]}, {"conceptId": "C177843", "definition": "The Short Form 10 Health Survey Children Standard, US Version 1.0 - During the past 4 weeks, how satisfied do you think your child has felt about his/her friendships?", "preferredTerm": "SF10 v1.0 Children Standard - Felt About His/Her Friendships", "submissionValue": "SF10106", "synonyms": ["SF101-Felt About His/Her Friendships"]}, {"conceptId": "C177844", "definition": "The Short Form 10 Health Survey Children Standard, US Version 1.0 - During the past 4 weeks, how satisfied do you think your child has felt about his/her life overall?", "preferredTerm": "SF10 v1.0 Children Standard - Felt About His/Her Life Overall", "submissionValue": "SF10107", "synonyms": ["SF101-Felt About His/Her Life Overall"]}, {"conceptId": "C177845", "definition": "The Short Form 10 Health Survey Children Standard, US Version 1.0 - During the past 4 weeks, how much of the time do you think your child acted bothered or upset?", "preferredTerm": "SF10 v1.0 Children Standard - Acted Bothered or Upset", "submissionValue": "SF10108", "synonyms": ["SF101-Acted Bothered or Upset"]}, {"conceptId": "C177846", "definition": "The Short Form 10 Health Survey Children Standard, US Version 1.0 - Compared to other children your child's age, in general would you say his/her behavior is.", "preferredTerm": "SF10 v1.0 Children Standard - His/Her Behavior Is", "submissionValue": "SF10109", "synonyms": ["SF101-His/Her Behavior Is"]}]}