{"_links": {"parentPackage": {"href": "/mdr/ct/packages/sdtmct-2021-09-24", "title": "SDTM Controlled Terminology Package 47 Effective 2021-09-24", "type": "Terminology"}, "priorVersion": {"href": "/mdr/ct/packages/sdtmct-2021-06-25/codelists/C179946", "title": "CDISC Questionnaire Combat Exposure Scale CES0102 Original Response Terminology", "type": "Code List"}, "rootItem": {"href": "/mdr/root/ct/sdtmct/codelists/C179946", "title": "Version-agnostic anchor resource for codelist C179946", "type": "Root Value Domain"}, "self": {"href": "/mdr/ct/packages/sdtmct-2021-09-24/codelists/C179946", "title": "CDISC Questionnaire Combat Exposure Scale CES0102 Original Response Terminology", "type": "Code List"}}, "conceptId": "C179946", "definition": "Combat Exposure Scale original result for CES0102 test and test code.", "extensible": "false", "name": "Combat Exposure Scale Questionnaire ORRES for CES0102 TN/TC", "preferredTerm": "CDISC Questionnaire Combat Exposure Scale CES0102 Original Response Terminology", "submissionValue": "CES0102OR", "synonyms": ["Combat Exposure Scale Questionnaire ORRES for CES0102 TN/TC"], "terms": [{"conceptId": "C180268", "definition": "Combat Exposure Scale original result for CES0102-1-3 months.", "preferredTerm": "Combat Exposure Scale CES0102 Original Result - 1-3 Months", "submissionValue": "1-3 months", "synonyms": ["CES0102-1-3 months"]}, {"conceptId": "C180269", "definition": "Combat Exposure Scale original result for CES0102-4-6 months.", "preferredTerm": "Combat Exposure Scale CES0102 Original Result - 4-6 Months", "submissionValue": "4-6 months", "synonyms": ["CES0102-4-6 months"]}, {"conceptId": "C180270", "definition": "Combat Exposure Scale original result for CES0102-7+ months.", "preferredTerm": "Combat Exposure Scale CES0102 Original Result - 7+ Months", "submissionValue": "7+ months", "synonyms": ["CES0102-7+ months"]}, {"conceptId": "C180267", "definition": "Combat Exposure Scale original result for CES0102-<1 month.", "preferredTerm": "Combat Exposure Scale CES0102 Original Result - <1 Month", "submissionValue": "<1 month", "synonyms": ["CES0102-<1 month"]}, {"conceptId": "C180266", "definition": "Combat Exposure Scale original result for CES0102-Never.", "preferredTerm": "Combat Exposure Scale CES0102 Original Result - Never", "submissionValue": "Never", "synonyms": ["CES0102-Never"]}]}