{"_links": {"parentPackage": {"href": "/mdr/ct/packages/sdtmct-2021-09-24", "title": "SDTM Controlled Terminology Package 47 Effective 2021-09-24", "type": "Terminology"}, "priorVersion": {"href": "/mdr/ct/packages/sdtmct-2021-06-25/codelists/C179590", "title": "CDISC SDTM Non-host Organism Identifiers Parameter Long Name Terminology", "type": "Code List"}, "rootItem": {"href": "/mdr/root/ct/sdtmct/codelists/C179590", "title": "Version-agnostic anchor resource for codelist C179590", "type": "Root Value Domain"}, "self": {"href": "/mdr/ct/packages/sdtmct-2021-09-24/codelists/C179590", "title": "CDISC SDTM Non-host Organism Identifiers Parameter Long Name Terminology", "type": "Code List"}}, "conceptId": "C179590", "definition": "Parameters used to describe the levels of taxonomic and non-taxonomic nomenclature of a microorganism.", "extensible": "true", "name": "Non-host Organism Identifier Parameters", "preferredTerm": "CDISC SDTM Non-host Organism Identifiers Parameter Long Name Terminology", "submissionValue": "OIPRM", "synonyms": ["Non-host Organism Identifier Parameters"], "terms": [{"conceptId": "C179767", "definition": "A taxonomic parameter for the specification of clade of the organism.", "preferredTerm": "Clade", "submissionValue": "Clade", "synonyms": ["Clade"]}, {"conceptId": "C179768", "definition": "A non-taxonomic parameter that can specify the genotype of the organism.", "preferredTerm": "Organism by Genotype", "submissionValue": "Genotype", "synonyms": ["Genotype"]}, {"conceptId": "C179769", "definition": "A non-taxonomic parameter that can specify the geographic location where the organism was identified, collected or came from.", "preferredTerm": "Organism by Geographic Origin", "submissionValue": "Geographical Origin", "synonyms": ["Geographical Origin"]}, {"conceptId": "C179770", "definition": "A non-taxonomic parameter that can specify the group of the organism.", "preferredTerm": "Organism by Group", "submissionValue": "Group", "synonyms": ["Group"]}, {"conceptId": "C179771", "definition": "A non-taxonomic parameter that can specify the isolate of the organism.", "preferredTerm": "Organism Isolate", "submissionValue": "Isolate", "synonyms": ["Isolate"]}, {"conceptId": "C179772", "definition": "A taxonomic parameter for the specification of lineage of the organism.", "preferredTerm": "Organism Lineage", "submissionValue": "Lineage", "synonyms": ["Lineage"]}, {"conceptId": "C43685", "definition": "The accession number for a gene within the National Center for Biotechnology Information (NCBI) GenBank database.", "preferredTerm": "GenBank Accession Number", "submissionValue": "NCBI GenBank ID", "synonyms": ["GenBank ID", "NCBI GenBank ID"]}, {"conceptId": "C179773", "definition": "The taxonomy identifier for an organism within the National Center for Biotechnology Information (NCBI) Taxonomy database.", "preferredTerm": "NCBI Taxonomy Identifier", "submissionValue": "NCBI Taxonomy ID", "synonyms": ["NCBI Taxonomy ID"]}, {"conceptId": "C179774", "definition": "A non-taxonomic parameter that can specify the pseudotype viral backbone of the engineered virus.", "preferredTerm": "Organism Pseudotype Viral Backbone", "submissionValue": "Pseudotype Viral Backbone", "synonyms": ["Pseudotype Viral Backbone"]}, {"conceptId": "C45293", "definition": "A taxonomic parameter for the specification of species of the organism.", "preferredTerm": "Species", "submissionValue": "Species", "synonyms": ["Species"]}, {"conceptId": "C14419", "definition": "A non-taxonomic parameter that can specify the strain of the organism.", "preferredTerm": "Organism Strain", "submissionValue": "Strain", "synonyms": ["Strain", "Strain Number"]}, {"conceptId": "C179775", "definition": "A non-taxonomic parameter that can specify the subtype of the organism.", "preferredTerm": "Organism by Subtype", "submissionValue": "Subtype", "synonyms": ["Subtype"]}, {"conceptId": "C179776", "definition": "A non-taxonomic parameter that can specify the type of the organism.", "preferredTerm": "Organism by Type", "submissionValue": "Type", "synonyms": ["Type"]}, {"conceptId": "C179777", "definition": "A non-taxonomic parameter that can specify the year when the organism was collected or isolated.", "preferredTerm": "Organism by Year Collected", "submissionValue": "Year of Collection", "synonyms": ["Year of Collection"]}]}