{"_links": {"parentPackage": {"href": "/mdr/ct/packages/sdtmct-2021-09-24", "title": "SDTM Controlled Terminology Package 47 Effective 2021-09-24", "type": "Terminology"}, "rootItem": {"href": "/mdr/root/ct/sdtmct/codelists/C181173", "title": "Version-agnostic anchor resource for codelist C181173", "type": "Root Value Domain"}, "self": {"href": "/mdr/ct/packages/sdtmct-2021-09-24/codelists/C181173", "title": "CDISC SDTM Cell Phenotyping Test Code Terminology", "type": "Code List"}}, "conceptId": "C181173", "definition": "Terminology relevant to the test codes names that describe cell phenotype findings.", "extensible": "true", "name": "Cell Phenotyping Test Code", "preferredTerm": "CDISC SDTM Cell Phenotyping Test Code Terminology", "submissionValue": "CPTESTCD", "synonyms": ["Cell Phenotyping Test Code"], "terms": [{"conceptId": "C181307", "definition": "A measurement of B-lymphocytes B1 in a biological specimen.", "preferredTerm": "B-Lymphocytes B1 Count", "submissionValue": "BLYB1", "synonyms": ["B-lymphocytes B1", "BLym B1"]}, {"conceptId": "C181308", "definition": "A measurement of a subpopulation of B-lymphocytes B1 in a biological specimen.", "preferredTerm": "B-Lymphocytes B1 Subpopulation Count", "submissionValue": "BLYB1S", "synonyms": ["B-lym B1 Subpopulation", "BLym B1 Sub"]}, {"conceptId": "C174314", "definition": "A measurement of the B-lymphocytes in a biological specimen.", "preferredTerm": "B-Lymphocyte Count", "submissionValue": "BLYCE", "synonyms": ["B-Cell Lymphocytes", "B-Cells", "B-Lymphocytes"]}, {"conceptId": "C174317", "definition": "A relative measurement (ratio or percentage) of the B-lymphocytes to total cells in a biological specimen.", "preferredTerm": "B-Lymphocyte to Total Cells Ratio Measurement", "submissionValue": "BLYCECE", "synonyms": ["B-Lymphocytes/Total Cells"]}, {"conceptId": "C181309", "definition": "A relative measurement (ratio or percentage) of B-lymphocytes to leukocytes in a biological specimen.", "preferredTerm": "B-Lymphocytes to Leukocytes Ratio Measurement", "submissionValue": "BLYCELE", "synonyms": ["B Cells/Leukocytes", "B-Lymphocytes/Leukocytes", "BLym/Leuk"]}, {"conceptId": "C174315", "definition": "A relative measurement (ratio or percentage) of the B-lymphocytes to total lymphocytes in a biological specimen.", "preferredTerm": "B-Lymphocyte to Lymphocyte Ratio Measurement", "submissionValue": "BLYCELY", "synonyms": ["B-Lymphocytes/Lymphocytes"]}, {"conceptId": "C181262", "definition": "A measurement of the naive B-lymphocytes in a biological specimen.", "preferredTerm": "Naive B-Lymphocyte Measurement", "submissionValue": "BLYN", "synonyms": ["B-Lymphocytes, Naive", "BLym Naive", "Naive B Cells", "Naive B-Lymphocytes"]}, {"conceptId": "C181264", "definition": "A relative measurement (ratio or percentage) of naive B-lymphocytes to B-lymphocytes in a biological specimen.", "preferredTerm": "Naive B-Lymphocytes to Total B-Lymphocytes Ratio Measurement", "submissionValue": "BLYNBLY", "synonyms": ["B Cell, Naive/B Cell", "B-Lymphocyte, Naive/B-Lymphocyte", "BLym Naive/Blym", "Naive B-Lymphocytes/B-Lymphocytes"]}, {"conceptId": "C181187", "definition": "A measurement of a subpopulation of B-lymphocytes in a biological specimen.", "preferredTerm": "B-Lymphocytes Subpopulation Count", "submissionValue": "BLYS", "synonyms": ["B-lymphocytes Subpopulation", "BLym Sub"]}, {"conceptId": "C181265", "definition": "A relative measurement (ratio or percentage) of a subpopulation of naive B-lymphocytes to B-lymphocytes in a biological specimen.", "preferredTerm": "B-Lymphocytes Subpopulation to Total B-Lymphocytes Ratio Measurement", "submissionValue": "BLYSBLY", "synonyms": ["B Cell, Naive Subpopulation/B Cell", "B-Lymphocyte, Naive Subpopulation/B-Lymphocyte", "BLym Naive Sub/Blym", "BLym Sub/BLym", "Lymphocyte, Naive Subset/B-Lymphocyte"]}, {"conceptId": "C181263", "definition": "A relative measurement (ratio or percentage) of a subpopulation of naive B-lymphocytes to naive B-lymphocytes in a biological specimen.", "preferredTerm": "Naive B-Lymphocytes Subpopulation to Total B-Lymphocytes Naive Ratio Measurement", "submissionValue": "BNSBN", "synonyms": ["B Cells, Naive Subpopulation/B Cells, Naive", "B-Lymphocyte, Naive Subpopulation/B-Lymphocyte, Naive", "B-Lymphocyte, Naive Subset/B-Lymphocyte, Naive", "BLym Naive Sub/BLym Naive"]}, {"conceptId": "C82006", "definition": "A measurement of CD40 expression in a biological specimen.", "preferredTerm": "CD40 Measurement", "submissionValue": "CD40X", "synonyms": ["CD40 Expression"]}, {"conceptId": "C181266", "definition": "A measurement of CD80 expression in a biological specimen.", "preferredTerm": "CD80 Expression Measurement", "submissionValue": "CD80X", "synonyms": ["CD80 Expression"]}, {"conceptId": "C181267", "definition": "A measurement of CD83 expression in a biological specimen.", "preferredTerm": "CD83 Expression Measurement", "submissionValue": "CD83X", "synonyms": ["CD83 Expression"]}, {"conceptId": "C181268", "definition": "A measurement of CD95 expression in a biological specimen.", "preferredTerm": "CD95 Expression Measurement", "submissionValue": "CD95X", "synonyms": ["CD95 Expression"]}, {"conceptId": "C181185", "definition": "A measurement of the dendritic cells in a biological specimen.", "preferredTerm": "Dendritic Cells Count", "submissionValue": "DC", "synonyms": ["DC", "Dendritic Cells"]}, {"conceptId": "C181252", "definition": "A relative measurement (ratio or percentage) of the dendritic cells to total cells in a biological specimen.", "preferredTerm": "Dendritic Cells to Total Cells Ratio Measurement", "submissionValue": "DCCE", "synonyms": ["Dendritic Cells/Total Cells"]}, {"conceptId": "C181269", "definition": "A relative measurement (ratio or percentage) of the dendritic cells to lymphocytes and monocytes in a biological specimen.", "preferredTerm": "Dendritic Cells to Lymphocytes and Monocytes Ratio Measurement", "submissionValue": "DCLYMONO", "synonyms": ["Dendritic Cells/Lym+Mono", "Dendritic Cells/Lymphocytes and Monocytes"]}, {"conceptId": "C181195", "definition": "A measurement of the plasmacytoid dendritic cells in a biological specimen.", "preferredTerm": "Plasmacytoid Dendritic Cell Count", "submissionValue": "DCP", "synonyms": ["DC Plasmacytoid", "Plasmacytoid Dendritic Cells"]}, {"conceptId": "C181272", "definition": "A relative measurement (ratio or percentage) of the plasmacytoid dendritic cells to dendritic cells in a biological specimen.", "preferredTerm": "Plasmacytoid Dendritic Cells to Dendritic Cells Ratio Measurement", "submissionValue": "DCPDC", "synonyms": ["DC Plasmacytoid/DC", "DC Plasmacytoid/Dendritic Cells", "Plasmacytoid Dendritic Cells/Dendritic Cells"]}, {"conceptId": "C181270", "definition": "A measurement of a subpopulation of plasmacytoid dendritic cells in a biological specimen.", "preferredTerm": "Plasmacytoid Dendritic Cell Subpopulation Count", "submissionValue": "DCPS", "synonyms": ["DC Plasmacytoid Sub", "Plasmacytoid Dendritic Cells Subpopulation"]}, {"conceptId": "C181271", "definition": "A relative measurement (ratio or percentage) of a subpopulation of plasmacytoid dendritic cells to total plasmacytoid dendritic cells in a biological specimen.", "preferredTerm": "Plasmacytoid Dendritic Cells Subpopulation to Dendritic Cells Plasmacytoid Ratio Measurement", "submissionValue": "DCPSDCP", "synonyms": ["DC Plasmacytoid Sub/DC Plasmacytoid", "Plasmacytoid Dendritic Cells Subpopulation/Plasmacytoid Dendritic Cells"]}, {"conceptId": "C51949", "definition": "A measurement of the lymphocytes in a biological specimen.", "preferredTerm": "Lymphocyte Count", "submissionValue": "LYM", "synonyms": ["Lymphocytes"]}, {"conceptId": "C64820", "definition": "A relative measurement (ratio or percentage) of the lymphocytes to leukocytes in a biological specimen.", "preferredTerm": "Lymphocyte to Leukocyte Ratio", "submissionValue": "LYMLE", "synonyms": ["Lymphocytes/Leukocytes"]}, {"conceptId": "C181273", "definition": "A measurement of the leukocytes and monocytes in a biological specimen.", "preferredTerm": "Lymphocytes and Monocytes Count", "submissionValue": "LYMONO", "synonyms": ["Lym+Mono", "Lym+Mono/Leuk", "Lymphocytes and Monocytes"]}, {"conceptId": "C181274", "definition": "A relative measurement (ratio or percentage) of the lymphocytes and monocytes to total leukocytes in a biological specimen.", "preferredTerm": "Lymphocytes and Monocytes to Leukocytes Ratio Measurement", "submissionValue": "LYMONOLE", "synonyms": ["Lymphocytes and Monocytes/Leukocytes"]}, {"conceptId": "C181275", "definition": "A measurement of a subpopulation of lymphocytes in a biological specimen.", "preferredTerm": "Lymphocytes Subpopulation Count", "submissionValue": "LYS", "synonyms": ["Lym Sub", "Lymphocytes Sub", "Lymphocytes Subpopulation"]}, {"conceptId": "C181276", "definition": "A relative measurement (ratio or percentage) of a subpopulation of lymphocytes to lymphocytes in a biological specimen.", "preferredTerm": "Lymphocyte Subpopulation to Total Lymphocytes Ratio Measurement", "submissionValue": "LYSLY", "synonyms": ["Lym Sub/Lym", "Lymphocytes Sub/Lymphocytes", "Lymphocytes Subpopulation/Lymphocytes"]}, {"conceptId": "C181277", "definition": "A relative measurement (ratio) of viable lymphocytes to non-viable lymphocytes in a biological specimen.", "preferredTerm": "Viable Lymphocytes to Nonviable Lymphocytes Ratio Measurement", "submissionValue": "LYVLYNV", "synonyms": ["Lym Viable/Lym NonViable", "Lymphocytes Viable/Lymphocytes Non-Viable", "Lymphocytes Viable/Lymphocytes NonViable"]}, {"conceptId": "C181281", "definition": "A measurement of the classical monocytes in a biological specimen.", "preferredTerm": "Classic Monocytes Count", "submissionValue": "MNCL", "synonyms": ["Mono Classic", "Monocytes Classical"]}, {"conceptId": "C181282", "definition": "A measurement of the inflammatory monocytes in a biological specimen.", "preferredTerm": "Inflammatory Monocytes Count", "submissionValue": "MNIF", "synonyms": ["Mono Inflamm", "Monocytes Inflammatory"]}, {"conceptId": "C181283", "definition": "A measurement of the intermediate monocytes in a biological specimen.", "preferredTerm": "Intermediate Monocytes Count", "submissionValue": "MNIN", "synonyms": ["Mono Intermed", "Monocytes Intermediate"]}, {"conceptId": "C181287", "definition": "A measurement of the mature monocytes in a biological specimen.", "preferredTerm": "Mature Monocytes Count", "submissionValue": "MNMA", "synonyms": ["Mono Mat", "Monocytes Mature"]}, {"conceptId": "C181284", "definition": "A measurement of the non-classical monocytes in a biological specimen.", "preferredTerm": "Non-Classical Monocytes Count", "submissionValue": "MNNCL", "synonyms": ["Mono NonClassic", "Monocytes Non-Classical"]}, {"conceptId": "C181285", "definition": "A measurement of the pro-inflammatory monocytes in a biological specimen.", "preferredTerm": "Proinflammatory Monocytes Count", "submissionValue": "MNPIF", "synonyms": ["Mono Proinflam", "Monocytes Proinflammatory"]}, {"conceptId": "C181279", "definition": "A relative measurement (ratio) of proliferating monocytes to non-proliferating monocytes in a biological specimen.", "preferredTerm": "Proliferating Monocytes to Total Monocytes Non-Proliferating Ratio Measurement", "submissionValue": "MNPMNNP", "synonyms": ["Mono Prolif/Mono NonProlif", "Monocytes Prolif/Monocytes NonProlif", "Monocytes Proliferating/Monocytes Non-Proliferating"]}, {"conceptId": "C181286", "definition": "A measurement of the resident monocytes in a biological specimen.", "preferredTerm": "Resident Monocytes Count", "submissionValue": "MNR", "synonyms": ["Mono Resident", "Monocytes Resident"]}, {"conceptId": "C181278", "definition": "A measurement of a subpopulation of monocytes in a biological specimen.", "preferredTerm": "Monocytes Subpopulation Count", "submissionValue": "MNS", "synonyms": ["Mono Sub", "Monocytes Sub", "Monocytes Subpopulation"]}, {"conceptId": "C181280", "definition": "A relative measurement (ratio or percentage) of a subpopulation of monocytes to monocytes in a biological specimen.", "preferredTerm": "Monocyte Subpopulation to Total Monocytes Ratio Measurement", "submissionValue": "MNSMN", "synonyms": ["Mono Sub/Mono", "Monocytes Sub/Monocytes", "Monocytes Subpopulation/Monocytes"]}, {"conceptId": "C64823", "definition": "A measurement of the monocytes in a biological specimen.", "preferredTerm": "Monocyte Count", "submissionValue": "MONO", "synonyms": ["Monocytes"]}, {"conceptId": "C96676", "definition": "A measurement of the immature monocytes in a biological specimen.", "preferredTerm": "Immature Monocyte Count", "submissionValue": "MONOIM", "synonyms": ["Immature Monocytes"]}, {"conceptId": "C64824", "definition": "A relative measurement (ratio or percentage) of the monocytes to leukocytes in a biological specimen.", "preferredTerm": "Monocyte to Leukocyte Ratio", "submissionValue": "MONOLE", "synonyms": ["Monocytes/Leukocytes"]}, {"conceptId": "C98762", "definition": "A measurement of the total natural killer cells in a biological specimen.", "preferredTerm": "Natural Killer Cell Count", "submissionValue": "NKCE", "synonyms": ["Natural Killer Cells"]}, {"conceptId": "C181257", "definition": "A relative measurement (ratio or percentage) of the natural killer cells to total cells in a biological specimen.", "preferredTerm": "Natural Killer Cells to Total Cells Ratio Measurement", "submissionValue": "NKCECE", "synonyms": ["Natural Killer Cells/Total Cells"]}, {"conceptId": "C181306", "definition": "A relative measurement (ratio or percentage) of the natural killer cells to leukocytes in a biological specimen.", "preferredTerm": "Natural Killer Cells to Leukocytes Ratio Measurement", "submissionValue": "NKLE", "synonyms": ["NK Cells/Leuk", "Natural Killer Cells/Leukocytes"]}, {"conceptId": "C181258", "definition": "A relative measurement (ratio or percentage) of the natural killer cells to lymphocytes in a biological specimen.", "preferredTerm": "Natural Killer Cells to Lymphocytes Ratio Measurement", "submissionValue": "NKLY", "synonyms": ["NK Cells/Lym", "Natural Killer Cells/Lymphocytes"]}, {"conceptId": "C181260", "definition": "A measurement of a subpopulation of natural killer cells in a biological specimen.", "preferredTerm": "Natural Killer Cells Subpopulation Count", "submissionValue": "NKS", "synonyms": ["NK Cells Sub", "NK Cells Subpopulation"]}, {"conceptId": "C181259", "definition": "A relative measurement (ratio or percentage) of a sub population of natural killer cells to total natural killer cells in a biological specimen.", "preferredTerm": "Natural Killer Cells Subpopulation to Total Natural Killer Cells Ratio Measurement", "submissionValue": "NKSNK", "synonyms": ["NK Cells Sub/NK Cells", "Natural Killer Cells Subpopulation/Natural Killer Cells"]}, {"conceptId": "C181300", "definition": "A relative measurement (ratio or percentage) of a cell characteristic or response in the presence of a stimulating agent relative to a non-stimulated control.", "preferredTerm": "Stimulation Index Count", "submissionValue": "STMIDX", "synonyms": ["Stimulation Index"]}, {"conceptId": "C181295", "definition": "A measurement of the bound target in a biological specimen, prior to background subtraction.", "preferredTerm": "Target Bound Measurement", "submissionValue": "TGB", "synonyms": ["Target Bound"]}, {"conceptId": "C181294", "definition": "A measurement of the background associated with the bound target measurement in a biological specimen.", "preferredTerm": "Target Bound, Background Measurement", "submissionValue": "TGBBK", "synonyms": ["Target Bound, Background"]}, {"conceptId": "C181288", "definition": "A measurement of the difference between bound target and background target in a biological specimen.", "preferredTerm": "Target, Bound Delta Bound Background Measurement", "submissionValue": "TGBDBBK", "synonyms": ["Target Bound, Delta Bound Background"]}, {"conceptId": "C181296", "definition": "A measurement of the free target in a biological specimen, prior to background subtraction.", "preferredTerm": "Target Free Measurement", "submissionValue": "TGF", "synonyms": ["Target Free"]}, {"conceptId": "C181292", "definition": "A measurement of the background associated with the free target measurement in a biological specimen.", "preferredTerm": "Target Free, Background Measurement", "submissionValue": "TGFBK", "synonyms": ["Target Free, Background"]}, {"conceptId": "C181289", "definition": "A measurement of the difference between free target and free background target in a biological specimen.", "preferredTerm": "Target, Free Delta Free Background Measurement", "submissionValue": "TGFDFBK", "synonyms": ["Target Free, Delta Free Background"]}, {"conceptId": "C181291", "definition": "A relative measurement (ratio or percentage) of the specifically bound target to total target in a biological specimen.", "preferredTerm": "Target Occupancy Ratio Measurement", "submissionValue": "TGOCC", "synonyms": ["Percent Occupancy", "Percent Saturation", "Target Occupancy"]}, {"conceptId": "C181297", "definition": "A measurement of the total target in a biological specimen, prior to background subtraction.", "preferredTerm": "Target Total Measurement", "submissionValue": "TGT", "synonyms": ["Target Total"]}, {"conceptId": "C181293", "definition": "A measurement of the background associated with the total target measurement in a biological specimen.", "preferredTerm": "Target Total, Background Measurement", "submissionValue": "TGTBK", "synonyms": ["Target Total, Background"]}, {"conceptId": "C181290", "definition": "A measurement of the difference between total target and target total background in a biological specimen.", "preferredTerm": "Target, Total Delta Total Background Measurement", "submissionValue": "TGTDTBK", "synonyms": ["Target Total, Delta Total Background"]}, {"conceptId": "C181186", "definition": "A measurement of the cytotoxic T-lymphocytes in a biological specimen.", "preferredTerm": "Cytotoxic T-Lymphocyte Count", "submissionValue": "TLC", "synonyms": ["Cytotoxic T Cells", "Cytotoxic T-Lymphocytes", "TLym Cytx"]}, {"conceptId": "C181256", "definition": "A relative measurement (ratio or percentage) of the cytotoxic T-lymphocytes to total cells in a biological specimen.", "preferredTerm": "Cytotoxic T-Lymphocytes to Total Cells Ratio Measurement", "submissionValue": "TLCCE", "synonyms": ["T Cells, Cytotoxic/Total Cells", "T-Lym, CTX/Total Cells", "T-Lymphocytes, Cytotoxic/Total Cells", "TLym Cytx/Total Cells"]}, {"conceptId": "C181254", "definition": "A relative measurement (ratio or percentage) of the cytotoxic T-lymphocytes to leukocytes in a biological specimen.", "preferredTerm": "Cytotoxic T-Lymphocytes to Leukocytes Ratio Measurement", "submissionValue": "TLCLE", "synonyms": ["T Cells, Cytotoxic/Leukocytes", "T-Lymphocytes, Cytotoxic/Leukocytes", "TLym Cytx/Leuk"]}, {"conceptId": "C181299", "definition": "A measurement of the subpopulation of cytotoxic T-lymphocytes in a biological specimen.", "preferredTerm": "Cytotoxic T-Lymphocyte Subpopulation Count", "submissionValue": "TLCS", "synonyms": ["Cytotoxic T Cells Subpopulation", "Cytotoxic T-Lymphocytes Subpopulation", "TLym Cytx Sub"]}, {"conceptId": "C181298", "definition": "A relative measurement (ratio or percentage) of the cytotoxic T-lymphocyte subpopulation to total cytotoxic T-lymphocytes in a biological specimen.", "preferredTerm": "Cytotoxic T-Lymphocyte Subpopulation to Total Cytotoxic T-Lymphocytes Ratio Measurement", "submissionValue": "TLCSTLC", "synonyms": ["Cytotoxic T-Lymphocytes Subpopulation/Cytotoxic T-Lymphocytes", "T Cells Subpopulation/Cytotoxic T-Lymphocytes", "TLym Cytx Sub/TLym Cytx"]}, {"conceptId": "C181255", "definition": "A relative measurement (ratio or percentage) of the helper T-lymphocytes to total cells in a biological specimen.", "preferredTerm": "Helper T-Lymphocytes to Total Cells Ratio Measurement", "submissionValue": "TLHCE", "synonyms": ["T Cells, Helper/Total Cells", "T-Lym, Helper/Total Cells", "T-Lymphocytes, Helper/Total Cells", "TLym Help/Total Cells"]}, {"conceptId": "C181253", "definition": "A relative measurement (ratio or percentage) of the helper T-lymphocytes to leukocytes in a biological specimen.", "preferredTerm": "Helper T-Lymphocytes to Leukocytes Ratio Measurement", "submissionValue": "TLHLE", "synonyms": ["T Cells, Helper/Leukocytes", "T-Lymphocytes, Helper/Leukocytes", "TLym Help/Leuk"]}, {"conceptId": "C181184", "definition": "A relative measurement (ratio or percentage) of the T-lymphocytes to leukocytes in a biological specimen.", "preferredTerm": "T-Lymphocytes to Leukocytes Ratio Measurement", "submissionValue": "TLLE", "synonyms": ["T Cells/Leukocytes", "T-Lymphocytes/Leukocytes", "TLym/Leuk"]}, {"conceptId": "C181261", "definition": "A relative measurement (ratio or percentage) of the T-lymphocyte subpopulation to total T-lymphocytes in a biological specimen.", "preferredTerm": "T-Lymphocytes Subpopulation to Total T-Lymphocytes Ratio Measurement", "submissionValue": "TLSTLY", "synonyms": ["T-Lymphocytes Subpopulation/T-Lymphocytes", "TLym Sub/Tlym"]}, {"conceptId": "C122157", "definition": "A measurement of the total thymocyte-derived lymphocytes in a biological specimen.", "preferredTerm": "T-Lymphocyte Count", "submissionValue": "TLYCE", "synonyms": ["T-Cell Lymphocytes", "T-Cells", "T-Lymphocytes"]}, {"conceptId": "C181304", "definition": "A relative measurement (ratio or percentage) of the cytotoxic T-lymphocytes to total T-lymphocytes in a biological specimen.", "preferredTerm": "Cytotoxic T-Lymphocytes to Total T-Lymphocytes Ratio Measurement", "submissionValue": "TLYCTLY", "synonyms": ["Cytotoxic T Cells/T Cells", "Cytotoxic T-Lymphocytes/T-Lymphocytes", "TLym Cytx/TLym"]}, {"conceptId": "C181302", "definition": "A measurement of the helper T-lymphocytes in a biological specimen.", "preferredTerm": "Helper T-Lymphocytes Count", "submissionValue": "TLYH", "synonyms": ["Helper T Cells", "Helper T-Lymphocytes", "TLym Help"]}, {"conceptId": "C181303", "definition": "A relative measurement (ratio or percentage) of the helper T-lymphocytes to total T-lymphocytes in a biological specimen.", "preferredTerm": "Helper T-Lymphocytes to Total T-Lymphocytes Ratio Measurement", "submissionValue": "TLYHTLY", "synonyms": ["Helper T Cells/T Cells", "Helper T-Lymphocytes/T-Lymphocytes", "TLym Help/TLym"]}, {"conceptId": "C181305", "definition": "A relative measurement (ratio) of the helper T-lymphocytes to cytotoxic T-lymphocytes in a biological specimen.", "preferredTerm": "Helper T-Lymphocytes to Cytotoxic T-Lymphocytes Ratio Measurement", "submissionValue": "TLYHTLYC", "synonyms": ["Helper T Cells/Cytotoxic T Cells", "Helper T-Lymphocytes/Cytotoxic T-Lymphocytes", "TLym Help/TLym Cytx"]}, {"conceptId": "C181301", "definition": "A relative measurement (ratio or percentage) of the T-lymphocytes to total lymphocytes in a biological specimen.", "preferredTerm": "T-Lymphocytes to Lymphocytes Ratio Measurement", "submissionValue": "TLYLY", "synonyms": ["T Cells/Lymphocytes", "T-Lymphocytes/Lymphocytes", "TLym/Lym"]}, {"conceptId": "C51948", "definition": "A measurement of the leukocytes in a biological specimen.", "preferredTerm": "Leukocyte Count", "submissionValue": "WBC", "synonyms": ["Leukocytes", "White Blood Cells"]}, {"conceptId": "C135451", "definition": "A relative measurement (ratio or percentage) of the leukocytes to total cells in a biological specimen.", "preferredTerm": "Leukocytes to Total Cells Ratio Measurement", "submissionValue": "WBCCE", "synonyms": ["Leukocytes/Total Cells", "WBC/Total Cells"]}]}