{"_links": {"parentPackage": {"href": "/mdr/ct/packages/sdtmct-2021-09-24", "title": "SDTM Controlled Terminology Package 47 Effective 2021-09-24", "type": "Terminology"}, "rootItem": {"href": "/mdr/root/ct/sdtmct/codelists/C181176", "title": "Version-agnostic anchor resource for codelist C181176", "type": "Root Value Domain"}, "self": {"href": "/mdr/ct/packages/sdtmct-2021-09-24/codelists/C181176", "title": "CDISC SDTM Genomic Symbol Type Response Terminology", "type": "Code List"}}, "conceptId": "C181176", "definition": "Terminology relevant to the type of genomic entity that is represented by the published gene symbol.", "extensible": "true", "name": "Genomic Symbol Type Response", "preferredTerm": "CDISC SDTM Genomic Symbol Type Response Terminology", "submissionValue": "SYMTYPGF", "synonyms": ["Genomic Symbol Type Response"], "terms": [{"conceptId": "C181535", "definition": "A sequence of single-stranded RNA that forms a covalently closed continuous loop.", "preferredTerm": "Circular RNA", "submissionValue": "CIRCULAR RNA", "synonyms": ["circRNA"]}, {"conceptId": "C14334", "definition": "Integrated retroviral elements that are transmitted through the germline. (HGNC)", "preferredTerm": "Endogenous Retrovirus", "submissionValue": "ENDOGENOUS RETROVIRUS"}, {"conceptId": "C13375", "definition": "A heritable locus on a chromosome that is prone to DNA breakage. (HGNC)", "preferredTerm": "Chromosome Fragile Site", "submissionValue": "FRAGILE SITE"}, {"conceptId": "C181531", "definition": "A protein-coding gene (the protein may be predicted or of unknown function). (HGNC)", "preferredTerm": "Protein-Encoding Gene", "submissionValue": "GENE WITH PROTEIN PRODUCT"}, {"conceptId": "C88924", "definition": "A non-coding transcript typically greater than 200bp in length. (Ensembl)", "preferredTerm": "LincRNA", "submissionValue": "LONG NON-CODING RNA", "synonyms": ["lncRNA"]}, {"conceptId": "C25966", "definition": "A sequence of single-stranded RNA which is typically 20-25 nucleotides in length and may regulate the expression of other genes. miRNAs are transcribed from DNA, but are not translated into proteins.", "preferredTerm": "MicroRNA", "submissionValue": "MICRO RNA", "synonyms": ["MicroRNA", "miRNA"]}, {"conceptId": "C148643", "definition": "A transcript with a premature stop codon considered likely to be subjected to targeted degradation. (Ensembl)", "preferredTerm": "Non-Sense Mediated Decay Mutation", "submissionValue": "NONSENSE MEDIATED DECAY"}, {"conceptId": "C95953", "definition": "Single-stranded RNA molecules that are expressed in animal cells and form complexes with Piwi proteins. They are involved in transcriptional gene silencing.", "preferredTerm": "Piwi-Interacting RNA", "submissionValue": "PIWI-INTERACTING RNA", "synonyms": ["Piwi-Interacting RNA", "piRNA"]}, {"conceptId": "C181532", "definition": "A transcript that doesn't contain an open reading frame (ORF). (Ensembl)", "preferredTerm": "Processed Transcript", "submissionValue": "PROCESSED TRANSCRIPT"}, {"conceptId": "C40415", "definition": "Genomic DNA sequences that are similar to protein-coding genes but do not encode a functional protein. (HGNC)", "preferredTerm": "Pseudogene", "submissionValue": "PSEUDOGENE"}, {"conceptId": "C181194", "definition": "A naturally occurring transcript containing coding sequence from two or more genes that can also be transcribed individually. (HGNC)", "preferredTerm": "Readthrough Transcript", "submissionValue": "READTHROUGH TRANSCRIPT"}, {"conceptId": "C181533", "definition": "An alternatively spliced transcript believed to contain intronic sequence relative to other, coding, transcripts of the same gene. (Ensembl)", "preferredTerm": "Retained Intron", "submissionValue": "RETAINED INTRON"}, {"conceptId": "C814", "definition": "An RNA molecule that associates with multiple proteins to form ribosomes.", "preferredTerm": "Ribosomal RNA", "submissionValue": "RIBOSOMAL RNA", "synonyms": ["Ribosomal RNA", "rRNA"]}, {"conceptId": "C181538", "definition": "Non-protein coding genes that encode small cytoplasmic RNAs (scRNAs). (HGNC)", "preferredTerm": "Small Cytoplasmic RNA", "submissionValue": "SMALL CYTOPLASMIC RNA", "synonyms": ["scRNA"]}, {"conceptId": "C2191", "definition": "A 20 to 25-nucleotide double-stranded RNA which is involved in a sequence-specific messenger RNA degradation process known as RNA interference.", "preferredTerm": "Small Interfering RNA", "submissionValue": "SMALL INTERFERING RNA", "synonyms": ["Small Interfering RNA", "siRNA"]}, {"conceptId": "C181534", "definition": "A non-coding transcript typically less than 200bp in length.", "preferredTerm": "Small Non-Coding RNA", "submissionValue": "SMALL NON-CODING RNA", "synonyms": ["Small ncRNA"]}, {"conceptId": "C815", "definition": "A small RNA molecule (100-300 nucleotides) located in the cell nucleus that is involved in RNA splicing, transcriptional regulation, telomere maintenance and rRNA modification.", "preferredTerm": "Small Nuclear RNA", "submissionValue": "SMALL NUCLEAR RNA", "synonyms": ["Small Nuclear RNA", "Small Nuclear Ribonucleic Acid", "U-RNA", "snRNA"]}, {"conceptId": "C111316", "definition": "A small RNA molecule located in the cell nucleolus that associates with proteins to form small nucleolar ribonucleoprotein particles that are involved in modification of other RNAs.", "preferredTerm": "Small Nucleolar RNA", "submissionValue": "SMALL NUCLEOLAR RNA", "synonyms": ["Small Nucleolar RNA", "snoRNA"]}, {"conceptId": "C181537", "definition": "A transcript containing a stop codon that is translated, and termination occurs instead at a canonical stop codon further downstream. (Ensembl)", "preferredTerm": "Stop Codon Readthrough Transcript", "submissionValue": "STOP CODON READTHROUGH TRANSCRIPT"}, {"conceptId": "C816", "definition": "A class of short adaptor RNAs that transfers a specific amino acid to a growing polypeptide chain at the ribosomal site of protein synthesis during translation.", "preferredTerm": "Transfer RNA", "submissionValue": "TRANSFER RNA", "synonyms": ["Transfer RNA", "Triplet Codon-Amino Acid Adaptor", "tRNA"]}, {"conceptId": "C95942", "definition": "A class of mobile genetic elements that can move from one genomic position to another.", "preferredTerm": "Transposon", "submissionValue": "TRANSPOSABLE ELEMENT", "synonyms": ["Jumping Gene", "Jumping Genes", "Transposable Element"]}, {"conceptId": "C181536", "definition": "Small, untranslated RNAs associated with vault complexes.", "preferredTerm": "Vault RNA", "submissionValue": "VAULT RNA", "synonyms": ["vaultRNA", "vtRNA"]}, {"conceptId": "C181539", "definition": "Target sequence for the integration of viral DNA into the genome. (HGNC)", "preferredTerm": "Virus Integration Site", "submissionValue": "VIRUS INTEGRATION SITE", "synonyms": ["VIS", "Viral Integration Site Sequence"]}]}