{"_links": {"parentPackage": {"href": "/mdr/ct/packages/sdtmct-2021-09-24", "title": "SDTM Controlled Terminology Package 47 Effective 2021-09-24", "type": "Terminology"}, "rootItem": {"href": "/mdr/root/ct/sdtmct/codelists/C181169", "title": "Version-agnostic anchor resource for codelist C181169", "type": "Root Value Domain"}, "self": {"href": "/mdr/ct/packages/sdtmct-2021-09-24/codelists/C181169", "title": "CDISC SDTM Binding Agent for Immunogenicity Tests Terminology", "type": "Code List"}}, "conceptId": "C181169", "definition": "A terminology codelist relevant to the description of the agent that is binding to the entity in the ISTEST variable.", "extensible": "false", "name": "Binding Agent for Immunogenicity Tests", "preferredTerm": "CDISC SDTM Binding Agent for Immunogenicity Tests Terminology", "submissionValue": "ISBDAGT", "synonyms": ["Binding Agent for Immunogenicity Tests"], "terms": [{"conceptId": "C181357", "definition": "A mixture of allergens obtained from animals.", "preferredTerm": "Animal Mix Antigens", "submissionValue": "ANIMAL MIX ANTIGENS, MULTIPLE"}, {"conceptId": "C181359", "definition": "An animal allergen in the form of dander (skin flakes) produced by the species Felis catus (domestic cat).", "preferredTerm": "Cat Dander Antigen", "submissionValue": "CAT DANDER ANTIGEN", "synonyms": ["Domestic Cat Dander Antigen", "Felis catus Dander Antigen"]}, {"conceptId": "C181361", "definition": "An animal allergen in the form of dander (skin flakes) produced by the species Bos taurus (cow).", "preferredTerm": "Cow Dander Antigen", "submissionValue": "COW DANDER ANTIGEN", "synonyms": ["Bos taurus Dander Antigen", "Cattle Dander Antigen"]}, {"conceptId": "C181358", "definition": "An animal allergen in the form of dander (skin flakes) produced by the species Canis lupus familiaris (dog).", "preferredTerm": "Dog Dander Antigen", "submissionValue": "DOG DANDER ANTIGEN", "synonyms": ["Canis familiaris Dander Antigen", "Canis lupus familiaris Dander Antigen"]}, {"conceptId": "C181360", "definition": "An animal allergen in the form of dander (skin flakes) produced by the species Equus caballus (domestic horse).", "preferredTerm": "Horse Dander Antigen", "submissionValue": "HORSE DANDER ANTIGEN", "synonyms": ["Domestic Horse Dander Antigen", "Equus caballus Dander Antigen"]}, {"conceptId": "C181353", "definition": "A group of autoimmune substances found in the nucleus of a cell that are the target of autoantibodies.", "preferredTerm": "Nuclear Autoantigen", "submissionValue": "NUCLEAR AUTOANTIGENS"}, {"conceptId": "C181355", "definition": "An autoantigen encoded by the Ro52 gene (also called the TRIM21 gene) and has a molecular weight of 52 kDa. It is associated with the autoimmune disease Sjogrens Syndrome.", "preferredTerm": "Sjogrens SS-A52 Antigen", "submissionValue": "SJOGRENS SS-A52 ANTIGEN", "synonyms": ["Ro52", "SSA-52", "Sjogrens Ro 52kDa Antigen"]}, {"conceptId": "C181354", "definition": "An autoantigen encoded by the Ro60 gene and has a molecular weight of 60 kDa. It is associated with the autoimmune disease Sjogrens Syndrome.", "preferredTerm": "Sjogrens SS-A60 Antigen", "submissionValue": "SJOGRENS SS-A60 ANTIGEN", "synonyms": ["Ro60", "SSA-60", "Sjogrens Ro 60kDa Antigen"]}, {"conceptId": "C181356", "definition": "An autoantigen encoded by the SSB gene. It is associated with the autoimmune disease Sjogrens Syndrome.", "preferredTerm": "Sjogrens SS-B Antigen", "submissionValue": "SJOGRENS SS-B ANTIGEN", "synonyms": ["SSB", "Sjogrens La Antigen"]}]}