{"_links": {"parentPackage": {"href": "/mdr/ct/packages/sdtmct-2021-09-24", "title": "SDTM Controlled Terminology Package 47 Effective 2021-09-24", "type": "Terminology"}, "rootItem": {"href": "/mdr/root/ct/sdtmct/codelists/C181180", "title": "Version-agnostic anchor resource for codelist C181180", "type": "Root Value Domain"}, "self": {"href": "/mdr/ct/packages/sdtmct-2021-09-24/codelists/C181180", "title": "CDISC SDTM Genomic Findings Test Detail Terminology", "type": "Code List"}}, "conceptId": "C181180", "definition": "Terminology relevant to the reportable qualifying the genomic assessment.", "extensible": "true", "name": "Genomic Findings Test Detail", "preferredTerm": "CDISC SDTM Genomic Findings Test Detail Terminology", "submissionValue": "GFTSDTL", "synonyms": ["Genomic Findings Test Detail"], "terms": [{"conceptId": "C181337", "definition": "An interpretive summary of the number of replicas of a gene or gene segment within a genome, as compared to a reference or assumed state.", "preferredTerm": "Copy Number Alteration Interpretation", "submissionValue": "COPY NUMBER ALTERATION INTERPRETATION"}, {"conceptId": "C181349", "definition": "A relative measurement (ratio) of the number of altered copies in the sample to the number of copies in the reference sequence.", "preferredTerm": "Copy Number Ratio", "submissionValue": "COPY NUMBER RATIO"}, {"conceptId": "C174330", "definition": "The determination of presence or absence of an entity in a specimen.", "preferredTerm": "Biological Detection Test", "submissionValue": "DETECTION"}, {"conceptId": "C181340", "definition": "The absolute number of fragments of genetic material that were detected.", "preferredTerm": "Fragment Count", "submissionValue": "FRAGMENT COUNT"}, {"conceptId": "C181338", "definition": "An indication as to whether a genetic sequence is transcribed into RNA.", "preferredTerm": "Genetic Transcription Indicator", "submissionValue": "GENETIC TRANSCRIPTION INDICATOR"}, {"conceptId": "C181339", "definition": "An interpretive summary of the pattern of genetic transcription.", "preferredTerm": "Genetic Transcription Interpretation", "submissionValue": "GENETIC TRANSCRIPTION INTERPRETATION"}, {"conceptId": "C45447", "definition": "The determination of the nucleotide sequence of the genetic material at a specific locus.", "preferredTerm": "Genotyping", "submissionValue": "GENOTYPE"}, {"conceptId": "C139285", "definition": "The overall state or condition of the variability in length of multiple, assessed microsatellite sequences.", "preferredTerm": "Microsatellite Instability Overall Status", "submissionValue": "MICROSATELLITE INSTABILITY OVERALL STATUS", "synonyms": ["MSIOSTAT", "Microsatellite Instability Overall Stat"]}, {"conceptId": "C181341", "definition": "A value that is adjusted via a formula or calculation, to facilitate comparison.", "preferredTerm": "Normalized Level", "submissionValue": "NORMALIZED LEVEL"}, {"conceptId": "C181348", "definition": "The number of affected exons as compared to the reference sequence.", "preferredTerm": "Number of Altered Exons", "submissionValue": "NUMBER OF ALTERED EXONS"}, {"conceptId": "C181336", "definition": "The number of replicas of a particular gene sequence in a genome.", "preferredTerm": "Number of Gene Copies", "submissionValue": "NUMBER OF GENE COPIES", "synonyms": ["Gene Copy Number"]}, {"conceptId": "C181350", "definition": "A quantitative assessment of the number of sequence variants within a region of interest.", "preferredTerm": "Number of Sequence Variants", "submissionValue": "NUMBER OF SEQUENCE VARIANTS"}, {"conceptId": "C181342", "definition": "A relative ranking of the percent of total that the entity would equal or exceed.", "preferredTerm": "Percentile Rank", "submissionValue": "PERCENTILE RANK"}, {"conceptId": "C181343", "definition": "An inferred amino acid modification, based on sequence analysis of a genetic variation.", "preferredTerm": "Predicted Amino Acid Change", "submissionValue": "PREDICTED AMINO ACID CHANGE", "synonyms": ["Inferred Amino Acid Change"]}, {"conceptId": "C181344", "definition": "An inferred coding sequence modification, based on sequence analysis of a genetic variation.", "preferredTerm": "Predicated Coding Sequence Change", "submissionValue": "PREDICTED CODING SEQUENCE CHANGE", "synonyms": ["Inferred Coding Sequence Change"]}, {"conceptId": "C155320", "definition": "The total number of times a particular locus (site, nucleotide, amplicon, region) was sequenced.", "preferredTerm": "Read Depth", "submissionValue": "READ DEPTH", "synonyms": ["Depth of Coverage", "Total Mapped Reads", "Total Read Depth"]}, {"conceptId": "C25338", "definition": "A number or range of numeric values that assess and order a result or response for purposes of comparison.", "preferredTerm": "Score", "submissionValue": "SCORE", "synonyms": ["Score"]}, {"conceptId": "C181345", "definition": "A categorization of the phenotypic or clinical significance of the genomic variation.", "preferredTerm": "Genetic Variation Functional Impact Classification", "submissionValue": "VARIANT IMPACT CLASSIFICATION"}, {"conceptId": "C181346", "definition": "The number of times a particular variant within a locus (site, nucleotide, amplicon, region) was sequenced.", "preferredTerm": "Variant Read Depth", "submissionValue": "VARIANT READ DEPTH", "synonyms": ["Variant Mapped Reads"]}, {"conceptId": "C181347", "definition": "A relative measurement (ratio or percentage) of the variant read depth to total read depth.", "preferredTerm": "Variant Read Depth to Read Depth", "submissionValue": "VARIANT READ DEPTH/READ DEPTH", "synonyms": ["Variant Mapped Reads/Total Mapped Reads", "Variant Read Depth/Total Read Depth"]}, {"conceptId": "C181351", "definition": "An interpretive summary of the magnitude of the variant burden within the tumor.", "preferredTerm": "Variant Sequence Tumor Burden Interpretation", "submissionValue": "VARIANT SEQUENCE BURDEN INTERPRETATION"}]}