{"_links": {"parentPackage": {"href": "/mdr/ct/packages/sdtmct-2021-09-24", "title": "SDTM Controlled Terminology Package 47 Effective 2021-09-24", "type": "Terminology"}, "rootItem": {"href": "/mdr/root/ct/sdtmct/codelists/C181177", "title": "Version-agnostic anchor resource for codelist C181177", "type": "Root Value Domain"}, "self": {"href": "/mdr/ct/packages/sdtmct-2021-09-24/codelists/C181177", "title": "CDISC SDTM Genomic Inheritability Type Response Terminology", "type": "Code List"}}, "conceptId": "C181177", "definition": "Terminology relevant to whether the variation can be passed to the next generation.", "extensible": "true", "name": "Genomic Inheritability Type Response", "preferredTerm": "CDISC SDTM Genomic Inheritability Type Response Terminology", "submissionValue": "INHERTGF", "synonyms": ["Genomic Inheritability Type Response"], "terms": [{"conceptId": "C17666", "definition": "Any inheritable variation in the DNA that is transmitted to the progeny with some frequency.", "preferredTerm": "Germline Variation", "submissionValue": "GERMLINE VARIATION"}, {"conceptId": "C181352", "definition": "Any inheritable variation that appears in mitochondrial DNA that is transmitted to the progeny with some frequency.", "preferredTerm": "Mitochondrial DNA Variation", "submissionValue": "MITOCHONDRIAL VARIATION"}, {"conceptId": "C18060", "definition": "Any non-inheritable variation in the DNA that is not transmitted to the progeny but will be maintained during any mitosis within the individual.", "preferredTerm": "Somatic Variation", "submissionValue": "SOMATIC VARIATION"}]}