{"_links": {"parentPackage": {"href": "/mdr/ct/packages/sdtmct-2021-09-24", "title": "SDTM Controlled Terminology Package 47 Effective 2021-09-24", "type": "Terminology"}, "priorVersion": {"href": "/mdr/ct/packages/sdtmct-2021-06-25/codelists/C78731", "title": "CDISC SDTM Drug Accountability Test Name Terminology", "type": "Code List"}, "rootItem": {"href": "/mdr/root/ct/sdtmct/codelists/C78731", "title": "Version-agnostic anchor resource for codelist C78731", "type": "Root Value Domain"}, "self": {"href": "/mdr/ct/packages/sdtmct-2021-09-24/codelists/C78731", "title": "CDISC SDTM Drug Accountability Test Name Terminology", "type": "Code List"}}, "conceptId": "C78731", "definition": "The name of the test for the drug accountability assessment.", "extensible": "true", "name": "Drug Accountability Test Name", "preferredTerm": "CDISC SDTM Drug Accountability Test Name Terminology", "submissionValue": "DATEST", "synonyms": ["Drug Accountability Test Name"], "terms": [{"conceptId": "C78721", "definition": "The quantity of a product that has been dispensed. (NCI)", "preferredTerm": "Dispensed Amount", "submissionValue": "Dispensed Amount", "synonyms": ["Dispensed Amount"]}, {"conceptId": "C170562", "definition": "The quantity of a product that has been made ready for use.", "preferredTerm": "Prepared Amount", "submissionValue": "Prepared Amount", "synonyms": ["Prepared Amount"]}, {"conceptId": "C170563", "definition": "The quantity of a product that remains after dosing, consumption, or use.", "preferredTerm": "Remaining Amount", "submissionValue": "Remaining Amount", "synonyms": ["Remaining Amount"]}, {"conceptId": "C78722", "definition": "The quantity of a product that has been returned. (NCI)", "preferredTerm": "Returned Amount", "submissionValue": "Returned Amount", "synonyms": ["Returned Amount"]}]}