{"_links": {"parentPackage": {"href": "/mdr/ct/packages/sdtmct-2021-12-17", "title": "SDTM Controlled Terminology Package 48 Effective 2021-12-17", "type": "Terminology"}, "priorVersion": {"href": "/mdr/ct/packages/sdtmct-2021-09-24/codelists/C100152", "title": "CDISC Questionnaire MNSI Test Code Terminology", "type": "Code List"}, "rootItem": {"href": "/mdr/root/ct/sdtmct/codelists/C100152", "title": "Version-agnostic anchor resource for codelist C100152", "type": "Root Value Domain"}, "self": {"href": "/mdr/ct/packages/sdtmct-2021-12-17/codelists/C100152", "title": "CDISC Questionnaire MNSI Test Code Terminology", "type": "Code List"}}, "conceptId": "C100152", "definition": "Michigan Neuropathy Screening Instrument test code.", "extensible": "false", "name": "Michigan Neuropathy Screening Instrument Questionnaire Test Code", "preferredTerm": "CDISC Questionnaire MNSI Test Code Terminology", "submissionValue": "MNSI1TC", "synonyms": ["Michigan Neuropathy Screening Instrument Questionnaire Test Code"], "terms": [{"conceptId": "C100587", "definition": "Michigan Neuropathy Screening Instrument - History: Are your legs and/or feet numb?", "preferredTerm": "MNSI - Legs and/or Feet Numb", "submissionValue": "MNSI101", "synonyms": ["MNSI1-Are Your Legs and/or Feet Numb"]}, {"conceptId": "C100588", "definition": "Michigan Neuropathy Screening Instrument - History: Do you ever have any burning pain in your legs and/or feet?", "preferredTerm": "MNSI - Burning Pain Legs/Feet", "submissionValue": "MNSI102", "synonyms": ["MNSI1-Ever Have Burning Pain Legs/Feet"]}, {"conceptId": "C100589", "definition": "Michigan Neuropathy Screening Instrument - History: Are your feet too sensitive to touch?", "preferredTerm": "MNSI - Feet Too Sensitive to Touch", "submissionValue": "MNSI103", "synonyms": ["MNSI1-Are Feet Too Sensitive to Touch"]}, {"conceptId": "C100590", "definition": "Michigan Neuropathy Screening Instrument - History: Do you get muscle cramps in your legs and/or feet?", "preferredTerm": "MNSI - Muscle Cramps Legs/Feet", "submissionValue": "MNSI104", "synonyms": ["MNSI1-Get Muscle Cramps Legs/Feet"]}, {"conceptId": "C100591", "definition": "Michigan Neuropathy Screening Instrument - History: Do you ever have any prickling feelings in your legs or feet?", "preferredTerm": "MNSI - Prickling Feelings Legs/Feet", "submissionValue": "MNSI105", "synonyms": ["MNSI1-Ever Prickling Feelings Legs/Feet"]}, {"conceptId": "C100592", "definition": "Michigan Neuropathy Screening Instrument - History: Does it hurt when the bed covers touch your skin?", "preferredTerm": "MNSI - Hurt When Bed Covers Touch Skin", "submissionValue": "MNSI106", "synonyms": ["MNSI1-Hurt When Bed Covers Touch Skin"]}, {"conceptId": "C100593", "definition": "Michigan Neuropathy Screening Instrument - History: When you get into the tub or shower, are you able to tell the hot water from the cold water?", "preferredTerm": "MNSI - Able to Tell Hot from Cold Water", "submissionValue": "MNSI107", "synonyms": ["MNSI1-Able to Tell Hot from Cold Water"]}, {"conceptId": "C100594", "definition": "Michigan Neuropathy Screening Instrument - History: Have you ever had an open sore on your foot?", "preferredTerm": "MNSI - Open Sore on Foot", "submissionValue": "MNSI108", "synonyms": ["MNSI1-Ever Had Open Sore on Foot"]}, {"conceptId": "C100595", "definition": "Michigan Neuropathy Screening Instrument - History: Has your doctor ever told you that you have diabetic neuropathy?", "preferredTerm": "MNSI - Doctor Says Diabetic Neuropathy", "submissionValue": "MNSI109", "synonyms": ["MNSI1-Doctor Says Diabetic Neuropathy"]}, {"conceptId": "C100596", "definition": "Michigan Neuropathy Screening Instrument - History: Do you feel weak all over most of the time?", "preferredTerm": "MNSI - Feel Weak All Over Most Times", "submissionValue": "MNSI110", "synonyms": ["MNSI1-Feel Weak All Over Most Times"]}, {"conceptId": "C100597", "definition": "Michigan Neuropathy Screening Instrument - History: Are your symptoms worse at night?", "preferredTerm": "MNSI - Symptoms Worse at Night", "submissionValue": "MNSI111", "synonyms": ["MNSI1-Symptoms Worse at Night"]}, {"conceptId": "C100598", "definition": "Michigan Neuropathy Screening Instrument - History: Do your legs hurt when you walk?", "preferredTerm": "MNSI - Legs Hurt When Walking", "submissionValue": "MNSI112", "synonyms": ["MNSI1-Legs Hurt When Walking"]}, {"conceptId": "C100599", "definition": "Michigan Neuropathy Screening Instrument - History: Are you able to sense your feet when you walk?", "preferredTerm": "MNSI - Able to Sense Feet When Walking", "submissionValue": "MNSI113", "synonyms": ["MNSI1-Able to Sense Feet When Walking"]}, {"conceptId": "C100600", "definition": "Michigan Neuropathy Screening Instrument - History: Is the skin on your feet so dry that it cracks open?", "preferredTerm": "MNSI - Skin So Dry That Feet Crack Open", "submissionValue": "MNSI114", "synonyms": ["MNSI1-Skin So Dry That Feet Crack Open"]}, {"conceptId": "C100601", "definition": "Michigan Neuropathy Screening Instrument - History: Have you ever had an amputation?", "preferredTerm": "MNSI - Ever Had Amputation", "submissionValue": "MNSI115", "synonyms": ["MNSI1-Ever Had Amputation"]}, {"conceptId": "C100602", "definition": "Michigan Neuropathy Screening Instrument - History: Total.", "preferredTerm": "MNSI - History Total", "submissionValue": "MNSI116", "synonyms": ["MNSI1-Total"]}, {"conceptId": "C100603", "definition": "Michigan Neuropathy Screening Instrument - Physical Assessment: Appearance of right foot - normal.", "preferredTerm": "MNSI - Right Foot Appears Normal", "submissionValue": "MNSI117", "synonyms": ["MNSI1-Right Foot Appears Normal"]}, {"conceptId": "C100604", "definition": "Michigan Neuropathy Screening Instrument - Physical Assessment: Appearance of right foot - deformities.", "preferredTerm": "MNSI - Right Foot Deformities", "submissionValue": "MNSI118", "synonyms": ["MNSI1-Right Foot Deformities"]}, {"conceptId": "C101019", "definition": "Michigan Neuropathy Screening Instrument - Physical Assessment: Appearance of right foot - dry skin, callus.", "preferredTerm": "MNSI - Right Foot Dry Skin, Callus", "submissionValue": "MNSI119", "synonyms": ["MNSI1-Right Foot Dry Skin, Callus"]}, {"conceptId": "C100605", "definition": "Michigan Neuropathy Screening Instrument - Physical Assessment: Appearance of right foot - infection.", "preferredTerm": "MNSI - Right Foot Infection", "submissionValue": "MNSI120", "synonyms": ["MNSI1-Right Foot Infection"]}, {"conceptId": "C100606", "definition": "Michigan Neuropathy Screening Instrument - Physical Assessment: Appearance of right foot - fissure.", "preferredTerm": "MNSI - Right Foot Fissure", "submissionValue": "MNSI121", "synonyms": ["MNSI1-Right Foot Fissure"]}, {"conceptId": "C100607", "definition": "Michigan Neuropathy Screening Instrument - Physical Assessment: Appearance of right foot - other, specify.", "preferredTerm": "MNSI - Right Foot Other Abnormal Specify", "submissionValue": "MNSI122", "synonyms": ["MNSI1-Right Foot Other Abnormal Specify"]}, {"conceptId": "C100608", "definition": "Michigan Neuropathy Screening Instrument - Physical Assessment: Appearance of left foot - normal.", "preferredTerm": "MNSI - Left Foot Appears Normal", "submissionValue": "MNSI123", "synonyms": ["MNSI1-Left Foot Appears Normal"]}, {"conceptId": "C100609", "definition": "Michigan Neuropathy Screening Instrument - Physical Assessment: Appearance of left foot - deformities.", "preferredTerm": "MNSI - Left Foot Deformities", "submissionValue": "MNSI124", "synonyms": ["MNSI1-Left Foot Deformities"]}, {"conceptId": "C101020", "definition": "Michigan Neuropathy Screening Instrument - Physical Assessment: Appearance of left foot - dry skin, callus.", "preferredTerm": "MNSI - Left Foot Dry Skin, Callus", "submissionValue": "MNSI125", "synonyms": ["MNSI1-Left Foot Dry Skin, Callus"]}, {"conceptId": "C100610", "definition": "Michigan Neuropathy Screening Instrument - Physical Assessment: Appearance of left foot - infection.", "preferredTerm": "MNSI - Left Foot Infection", "submissionValue": "MNSI126", "synonyms": ["MNSI1-Left Foot Infection"]}, {"conceptId": "C100611", "definition": "Michigan Neuropathy Screening Instrument - Physical Assessment: Appearance of left foot - fissure.", "preferredTerm": "MNSI - Left Foot Fissure", "submissionValue": "MNSI127", "synonyms": ["MNSI1-Left Foot Fissure"]}, {"conceptId": "C100612", "definition": "Michigan Neuropathy Screening Instrument - Physical Assessment: Appearance of left foot - other, specify.", "preferredTerm": "MNSI - Left Foot Other Abnormal Specify", "submissionValue": "MNSI128", "synonyms": ["MNSI1-Left Foot Other Abnormal Specify"]}, {"conceptId": "C100613", "definition": "Michigan Neuropathy Screening Instrument - Physical Assessment: Right foot - ulceration.", "preferredTerm": "MNSI - Right Foot Ulceration", "submissionValue": "MNSI129", "synonyms": ["MNSI1-Right Foot Ulceration"]}, {"conceptId": "C100614", "definition": "Michigan Neuropathy Screening Instrument - Physical Assessment: Left foot - ulceration.", "preferredTerm": "MNSI - Left Foot Ulceration", "submissionValue": "MNSI130", "synonyms": ["MNSI1-Left Foot Ulceration"]}, {"conceptId": "C100615", "definition": "Michigan Neuropathy Screening Instrument - Physical Assessment: Right ankle reflexes.", "preferredTerm": "MNSI - Right Ankle Reflexes", "submissionValue": "MNSI131", "synonyms": ["MNSI1-Right Ankle Reflexes"]}, {"conceptId": "C100616", "definition": "Michigan Neuropathy Screening Instrument - Physical Assessment: Left ankle reflexes.", "preferredTerm": "MNSI - Left Ankle Reflexes", "submissionValue": "MNSI132", "synonyms": ["MNSI1-Left Ankle Reflexes"]}, {"conceptId": "C100617", "definition": "Michigan Neuropathy Screening Instrument - Physical Assessment: Right foot - vibration perception at great toe.", "preferredTerm": "MNSI - Right Foot Vibration Great Toe", "submissionValue": "MNSI133", "synonyms": ["MNSI1-Right Foot Vibration Great Toe"]}, {"conceptId": "C100618", "definition": "Michigan Neuropathy Screening Instrument - Physical Assessment: Left foot - vibration perception at great toe.", "preferredTerm": "MNSI - Left Foot Vibration Great Toe", "submissionValue": "MNSI134", "synonyms": ["MNSI1-Left Foot Vibration Great Toe"]}, {"conceptId": "C100619", "definition": "Michigan Neuropathy Screening Instrument - Physical Assessment: Right foot - monofilament.", "preferredTerm": "MNSI - Right Foot Monofilament", "submissionValue": "MNSI135", "synonyms": ["MNSI1-Right Foot Monofilament"]}, {"conceptId": "C100620", "definition": "Michigan Neuropathy Screening Instrument - Physical Assessment: Left foot - monofilament.", "preferredTerm": "MNSI - Left Foot Monofilament", "submissionValue": "MNSI136", "synonyms": ["MNSI1-Left Foot Monofilament"]}, {"conceptId": "C100621", "definition": "Michigan Neuropathy Screening Instrument - Physical Assessment: Total Score.", "preferredTerm": "MNSI - Physical Assessment Total Score", "submissionValue": "MNSI137", "synonyms": ["MNSI1-Total Score"]}]}