{"_links": {"parentPackage": {"href": "/mdr/ct/packages/sdtmct-2021-12-17", "title": "SDTM Controlled Terminology Package 48 Effective 2021-12-17", "type": "Terminology"}, "priorVersion": {"href": "/mdr/ct/packages/sdtmct-2021-09-24/codelists/C100134", "title": "CDISC Clinical Classification BPRS-A Test Code Terminology", "type": "Code List"}, "rootItem": {"href": "/mdr/root/ct/sdtmct/codelists/C100134", "title": "Version-agnostic anchor resource for codelist C100134", "type": "Root Value Domain"}, "self": {"href": "/mdr/ct/packages/sdtmct-2021-12-17/codelists/C100134", "title": "CDISC Clinical Classification BPRS-A Test Code Terminology", "type": "Code List"}}, "conceptId": "C100134", "definition": "The Brief Psychiatric Rating Scale-A test code.", "extensible": "false", "name": "Brief Psychiatric Rating Scale-A Clinical Classification Test Code", "preferredTerm": "CDISC Clinical Classification BPRS-A Test Code Terminology", "submissionValue": "BPRSA1TC", "synonyms": ["Brief Psychiatric Rating Scale-A Clinical Classification Test Code"], "terms": [{"conceptId": "C100372", "definition": "Brief Psychiatric Rating Scale-A - Somatic Concern.", "preferredTerm": "BPRS-A - Somatic Concern", "submissionValue": "BPRSA101", "synonyms": ["BPRSA1-Somatic Concern"]}, {"conceptId": "C100373", "definition": "Brief Psychiatric Rating Scale-A - Anxiety.", "preferredTerm": "BPRS-A - Anxiety", "submissionValue": "BPRSA102", "synonyms": ["BPRSA1-Anxiety"]}, {"conceptId": "C100374", "definition": "Brief Psychiatric Rating Scale-A - Emotional Withdrawal.", "preferredTerm": "BPRS-A - Emotional Withdrawal", "submissionValue": "BPRSA103", "synonyms": ["BPRSA1-Emotional Withdrawal"]}, {"conceptId": "C100375", "definition": "Brief Psychiatric Rating Scale-A - Conceptual Disorganization.", "preferredTerm": "BPRS-A - Conceptual Disorganization", "submissionValue": "BPRSA104", "synonyms": ["BPRSA1-Conceptual Disorganization"]}, {"conceptId": "C100376", "definition": "Brief Psychiatric Rating Scale-A - Guilt Feelings.", "preferredTerm": "BPRS-A - Guilt Feelings", "submissionValue": "BPRSA105", "synonyms": ["BPRSA1-Guilt Feelings"]}, {"conceptId": "C100377", "definition": "Brief Psychiatric Rating Scale-A - Tension.", "preferredTerm": "BPRS-A - Tension", "submissionValue": "BPRSA106", "synonyms": ["BPRSA1-Tension"]}, {"conceptId": "C100378", "definition": "Brief Psychiatric Rating Scale-A - Mannerisms and Posturing.", "preferredTerm": "BPRS-A - Mannerisms and Posturing", "submissionValue": "BPRSA107", "synonyms": ["BPRSA1-Mannerisms and Posturing"]}, {"conceptId": "C100379", "definition": "Brief Psychiatric Rating Scale-A - Grandiosity.", "preferredTerm": "BPRS-A - Grandiosity", "submissionValue": "BPRSA108", "synonyms": ["BPRSA1-Grandiosity"]}, {"conceptId": "C100380", "definition": "Brief Psychiatric Rating Scale-A - Depressive Mood.", "preferredTerm": "BPRS-A - Depressive Mood", "submissionValue": "BPRSA109", "synonyms": ["BPRSA1-Depressive Mood"]}, {"conceptId": "C100381", "definition": "Brief Psychiatric Rating Scale-A - Hostility.", "preferredTerm": "BPRS-A - Hostility", "submissionValue": "BPRSA110", "synonyms": ["BPRSA1-Hostility"]}, {"conceptId": "C100382", "definition": "Brief Psychiatric Rating Scale-A - Suspiciousness.", "preferredTerm": "BPRS-A - Suspiciousness", "submissionValue": "BPRSA111", "synonyms": ["BPRSA1-Suspiciousness"]}, {"conceptId": "C100383", "definition": "Brief Psychiatric Rating Scale-A - Hallucinatory Behavior.", "preferredTerm": "BPRS-A - Hallucinatory Behavior", "submissionValue": "BPRSA112", "synonyms": ["BPRSA1-Hallucinatory Behavior"]}, {"conceptId": "C100384", "definition": "Brief Psychiatric Rating Scale-A - Motor Retardation.", "preferredTerm": "BPRS-A - Motor Retardation", "submissionValue": "BPRSA113", "synonyms": ["BPRSA1-Motor Retardation"]}, {"conceptId": "C100385", "definition": "Brief Psychiatric Rating Scale-A - Uncooperativeness.", "preferredTerm": "BPRS-A - Uncooperativeness", "submissionValue": "BPRSA114", "synonyms": ["BPRSA1-Uncooperativeness"]}, {"conceptId": "C100386", "definition": "Brief Psychiatric Rating Scale-A - Unusual Thought Content.", "preferredTerm": "BPRS-A - Unusual Thought Content", "submissionValue": "BPRSA115", "synonyms": ["BPRSA1-Unusual Thought Content"]}, {"conceptId": "C100387", "definition": "Brief Psychiatric Rating Scale-A - Blunted Affect.", "preferredTerm": "BPRS-A - Blunted Affect", "submissionValue": "BPRSA116", "synonyms": ["BPRSA1-Blunted Affect"]}, {"conceptId": "C100388", "definition": "Brief Psychiatric Rating Scale-A - Excitement.", "preferredTerm": "BPRS-A - Excitement", "submissionValue": "BPRSA117", "synonyms": ["BPRSA1-Excitement"]}, {"conceptId": "C100389", "definition": "Brief Psychiatric Rating Scale-A - Disorientation.", "preferredTerm": "BPRS-A - Disorientation", "submissionValue": "BPRSA118", "synonyms": ["BPRSA1-Disorientation"]}]}