{"_links": {"parentPackage": {"href": "/mdr/ct/packages/sdtmct-2021-12-17", "title": "SDTM Controlled Terminology Package 48 Effective 2021-12-17", "type": "Terminology"}, "priorVersion": {"href": "/mdr/ct/packages/sdtmct-2021-09-24/codelists/C100169", "title": "CDISC Clinical Classification KPS Scale Test Name Terminology", "type": "Code List"}, "rootItem": {"href": "/mdr/root/ct/sdtmct/codelists/C100169", "title": "Version-agnostic anchor resource for codelist C100169", "type": "Root Value Domain"}, "self": {"href": "/mdr/ct/packages/sdtmct-2021-12-17/codelists/C100169", "title": "CDISC Clinical Classification KPS Scale Test Name Terminology", "type": "Code List"}}, "conceptId": "C100169", "definition": "Karnofsky Performance Status Scale test name.", "extensible": "false", "name": "Karnofsky Performance Status Scale Clinical Classification Test Name", "preferredTerm": "CDISC Clinical Classification KPS Scale Test Name Terminology", "submissionValue": "KPSS01TN", "synonyms": ["Karnofsky Performance Status Scale Clinical Classification Test Name"], "terms": [{"conceptId": "C100417", "definition": "Karnofsky Performance Status Scale - Karnofsky Performance Status.", "preferredTerm": "KPS Scale - Karnofsky Performance Status", "submissionValue": "KPSS01-Karnofsky Performance Status", "synonyms": ["KPSS01-Karnofsky Performance Status"]}]}