{"_links": {"parentPackage": {"href": "/mdr/ct/packages/sdtmct-2021-12-17", "title": "SDTM Controlled Terminology Package 48 Effective 2021-12-17", "type": "Terminology"}, "priorVersion": {"href": "/mdr/ct/packages/sdtmct-2021-09-24/codelists/C101805", "title": "CDISC Clinical Classification AIMS Test Code Terminology", "type": "Code List"}, "rootItem": {"href": "/mdr/root/ct/sdtmct/codelists/C101805", "title": "Version-agnostic anchor resource for codelist C101805", "type": "Root Value Domain"}, "self": {"href": "/mdr/ct/packages/sdtmct-2021-12-17/codelists/C101805", "title": "CDISC Clinical Classification AIMS Test Code Terminology", "type": "Code List"}}, "conceptId": "C101805", "definition": "Abnormal Involuntary Movement Scale test code.", "extensible": "false", "name": "Abnormal Involuntary Movement Scale Clinical Classification Test Code", "preferredTerm": "CDISC Clinical Classification AIMS Test Code Terminology", "submissionValue": "AIMS01TC", "synonyms": ["Abnormal Involuntary Movement Scale Clinical Classification Test Code"], "terms": [{"conceptId": "C102034", "definition": "Abnormal Involuntary Movement Scale - Facial and Oral Movements, Muscles of facial expression, e.g., movements of forehead, eyebrows, periorbital area, cheeks. Include frowning, blinking, grimacing of upper face.", "preferredTerm": "AIMS - Muscles of Facial Expression", "submissionValue": "AIMS0101", "synonyms": ["AIMS01-Muscles of Facial Expression"]}, {"conceptId": "C102035", "definition": "Abnormal Involuntary Movement Scale - Facial and Oral Movements, Lips and perioral area, e.g., puckering, pouting, smacking.", "preferredTerm": "AIMS - Lips and Perioral Area", "submissionValue": "AIMS0102", "synonyms": ["AIMS01-Lips and Perioral Area"]}, {"conceptId": "C102036", "definition": "Abnormal Involuntary Movement Scale - Facial and Oral Movements, Jaw, e.g., biting, clenching, chewing, mouth opening, lateral movement.", "preferredTerm": "AIMS - Jaw", "submissionValue": "AIMS0103", "synonyms": ["AIMS01-Jaw"]}, {"conceptId": "C102037", "definition": "Abnormal Involuntary Movement Scale - Facial and Oral Movements, Tongue. Rate only increase in movement both in and out of mouth, not inability to sustain movement.", "preferredTerm": "AIMS - Tongue", "submissionValue": "AIMS0104", "synonyms": ["AIMS01-Tongue"]}, {"conceptId": "C102038", "definition": "Abnormal Involuntary Movement Scale - Extremity Movements, Upper (arms, wrists, hands, fingers). Include movements that are choreic (rapid, objectively purposeless, irregular, spontaneous) or athetoid (slow, irregular, complex, serpentine). Do not include tremor (repetitive, regular, rhythmic movements).", "preferredTerm": "AIMS - Upper Extremities", "submissionValue": "AIMS0105", "synonyms": ["AIMS01-Upper Extremities"]}, {"conceptId": "C102039", "definition": "Abnormal Involuntary Movement Scale - Extremity Movements, Lower (legs, knees, ankles, toes), e.g., lateral knee movement, foot tapping, heel dropping, foot squirming, inversion and eversion of foot.", "preferredTerm": "AIMS - Lower Extremities", "submissionValue": "AIMS0106", "synonyms": ["AIMS01-Lower Extremities"]}, {"conceptId": "C102040", "definition": "Abnormal Involuntary Movement Scale - Trunk Movements, Neck, shoulders, hips, e.g., rocking, twisting, squirming, pelvic gyrations. Include diaphragmatic movements.", "preferredTerm": "AIMS - Neck, Shoulders, Hips", "submissionValue": "AIMS0107", "synonyms": ["AIMS01-Neck, Shoulders, Hips"]}, {"conceptId": "C102041", "definition": "Abnormal Involuntary Movement Scale - Global Judgments, Severity of abnormal movements, based on the highest single score on the above items.", "preferredTerm": "AIMS - Severity of Abnormal Movements", "submissionValue": "AIMS0108", "synonyms": ["AIMS01-Severity of Abnormal Movements"]}, {"conceptId": "C102042", "definition": "Abnormal Involuntary Movement Scale - Global Judgments, Incapacitation due to abnormal movements.", "preferredTerm": "AIMS - Incapacitation Due to Abnormal Movements", "submissionValue": "AIMS0109", "synonyms": ["AIMS01-Incapacitation due Abn Movements"]}, {"conceptId": "C102043", "definition": "Abnormal Involuntary Movement Scale - Global Judgments, Patient's awareness of abnormal movements.", "preferredTerm": "AIMS - Patient's Awareness of Abnormal Movements", "submissionValue": "AIMS0110", "synonyms": ["AIMS01-Patient Awareness Abn Movements"]}, {"conceptId": "C102044", "definition": "Abnormal Involuntary Movement Scale - Dental Status, Current problems with teeth and/or dentures.", "preferredTerm": "AIMS - Current Teeth/Dentures Problems", "submissionValue": "AIMS0111", "synonyms": ["AIMS01-Current Problems Teeth/Dentures"]}, {"conceptId": "C102045", "definition": "Abnormal Involuntary Movement Scale - Dental Status, Does patient usually wear dentures?", "preferredTerm": "AIMS - Patient Usually Wears Dentures", "submissionValue": "AIMS0112", "synonyms": ["AIMS01-Patient Usually Wear Dentures"]}]}