{"_links": {"parentPackage": {"href": "/mdr/ct/packages/sdtmct-2021-12-17", "title": "SDTM Controlled Terminology Package 48 Effective 2021-12-17", "type": "Terminology"}, "priorVersion": {"href": "/mdr/ct/packages/sdtmct-2021-09-24/codelists/C105137", "title": "CDISC Questionnaire GCGI v1 Test Name Terminology", "type": "Code List"}, "rootItem": {"href": "/mdr/root/ct/sdtmct/codelists/C105137", "title": "Version-agnostic anchor resource for codelist C105137", "type": "Root Value Domain"}, "self": {"href": "/mdr/ct/packages/sdtmct-2021-12-17/codelists/C105137", "title": "CDISC Questionnaire GCGI v1 Test Name Terminology", "type": "Code List"}}, "conceptId": "C105137", "definition": "General Clinical Global Impressions test name.", "extensible": "false", "name": "General Clinical Global Impressions Questionnaire Test Name", "preferredTerm": "CDISC Questionnaire GCGI v1 Test Name Terminology", "submissionValue": "GCGI01TN", "synonyms": ["General Clinical Global Impressions Questionnaire Test Name"], "terms": [{"conceptId": "C105280", "definition": "General Clinical Global Impressions - Global disease status of pain.", "preferredTerm": "GCGI - Global Disease Status of Pain", "submissionValue": "GCGI01-Global Disease Status of Pain", "synonyms": ["GCGI01-Global Disease Status of Pain"]}, {"conceptId": "C105279", "definition": "General Clinical Global Impressions - Global improvement of pain.", "preferredTerm": "GCGI - Global Improvement of Pain", "submissionValue": "GCGI01-Global Improvement of Pain", "synonyms": ["GCGI01-Global Improvement of Pain"]}, {"conceptId": "C105282", "definition": "General Clinical Global Impressions - Global rating of pain medication.", "preferredTerm": "GCGI - Global Rating of Pain Medication", "submissionValue": "GCGI01-Global Rating of Pain Medication", "synonyms": ["GCGI01-Global Rating of Pain Medication"]}, {"conceptId": "C105278", "definition": "General Clinical Global Impressions - Global severity of pain.", "preferredTerm": "GCGI - Global Severity of Pain", "submissionValue": "GCGI01-Global Severity of Pain", "synonyms": ["GCGI01-Global Severity of Pain"]}, {"conceptId": "C105281", "definition": "General Clinical Global Impressions - Pain treatment preference.", "preferredTerm": "GCGI - Pain Treatment Preference", "submissionValue": "GCGI01-Pain Treatment Preference", "synonyms": ["GCGI01-Pain Treatment Preference"]}]}