{"_links": {"parentPackage": {"href": "/mdr/ct/packages/sdtmct-2021-12-17", "title": "SDTM Controlled Terminology Package 48 Effective 2021-12-17", "type": "Terminology"}, "priorVersion": {"href": "/mdr/ct/packages/sdtmct-2021-09-24/codelists/C106665", "title": "CDISC Questionnaire GDS-SF Test Code Terminology", "type": "Code List"}, "rootItem": {"href": "/mdr/root/ct/sdtmct/codelists/C106665", "title": "Version-agnostic anchor resource for codelist C106665", "type": "Root Value Domain"}, "self": {"href": "/mdr/ct/packages/sdtmct-2021-12-17/codelists/C106665", "title": "CDISC Questionnaire GDS-SF Test Code Terminology", "type": "Code List"}}, "conceptId": "C106665", "definition": "Geriatric Depression Scale Short Form test code.", "extensible": "false", "name": "Geriatric Depression Scale Short Form Questionnaire Test Code", "preferredTerm": "CDISC Questionnaire GDS-SF Test Code Terminology", "submissionValue": "GDS02TC", "synonyms": ["Geriatric Depression Scale Short Form Questionnaire Test Code"], "terms": [{"conceptId": "C106794", "definition": "Geriatric Depression Scale Short Form - Are you basically satisfied with your life?", "preferredTerm": "GDS-SF - Basically Satisfied With Life", "submissionValue": "GDS0201", "synonyms": ["GDS02-Satisfied With Life"]}, {"conceptId": "C106795", "definition": "Geriatric Depression Scale Short Form - Have you dropped many of your activities and interests?", "preferredTerm": "GDS-SF - Dropped Activities and Interests", "submissionValue": "GDS0202", "synonyms": ["GDS02-Dropped Activities and Interests"]}, {"conceptId": "C106796", "definition": "Geriatric Depression Scale Short Form - Do you feel that your life is empty?", "preferredTerm": "GDS-SF - Feel Life Is Empty", "submissionValue": "GDS0203", "synonyms": ["GDS02-Life Is Empty"]}, {"conceptId": "C106797", "definition": "Geriatric Depression Scale Short Form - Do you often get bored?", "preferredTerm": "GDS-SF - Often Get Bored", "submissionValue": "GDS0204", "synonyms": ["GDS02-Bored Often"]}, {"conceptId": "C106798", "definition": "Geriatric Depression Scale Short Form - Are you in good spirits most of the time?", "preferredTerm": "GDS-SF - Good Spirits Most of Time", "submissionValue": "GDS0205", "synonyms": ["GDS02-Good Spirits Most of Time"]}, {"conceptId": "C106799", "definition": "Geriatric Depression Scale Short Form - Are you afraid that something bad is going to happen to you?", "preferredTerm": "GDS-SF - Afraid of Something Bad Happening", "submissionValue": "GDS0206", "synonyms": ["GDS02-Afraid of Something Bad Happening"]}, {"conceptId": "C106800", "definition": "Geriatric Depression Scale Short Form - Do you feel happy most of the time?", "preferredTerm": "GDS-SF - Feel Happy Most of Time", "submissionValue": "GDS0207", "synonyms": ["GDS02-Feel Happy Most of Time"]}, {"conceptId": "C106801", "definition": "Geriatric Depression Scale Short Form - Do you often feel helpless?", "preferredTerm": "GDS-SF - Often Feel Helpless", "submissionValue": "GDS0208", "synonyms": ["GDS02-Often Feel Helpless"]}, {"conceptId": "C106802", "definition": "Geriatric Depression Scale Short Form - Do you prefer to stay at home rather than going out and doing new things?", "preferredTerm": "GDS-SF - Prefer to Stay Home", "submissionValue": "GDS0209", "synonyms": ["GDS02-Prefer to Stay Home"]}, {"conceptId": "C106803", "definition": "Geriatric Depression Scale Short Form - Do you feel you have more problems with memory than most?", "preferredTerm": "GDS-SF - More Memory Problems Than Most", "submissionValue": "GDS0210", "synonyms": ["GDS02-Memory Problems"]}, {"conceptId": "C106804", "definition": "Geriatric Depression Scale Short Form - Do you think it is wonderful to be alive now?", "preferredTerm": "GDS-SF - Think Wonderful to Be Alive", "submissionValue": "GDS0211", "synonyms": ["GDS02-Wonderful to Be Alive"]}, {"conceptId": "C106805", "definition": "Geriatric Depression Scale Short Form - Do you feel pretty worthless the way you are now?", "preferredTerm": "GDS-SF - Feel Worthless", "submissionValue": "GDS0212", "synonyms": ["GDS02-Feel Worthless"]}, {"conceptId": "C106806", "definition": "Geriatric Depression Scale Short Form - Do you feel full of energy?", "preferredTerm": "GDS-SF - Feel Full of Energy", "submissionValue": "GDS0213", "synonyms": ["GDS02-Feel Full of Energy"]}, {"conceptId": "C106807", "definition": "Geriatric Depression Scale Short Form - Do you feel that your situation is hopeless?", "preferredTerm": "GDS-SF - Feel Situation is Hopeless", "submissionValue": "GDS0214", "synonyms": ["GDS02-Feel Hopeless"]}, {"conceptId": "C106808", "definition": "Geriatric Depression Scale Short Form - Do you think that most people are better off than you are?", "preferredTerm": "GDS-SF - Think Most People Better Off Than You", "submissionValue": "GDS0215", "synonyms": ["GDS02-Most People Better Off Than You"]}, {"conceptId": "C163948", "definition": "Geriatric Depression Scale Short Form - Total score.", "preferredTerm": "GDS-SF - Total Score", "submissionValue": "GDS0216", "synonyms": ["GDS02-Total Score"]}]}