{"_links": {"parentPackage": {"href": "/mdr/ct/packages/sdtmct-2021-12-17", "title": "SDTM Controlled Terminology Package 48 Effective 2021-12-17", "type": "Terminology"}, "priorVersion": {"href": "/mdr/ct/packages/sdtmct-2021-09-24/codelists/C106656", "title": "CDISC Clinical Classification TDI Test Name Terminology", "type": "Code List"}, "rootItem": {"href": "/mdr/root/ct/sdtmct/codelists/C106656", "title": "Version-agnostic anchor resource for codelist C106656", "type": "Root Value Domain"}, "self": {"href": "/mdr/ct/packages/sdtmct-2021-12-17/codelists/C106656", "title": "CDISC Clinical Classification TDI Test Name Terminology", "type": "Code List"}}, "conceptId": "C106656", "definition": "Transition Dyspnea Index test name.", "extensible": "false", "name": "Transition Dyspnea Index Clinical Classification Test Name", "preferredTerm": "CDISC Clinical Classification TDI Test Name Terminology", "submissionValue": "TDI01TN", "synonyms": ["Transition Dyspnea Index Clinical Classification Test Name"], "terms": [{"conceptId": "C106704", "definition": "Transition Dyspnea Index - Change in functional impairment.", "preferredTerm": "TDI - Change in Functional Impairment", "submissionValue": "TDI01-Change in Functional Impairment", "synonyms": ["TDI01-Change in Functional Impairment"]}, {"conceptId": "C106706", "definition": "Transition Dyspnea Index - Change in magnitude of effort.", "preferredTerm": "TDI - Change in Magnitude of Effort", "submissionValue": "TDI01-Change in Magnitude of Effort", "synonyms": ["TDI01-Change in Magnitude of Effort"]}, {"conceptId": "C106705", "definition": "Transition Dyspnea Index - Change in magnitude of task.", "preferredTerm": "TDI - Change in Magnitude of Task", "submissionValue": "TDI01-Change in Magnitude of Task", "synonyms": ["TDI01-Change in Magnitude of Task"]}, {"conceptId": "C161763", "definition": "Transition Dyspnea Index - Transition focal score.", "preferredTerm": "TDI - Transition Focal Score", "submissionValue": "TDI01-Transition Focal Score", "synonyms": ["TDI01-Transition Focal Score"]}]}