{"_links": {"parentPackage": {"href": "/mdr/ct/packages/sdtmct-2021-12-17", "title": "SDTM Controlled Terminology Package 48 Effective 2021-12-17", "type": "Terminology"}, "priorVersion": {"href": "/mdr/ct/packages/sdtmct-2021-09-24/codelists/C111348", "title": "CDISC Questionnaire MRS Test Code Terminology", "type": "Code List"}, "rootItem": {"href": "/mdr/root/ct/sdtmct/codelists/C111348", "title": "Version-agnostic anchor resource for codelist C111348", "type": "Root Value Domain"}, "self": {"href": "/mdr/ct/packages/sdtmct-2021-12-17/codelists/C111348", "title": "CDISC Questionnaire MRS Test Code Terminology", "type": "Code List"}}, "conceptId": "C111348", "definition": "Modified Rankin Scale test code.", "extensible": "false", "name": "Modified Rankin Scale Questionnaire Test Code", "preferredTerm": "CDISC Questionnaire MRS Test Code Terminology", "submissionValue": "MRS01TC", "synonyms": ["Modified Rankin Scale Questionnaire Test Code"], "terms": [{"conceptId": "C111520", "definition": "Modified Rankin Scale - Modified Rankin Scale Score.", "preferredTerm": "MRS - Modified Rankin Scale Score", "submissionValue": "MRS0101", "synonyms": ["MRS01-Modified Rankin Scale Score"]}]}