{"_links": {"parentPackage": {"href": "/mdr/ct/packages/sdtmct-2021-12-17", "title": "SDTM Controlled Terminology Package 48 Effective 2021-12-17", "type": "Terminology"}, "priorVersion": {"href": "/mdr/ct/packages/sdtmct-2021-09-24/codelists/C112455", "title": "CDISC Questionnaire VFQ25-Self Administered Format Test Code Terminology", "type": "Code List"}, "rootItem": {"href": "/mdr/root/ct/sdtmct/codelists/C112455", "title": "Version-agnostic anchor resource for codelist C112455", "type": "Root Value Domain"}, "self": {"href": "/mdr/ct/packages/sdtmct-2021-12-17/codelists/C112455", "title": "CDISC Questionnaire VFQ25-Self Administered Format Test Code Terminology", "type": "Code List"}}, "conceptId": "C112455", "definition": "National Eye Institute Visual Functioning Questionnaire - 25 Version 2000 Self-Administered Format test code.", "extensible": "false", "name": "National Eye Institute Visual Functioning Questionnaire - 25 Version 2000 Self-Administered Format Questionnaire Test Code", "preferredTerm": "CDISC Questionnaire VFQ25-Self Administered Format Test Code Terminology", "submissionValue": "VFQ2TC", "synonyms": ["National Eye Institute Visual Functioning Questionnaire - 25 Version 2000 Self-Administered Format Questionnaire Test Code"], "terms": [{"conceptId": "C112771", "definition": "National Eye Institute Visual Functioning Questionnaire - 25 Version 2000 Self-Administered Format - General Health and Vision: In general, would you say your overall health is:", "preferredTerm": "VFQ25-Self Administered Format - Overall Health", "submissionValue": "VFQ201", "synonyms": ["VFQ2-Your Overall Health Is"]}, {"conceptId": "C112772", "definition": "National Eye Institute Visual Functioning Questionnaire - 25 Version 2000 Self-Administered Format - General Health and Vision: At the present time, would you say your eyesight using both eyes (with glasses or contact lenses, if you wear them) is excellent, good, fair, poor, or very poor or are you completely blind?", "preferredTerm": "VFQ25-Self Administered Format - Eyesight Using Both Eyes", "submissionValue": "VFQ202", "synonyms": ["VFQ2-Eyesight Using Both Eyes Is"]}, {"conceptId": "C112773", "definition": "National Eye Institute Visual Functioning Questionnaire - 25 Version 2000 Self-Administered Format - General Health and Vision: How much of the time do you worry about your eyesight?", "preferredTerm": "VFQ25-Self Administered Format - Time Spent Worry About Eyesight", "submissionValue": "VFQ203", "synonyms": ["VFQ2-How Often You Worry About Eyesight"]}, {"conceptId": "C112774", "definition": "National Eye Institute Visual Functioning Questionnaire - 25 Version 2000 Self-Administered Format - General Health and Vision: How much pain or discomfort have you had in and around your eyes (for example, burning, itching, or aching)? Would you say it is:", "preferredTerm": "VFQ25-Self Administered Format - Pain or Discomfort You Had in and Around Eyes", "submissionValue": "VFQ204", "synonyms": ["VFQ2-How Much Pain in and Around Eyes"]}, {"conceptId": "C112775", "definition": "National Eye Institute Visual Functioning Questionnaire - 25 Version 2000 Self-Administered Format - Difficulty With Activities: How much difficulty do you have reading ordinary print in newspapers? Would you say you have:", "preferredTerm": "VFQ25-Self Administered Format - Difficulty Reading Ordinary Print in Newspapers", "submissionValue": "VFQ205", "synonyms": ["VFQ2-Difficulty Reading Newspapers"]}, {"conceptId": "C112776", "definition": "National Eye Institute Visual Functioning Questionnaire - 25 Version 2000 Self-Administered Format - Difficulty With Activities: How much difficulty do you have doing work or hobbies that require you to see well up close, such as cooking, sewing, fixing things around the house, or using hand tools? Would you say:", "preferredTerm": "VFQ25-Self Administered Format - Difficulty Doing Work or Hobbies", "submissionValue": "VFQ206", "synonyms": ["VFQ2-Difficulty Doing Work/Hobbies"]}, {"conceptId": "C112777", "definition": "National Eye Institute Visual Functioning Questionnaire - 25 Version 2000 Self-Administered Format - Difficulty With Activities: Because of your eyesight, how much difficulty do you have finding something on a crowded shelf?", "preferredTerm": "VFQ25-Self Administered Format - Difficulty Finding Something On a Shelf", "submissionValue": "VFQ207", "synonyms": ["VFQ2-Difficulty Finding on Crowded Shelf"]}, {"conceptId": "C112778", "definition": "National Eye Institute Visual Functioning Questionnaire - 25 Version 2000 Self-Administered Format - Difficulty With Activities: How much difficulty do you have reading street signs or the names of stores?", "preferredTerm": "VFQ25-Self Administered Format - Difficulty Reading Street Signs", "submissionValue": "VFQ208", "synonyms": ["VFQ2-Difficulty Reading Street Signs"]}, {"conceptId": "C112779", "definition": "National Eye Institute Visual Functioning Questionnaire - 25 Version 2000 Self-Administered Format - Difficulty With Activities: Because of your eyesight, how much difficulty do you have going down steps, stairs, or curbs in dim light or at night?", "preferredTerm": "VFQ25-Self Administered Format - Difficulty Going Down Steps at Night", "submissionValue": "VFQ209", "synonyms": ["VFQ2-Difficulty Going Down Step at Night"]}, {"conceptId": "C112780", "definition": "National Eye Institute Visual Functioning Questionnaire - 25 Version 2000 Self-Administered Format - Difficulty With Activities: Because of your eyesight, how much difficulty do you have noticing objects off to the side while you are walking along?", "preferredTerm": "VFQ25-Self Administered Format - Difficulty Noticing Objects Off to the Side While Walking", "submissionValue": "VFQ210", "synonyms": ["VFQ2-Difficulty Noticing Objects to Side"]}, {"conceptId": "C112781", "definition": "National Eye Institute Visual Functioning Questionnaire - 25 Version 2000 Self-Administered Format - Difficulty With Activities: Because of your eyesight, how much difficulty do you have seeing how people react to things you say?", "preferredTerm": "VFQ25-Self Administered Format - Difficulty Seeing How People React", "submissionValue": "VFQ211", "synonyms": ["VFQ2-Difficulty Seeing How People React"]}, {"conceptId": "C112782", "definition": "National Eye Institute Visual Functioning Questionnaire - 25 Version 2000 Self-Administered Format - Difficulty With Activities: Because of your eyesight, how much difficulty do you have picking out and matching your own clothes?", "preferredTerm": "VFQ25-Self Administered Format - Difficulty Picking Out and Matching Own Clothes", "submissionValue": "VFQ212", "synonyms": ["VFQ2-Difficulty Picking Out Own Clothes"]}, {"conceptId": "C112783", "definition": "National Eye Institute Visual Functioning Questionnaire - 25 Version 2000 Self-Administered Format - Difficulty With Activities: Because of your eyesight, how much difficulty do you have visiting with people in their homes, at parties, or in restaurants?", "preferredTerm": "VFQ25-Self Administered Format - Difficulty Visiting People", "submissionValue": "VFQ213", "synonyms": ["VFQ2-Difficulty Visiting With People"]}, {"conceptId": "C112784", "definition": "National Eye Institute Visual Functioning Questionnaire - 25 Version 2000 Self-Administered Format - Difficulty With Activities: Because of your eyesight, how much difficulty do you have going out to see movies, plays, or sports events?", "preferredTerm": "VFQ25-Self Administered Format - Difficulty Going Out to See Movies", "submissionValue": "VFQ214", "synonyms": ["VFQ2-Difficulty Going Out to See Movies"]}, {"conceptId": "C112785", "definition": "National Eye Institute Visual Functioning Questionnaire - 25 Version 2000 Self-Administered Format - Difficulty With Activities: Are you currently driving, at least once in a while?", "preferredTerm": "VFQ25-Self Administered Format - Are You Currently Driving", "submissionValue": "VFQ215", "synonyms": ["VFQ2-Are You Currently Driving"]}, {"conceptId": "C112786", "definition": "National Eye Institute Visual Functioning Questionnaire - 25 Version 2000 Self-Administered Format - Difficulty With Activities: If no: Have you never driven a car or have you given up driving?", "preferredTerm": "VFQ25-Self Administered Format - Never Driven or Given Up Driving", "submissionValue": "VFQ215A", "synonyms": ["VFQ2-Never Driven or Given Up Driving"]}, {"conceptId": "C112787", "definition": "National Eye Institute Visual Functioning Questionnaire - 25 Version 2000 Self-Administered Format - Difficulty With Activities: If you gave up driving: Was that mainly because of your eyesight, mainly for some other reason, or because of both your eyesight and other reasons?", "preferredTerm": "VFQ25-Self Administered Format - Main Reason You Gave Up Driving", "submissionValue": "VFQ215B", "synonyms": ["VFQ2-Main Reason You Gave Up Driving"]}, {"conceptId": "C112788", "definition": "National Eye Institute Visual Functioning Questionnaire - 25 Version 2000 Self-Administered Format - Difficulty With Activities: If currently driving: How much difficulty do you have driving during the daytime in familiar places? Would you say you have:", "preferredTerm": "VFQ25-Self Administered Format - Difficulty Driving During Daytime", "submissionValue": "VFQ215C", "synonyms": ["VFQ2-Difficulty Driving During Daytime"]}, {"conceptId": "C112789", "definition": "National Eye Institute Visual Functioning Questionnaire - 25 Version 2000 Self-Administered Format - Difficulty With Activities: How much difficulty do you have driving at night? Would you say you have:", "preferredTerm": "VFQ25-Self Administered Format - Difficulty Driving at Night", "submissionValue": "VFQ216", "synonyms": ["VFQ2-Difficulty Driving at Night"]}, {"conceptId": "C112790", "definition": "National Eye Institute Visual Functioning Questionnaire - 25 Version 2000 Self-Administered Format - Difficulty With Activities: How much difficulty do you have driving in difficult conditions, such as in bad weather, during rush hour, on the freeway, or in city traffic? Would you say you have:", "preferredTerm": "VFQ25-Self Administered Format - Driving in Difficult Condition", "submissionValue": "VFQ216A", "synonyms": ["VFQ2-Driving in Difficult Conditions"]}, {"conceptId": "C112791", "definition": "National Eye Institute Visual Functioning Questionnaire - 25 Version 2000 Self-Administered Format - Responses to Vision Problems: Do you accomplish less than you would like because of your vision?", "preferredTerm": "VFQ25-Self Administered Format - Accomplish Less Because of Vision", "submissionValue": "VFQ217", "synonyms": ["VFQ2-Accomplish Less Than You Would Like"]}, {"conceptId": "C112792", "definition": "National Eye Institute Visual Functioning Questionnaire - 25 Version 2000 Self-Administered Format - Responses to Vision Problems: Are you limited in how long you can work or do other activities because of your vision?", "preferredTerm": "VFQ25-Self Administered Format - Limited in How Long You Can Work Because of Vision", "submissionValue": "VFQ218", "synonyms": ["VFQ2-Limited in How Long You Can Work"]}, {"conceptId": "C112793", "definition": "National Eye Institute Visual Functioning Questionnaire - 25 Version 2000 Self-Administered Format - Responses to Vision Problems: How much does pain or discomfort in or around your eyes, for example, burning, itching, or aching, keep you from doing what you'd like to be doing? Would you say:", "preferredTerm": "VFQ25-Self Administered Format - Pain in Eyes Keep You From Doing What You Like", "submissionValue": "VFQ219", "synonyms": ["VFQ2-Eye Pain Keep From Doing What Like"]}, {"conceptId": "C112794", "definition": "National Eye Institute Visual Functioning Questionnaire - 25 Version 2000 Self-Administered Format - Responses to Vision Problems: I stay home most of the time because of my eyesight.", "preferredTerm": "VFQ25-Self Administered Format - Stay Home Because of Eyesight", "submissionValue": "VFQ220", "synonyms": ["VFQ2-I Stay Home Most of the Time"]}, {"conceptId": "C112795", "definition": "National Eye Institute Visual Functioning Questionnaire - 25 Version 2000 Self-Administered Format - Responses to Vision Problems: I feel frustrated a lot of the time because of my eyesight.", "preferredTerm": "VFQ25-Self Administered Format - Feel Frustrated Because of Eyesight", "submissionValue": "VFQ221", "synonyms": ["VFQ2-I Feel Frustrated a Lot of the Time"]}, {"conceptId": "C112796", "definition": "National Eye Institute Visual Functioning Questionnaire - 25 Version 2000 Self-Administered Format - Responses to Vision Problems: I have much less control over what I do, because of my eyesight.", "preferredTerm": "VFQ25-Self Administered Format - Have Less Control Because of Eyesight", "submissionValue": "VFQ222", "synonyms": ["VFQ2-Much Less Control Over What I Do"]}, {"conceptId": "C112797", "definition": "National Eye Institute Visual Functioning Questionnaire - 25 Version 2000 Self-Administered Format - Responses to Vision Problems: Because of my eyesight, I have to rely too much on what other people tell me.", "preferredTerm": "VFQ25-Self Administered Format - Have to Rely On Other People Because of Eyesight", "submissionValue": "VFQ223", "synonyms": ["VFQ2-Rely Too Much on What Others Tell"]}, {"conceptId": "C112798", "definition": "National Eye Institute Visual Functioning Questionnaire - 25 Version 2000 Self-Administered Format - Responses to Vision Problems: I need a lot of help from others because of my eyesight.", "preferredTerm": "VFQ25-Self Administered Format - Need Help From Others Because of Eyesight", "submissionValue": "VFQ224", "synonyms": ["VFQ2-I Need a Lot of Help From Others"]}, {"conceptId": "C112799", "definition": "National Eye Institute Visual Functioning Questionnaire - 25 Version 2000 Self-Administered Format - Responses to Vision Problems: I worry about doing things that will embarrass myself or others, because of my eyesight.", "preferredTerm": "VFQ25-Self Administered Format - Worry About Embarrass Myself or Others Because of Eyesight", "submissionValue": "VFQ225", "synonyms": ["VFQ2-Worry I'll Do Embarrassing Things"]}, {"conceptId": "C112800", "definition": "National Eye Institute Visual Functioning Questionnaire - 25 Version 2000 Self-Administered Format - General Health: How would you rate your overall health, on a scale where zero is as bad as death and 10 is best possible health?", "preferredTerm": "VFQ25-Self Administered Format - Rate Your Overall Health", "submissionValue": "VFQ2A01", "synonyms": ["VFQ2-Rate Your Overall Health"]}, {"conceptId": "C112801", "definition": "National Eye Institute Visual Functioning Questionnaire - 25 Version 2000 Self-Administered Format - General Vision: How would you rate your eyesight now (with glasses or contact lens on, if you wear them), on a scale of from 0 to 10, where zero means the worst possible eyesight, as bad or worse than being blind, and 10 means the best possible eyesight?", "preferredTerm": "VFQ25-Self Administered Format - Rate Your Eyesight Now", "submissionValue": "VFQ2A02", "synonyms": ["VFQ2-Rate Your Eyesight Now"]}, {"conceptId": "C112802", "definition": "National Eye Institute Visual Functioning Questionnaire - 25 Version 2000 Self-Administered Format - Near Vision: Wearing glasses, how much difficulty do you have reading the small print in a telephone book, on a medicine bottle, or on legal forms? Would you say:", "preferredTerm": "VFQ25-Self Administered Format - Difficulty Reading Small Print", "submissionValue": "VFQ2A03", "synonyms": ["VFQ2-Difficulty Reading Small Print"]}, {"conceptId": "C112803", "definition": "National Eye Institute Visual Functioning Questionnaire - 25 Version 2000 Self-Administered Format - Near Vision: Because of your eyesight, how much difficulty do you have figuring out whether bills you receive are accurate?", "preferredTerm": "VFQ25-Self Administered Format - Difficulty Figure Out Bill Accuracy", "submissionValue": "VFQ2A04", "synonyms": ["VFQ2-Difficulty Figure Out Bill Accuracy"]}, {"conceptId": "C112804", "definition": "National Eye Institute Visual Functioning Questionnaire - 25 Version 2000 Self-Administered Format - Near Vision: Because of your eyesight, how much difficulty do you have doing things like shaving, styling your hair, or putting on makeup?", "preferredTerm": "VFQ25-Self Administered Format - Difficulty Shaving or Styling Hair or Putting On Makeup", "submissionValue": "VFQ2A05", "synonyms": ["VFQ2-Difficulty Shaving or Styling Hair"]}, {"conceptId": "C112805", "definition": "National Eye Institute Visual Functioning Questionnaire - 25 Version 2000 Self-Administered Format - Distance Vision: Because of your eyesight, how much difficulty do you have recognizing people you know from across a room?", "preferredTerm": "VFQ25-Self Administered Format - Difficulty Recognizing People You Know", "submissionValue": "VFQ2A06", "synonyms": ["VFQ2-Difficulty Recognizing People"]}, {"conceptId": "C112806", "definition": "National Eye Institute Visual Functioning Questionnaire - 25 Version 2000 Self-Administered Format - Distance Vision: Because of your eyesight, how much difficulty do you have taking part in active sports or other outdoor activities that you enjoy (like golf, bowling, jogging, or walking)?", "preferredTerm": "VFQ25-Self Administered Format - Difficulty Taking Part in Sports or Outdoor Activities", "submissionValue": "VFQ2A07", "synonyms": ["VFQ2-Difficulty Taking Part in Sports"]}, {"conceptId": "C112807", "definition": "National Eye Institute Visual Functioning Questionnaire - 25 Version 2000 Self-Administered Format - Distance Vision: Because of your eyesight, how much difficulty do you have seeing and enjoying programs on TV?", "preferredTerm": "VFQ25-Self Administered Format - Difficulty Seeing and Enjoying Programs on TV", "submissionValue": "VFQ2A08", "synonyms": ["VFQ2-Difficulty Seeing Programs on TV"]}, {"conceptId": "C112808", "definition": "National Eye Institute Visual Functioning Questionnaire - 25 Version 2000 Self-Administered Format - Social Function: Because of your eyesight, how much difficulty do you have entertaining friends and family in your home?", "preferredTerm": "VFQ25-Self Administered Format - Difficulty Entertaining Friends and Family in Home", "submissionValue": "VFQ2A09", "synonyms": ["VFQ2-Difficulty Entertaining Friends"]}, {"conceptId": "C112809", "definition": "National Eye Institute Visual Functioning Questionnaire - 25 Version 2000 Self-Administered Format - Role Limitations: Do you have more help from others because of your vision?", "preferredTerm": "VFQ25-Self Administered Format - Do You Have More Help From Others", "submissionValue": "VFQ2A11A", "synonyms": ["VFQ2-Do You Have More Help From Others"]}, {"conceptId": "C112810", "definition": "National Eye Institute Visual Functioning Questionnaire - 25 Version 2000 Self-Administered Format - Role Limitations: Are you limited in the kinds of things you can do because of your vision?", "preferredTerm": "VFQ25-Self Administered Format - Limited in Kinds of Things Can Do", "submissionValue": "VFQ2A11B", "synonyms": ["VFQ2-Limited in Kinds of Things Can Do"]}, {"conceptId": "C112811", "definition": "National Eye Institute Visual Functioning Questionnaire - 25 Version 2000 Self-Administered Format - Well-Being/Distress: I am often irritable because of my eyesight.", "preferredTerm": "VFQ25-Self Administered Format - Often Irritable Because of Eyesight", "submissionValue": "VFQ2A12", "synonyms": ["VFQ2-Often Irritable Because Eyesight"]}, {"conceptId": "C112812", "definition": "National Eye Institute Visual Functioning Questionnaire - 25 Version 2000 Self-Administered Format - Dependency: I don't go out of my home alone, because of my eyesight.", "preferredTerm": "VFQ25-Self Administered Format - Don't Go Out of Home Alone Because of Eyesight", "submissionValue": "VFQ2A13", "synonyms": ["VFQ2-I Don't Go Out of My Home Alone"]}]}