{"_links": {"parentPackage": {"href": "/mdr/ct/packages/sdtmct-2021-12-17", "title": "SDTM Controlled Terminology Package 48 Effective 2021-12-17", "type": "Terminology"}, "priorVersion": {"href": "/mdr/ct/packages/sdtmct-2021-09-24/codelists/C112438", "title": "CDISC Clinical Classification EDSS Test Name Terminology", "type": "Code List"}, "rootItem": {"href": "/mdr/root/ct/sdtmct/codelists/C112438", "title": "Version-agnostic anchor resource for codelist C112438", "type": "Root Value Domain"}, "self": {"href": "/mdr/ct/packages/sdtmct-2021-12-17/codelists/C112438", "title": "CDISC Clinical Classification EDSS Test Name Terminology", "type": "Code List"}}, "conceptId": "C112438", "definition": "Kurtzke Expanded Disability Status Scale test name.", "extensible": "false", "name": "Kurtzke Expanded Disability Status Scale Clinical Classification Test Name", "preferredTerm": "CDISC Clinical Classification EDSS Test Name Terminology", "submissionValue": "EDSS01TN", "synonyms": ["Kurtzke Expanded Disability Status Scale Clinical Classification Test Name"], "terms": [{"conceptId": "C112550", "definition": "Kurtzke Expanded Disability Status Scale - Expanded disability score.", "preferredTerm": "EDSS - Expanded Disability Score", "submissionValue": "EDSS01-Expanded Disability Score", "synonyms": ["EDSS01-Expanded Disability Score"]}]}