{"_links": {"parentPackage": {"href": "/mdr/ct/packages/sdtmct-2021-12-17", "title": "SDTM Controlled Terminology Package 48 Effective 2021-12-17", "type": "Terminology"}, "priorVersion": {"href": "/mdr/ct/packages/sdtmct-2021-09-24/codelists/C115400", "title": "CDISC Functional Test TUG Test Code Terminology", "type": "Code List"}, "rootItem": {"href": "/mdr/root/ct/sdtmct/codelists/C115400", "title": "Version-agnostic anchor resource for codelist C115400", "type": "Root Value Domain"}, "self": {"href": "/mdr/ct/packages/sdtmct-2021-12-17/codelists/C115400", "title": "CDISC Functional Test TUG Test Code Terminology", "type": "Code List"}}, "conceptId": "C115400", "definition": "Timed Up and Go Test test code.", "extensible": "false", "name": "Timed Up and Go Test Functional Test Test Code", "preferredTerm": "CDISC Functional Test TUG Test Code Terminology", "submissionValue": "TUG01TC", "synonyms": ["Timed Up and Go Test Functional Test Test Code"], "terms": [{"conceptId": "C115819", "definition": "Timed Up and Go - Time in seconds to complete TUG test.", "preferredTerm": "TUG - Time to Complete TUG Test", "submissionValue": "TUG0101", "synonyms": ["TUG01-Time to Complete TUG Test"]}]}