{"_links": {"parentPackage": {"href": "/mdr/ct/packages/sdtmct-2021-12-17", "title": "SDTM Controlled Terminology Package 48 Effective 2021-12-17", "type": "Terminology"}, "priorVersion": {"href": "/mdr/ct/packages/sdtmct-2021-09-24/codelists/C116108", "title": "CDISC SDTM Death Diagnosis Test Code Terminology", "type": "Code List"}, "rootItem": {"href": "/mdr/root/ct/sdtmct/codelists/C116108", "title": "Version-agnostic anchor resource for codelist C116108", "type": "Root Value Domain"}, "self": {"href": "/mdr/ct/packages/sdtmct-2021-12-17/codelists/C116108", "title": "CDISC SDTM Death Diagnosis Test Code Terminology", "type": "Code List"}}, "conceptId": "C116108", "definition": "Terminology relevant to the test codes that describe the death diagnosis and related details.", "extensible": "true", "name": "SDTM Death Diagnosis and Details Test Code", "preferredTerm": "CDISC SDTM Death Diagnosis Test Code Terminology", "submissionValue": "DTHDXCD", "synonyms": ["SDTM Death Diagnosis and Details Test Code"], "terms": [{"conceptId": "C135383", "definition": "The age at which death occurred. (NCI)", "preferredTerm": "Age at Death", "submissionValue": "AGEDTH", "synonyms": ["Age at Death"]}, {"conceptId": "C135384", "definition": "An indication as to whether an autopsy was performed. (NCI)", "preferredTerm": "Autopsy Indicator", "submissionValue": "AUTOPIND", "synonyms": ["Autopsy Indicator"]}, {"conceptId": "C135385", "definition": "An indication as to whether a death certificate was obtained. (NCI)", "preferredTerm": "Death Certification Indicator", "submissionValue": "DTHCOIND", "synonyms": ["Death Certificate Obtained Indicator"]}, {"conceptId": "C184505", "definition": "An indication as to whether the death was expected.", "preferredTerm": "Death Expected Indicator", "submissionValue": "DTHEXIND", "synonyms": ["Death Expected Indicator"]}, {"conceptId": "C170571", "definition": "An indication as to whether the death event was witnessed by another individual.", "preferredTerm": "Death Witnessed Indicator", "submissionValue": "DTHWIND", "synonyms": ["Death Witnessed Indicator"]}, {"conceptId": "C135386", "definition": "An indication as to whether a hospital medical record was obtained.", "preferredTerm": "Hospital Medical Record Indicator", "submissionValue": "HMROIND", "synonyms": ["Hospital Medical Record Obtained Ind", "Hospital Medical Record Obtained Indicator"]}, {"conceptId": "C176287", "definition": "The person or authoritative source that provided the cause of death.", "preferredTerm": "Information Source for Cause of Death", "submissionValue": "INFOSCOD", "synonyms": ["Information Source for Cause of Death"]}, {"conceptId": "C124331", "definition": "The physical location at which the subject ceased to live.", "preferredTerm": "Location of Death", "submissionValue": "LOCDTH", "synonyms": ["Location of Death"]}, {"conceptId": "C99531", "definition": "The primary significant event which ultimately led to death.", "preferredTerm": "Primary Cause of Death", "submissionValue": "PRCDTH", "synonyms": ["Primary Cause of Death"]}, {"conceptId": "C174284", "definition": "An indication as to whether death was unexpected or occurred without warning.", "preferredTerm": "Sudden Death Indicator", "submissionValue": "SDTHIND", "synonyms": ["Sudden Death Indicator"]}, {"conceptId": "C116142", "definition": "The secondary significant event which ultimately led to death.", "preferredTerm": "Secondary Cause of Death", "submissionValue": "SECDTH", "synonyms": ["Secondary Cause of Death"]}]}