{"_links": {"parentPackage": {"href": "/mdr/ct/packages/sdtmct-2021-12-17", "title": "SDTM Controlled Terminology Package 48 Effective 2021-12-17", "type": "Terminology"}, "priorVersion": {"href": "/mdr/ct/packages/sdtmct-2021-09-24/codelists/C120984", "title": "CDISC Clinical Classification APACHE II Test Name Terminology", "type": "Code List"}, "rootItem": {"href": "/mdr/root/ct/sdtmct/codelists/C120984", "title": "Version-agnostic anchor resource for codelist C120984", "type": "Root Value Domain"}, "self": {"href": "/mdr/ct/packages/sdtmct-2021-12-17/codelists/C120984", "title": "CDISC Clinical Classification APACHE II Test Name Terminology", "type": "Code List"}}, "conceptId": "C120984", "definition": "Acute Physiology and Chronic Health Evaluation II test name.", "extensible": "false", "name": "Acute Physiology and Chronic Health Evaluation II Clinical Classification Test Name", "preferredTerm": "CDISC Clinical Classification APACHE II Test Name Terminology", "submissionValue": "APCH1TN", "synonyms": ["Acute Physiology and Chronic Health Evaluation II Clinical Classification Test Name"], "terms": [{"conceptId": "C121109", "definition": "Acute Physiology and Chronic Health Evaluation II - Glasgow coma score: Score equals 15 minus actual GCS.", "preferredTerm": "APACHE II - 15 Minus Glasgow Coma Score", "submissionValue": "APCH1-15 Minus Glasgow Coma Score", "synonyms": ["APCH1-15 Minus Glasgow Coma Score"]}, {"conceptId": "C121110", "definition": "Acute Physiology and Chronic Health Evaluation II - A: Total acute physiology score.", "preferredTerm": "APACHE II - A, Total Acute Physiology Score", "submissionValue": "APCH1-A: Total Acute Physiology Score", "synonyms": ["APCH1-A: Total Acute Physiology Score"]}, {"conceptId": "C121102", "definition": "Acute Physiology and Chronic Health Evaluation II - Arterial pH (preferred).", "preferredTerm": "APACHE II - Arterial pH", "submissionValue": "APCH1-Arterial pH", "synonyms": ["APCH1-Arterial pH"]}, {"conceptId": "C121111", "definition": "Acute Physiology and Chronic Health Evaluation II - B: Age points (years).", "preferredTerm": "APACHE II - B, Age Points", "submissionValue": "APCH1-B: Age Points", "synonyms": ["APCH1-B: Age Points"]}, {"conceptId": "C121112", "definition": "Acute Physiology and Chronic Health Evaluation II - C: Chronic health points.", "preferredTerm": "APACHE II - C, Chronic Health Points", "submissionValue": "APCH1-C: Chronic Health Points", "synonyms": ["APCH1-C: Chronic Health Points"]}, {"conceptId": "C121098", "definition": "Acute Physiology and Chronic Health Evaluation II - Heart rate (ventricular response).", "preferredTerm": "APACHE II - Heart Rate", "submissionValue": "APCH1-Heart Rate", "synonyms": ["APCH1-Heart Rate"]}, {"conceptId": "C121107", "definition": "Acute Physiology and Chronic Health Evaluation II - Hematocrit (%).", "preferredTerm": "APACHE II - Hematocrit", "submissionValue": "APCH1-Hematocrit", "synonyms": ["APCH1-Hematocrit"]}, {"conceptId": "C121097", "definition": "Acute Physiology and Chronic Health Evaluation II - Mean arterial pressure - mmHg.", "preferredTerm": "APACHE II - Mean Arterial Pressure", "submissionValue": "APCH1-Mean Arterial Pressure", "synonyms": ["APCH1-Mean Arterial Pressure"]}, {"conceptId": "C121100", "definition": "Acute Physiology and Chronic Health Evaluation II - Oxygenation (mmHg): FIO2 greater than or equal to 0.5 record A-aDO2.", "preferredTerm": "APACHE II - Oxygenation, A-aDO2", "submissionValue": "APCH1-Oxygenation: A-aDO2", "synonyms": ["APCH1-Oxygenation: A-aDO2"]}, {"conceptId": "C121101", "definition": "Acute Physiology and Chronic Health Evaluation II - Oxygenation (mmHg): FIO2 less than 0.5 record only PaO2.", "preferredTerm": "APACHE II - Oxygenation, PaO2", "submissionValue": "APCH1-Oxygenation: PaO2", "synonyms": ["APCH1-Oxygenation: PaO2"]}, {"conceptId": "C121099", "definition": "Acute Physiology and Chronic Health Evaluation II - Respiratory rate (non-ventilated or ventilated).", "preferredTerm": "APACHE II - Respiratory Rate", "submissionValue": "APCH1-Respiratory Rate", "synonyms": ["APCH1-Respiratory Rate"]}, {"conceptId": "C121106", "definition": "Acute Physiology and Chronic Health Evaluation II - Serum creatinine (mg/100 mL) (double point score for acute renal failure).", "preferredTerm": "APACHE II - Serum Creatinine", "submissionValue": "APCH1-Serum Creatinine", "synonyms": ["APCH1-Serum Creatinine"]}, {"conceptId": "C121103", "definition": "Acute Physiology and Chronic Health Evaluation II - Serum HCO3 (venous mMol/L) (Not preferred, use if no ABGs).", "preferredTerm": "APACHE II - Serum HCO3", "submissionValue": "APCH1-Serum HCO3", "synonyms": ["APCH1-Serum HCO3"]}, {"conceptId": "C121105", "definition": "Acute Physiology and Chronic Health Evaluation II - Serum potassium (mMol/L).", "preferredTerm": "APACHE II - Serum Potassium", "submissionValue": "APCH1-Serum Potassium", "synonyms": ["APCH1-Serum Potassium"]}, {"conceptId": "C121104", "definition": "Acute Physiology and Chronic Health Evaluation II - Serum sodium (mMol/L).", "preferredTerm": "APACHE II - Serum Sodium", "submissionValue": "APCH1-Serum Sodium", "synonyms": ["APCH1-Serum Sodium"]}, {"conceptId": "C121096", "definition": "Acute Physiology and Chronic Health Evaluation II - Temperature - rectal (degree C).", "preferredTerm": "APACHE II - Temperature, Rectal", "submissionValue": "APCH1-Temperature - Rectal", "synonyms": ["APCH1-Temperature - Rectal"]}, {"conceptId": "C121113", "definition": "Acute Physiology and Chronic Health Evaluation II - Total APACHE II score.", "preferredTerm": "APACHE II - Total APACHE II Score", "submissionValue": "APCH1-Total APACHE II Score", "synonyms": ["APCH1-Total APACHE II Score"]}, {"conceptId": "C121108", "definition": "Acute Physiology and Chronic Health Evaluation II - White blood count (total/mm3) (in 1,000s).", "preferredTerm": "APACHE II - White Blood Count", "submissionValue": "APCH1-White Blood Count", "synonyms": ["APCH1-White Blood Count"]}]}