{"_links": {"parentPackage": {"href": "/mdr/ct/packages/sdtmct-2021-12-17", "title": "SDTM Controlled Terminology Package 48 Effective 2021-12-17", "type": "Terminology"}, "priorVersion": {"href": "/mdr/ct/packages/sdtmct-2021-09-24/codelists/C127359", "title": "CDISC Questionnaire PROSQOLI Test Name Terminology", "type": "Code List"}, "rootItem": {"href": "/mdr/root/ct/sdtmct/codelists/C127359", "title": "Version-agnostic anchor resource for codelist C127359", "type": "Root Value Domain"}, "self": {"href": "/mdr/ct/packages/sdtmct-2021-12-17/codelists/C127359", "title": "CDISC Questionnaire PROSQOLI Test Name Terminology", "type": "Code List"}}, "conceptId": "C127359", "definition": "The Prostate Cancer Specific Quality of Life Instrument test name.", "extensible": "false", "name": "The Prostate Cancer Specific Quality of Life Instrument Questionnaire Test Name", "preferredTerm": "CDISC Questionnaire PROSQOLI Test Name Terminology", "submissionValue": "PROS01TN", "synonyms": ["The Prostate Cancer Specific Quality of Life Instrument Questionnaire Test Name"], "terms": [{"conceptId": "C127507", "definition": "Prostate Cancer Specific Quality of Life Instrument - Appetite.", "preferredTerm": "PROSQOLI - Appetite", "submissionValue": "PROS01-Appetite", "synonyms": ["PROS01-Appetite"]}, {"conceptId": "C127508", "definition": "Prostate Cancer Specific Quality of Life Instrument - Constipation.", "preferredTerm": "PROSQOLI - Constipation", "submissionValue": "PROS01-Constipation", "synonyms": ["PROS01-Constipation"]}, {"conceptId": "C127510", "definition": "Prostate Cancer Specific Quality of Life Instrument - Enjoying time with friends and family.", "preferredTerm": "PROSQOLI - Enjoying Time with Friends and Family", "submissionValue": "PROS01-Enjoying Time Friends/Family", "synonyms": ["PROS01-Enjoying Time Friends/Family"]}, {"conceptId": "C127506", "definition": "Prostate Cancer Specific Quality of Life Instrument - Fatigue.", "preferredTerm": "PROSQOLI - Fatigue", "submissionValue": "PROS01-Fatigue", "synonyms": ["PROS01-Fatigue"]}, {"conceptId": "C127511", "definition": "Prostate Cancer Specific Quality of Life Instrument - Mood.", "preferredTerm": "PROSQOLI - Mood", "submissionValue": "PROS01-Mood", "synonyms": ["PROS01-Mood"]}, {"conceptId": "C127512", "definition": "Prostate Cancer Specific Quality of Life Instrument - Overall Well-Being (How do you feel?).", "preferredTerm": "PROSQOLI - Overall Well-Being", "submissionValue": "PROS01-Overall Well-Being", "synonyms": ["PROS01-Overall Well-Being"]}, {"conceptId": "C127504", "definition": "Prostate Cancer Specific Quality of Life Instrument - Pain.", "preferredTerm": "PROSQOLI - Pain", "submissionValue": "PROS01-Pain", "synonyms": ["PROS01-Pain"]}, {"conceptId": "C127505", "definition": "Prostate Cancer Specific Quality of Life Instrument - Physical activity.", "preferredTerm": "PROSQOLI - Physical Activity", "submissionValue": "PROS01-Physical Activity", "synonyms": ["PROS01-Physical Activity"]}, {"conceptId": "C127513", "definition": "Prostate Cancer Specific Quality of Life Instrument - Present pain intensity: Please circle the appropriate number according to how much pain you felt on average during the past 24 hours.", "preferredTerm": "PROSQOLI - Present Pain Intensity", "submissionValue": "PROS01-Present Pain Intensity", "synonyms": ["PROS01-Present Pain Intensity"]}, {"conceptId": "C127509", "definition": "Prostate Cancer Specific Quality of Life Instrument - Urinary problems.", "preferredTerm": "PROSQOLI - Urinary Problems", "submissionValue": "PROS01-Urinary Problems", "synonyms": ["PROS01-Urinary Problems"]}]}