{"_links": {"parentPackage": {"href": "/mdr/ct/packages/sdtmct-2021-12-17", "title": "SDTM Controlled Terminology Package 48 Effective 2021-12-17", "type": "Terminology"}, "priorVersion": {"href": "/mdr/ct/packages/sdtmct-2021-09-24/codelists/C130276", "title": "CDISC Questionnaire WHODAS 2.0 12-item Version Proxy-administered Test Name Terminology", "type": "Code List"}, "rootItem": {"href": "/mdr/root/ct/sdtmct/codelists/C130276", "title": "Version-agnostic anchor resource for codelist C130276", "type": "Root Value Domain"}, "self": {"href": "/mdr/ct/packages/sdtmct-2021-12-17/codelists/C130276", "title": "CDISC Questionnaire WHODAS 2.0 12-item Version Proxy-administered Test Name Terminology", "type": "Code List"}}, "conceptId": "C130276", "definition": "World Health Organization Disability Assessment Schedule 2.0 - 12-Item Proxy test name.", "extensible": "false", "name": "World Health Organization Disability Assessment Schedule 2.0 - 12-Item Proxy Questionnaire Test Name", "preferredTerm": "CDISC Questionnaire WHODAS 2.0 12-item Version Proxy-administered Test Name Terminology", "submissionValue": "WD2TN", "synonyms": ["World Health Organization Disability Assessment Schedule 2.0 - 12-Item Proxy Questionnaire Test Name"], "terms": [{"conceptId": "C130921", "definition": "World Health Organization Disability Assessment Schedule 2.0 - 12-Item Proxy - In the past 30 days, how much difficulty did your relative have in: Taking care of his or her household responsibilities?", "preferredTerm": "WHODAS 2.0 12-item Version Proxy-administered - Care of Household Responsibilities", "submissionValue": "WD2-Care of Household Responsibilities", "synonyms": ["WD2-Care of Household Responsibilities"]}, {"conceptId": "C130925", "definition": "World Health Organization Disability Assessment Schedule 2.0 - 12-Item Proxy - In the past 30 days, how much difficulty did your relative have in: Concentrating on doing something for ten minutes?", "preferredTerm": "WHODAS 2.0 12-item Version Proxy-administered - Concentrating for Ten Minutes", "submissionValue": "WD2-Concentrating for Ten Minutes", "synonyms": ["WD2-Concentrating for Ten Minutes"]}, {"conceptId": "C130933", "definition": "World Health Organization Disability Assessment Schedule 2.0 - 12-Item Proxy - In the past 30 days, for how many days were you totally unable to carry out your usual activities or work because of any health condition?", "preferredTerm": "WHODAS 2.0 12-item Version Proxy-administered - Days Unable to Carry Out Activities", "submissionValue": "WD2-Days Unable to Carry Out Activities", "synonyms": ["WD2-Days Unable to Carry Out Activities"]}, {"conceptId": "C130929", "definition": "World Health Organization Disability Assessment Schedule 2.0 - 12-Item Proxy - In the past 30 days, how much difficulty did your relative have in: Dealing with people he or she does not know?", "preferredTerm": "WHODAS 2.0 12-item Version Proxy-administered - Dealing With People Does Not Know", "submissionValue": "WD2-Dealing With People Does Not Know", "synonyms": ["WD2-Dealing With People Does Not Know"]}, {"conceptId": "C130924", "definition": "World Health Organization Disability Assessment Schedule 2.0 - 12-Item Proxy - In the past 30 days, how much difficulty did your relative have in: How much has your relative been emotionally affected by his or her health condition?", "preferredTerm": "WHODAS 2.0 12-item Version Proxy-administered - Emotionally Affected by Health", "submissionValue": "WD2-Emotionally Affected by Health", "synonyms": ["WD2-Emotionally Affected by Health"]}, {"conceptId": "C130928", "definition": "World Health Organization Disability Assessment Schedule 2.0 - 12-Item Proxy - In the past 30 days, how much difficulty did your relative have in: Getting dressed?", "preferredTerm": "WHODAS 2.0 12-item Version Proxy-administered - Getting Dressed", "submissionValue": "WD2-Getting Dressed", "synonyms": ["WD2-Getting Dressed"]}, {"conceptId": "C130932", "definition": "World Health Organization Disability Assessment Schedule 2.0 - 12-Item Proxy - Overall, in the past 30 days, how many days were these difficulties present?", "preferredTerm": "WHODAS 2.0 12-item Version Proxy-administered - How Many Days Difficulties Present", "submissionValue": "WD2-How Many Days Difficulties Present", "synonyms": ["WD2-How Many Days Difficulties Present"]}, {"conceptId": "C130934", "definition": "World Health Organization Disability Assessment Schedule 2.0 - 12-Item Proxy - In the past 30 days, not counting the days that you were totally unable, for how many days did you cut back or reduce your usual activities or work because of any health condition?", "preferredTerm": "WHODAS 2.0 12-item Version Proxy-administered - How Many Days Reduce Activities", "submissionValue": "WD2-How Many Days Reduce Activities", "synonyms": ["WD2-How Many Days Reduce Activities"]}, {"conceptId": "C130919", "definition": "World Health Organization Disability Assessment Schedule 2.0 - 12-Item Proxy - I am the (Fill in the Blank) of this person.", "preferredTerm": "WHODAS 2.0 12-item Version Proxy-administered - I Am the (Fill in the Blank) of This Person", "submissionValue": "WD2-I Am (Fill in Blank) of This Person", "synonyms": ["WD2-I Am (Fill in Blank) of This Person"]}, {"conceptId": "C130922", "definition": "World Health Organization Disability Assessment Schedule 2.0 - 12-Item Proxy - In the past 30 days, how much difficulty did your relative have in: Learning a new task, for example, learning how to get to a new place?", "preferredTerm": "WHODAS 2.0 12-item Version Proxy-administered - Learning a New Task", "submissionValue": "WD2-Learning a New Task", "synonyms": ["WD2-Learning a New Task"]}, {"conceptId": "C130930", "definition": "World Health Organization Disability Assessment Schedule 2.0 - 12-Item Proxy - In the past 30 days, how much difficulty did your relative have in: Maintaining a friendship?", "preferredTerm": "WHODAS 2.0 12-item Version Proxy-administered - Maintaining a Friendship", "submissionValue": "WD2-Maintaining a Friendship", "synonyms": ["WD2-Maintaining a Friendship"]}, {"conceptId": "C130923", "definition": "World Health Organization Disability Assessment Schedule 2.0 - 12-Item Proxy - In the past 30 days, how much difficulty did your relative have in: How much of a problem did your relative have joining in community activities (for example, festivities, religious or other activities) in the same way as anyone else can?", "preferredTerm": "WHODAS 2.0 12-item Version Proxy-administered - Problem Joining Community Activities", "submissionValue": "WD2-Problem Joining Community Activities", "synonyms": ["WD2-Problem Joining Community Activities"]}, {"conceptId": "C130920", "definition": "World Health Organization Disability Assessment Schedule 2.0 - 12-Item Proxy - In the past 30 days, how much difficulty did your relative have in: Standing for long periods such as 30 minutes?", "preferredTerm": "WHODAS 2.0 12-item Version Proxy-administered - Standing for Long Periods", "submissionValue": "WD2-Standing for Long Periods", "synonyms": ["WD2-Standing for Long Periods"]}, {"conceptId": "C130926", "definition": "World Health Organization Disability Assessment Schedule 2.0 - 12-Item Proxy - In the past 30 days, how much difficulty did your relative have in: Walking a long distance such as a kilometre [or equivalent]?", "preferredTerm": "WHODAS 2.0 12-item Version Proxy-administered - Walking a Long Distance", "submissionValue": "WD2-Walking a Long Distance", "synonyms": ["WD2-Walking a Long Distance"]}, {"conceptId": "C130927", "definition": "World Health Organization Disability Assessment Schedule 2.0 - 12-Item Proxy - In the past 30 days, how much difficulty did your relative have in: Washing his or her whole body?", "preferredTerm": "WHODAS 2.0 12-item Version Proxy-administered - Washing His or Her Whole Body", "submissionValue": "WD2-Washing His/Her Whole Body", "synonyms": ["WD2-Washing His/Her Whole Body"]}, {"conceptId": "C130931", "definition": "World Health Organization Disability Assessment Schedule 2.0 - 12-Item Proxy - In the past 30 days, how much difficulty did your relative have in: His or her day-to-day work?", "preferredTerm": "WHODAS 2.0 12-item Version Proxy-administered - Your Day-to-Day Work or School", "submissionValue": "WD2-Your Day-to-Day Work/School", "synonyms": ["WD2-Your Day-to-Day Work/School"]}]}