{"_links": {"parentPackage": {"href": "/mdr/ct/packages/sdtmct-2021-12-17", "title": "SDTM Controlled Terminology Package 48 Effective 2021-12-17", "type": "Terminology"}, "priorVersion": {"href": "/mdr/ct/packages/sdtmct-2021-09-24/codelists/C135678", "title": "CDISC Clinical Classification PASI Test Code Terminology", "type": "Code List"}, "rootItem": {"href": "/mdr/root/ct/sdtmct/codelists/C135678", "title": "Version-agnostic anchor resource for codelist C135678", "type": "Root Value Domain"}, "self": {"href": "/mdr/ct/packages/sdtmct-2021-12-17/codelists/C135678", "title": "CDISC Clinical Classification PASI Test Code Terminology", "type": "Code List"}}, "conceptId": "C135678", "definition": "Psoriasis Area and Severity Index test code.", "extensible": "false", "name": "Psoriasis Area and Severity Index Clinical Classification Test Code", "preferredTerm": "CDISC Clinical Classification PASI Test Code Terminology", "submissionValue": "PASI01TC", "synonyms": ["Psoriasis Area and Severity Index Clinical Classification Test Code"], "terms": [{"conceptId": "C135746", "definition": "Psoriasis Area and Severity Index - Head (H): Erythema (E).", "preferredTerm": "PASI - Head (H): Erythema (E)", "submissionValue": "PASI0101", "synonyms": ["PASI01-Head (H): Erythema (E)"]}, {"conceptId": "C135747", "definition": "Psoriasis Area and Severity Index - Head (H): Infiltration (I).", "preferredTerm": "PASI - Head (H): Infiltration (I)", "submissionValue": "PASI0102", "synonyms": ["PASI01-Head (H): Infiltration (I)"]}, {"conceptId": "C135748", "definition": "Psoriasis Area and Severity Index - Head (H): Desquamation (D).", "preferredTerm": "PASI - Head (H): Desquamation (D)", "submissionValue": "PASI0103", "synonyms": ["PASI01-Head (H): Desquamation (D)"]}, {"conceptId": "C135749", "definition": "Psoriasis Area and Severity Index - Head (H): Sum = E + I + D.", "preferredTerm": "PASI - Head (H): Sum = E+I+D", "submissionValue": "PASI0104", "synonyms": ["PASI01-Head (H): Sum = E+I+D"]}, {"conceptId": "C135750", "definition": "Psoriasis Area and Severity Index - Head (H): Area score.", "preferredTerm": "PASI - Head (H): Area Score", "submissionValue": "PASI0105", "synonyms": ["PASI01-Head (H): Area Score"]}, {"conceptId": "C135751", "definition": "Psoriasis Area and Severity Index - Head (H): Sum x area.", "preferredTerm": "PASI - Head (H): Sum X Area", "submissionValue": "PASI0106", "synonyms": ["PASI01-Head (H): Sum X Area"]}, {"conceptId": "C135752", "definition": "Psoriasis Area and Severity Index - Head (H): Sum x area x 0.1.", "preferredTerm": "PASI - Head (H): Sum X Area X 0.1", "submissionValue": "PASI0107", "synonyms": ["PASI01-Head (H): Sum X Area X 0.1"]}, {"conceptId": "C135753", "definition": "Psoriasis Area and Severity Index - Trunk (T): Erythema (E).", "preferredTerm": "PASI - Trunk (T): Erythema (E)", "submissionValue": "PASI0108", "synonyms": ["PASI01-Trunk (T): Erythema (E)"]}, {"conceptId": "C135754", "definition": "Psoriasis Area and Severity Index - Trunk (T): Infiltration (I).", "preferredTerm": "PASI - Trunk (T): Infiltration (I)", "submissionValue": "PASI0109", "synonyms": ["PASI01-Trunk (T): Infiltration (I)"]}, {"conceptId": "C135755", "definition": "Psoriasis Area and Severity Index - Trunk (T): Desquamation (D).", "preferredTerm": "PASI - Trunk (T): Desquamation (D)", "submissionValue": "PASI0110", "synonyms": ["PASI01-Trunk (T): Desquamation (D)"]}, {"conceptId": "C135756", "definition": "Psoriasis Area and Severity Index - Trunk (T): Sum = E + I + D.", "preferredTerm": "PASI - Trunk (T): Sum = E+I+D", "submissionValue": "PASI0111", "synonyms": ["PASI01-Trunk (T): Sum = E+I+D"]}, {"conceptId": "C135757", "definition": "Psoriasis Area and Severity Index - Trunk (T): Area score.", "preferredTerm": "PASI - Trunk (T): Area Score", "submissionValue": "PASI0112", "synonyms": ["PASI01-Trunk (T): Area Score"]}, {"conceptId": "C135758", "definition": "Psoriasis Area and Severity Index - Trunk (T): Sum x area.", "preferredTerm": "PASI - Trunk (T): Sum X Area", "submissionValue": "PASI0113", "synonyms": ["PASI01-Trunk (T): Sum X Area"]}, {"conceptId": "C135759", "definition": "Psoriasis Area and Severity Index - Trunk (T): Sum x area x 0.3.", "preferredTerm": "PASI - Trunk (T): Sum X Area X 0.3", "submissionValue": "PASI0114", "synonyms": ["PASI01-Trunk (T): Sum X Area X 0.3"]}, {"conceptId": "C135760", "definition": "Psoriasis Area and Severity Index - Upper Extremities (U): Erythema (E).", "preferredTerm": "PASI - Upper Extremities (U): Erythema (E)", "submissionValue": "PASI0115", "synonyms": ["PASI01-Up Extrem (U): Erythema (E)"]}, {"conceptId": "C135761", "definition": "Psoriasis Area and Severity Index - Upper Extremities (U): Infiltration (I).", "preferredTerm": "PASI - Upper Extremities (U): Infiltration (I)", "submissionValue": "PASI0116", "synonyms": ["PASI01-Up Extrem (U): Infiltration (I)"]}, {"conceptId": "C135762", "definition": "Psoriasis Area and Severity Index - Upper Extremities (U): Desquamation (D).", "preferredTerm": "PASI - Upper Extremities (U): Desquamation (D)", "submissionValue": "PASI0117", "synonyms": ["PASI01-Up Extrem (U): Desquamation (D)"]}, {"conceptId": "C135763", "definition": "Psoriasis Area and Severity Index - Upper Extremities (U): Sum = E + I + D.", "preferredTerm": "PASI - Upper Extremities (U): Sum = E+I+D", "submissionValue": "PASI0118", "synonyms": ["PASI01-Up Extrem (U): Sum = E+I+D"]}, {"conceptId": "C135764", "definition": "Psoriasis Area and Severity Index - Upper Extremities (U): Area score.", "preferredTerm": "PASI - Upper Extremities (U): Area Score", "submissionValue": "PASI0119", "synonyms": ["PASI01-Up Extrem (U): Area Score"]}, {"conceptId": "C135765", "definition": "Psoriasis Area and Severity Index - Upper Extremities (U): Sum x area.", "preferredTerm": "PASI - Upper Extremities (U): Sum X Area", "submissionValue": "PASI0120", "synonyms": ["PASI01-Up Extrem (U): Sum X Area"]}, {"conceptId": "C135766", "definition": "Psoriasis Area and Severity Index - Upper Extremities (U): Sum x area x 0.2.", "preferredTerm": "PASI - Upper Extremities (U): Sum X Area X 0.2", "submissionValue": "PASI0121", "synonyms": ["PASI01-Up Extrem (U): Sum X Area X 0.2"]}, {"conceptId": "C135767", "definition": "Psoriasis Area and Severity Index - Lower Extremities (L): Erythema (E).", "preferredTerm": "PASI - Lower Extremities (L): Erythema (E)", "submissionValue": "PASI0122", "synonyms": ["PASI01-Low Extrem (L): Erythema (E)"]}, {"conceptId": "C135768", "definition": "Psoriasis Area and Severity Index - Lower Extremities (L): Infiltration (I).", "preferredTerm": "PASI - Lower Extremities (L): Infiltration (I)", "submissionValue": "PASI0123", "synonyms": ["PASI01-Low Extrem (L): Infiltration (I)"]}, {"conceptId": "C135769", "definition": "Psoriasis Area and Severity Index - Lower Extremities (L): Desquamation (D).", "preferredTerm": "PASI - Lower Extremities (L): Desquamation (D)", "submissionValue": "PASI0124", "synonyms": ["PASI01-Low Extrem (L): Desquamation (D)"]}, {"conceptId": "C135770", "definition": "Psoriasis Area and Severity Index - Lower Extremities (L): Sum = E + I + D.", "preferredTerm": "PASI - Lower Extremities (L): Sum = E+I+D", "submissionValue": "PASI0125", "synonyms": ["PASI01-Low Extrem (L): Sum = E+I+D"]}, {"conceptId": "C135771", "definition": "Psoriasis Area and Severity Index - Lower Extremities (L): Area score.", "preferredTerm": "PASI - Lower Extremities (L): Area Score", "submissionValue": "PASI0126", "synonyms": ["PASI01-Low Extrem (L): Area Score"]}, {"conceptId": "C135772", "definition": "Psoriasis Area and Severity Index - Lower Extremities (L): Sum x area.", "preferredTerm": "PASI - Lower Extremities (L): Sum X Area", "submissionValue": "PASI0127", "synonyms": ["PASI01-Low Extrem (L): Sum X Area"]}, {"conceptId": "C135773", "definition": "Psoriasis Area and Severity Index - Lower Extremities (L): Sum x area x 0.4.", "preferredTerm": "PASI - Lower Extremities (L): Sum X Area X 0.4", "submissionValue": "PASI0128", "synonyms": ["PASI01-Low Extrem (L): Sum X Area X 0.4"]}, {"conceptId": "C135774", "definition": "Psoriasis Area and Severity Index - Total sum.", "preferredTerm": "PASI - Total Sum", "submissionValue": "PASI0129", "synonyms": ["PASI01-Total Sum"]}]}