{"_links": {"parentPackage": {"href": "/mdr/ct/packages/sdtmct-2021-12-17", "title": "SDTM Controlled Terminology Package 48 Effective 2021-12-17", "type": "Terminology"}, "priorVersion": {"href": "/mdr/ct/packages/sdtmct-2021-09-24/codelists/C138227", "title": "CDISC Questionnaire PedsQL Neuromuscular Module Acute Version 3.0 Child Report Test Code Terminology", "type": "Code List"}, "rootItem": {"href": "/mdr/root/ct/sdtmct/codelists/C138227", "title": "Version-agnostic anchor resource for codelist C138227", "type": "Root Value Domain"}, "self": {"href": "/mdr/ct/packages/sdtmct-2021-12-17/codelists/C138227", "title": "CDISC Questionnaire PedsQL Neuromuscular Module Acute Version 3.0 Child Report Test Code Terminology", "type": "Code List"}}, "conceptId": "C138227", "definition": "Pediatric Quality of Life Neuromuscular Module Acute Version 3 Child test code.", "extensible": "false", "name": "Pediatric Quality of Life Neuromuscular Module Acute Version 3 Child Questionnaire Test Code", "preferredTerm": "CDISC Questionnaire PedsQL Neuromuscular Module Acute Version 3.0 Child Report Test Code Terminology", "submissionValue": "PQL14TC", "synonyms": ["Pediatric Quality of Life Neuromuscular Module Acute Version 3 Child Questionnaire Test Code"], "terms": [{"conceptId": "C138465", "definition": "Pediatric Quality of Life Neuromuscular Module Acute Version 3 Child - In the past 7 days, how much of a problem has this been for you: It is hard to breathe.", "preferredTerm": "PedsQL Neuromuscular Module Acute Version 3.0 Child Report - Hard to Breathe", "submissionValue": "PQL1401", "synonyms": ["PQL14-Hard to Breathe"]}, {"conceptId": "C138466", "definition": "Pediatric Quality of Life Neuromuscular Module Acute Version 3 Child - In the past 7 days, how much of a problem has this been for you: I get sick easily.", "preferredTerm": "PedsQL Neuromuscular Module Acute Version 3.0 Child Report - Get Sick Easily", "submissionValue": "PQL1402", "synonyms": ["PQL14-Get Sick Easily"]}, {"conceptId": "C138467", "definition": "Pediatric Quality of Life Neuromuscular Module Acute Version 3 Child - In the past 7 days, how much of a problem has this been for you: I get sores and/or rashes.", "preferredTerm": "PedsQL Neuromuscular Module Acute Version 3.0 Child Report - Get Sores and/or Rashes", "submissionValue": "PQL1403", "synonyms": ["PQL14-Get Sores and/or Rashes"]}, {"conceptId": "C138468", "definition": "Pediatric Quality of Life Neuromuscular Module Acute Version 3 Child - In the past 7 days, how much of a problem has this been for you: My legs hurt.", "preferredTerm": "PedsQL Neuromuscular Module Acute Version 3.0 Child Report - Legs Hurt", "submissionValue": "PQL1404", "synonyms": ["PQL14-Legs Hurt"]}, {"conceptId": "C138469", "definition": "Pediatric Quality of Life Neuromuscular Module Acute Version 3 Child - In the past 7 days, how much of a problem has this been for you: I feel tired.", "preferredTerm": "PedsQL Neuromuscular Module Acute Version 3.0 Child Report - Feel Tired", "submissionValue": "PQL1405", "synonyms": ["PQL14-Feel Tired"]}, {"conceptId": "C138470", "definition": "Pediatric Quality of Life Neuromuscular Module Acute Version 3 Child - In the past 7 days, how much of a problem has this been for you: My back feels stiff.", "preferredTerm": "PedsQL Neuromuscular Module Acute Version 3.0 Child Report - Back Feels Stiff", "submissionValue": "PQL1406", "synonyms": ["PQL14-Back Feels Stiff"]}, {"conceptId": "C138471", "definition": "Pediatric Quality of Life Neuromuscular Module Acute Version 3 Child - In the past 7 days, how much of a problem has this been for you: I wake up tired.", "preferredTerm": "PedsQL Neuromuscular Module Acute Version 3.0 Child Report - Wake Up Tired", "submissionValue": "PQL1407", "synonyms": ["PQL14-Wake Up Tired"]}, {"conceptId": "C138472", "definition": "Pediatric Quality of Life Neuromuscular Module Acute Version 3 Child - In the past 7 days, how much of a problem has this been for you: My hands are weak.", "preferredTerm": "PedsQL Neuromuscular Module Acute Version 3.0 Child Report - Hands Are Weak", "submissionValue": "PQL1408", "synonyms": ["PQL14-Hands Are Weak"]}, {"conceptId": "C138473", "definition": "Pediatric Quality of Life Neuromuscular Module Acute Version 3 Child - In the past 7 days, how much of a problem has this been for you: It is hard to use the bathroom.", "preferredTerm": "PedsQL Neuromuscular Module Acute Version 3.0 Child Report - Hard to Use Bathroom", "submissionValue": "PQL1409", "synonyms": ["PQL14-Hard to Use Bathroom"]}, {"conceptId": "C138474", "definition": "Pediatric Quality of Life Neuromuscular Module Acute Version 3 Child - In the past 7 days, how much of a problem has this been for you: It is hard to gain or lose weight when I want to.", "preferredTerm": "PedsQL Neuromuscular Module Acute Version 3.0 Child Report - Hard to Gain or Lose Weight", "submissionValue": "PQL1410", "synonyms": ["PQL14-Hard to Gain/Lose Weight"]}, {"conceptId": "C138475", "definition": "Pediatric Quality of Life Neuromuscular Module Acute Version 3 Child - In the past 7 days, how much of a problem has this been for you: It is hard to use my hands.", "preferredTerm": "PedsQL Neuromuscular Module Acute Version 3.0 Child Report - Hard to Use Hands", "submissionValue": "PQL1411", "synonyms": ["PQL14-Hard to Use Hands"]}, {"conceptId": "C138476", "definition": "Pediatric Quality of Life Neuromuscular Module Acute Version 3 Child - In the past 7 days, how much of a problem has this been for you: It is hard to swallow food.", "preferredTerm": "PedsQL Neuromuscular Module Acute Version 3.0 Child Report - Hard to Swallow Food", "submissionValue": "PQL1412", "synonyms": ["PQL14-Hard to Swallow Food"]}, {"conceptId": "C138477", "definition": "Pediatric Quality of Life Neuromuscular Module Acute Version 3 Child - In the past 7 days, how much of a problem has this been for you: It takes me a long time to bathe or shower.", "preferredTerm": "PedsQL Neuromuscular Module Acute Version 3.0 Child Report - Long Time to Bathe or Shower", "submissionValue": "PQL1413", "synonyms": ["PQL14-Long Time to Bathe/Shower"]}, {"conceptId": "C138478", "definition": "Pediatric Quality of Life Neuromuscular Module Acute Version 3 Child - In the past 7 days, how much of a problem has this been for you: I get hurt accidentally.", "preferredTerm": "PedsQL Neuromuscular Module Acute Version 3.0 Child Report - Get Hurt Accidentally", "submissionValue": "PQL1414", "synonyms": ["PQL14-Get Hurt Accidentally"]}, {"conceptId": "C138479", "definition": "Pediatric Quality of Life Neuromuscular Module Acute Version 3 Child - In the past 7 days, how much of a problem has this been for you: I take a long time to eat.", "preferredTerm": "PedsQL Neuromuscular Module Acute Version 3.0 Child Report - Take Long Time to Eat", "submissionValue": "PQL1415", "synonyms": ["PQL14-Take Long Time to Eat"]}, {"conceptId": "C138480", "definition": "Pediatric Quality of Life Neuromuscular Module Acute Version 3 Child - In the past 7 days, how much of a problem has this been for you: It is hard to turn myself during the night.", "preferredTerm": "PedsQL Neuromuscular Module Acute Version 3.0 Child Report - Hard to Turn During Night", "submissionValue": "PQL1416", "synonyms": ["PQL14-Hard to Turn During Night"]}, {"conceptId": "C138481", "definition": "Pediatric Quality of Life Neuromuscular Module Acute Version 3 Child - In the past 7 days, how much of a problem has this been for you: It is hard for me to go places with my equipment.", "preferredTerm": "PedsQL Neuromuscular Module Acute Version 3.0 Child Report - Hard to Go Places With Equipment", "submissionValue": "PQL1417", "synonyms": ["PQL14-Hard to Go Places With Equipment"]}, {"conceptId": "C138482", "definition": "Pediatric Quality of Life Neuromuscular Module Acute Version 3 Child - In the past 7 days, how much of a problem has this been for you: It is hard for me to tell the doctors and nurses how I feel.", "preferredTerm": "PedsQL Neuromuscular Module Acute Version 3.0 Child Report - Hard Tell Doctors and Nurses How Feel", "submissionValue": "PQL1418", "synonyms": ["PQL14-Hard Tell Doctors/Nurses How Feel"]}, {"conceptId": "C138483", "definition": "Pediatric Quality of Life Neuromuscular Module Acute Version 3 Child - In the past 7 days, how much of a problem has this been for you: It is hard for me to ask the doctors and nurses questions.", "preferredTerm": "PedsQL Neuromuscular Module Acute Version 3.0 Child Report - Hard Ask Doctors and Nurses Questions", "submissionValue": "PQL1419", "synonyms": ["PQL14-Hard Ask Doctors/Nurses Questions"]}, {"conceptId": "C138484", "definition": "Pediatric Quality of Life Neuromuscular Module Acute Version 3 Child - In the past 7 days, how much of a problem has this been for you: It is hard for me to explain my illness to other people.", "preferredTerm": "PedsQL Neuromuscular Module Acute Version 3.0 Child Report - Hard Explain Illness to People", "submissionValue": "PQL1420", "synonyms": ["PQL14-Hard Explain Illness to People"]}, {"conceptId": "C138485", "definition": "Pediatric Quality of Life Neuromuscular Module Acute Version 3 Child - In the past 7 days, how much of a problem has this been for you: It is hard for my family to plan activities like vacations.", "preferredTerm": "PedsQL Neuromuscular Module Acute Version 3.0 Child Report - Hard for Family to Plan Activities", "submissionValue": "PQL1421", "synonyms": ["PQL14-Hard for Family to Plan Activities"]}, {"conceptId": "C138486", "definition": "Pediatric Quality of Life Neuromuscular Module Acute Version 3 Child - In the past 7 days, how much of a problem has this been for you: It is hard for my family to get enough rest.", "preferredTerm": "PedsQL Neuromuscular Module Acute Version 3.0 Child Report - Hard for Family to Rest", "submissionValue": "PQL1422", "synonyms": ["PQL14-Hard for Family to Rest"]}, {"conceptId": "C138487", "definition": "Pediatric Quality of Life Neuromuscular Module Acute Version 3 Child - In the past 7 days, how much of a problem has this been for you: I think money is a problem in our family.", "preferredTerm": "PedsQL Neuromuscular Module Acute Version 3.0 Child Report - Money Problem in Our Family", "submissionValue": "PQL1423", "synonyms": ["PQL14-Money Problem in Our Family"]}, {"conceptId": "C138488", "definition": "Pediatric Quality of Life Neuromuscular Module Acute Version 3 Child - In the past 7 days, how much of a problem has this been for you: I think my family has a lot of problems.", "preferredTerm": "PedsQL Neuromuscular Module Acute Version 3.0 Child Report - Family Has Lot of Problems", "submissionValue": "PQL1424", "synonyms": ["PQL14-Family Has Lot of Problems"]}, {"conceptId": "C138489", "definition": "Pediatric Quality of Life Neuromuscular Module Acute Version 3 Child - In the past 7 days, how much of a problem has this been for you: I do not have the equipment I need.", "preferredTerm": "PedsQL Neuromuscular Module Acute Version 3.0 Child Report - Do Not Have Equipment Need", "submissionValue": "PQL1425", "synonyms": ["PQL14-Do Not Have Equipment Need"]}]}