{"_links": {"parentPackage": {"href": "/mdr/ct/packages/sdtmct-2021-12-17", "title": "SDTM Controlled Terminology Package 48 Effective 2021-12-17", "type": "Terminology"}, "priorVersion": {"href": "/mdr/ct/packages/sdtmct-2021-09-24/codelists/C141660", "title": "CDISC Functional Test 4-Stair Descend Test Name Terminology", "type": "Code List"}, "rootItem": {"href": "/mdr/root/ct/sdtmct/codelists/C141660", "title": "Version-agnostic anchor resource for codelist C141660", "type": "Root Value Domain"}, "self": {"href": "/mdr/ct/packages/sdtmct-2021-12-17/codelists/C141660", "title": "CDISC Functional Test 4-Stair Descend Test Name Terminology", "type": "Code List"}}, "conceptId": "C141660", "definition": "4-Stair Descend test name.", "extensible": "false", "name": "4-Stair Descend Functional Test Test Name", "preferredTerm": "CDISC Functional Test 4-Stair Descend Test Name Terminology", "submissionValue": "D4STR1TN", "synonyms": ["4-Stair Descend Functional Test Test Name"], "terms": [{"conceptId": "C141705", "definition": "4-Stair Descend - Test grade.", "preferredTerm": "4-Stair Descend - Test Grade", "submissionValue": "D4STR1-Test Grade", "synonyms": ["D4STR1-Test Grade"]}, {"conceptId": "C141704", "definition": "4-Stair Descend - If yes, time taken to do 4-stair descend.", "preferredTerm": "4-Stair Descend - Time to Do 4-Stair Descend", "submissionValue": "D4STR1-Time to Do 4-Stair Descend", "synonyms": ["D4STR1-Time to Do 4-Stair Descend"]}, {"conceptId": "C174104", "definition": "4-Stair Descend - Was the 4-stair descend performed?", "preferredTerm": "4-Stair Descend - Was 4-Stair Descend Performed", "submissionValue": "D4STR1-Was 4-Stair Descend Performed", "synonyms": ["D4STR1-Was 4-Stair Descend Performed"]}, {"conceptId": "C147591", "definition": "4-Stair Descend - If yes, did subject wear orthoses?", "preferredTerm": "4-Stair Descend - Wear Orthoses", "submissionValue": "D4STR1-Wear Orthoses", "synonyms": ["D4STR1-Wear Orthoses"]}]}