{"_links": {"parentPackage": {"href": "/mdr/ct/packages/sdtmct-2021-12-17", "title": "SDTM Controlled Terminology Package 48 Effective 2021-12-17", "type": "Terminology"}, "priorVersion": {"href": "/mdr/ct/packages/sdtmct-2021-09-24/codelists/C156673", "title": "CDISC Clinical Classification COVI Test Code Terminology", "type": "Code List"}, "rootItem": {"href": "/mdr/root/ct/sdtmct/codelists/C156673", "title": "Version-agnostic anchor resource for codelist C156673", "type": "Root Value Domain"}, "self": {"href": "/mdr/ct/packages/sdtmct-2021-12-17/codelists/C156673", "title": "CDISC Clinical Classification COVI Test Code Terminology", "type": "Code List"}}, "conceptId": "C156673", "definition": "Covi Anxiety Scale test code.", "extensible": "false", "name": "Covi Anxiety Scale Clinical Classification Test Code", "preferredTerm": "CDISC Clinical Classification COVI Test Code Terminology", "submissionValue": "COVI01TC", "synonyms": ["Covi Anxiety Scale Clinical Classification Test Code"], "terms": [{"conceptId": "C156676", "definition": "Covi Anxiety Scale - Verbal report.", "preferredTerm": "COVI - Verbal Report", "submissionValue": "COVI0101", "synonyms": ["COVI01-Verbal Report"]}, {"conceptId": "C156677", "definition": "Covi Anxiety Scale - Behavior.", "preferredTerm": "COVI - Behavior", "submissionValue": "COVI0102", "synonyms": ["COVI01-Behavior"]}, {"conceptId": "C156678", "definition": "Covi Anxiety Scale - Somatic symptoms of anxiety.", "preferredTerm": "COVI - Somatic Symptoms of Anxiety", "submissionValue": "COVI0103", "synonyms": ["COVI01-Somatic Symptoms of Anxiety"]}, {"conceptId": "C156679", "definition": "Covi Anxiety Scale - Total score.", "preferredTerm": "COVI - Total Score", "submissionValue": "COVI0104", "synonyms": ["COVI01-Total Score"]}]}