{"_links": {"parentPackage": {"href": "/mdr/ct/packages/sdtmct-2021-12-17", "title": "SDTM Controlled Terminology Package 48 Effective 2021-12-17", "type": "Terminology"}, "priorVersion": {"href": "/mdr/ct/packages/sdtmct-2021-09-24/codelists/C160926", "title": "CDISC SDTM FDA Technical Specification Response Terminology", "type": "Code List"}, "rootItem": {"href": "/mdr/root/ct/sdtmct/codelists/C160926", "title": "Version-agnostic anchor resource for codelist C160926", "type": "Root Value Domain"}, "self": {"href": "/mdr/ct/packages/sdtmct-2021-12-17/codelists/C160926", "title": "CDISC SDTM FDA Technical Specification Response Terminology", "type": "Code List"}}, "conceptId": "C160926", "definition": "Terminology relevant to the version of the FDA technical specification guide used in the study.", "extensible": "true", "name": "FDA Technical Specification Response", "preferredTerm": "CDISC SDTM FDA Technical Specification Response Terminology", "submissionValue": "FDATSRS", "synonyms": ["FDA Technical Specification Response"], "terms": [{"conceptId": "C161475", "definition": "Version 1.0 of the FDA Clinical Endpoint BE Studies Technical Specifications Guidance.", "preferredTerm": "US FDA Clinical Endpoint BE Studies v1.0", "submissionValue": "Clinical Endpoint BE Studies v1.0"}, {"conceptId": "C161473", "definition": "Version 1.0 of the FDA HIV Technical Specifications Guidance.", "preferredTerm": "US FDA HIV Technical Specifications Guidance v1.0", "submissionValue": "HIV Technical Specifications Guidance v1.0"}, {"conceptId": "C161476", "definition": "Version 4.2.1 of the FDA Study Data Technical Conformance Guide.", "preferredTerm": "US FDA Study Data Technical Conformance Guide v4.2.1", "submissionValue": "Study Data Technical Conformance Guide v4.2.1"}, {"conceptId": "C165874", "definition": "Version 4.3 of the FDA Study Data Technical Conformance Guide.", "preferredTerm": "FDA Study Data Technical Conformance Guide v4.3", "submissionValue": "Study Data Technical Conformance Guide v4.3"}, {"conceptId": "C170572", "definition": "Version 4.4 of the FDA Study Data Technical Conformance Guide.", "preferredTerm": "FDA Study Data Technical Conformance Guide v4.4", "submissionValue": "Study Data Technical Conformance Guide v4.4"}, {"conceptId": "C174287", "definition": "Version 4.5 of the FDA Study Data Technical Conformance Guide.", "preferredTerm": "Study Data Technical Conformance Guide v4.5", "submissionValue": "Study Data Technical Conformance Guide v4.5"}, {"conceptId": "C177946", "definition": "Version 4.5.1 of the FDA Study Data Technical Conformance Guide.", "preferredTerm": "Study Data Technical Conformance Guide v4.5.1", "submissionValue": "Study Data Technical Conformance Guide v4.5.1"}, {"conceptId": "C181322", "definition": "Version 4.6 of the FDA Study Data Technical Conformance Guide.", "preferredTerm": "Study Data Technical Conformance Guide v4.6", "submissionValue": "Study Data Technical Conformance Guide v4.6"}, {"conceptId": "C181323", "definition": "Version 4.7 of the FDA Study Data Technical Conformance Guide.", "preferredTerm": "Study Data Technical Conformance Guide v4.7", "submissionValue": "Study Data Technical Conformance Guide v4.7"}, {"conceptId": "C161474", "definition": "Version 1.0 of the FDA Vaccines Technical Specifications Guidance.", "preferredTerm": "US FDA Vaccines Technical Specification Guidance v1.0", "submissionValue": "Vaccines Technical Specification Guidance v1.0"}]}