{"_links": {"parentPackage": {"href": "/mdr/ct/packages/sdtmct-2021-12-17", "title": "SDTM Controlled Terminology Package 48 Effective 2021-12-17", "type": "Terminology"}, "priorVersion": {"href": "/mdr/ct/packages/sdtmct-2021-09-24/codelists/C163397", "title": "CDISC Questionnaire PARTNER-DDS Test Code Terminology", "type": "Code List"}, "rootItem": {"href": "/mdr/root/ct/sdtmct/codelists/C163397", "title": "Version-agnostic anchor resource for codelist C163397", "type": "Root Value Domain"}, "self": {"href": "/mdr/ct/packages/sdtmct-2021-12-17/codelists/C163397", "title": "CDISC Questionnaire PARTNER-DDS Test Code Terminology", "type": "Code List"}}, "conceptId": "C163397", "definition": "Diabetes Distress Scale for Partners of Adults with Type 1 Diabetes test code.", "extensible": "false", "name": "Diabetes Distress Scale for Partners of Adults with Type 1 Diabetes Questionnaire Test Code", "preferredTerm": "CDISC Questionnaire PARTNER-DDS Test Code Terminology", "submissionValue": "DDS03TC", "synonyms": ["Diabetes Distress Scale for Partners of Adults with Type 1 Diabetes Questionnaire Test Code"], "terms": [{"conceptId": "C163905", "definition": "Diabetes Distress Scale for Partners of Adults with Type 1 Diabetes - During the past month, I have been: Worrying about my partner's low blood sugars.", "preferredTerm": "PARTNER-DDS - Worry About Low Blood Sugars", "submissionValue": "DDS0301", "synonyms": ["DDS03-Worry About Low Blood Sugars"]}, {"conceptId": "C163906", "definition": "Diabetes Distress Scale for Partners of Adults with Type 1 Diabetes - During the past month, I have been: Feeling unclear about exactly how much I should be involved in managing my partner's diabetes.", "preferredTerm": "PARTNER-DDS - How Involved Managing Diabetes", "submissionValue": "DDS0302", "synonyms": ["DDS03-How Involved Managing Diabetes"]}, {"conceptId": "C163907", "definition": "Diabetes Distress Scale for Partners of Adults with Type 1 Diabetes - During the past month, I have been: Frustrated that my partner shuts me out of his/her diabetes.", "preferredTerm": "PARTNER-DDS - Partner Shuts Me Out", "submissionValue": "DDS0303", "synonyms": ["DDS03-Partner Shuts Me Out"]}, {"conceptId": "C163908", "definition": "Diabetes Distress Scale for Partners of Adults with Type 1 Diabetes - During the past month, I have been: Feeling that my partner doesn't try hard enough to manage his/her diabetes.", "preferredTerm": "PARTNER-DDS - Partner Doesn't Try Hard Enough", "submissionValue": "DDS0304", "synonyms": ["DDS03-Partner Doesn't Try Hard Enough"]}, {"conceptId": "C163909", "definition": "Diabetes Distress Scale for Partners of Adults with Type 1 Diabetes - During the past month, I have been: Feeling overwhelmed by the constant demands of my partner's diabetes.", "preferredTerm": "PARTNER-DDS - Overwhelmed by Constant Demands", "submissionValue": "DDS0305", "synonyms": ["DDS03-Overwhelmed by Constant Demands"]}, {"conceptId": "C163910", "definition": "Diabetes Distress Scale for Partners of Adults with Type 1 Diabetes - During the past month, I have been: Worrying that don't know how to best help my partner manage diabetes.", "preferredTerm": "PARTNER-DDS - How to Best Help Partner Manage", "submissionValue": "DDS0306", "synonyms": ["DDS03-How to Best Help Partner Manage"]}, {"conceptId": "C163911", "definition": "Diabetes Distress Scale for Partners of Adults with Type 1 Diabetes - During the past month, I have been: Feeling that I stay silent about my partner's diabetes more than I really should.", "preferredTerm": "PARTNER-DDS - Silent About My Partner's Diabetes", "submissionValue": "DDS0307", "synonyms": ["DDS03-Silent About My Partner's Diabetes"]}, {"conceptId": "C163912", "definition": "Diabetes Distress Scale for Partners of Adults with Type 1 Diabetes - During the past month, I have been: Feeling that diabetes is taking up too much of my mental and physical energy every day.", "preferredTerm": "PARTNER-DDS - Taking Too Much of My Energy", "submissionValue": "DDS0308", "synonyms": ["DDS03-Taking Too Much of My Energy"]}, {"conceptId": "C163913", "definition": "Diabetes Distress Scale for Partners of Adults with Type 1 Diabetes - During the past month, I have been: Feeling that no one notices that diabetes is hard on me, not just on my partner.", "preferredTerm": "PARTNER-DDS - No One Notices Diabetes Hard On Me", "submissionValue": "DDS0309", "synonyms": ["DDS03-No One Notices Diabetes Hard On Me"]}, {"conceptId": "C163914", "definition": "Diabetes Distress Scale for Partners of Adults with Type 1 Diabetes - During the past month, I have been: Frustrated that the more I try to help my partner manage his/her diabetes, the worse things get between us.", "preferredTerm": "PARTNER-DDS - More I Try The Worse Things Get", "submissionValue": "DDS0310", "synonyms": ["DDS03-More I Try The Worse Things Get"]}, {"conceptId": "C163915", "definition": "Diabetes Distress Scale for Partners of Adults with Type 1 Diabetes - During the past month, I have been: Feeling guilty about not doing enough to help my partner with diabetes.", "preferredTerm": "PARTNER-DDS - Guilty Not Doing Enough to Help", "submissionValue": "DDS0311", "synonyms": ["DDS03-Guilty Not Doing Enough to Help"]}, {"conceptId": "C163916", "definition": "Diabetes Distress Scale for Partners of Adults with Type 1 Diabetes - During the past month, I have been: Frustrated that I can't get my partner to improve his/her attitude about diabetes.", "preferredTerm": "PARTNER-DDS - Can't Get Partner Improve Attitude", "submissionValue": "DDS0312", "synonyms": ["DDS03-Can't Get Partner Improve Attitude"]}, {"conceptId": "C163917", "definition": "Diabetes Distress Scale for Partners of Adults with Type 1 Diabetes - During the past month, I have been: Worrying that I am failing to help my partner manage diabetes more successfully.", "preferredTerm": "PARTNER-DDS - Failing to Help Partner Manage", "submissionValue": "DDS0313", "synonyms": ["DDS03-Failing to Help Partner Manage"]}, {"conceptId": "C163918", "definition": "Diabetes Distress Scale for Partners of Adults with Type 1 Diabetes - During the past month, I have been: Feeling that trying to help my partner with his/her diabetes is always a battle.", "preferredTerm": "PARTNER-DDS - Help My Partner Always a Battle", "submissionValue": "DDS0314", "synonyms": ["DDS03-Help My Partner Always a Battle"]}, {"conceptId": "C163919", "definition": "Diabetes Distress Scale for Partners of Adults with Type 1 Diabetes - During the past month, I have been: Frustrated because my partner ignores my suggestions about diabetes.", "preferredTerm": "PARTNER-DDS - Partner Ignores My Suggestions", "submissionValue": "DDS0315", "synonyms": ["DDS03-Partner Ignores My Suggestions"]}, {"conceptId": "C163920", "definition": "Diabetes Distress Scale for Partners of Adults with Type 1 Diabetes - During the past month, I have been: Frustrated that diabetes often interrupts our plans.", "preferredTerm": "PARTNER-DDS - Diabetes Often Interrupts Plans", "submissionValue": "DDS0316", "synonyms": ["DDS03-Diabetes Often Interrupts Plans"]}, {"conceptId": "C163921", "definition": "Diabetes Distress Scale for Partners of Adults with Type 1 Diabetes - During the past month, I have been: Worrying about my partner's low blood sugars when he/she is sleeping.", "preferredTerm": "PARTNER-DDS - Low Blood Sugars When Sleeping", "submissionValue": "DDS0317", "synonyms": ["DDS03-Low Blood Sugars When Sleeping"]}, {"conceptId": "C163922", "definition": "Diabetes Distress Scale for Partners of Adults with Type 1 Diabetes - During the past month, I have been: Worrying about my partner's driving because of possible low blood sugars.", "preferredTerm": "PARTNER-DDS - Partner Driving Low Blood Sugars", "submissionValue": "DDS0318", "synonyms": ["DDS03-Partner Driving Low Blood Sugars"]}, {"conceptId": "C163923", "definition": "Diabetes Distress Scale for Partners of Adults with Type 1 Diabetes - During the past month, I have been: Worrying about leaving my partner alone because of the possible danger of low blood sugars.", "preferredTerm": "PARTNER-DDS - Leaving Alone Low Blood Sugars", "submissionValue": "DDS0319", "synonyms": ["DDS03-Leaving Alone Low Blood Sugars"]}, {"conceptId": "C163924", "definition": "Diabetes Distress Scale for Partners of Adults with Type 1 Diabetes - During the past month, I have been: Concerned that my partner and I are not working well together when it comes to diabetes.", "preferredTerm": "PARTNER-DDS - Not Working Well Together", "submissionValue": "DDS0320", "synonyms": ["DDS03-Not Working Well Together"]}, {"conceptId": "C163925", "definition": "Diabetes Distress Scale for Partners of Adults with Type 1 Diabetes - During the past month, I have been: Feeling that I never get a break from worrying about my partner's diabetes.", "preferredTerm": "PARTNER-DDS - Never Get a Break From Worrying", "submissionValue": "DDS0321", "synonyms": ["DDS03-Never Get a Break From Worrying"]}, {"conceptId": "C163926", "definition": "Diabetes Distress Scale for Partners of Adults with Type 1 Diabetes - Total DDS score: Sum of 21 item scores.", "preferredTerm": "PARTNER-DDS - Total DDS Score: Sum", "submissionValue": "DDS0322", "synonyms": ["DDS03-Total DDS Score: Sum"]}, {"conceptId": "C163927", "definition": "Diabetes Distress Scale for Partners of Adults with Type 1 Diabetes - Total DDS score: Mean item score.", "preferredTerm": "PARTNER-DDS - Total DDS Score: Mean", "submissionValue": "DDS0323", "synonyms": ["DDS03-Total DDS Score: Mean"]}, {"conceptId": "C163928", "definition": "Diabetes Distress Scale for Partners of Adults with Type 1 Diabetes - Total DDS score: Moderate distress or greater? (mean score > 2).", "preferredTerm": "PARTNER-DDS - Total DDS Score: Moderate", "submissionValue": "DDS0324", "synonyms": ["DDS03-Total DDS Score: Moderate"]}, {"conceptId": "C163929", "definition": "Diabetes Distress Scale for Partners of Adults with Type 1 Diabetes - My partner's diabetes management: Sum of 7 items (3, 4, 10, 12, 14, 15, 20).", "preferredTerm": "PARTNER-DDS - Partner Diabetes Management: Sum", "submissionValue": "DDS0325", "synonyms": ["DDS03-Partner Diabetes Management: Sum"]}, {"conceptId": "C163930", "definition": "Diabetes Distress Scale for Partners of Adults with Type 1 Diabetes - My partner's diabetes management: Mean item score.", "preferredTerm": "PARTNER-DDS - Partner Diabetes Management: Mean", "submissionValue": "DDS0326", "synonyms": ["DDS03-Partner Diabetes Management: Mean"]}, {"conceptId": "C163931", "definition": "Diabetes Distress Scale for Partners of Adults with Type 1 Diabetes - My partner's diabetes management: Moderate distress or greater? (mean score > 2).", "preferredTerm": "PARTNER-DDS - Partner Diabetes Manage: Moderate", "submissionValue": "DDS0327", "synonyms": ["DDS03-Partner Diabetes Manage: Moderate"]}, {"conceptId": "C163932", "definition": "Diabetes Distress Scale for Partners of Adults with Type 1 Diabetes - How best to help: Sum of 5 items (2, 6, 7, 11, 13).", "preferredTerm": "PARTNER-DDS - How Best to Help: Sum", "submissionValue": "DDS0328", "synonyms": ["DDS03-How Best to Help: Sum"]}, {"conceptId": "C163933", "definition": "Diabetes Distress Scale for Partners of Adults with Type 1 Diabetes - How best to help: Mean item score.", "preferredTerm": "PARTNER-DDS - How Best to Help: Mean", "submissionValue": "DDS0329", "synonyms": ["DDS03-How Best to Help: Mean"]}, {"conceptId": "C163934", "definition": "Diabetes Distress Scale for Partners of Adults with Type 1 Diabetes - How best to help: Moderate distress or greater? (mean score > 2).", "preferredTerm": "PARTNER-DDS - How Best to Help: Moderate", "submissionValue": "DDS0330", "synonyms": ["DDS03-How Best to Help: Moderate"]}, {"conceptId": "C163935", "definition": "Diabetes Distress Scale for Partners of Adults with Type 1 Diabetes - Diabetes and me: Sum of 5 items (5, 8, 9, 16, 21).", "preferredTerm": "PARTNER-DDS - Diabetes and Me: Sum", "submissionValue": "DDS0331", "synonyms": ["DDS03-Diabetes and Me: Sum"]}, {"conceptId": "C163936", "definition": "Diabetes Distress Scale for Partners of Adults with Type 1 Diabetes - Diabetes and me: Mean item score.", "preferredTerm": "PARTNER-DDS - Diabetes and Me: Mean", "submissionValue": "DDS0332", "synonyms": ["DDS03-Diabetes and Me: Mean"]}, {"conceptId": "C163937", "definition": "Diabetes Distress Scale for Partners of Adults with Type 1 Diabetes - Diabetes and me: Moderate distress or greater? (mean score > 2).", "preferredTerm": "PARTNER-DDS - Diabetes and Me: Moderate", "submissionValue": "DDS0333", "synonyms": ["DDS03-Diabetes and Me: Moderate"]}, {"conceptId": "C163938", "definition": "Diabetes Distress Scale for Partners of Adults with Type 1 Diabetes - Hypoglycemia: Sum of 4 items (1, 17, 18, 19).", "preferredTerm": "PARTNER-DDS - Hypoglycemia: Sum", "submissionValue": "DDS0334", "synonyms": ["DDS03-Hypoglycemia: Sum"]}, {"conceptId": "C163939", "definition": "Diabetes Distress Scale for Partners of Adults with Type 1 Diabetes - Hypoglycemia: Mean item score.", "preferredTerm": "PARTNER-DDS - Hypoglycemia: Mean", "submissionValue": "DDS0335", "synonyms": ["DDS03-Hypoglycemia: Mean"]}, {"conceptId": "C163940", "definition": "Diabetes Distress Scale for Partners of Adults with Type 1 Diabetes - Hypoglycemia: Moderate distress or greater? (mean score > 2).", "preferredTerm": "PARTNER-DDS - Hypoglycemia: Moderate", "submissionValue": "DDS0336", "synonyms": ["DDS03-Hypoglycemia: Moderate"]}]}