{"_links": {"parentPackage": {"href": "/mdr/ct/packages/sdtmct-2021-12-17", "title": "SDTM Controlled Terminology Package 48 Effective 2021-12-17", "type": "Terminology"}, "priorVersion": {"href": "/mdr/ct/packages/sdtmct-2021-09-24/codelists/C165643", "title": "CDISC SDTM Severity Response Terminology", "type": "Code List"}, "rootItem": {"href": "/mdr/root/ct/sdtmct/codelists/C165643", "title": "Version-agnostic anchor resource for codelist C165643", "type": "Root Value Domain"}, "self": {"href": "/mdr/ct/packages/sdtmct-2021-12-17/codelists/C165643", "title": "CDISC SDTM Severity Response Terminology", "type": "Code List"}}, "conceptId": "C165643", "definition": "Terminology relevant to a severity scale that describes the degree or intensity of a notable event or finding.", "extensible": "true", "name": "Severity Response", "preferredTerm": "CDISC SDTM Severity Response Terminology", "submissionValue": "SEVRS", "synonyms": ["Severity Response"], "terms": [{"conceptId": "C70666", "definition": "Slight or minor in degree, quality or extent.", "preferredTerm": "Mild", "submissionValue": "MILD"}, {"conceptId": "C61376", "definition": "Middling or intermediate in degree, quality or extent.", "preferredTerm": "Moderate", "submissionValue": "MODERATE"}, {"conceptId": "C70667", "definition": "Intensely bad or major in degree, quality or extent.", "preferredTerm": "Severe", "submissionValue": "SEVERE"}, {"conceptId": "C17998", "definition": "Not known, not observed, not recorded, or refused. (NCI)", "preferredTerm": "Unknown", "submissionValue": "U", "synonyms": ["U", "UNK", "Unknown"]}]}