{"_links": {"parentPackage": {"href": "/mdr/ct/packages/sdtmct-2021-12-17", "title": "SDTM Controlled Terminology Package 48 Effective 2021-12-17", "type": "Terminology"}, "priorVersion": {"href": "/mdr/ct/packages/sdtmct-2021-09-24/codelists/C166184", "title": "CDISC Questionnaire FACT-COG Version 3 Test Code Terminology", "type": "Code List"}, "rootItem": {"href": "/mdr/root/ct/sdtmct/codelists/C166184", "title": "Version-agnostic anchor resource for codelist C166184", "type": "Root Value Domain"}, "self": {"href": "/mdr/ct/packages/sdtmct-2021-12-17/codelists/C166184", "title": "CDISC Questionnaire FACT-COG Version 3 Test Code Terminology", "type": "Code List"}}, "conceptId": "C166184", "definition": "Functional Assessment of Cancer Therapy-Cognitive Function Version 3 test code.", "extensible": "false", "name": "Functional Assessment of Cancer Therapy-Cognitive Function Version 3 Questionnaire Test Code", "preferredTerm": "CDISC Questionnaire FACT-COG Version 3 Test Code Terminology", "submissionValue": "FAC075TC", "synonyms": ["Functional Assessment of Cancer Therapy-Cognitive Function Version 3 Questionnaire Test Code"], "terms": [{"conceptId": "C166280", "definition": "Functional Assessment of Cancer Therapy-Cognitive Function Version 3 - Perceived Cognitive Impairments: I have had trouble forming thoughts.", "preferredTerm": "FACT-COG Version 3 - I Have Trouble Forming Thoughts", "submissionValue": "FAC07501", "synonyms": ["FAC075-I Have Trouble Forming Thoughts"]}, {"conceptId": "C166281", "definition": "Functional Assessment of Cancer Therapy-Cognitive Function Version 3 - Perceived Cognitive Impairments: My thinking has been slow.", "preferredTerm": "FACT-COG Version 3 - My Thinking Has Been Slow", "submissionValue": "FAC07502", "synonyms": ["FAC075-My Thinking Has Been Slow"]}, {"conceptId": "C166282", "definition": "Functional Assessment of Cancer Therapy-Cognitive Function Version 3 - Perceived Cognitive Impairments: I have had trouble concentrating.", "preferredTerm": "FACT-COG Version 3 - I Have Had Trouble Concentrating", "submissionValue": "FAC07503", "synonyms": ["FAC075-I Have Had Trouble Concentrating"]}, {"conceptId": "C166283", "definition": "Functional Assessment of Cancer Therapy-Cognitive Function Version 3 - Perceived Cognitive Impairments: I have had trouble finding my way to a familiar place.", "preferredTerm": "FACT-COG Version 3 - Trouble Finding Familiar Place", "submissionValue": "FAC07504", "synonyms": ["FAC075-Trouble Finding Familiar Place"]}, {"conceptId": "C166284", "definition": "Functional Assessment of Cancer Therapy-Cognitive Function Version 3 - Perceived Cognitive Impairments: I have had trouble remembering where I put things, like my keys or my wallet.", "preferredTerm": "FACT-COG Version 3 - Trouble Remember Where Put Things", "submissionValue": "FAC07505", "synonyms": ["FAC075-Trouble Remember Where Put Things"]}, {"conceptId": "C166285", "definition": "Functional Assessment of Cancer Therapy-Cognitive Function Version 3 - Perceived Cognitive Impairments: I have had trouble remembering new information, like phone numbers or simple instructions.", "preferredTerm": "FACT-COG Version 3 - Trouble Remembering New Info", "submissionValue": "FAC07506", "synonyms": ["FAC075-Trouble Remembering New Info"]}, {"conceptId": "C166286", "definition": "Functional Assessment of Cancer Therapy-Cognitive Function Version 3 - Perceived Cognitive Impairments: I have had trouble recalling the name of an object while talking to someone.", "preferredTerm": "FACT-COG Version 3 - Trouble Recalling Name of Object", "submissionValue": "FAC07507", "synonyms": ["FAC075-Trouble Recalling Name of Object"]}, {"conceptId": "C166287", "definition": "Functional Assessment of Cancer Therapy-Cognitive Function Version 3 - Perceived Cognitive Impairments: I have had trouble finding the right word(s) to express myself.", "preferredTerm": "FACT-COG Version 3 - Trouble Finding Right Words", "submissionValue": "FAC07508", "synonyms": ["FAC075-Trouble Finding Right Words"]}, {"conceptId": "C166288", "definition": "Functional Assessment of Cancer Therapy-Cognitive Function Version 3 - Perceived Cognitive Impairments: I have used the wrong word when I referred to an object.", "preferredTerm": "FACT-COG Version 3 - Used Wrong Word When Refer Object", "submissionValue": "FAC07509", "synonyms": ["FAC075-Used Wrong Word When Refer Object"]}, {"conceptId": "C166289", "definition": "Functional Assessment of Cancer Therapy-Cognitive Function Version 3 - Perceived Cognitive Impairments: I have had trouble saying what I mean in conversations with others.", "preferredTerm": "FACT-COG Version 3 - Trouble Saying What I Mean", "submissionValue": "FAC07510", "synonyms": ["FAC075-Trouble Saying What I Mean"]}, {"conceptId": "C166290", "definition": "Functional Assessment of Cancer Therapy-Cognitive Function Version 3 - Perceived Cognitive Impairments: I have walked into a room and forgotten what I meant to get or do there.", "preferredTerm": "FACT-COG Version 3 - Walked Into a Room and Forgotten", "submissionValue": "FAC07511", "synonyms": ["FAC075-Walked Into a Room and Forgotten"]}, {"conceptId": "C166291", "definition": "Functional Assessment of Cancer Therapy-Cognitive Function Version 3 - Perceived Cognitive Impairments: I have had to work really hard to pay attention or I would make a mistake.", "preferredTerm": "FACT-COG Version 3 - Work Hard to Pay Attention", "submissionValue": "FAC07512", "synonyms": ["FAC075-Work Hard to Pay Attention"]}, {"conceptId": "C166292", "definition": "Functional Assessment of Cancer Therapy-Cognitive Function Version 3 - Perceived Cognitive Impairments: I have forgotten names of people soon after being introduced.", "preferredTerm": "FACT-COG Version 3 - Forgotten Names After Introduced", "submissionValue": "FAC07513", "synonyms": ["FAC075-Forgotten Names After Introduced"]}, {"conceptId": "C166293", "definition": "Functional Assessment of Cancer Therapy-Cognitive Function Version 3 - Perceived Cognitive Impairments: My reactions in everyday situations have been slow.", "preferredTerm": "FACT-COG Version 3 - Reaction Everyday Situations Slow", "submissionValue": "FAC07514", "synonyms": ["FAC075-Reaction Everyday Situations Slow"]}, {"conceptId": "C166294", "definition": "Functional Assessment of Cancer Therapy-Cognitive Function Version 3 - Perceived Cognitive Impairments: I have had to work harder than usual to keep track of what I was doing.", "preferredTerm": "FACT-COG Version 3 - Work Harder Than Usual to Track", "submissionValue": "FAC07515", "synonyms": ["FAC075-Work Harder Than Usual to Track"]}, {"conceptId": "C166295", "definition": "Functional Assessment of Cancer Therapy-Cognitive Function Version 3 - Perceived Cognitive Impairments: My thinking has been slower than usual.", "preferredTerm": "FACT-COG Version 3 - My Thinking Slower Than Usual", "submissionValue": "FAC07516", "synonyms": ["FAC075-My Thinking Slower Than Usual"]}, {"conceptId": "C166296", "definition": "Functional Assessment of Cancer Therapy-Cognitive Function Version 3 - Perceived Cognitive Impairments: I have had to work harder than usual to express myself clearly.", "preferredTerm": "FACT-COG Version 3 - Work Harder Than Usual to Express", "submissionValue": "FAC07517", "synonyms": ["FAC075-Work Harder Than Usual to Express"]}, {"conceptId": "C166297", "definition": "Functional Assessment of Cancer Therapy-Cognitive Function Version 3 - Perceived Cognitive Impairments: I have had to use written lists more often than usual so I would not forget things.", "preferredTerm": "FACT-COG Version 3 - Use Written Lists More Often", "submissionValue": "FAC07518", "synonyms": ["FAC075-Use Written Lists More Often"]}, {"conceptId": "C166298", "definition": "Functional Assessment of Cancer Therapy-Cognitive Function Version 3 - Perceived Cognitive Impairments: I have trouble keeping track of what I am doing if I am interrupted.", "preferredTerm": "FACT-COG Version 3 - Trouble Keeping Track Interrupted", "submissionValue": "FAC07519", "synonyms": ["FAC075-Trouble Keeping Track Interrupted"]}, {"conceptId": "C166299", "definition": "Functional Assessment of Cancer Therapy-Cognitive Function Version 3 - Perceived Cognitive Impairments: I have trouble shifting back and forth between different activities that require thinking.", "preferredTerm": "FACT-COG Version 3 - Trouble Shifting Back and Forth", "submissionValue": "FAC07520", "synonyms": ["FAC075-Trouble Shifting Back and Forth"]}, {"conceptId": "C166300", "definition": "Functional Assessment of Cancer Therapy-Cognitive Function Version 3 - Comments From Others: Other people have told me I seemed to have trouble remembering information.", "preferredTerm": "FACT-COG Version 3 - Told Me Trouble Remembering Info", "submissionValue": "FAC07521", "synonyms": ["FAC075-Told Me Trouble Remembering Info"]}, {"conceptId": "C166301", "definition": "Functional Assessment of Cancer Therapy-Cognitive Function Version 3 - Comments From Others: Other people have told me I seemed to have trouble speaking clearly.", "preferredTerm": "FACT-COG Version 3 - Told Me Trouble Speaking Clearly", "submissionValue": "FAC07522", "synonyms": ["FAC075-Told Me Trouble Speaking Clearly"]}, {"conceptId": "C166302", "definition": "Functional Assessment of Cancer Therapy-Cognitive Function Version 3 - Comments From Others: Other people have told me I seemed to have trouble thinking clearly.", "preferredTerm": "FACT-COG Version 3 - Told Me Trouble Thinking Clearly", "submissionValue": "FAC07523", "synonyms": ["FAC075-Told Me Trouble Thinking Clearly"]}, {"conceptId": "C166303", "definition": "Functional Assessment of Cancer Therapy-Cognitive Function Version 3 - Comments From Others: Other people have told me I seemed confused.", "preferredTerm": "FACT-COG Version 3 - People Told Me I Seemed Confused", "submissionValue": "FAC07524", "synonyms": ["FAC075-People Told Me I Seemed Confused"]}, {"conceptId": "C166304", "definition": "Functional Assessment of Cancer Therapy-Cognitive Function Version 3 - Perceived Cognitive Abilities: I have been able to concentrate.", "preferredTerm": "FACT-COG Version 3 - I Have Been Able to Concentrate", "submissionValue": "FAC07525", "synonyms": ["FAC075-I Have Been Able to Concentrate"]}, {"conceptId": "C166305", "definition": "Functional Assessment of Cancer Therapy-Cognitive Function Version 3 - Perceived Cognitive Abilities: I have been able to bring to mind words that I wanted to use while talking to someone.", "preferredTerm": "FACT-COG Version 3 - Able to Bring to Mind Words", "submissionValue": "FAC07526", "synonyms": ["FAC075-Able to Bring to Mind Words"]}, {"conceptId": "C166306", "definition": "Functional Assessment of Cancer Therapy-Cognitive Function Version 3 - Perceived Cognitive Abilities: I have been able to remember things, like where I left my keys or wallet.", "preferredTerm": "FACT-COG Version 3 - Able Remember Things Where Left", "submissionValue": "FAC07527", "synonyms": ["FAC075-Able Remember Things Where Left"]}, {"conceptId": "C166307", "definition": "Functional Assessment of Cancer Therapy-Cognitive Function Version 3 - Perceived Cognitive Abilities: I have been able to remember to do things, like take medicine or buy something I needed.", "preferredTerm": "FACT-COG Version 3 - Able Remember to Do Things", "submissionValue": "FAC07528", "synonyms": ["FAC075-Able Remember to Do Things"]}, {"conceptId": "C166308", "definition": "Functional Assessment of Cancer Therapy-Cognitive Function Version 3 - Perceived Cognitive Abilities: I am able to pay attention and keep track of what I am doing without extra effort.", "preferredTerm": "FACT-COG Version 3 - Able to Pay Attention Without Effort", "submissionValue": "FAC07529", "synonyms": ["FAC075-Able to Pay Attention w/o Effort"]}, {"conceptId": "C166309", "definition": "Functional Assessment of Cancer Therapy-Cognitive Function Version 3 - Perceived Cognitive Abilities: My mind is as sharp as it has always been.", "preferredTerm": "FACT-COG Version 3 - Mind Is as Sharp as Always Been", "submissionValue": "FAC07530", "synonyms": ["FAC075-Mind Is as Sharp as Always Been"]}, {"conceptId": "C166310", "definition": "Functional Assessment of Cancer Therapy-Cognitive Function Version 3 - Perceived Cognitive Abilities: My memory is as good as it has always been.", "preferredTerm": "FACT-COG Version 3 - Memory Is as Good as Always Been", "submissionValue": "FAC07531", "synonyms": ["FAC075-Memory Is as Good as Always Been"]}, {"conceptId": "C166311", "definition": "Functional Assessment of Cancer Therapy-Cognitive Function Version 3 - Perceived Cognitive Abilities: I am able to shift back and forth between two activities that require thinking.", "preferredTerm": "FACT-COG Version 3 - Able to Shift Between Activities", "submissionValue": "FAC07532", "synonyms": ["FAC075-Able to Shift Between Activities"]}, {"conceptId": "C166312", "definition": "Functional Assessment of Cancer Therapy-Cognitive Function Version 3 - Perceived Cognitive Abilities: I am able to keep track of what I am doing, even if I am interrupted.", "preferredTerm": "FACT-COG Version 3 - Able to Track What I Am Doing", "submissionValue": "FAC07533", "synonyms": ["FAC075-Able to Track What I Am Doing"]}, {"conceptId": "C166313", "definition": "Functional Assessment of Cancer Therapy-Cognitive Function Version 3 - Impact on Quality of Life: I have been upset about these problems.", "preferredTerm": "FACT-COG Version 3 - Been Upset about These Problems", "submissionValue": "FAC07534", "synonyms": ["FAC075-Been Upset about These Problems"]}, {"conceptId": "C166314", "definition": "Functional Assessment of Cancer Therapy-Cognitive Function Version 3 - Impact on Quality of Life: These problems have interfered with my ability to work.", "preferredTerm": "FACT-COG Version 3 - Problems Interfered Ability Work", "submissionValue": "FAC07535", "synonyms": ["FAC075-Problems Interfered Ability Work"]}, {"conceptId": "C166315", "definition": "Functional Assessment of Cancer Therapy-Cognitive Function Version 3 - Impact on Quality of Life: These problems have interfered with my ability to do things I enjoy.", "preferredTerm": "FACT-COG Version 3 - Problems Interfered Ability Enjoy", "submissionValue": "FAC07536", "synonyms": ["FAC075-Problems Interfered Ability Enjoy"]}, {"conceptId": "C166316", "definition": "Functional Assessment of Cancer Therapy-Cognitive Function Version 3 - Impact on Quality of Life: These problems have interfered with the quality of my life.", "preferredTerm": "FACT-COG Version 3 - Problems Interfered Quality Life", "submissionValue": "FAC07537", "synonyms": ["FAC075-Problems Interfered Quality Life"]}, {"conceptId": "C166317", "definition": "Functional Assessment of Cancer Therapy-Cognitive Function Version 3 - Perceived Cognitive Impairments: Subscale score.", "preferredTerm": "FACT-COG Version 3 - Cognitive Impairments Score", "submissionValue": "FAC07538", "synonyms": ["FAC075-Cognitive Impairments Score"]}, {"conceptId": "C166318", "definition": "Functional Assessment of Cancer Therapy-Cognitive Function Version 3 - Comments From Others: Subscale score.", "preferredTerm": "FACT-COG Version 3 - Comments From Others Score", "submissionValue": "FAC07539", "synonyms": ["FAC075-Comments From Others Score"]}, {"conceptId": "C166319", "definition": "Functional Assessment of Cancer Therapy-Cognitive Function Version 3 - Perceived Cognitive Abilities: Subscale score.", "preferredTerm": "FACT-COG Version 3 - Cognitive Abilities Score", "submissionValue": "FAC07540", "synonyms": ["FAC075-Cognitive Abilities Score"]}, {"conceptId": "C166320", "definition": "Functional Assessment of Cancer Therapy-Cognitive Function Version 3 - Impact on Quality of Life: Subscale score.", "preferredTerm": "FACT-COG Version 3 - Impact on Quality of Life Score", "submissionValue": "FAC07541", "synonyms": ["FAC075-Impact on Quality of Life Score"]}]}