{"_links": {"parentPackage": {"href": "/mdr/ct/packages/sdtmct-2021-12-17", "title": "SDTM Controlled Terminology Package 48 Effective 2021-12-17", "type": "Terminology"}, "priorVersion": {"href": "/mdr/ct/packages/sdtmct-2021-09-24/codelists/C177714", "title": "CDISC Questionnaire SF12 v1.0 Acute Test Code Terminology", "type": "Code List"}, "rootItem": {"href": "/mdr/root/ct/sdtmct/codelists/C177714", "title": "Version-agnostic anchor resource for codelist C177714", "type": "Root Value Domain"}, "self": {"href": "/mdr/ct/packages/sdtmct-2021-12-17/codelists/C177714", "title": "CDISC Questionnaire SF12 v1.0 Acute Test Code Terminology", "type": "Code List"}}, "conceptId": "C177714", "definition": "Short Form 12 Health Survey Acute, US Version 1.0 test code.", "extensible": "false", "name": "Short Form 12 Health Survey Acute, US Version 1.0 Questionnaire Test Code", "preferredTerm": "CDISC Questionnaire SF12 v1.0 Acute Test Code Terminology", "submissionValue": "SF122TC", "synonyms": ["Short Form 12 Health Survey Acute, US Version 1.0 Questionnaire Test Code"], "terms": [{"conceptId": "C177847", "definition": "The Short Form 12 Health Survey Acute, US Version 1.0 - In general, would you say your health is.", "preferredTerm": "SF12 v1.0 Acute - In General You Say Your Health Is", "submissionValue": "SF12201", "synonyms": ["SF122-In General You Say Your Health Is"]}, {"conceptId": "C177848", "definition": "The Short Form 12 Health Survey Acute, US Version 1.0 - How much does your health now limit you in - moderate activities, such as moving a table, pushing a vacuum cleaner, bowling, or playing golf.", "preferredTerm": "SF12 v1.0 Acute - Limit Moderate Activities", "submissionValue": "SF12202A", "synonyms": ["SF122-Limit Moderate Activities"]}, {"conceptId": "C177849", "definition": "The Short Form 12 Health Survey Acute, US Version 1.0 - How much does your health now limit you in - climbing several flights of stairs.", "preferredTerm": "SF12 v1.0 Acute - Limit Climbing Several Flights", "submissionValue": "SF12202B", "synonyms": ["SF122-Limit Climbing Several Flights"]}, {"conceptId": "C177850", "definition": "The Short Form 12 Health Survey Acute, US Version 1.0 - During the past week, have you had any of the following problems with your work or other regular daily activities as a result of your physical health - accomplished less than you would like.", "preferredTerm": "SF12 v1.0 Acute - Physical: Accomplished Less", "submissionValue": "SF12203A", "synonyms": ["SF122-Physical: Accomplished Less"]}, {"conceptId": "C177851", "definition": "The Short Form 12 Health Survey Acute, US Version 1.0 - During the past week, have you had any of the following problems with your work or other regular daily activities as a result of your physical health - were limited in the kind of work or other activities.", "preferredTerm": "SF12 v1.0 Acute - Physical: Limited Kind of Work", "submissionValue": "SF12203B", "synonyms": ["SF122-Physical: Limited Kind of Work"]}, {"conceptId": "C177852", "definition": "The Short Form 12 Health Survey Acute, US Version 1.0 - During the past week, have you had any of the following problems with your work or other regular daily activities as a result of any emotional problems (such as feeling depressed or anxious) - accomplished less than you would like.", "preferredTerm": "SF12 v1.0 Acute - Emotional: Accomplished Less", "submissionValue": "SF12204A", "synonyms": ["SF122-Emotional: Accomplished Less"]}, {"conceptId": "C177853", "definition": "The Short Form 12 Health Survey Acute, US Version 1.0 - During the past week, have you had any of the following problems with your work or other regular daily activities as a result of any emotional problems (such as feeling depressed or anxious) - did work or other activities less carefully than usual.", "preferredTerm": "SF12 v1.0 Acute - Emotional: Did Work Less Carefully", "submissionValue": "SF12204B", "synonyms": ["SF122-Emotional: Did Work Less Carefully"]}, {"conceptId": "C177854", "definition": "The Short Form 12 Health Survey Acute, US Version 1.0 - During the past week, how much did pain interfere with your normal work (including both work outside the home and housework)?", "preferredTerm": "SF12 v1.0 Acute - Pain Interfere With Normal Work", "submissionValue": "SF12205", "synonyms": ["SF122-Pain Interfere With Normal Work"]}, {"conceptId": "C177855", "definition": "The Short Form 12 Health Survey Acute, US Version 1.0 - Please give the one answer that comes closest to the way you have been feeling. How much of the time during the past week - have you felt calm and peaceful?", "preferredTerm": "SF12 v1.0 Acute - Have You Felt Calm and Peaceful", "submissionValue": "SF12206A", "synonyms": ["SF122-Have You Felt Calm and Peaceful"]}, {"conceptId": "C177856", "definition": "The Short Form 12 Health Survey Acute, US Version 1.0 - Please give the one answer that comes closest to the way you have been feeling. How much of the time during the past week - did you have a lot of energy?", "preferredTerm": "SF12 v1.0 Acute - Did You Have a Lot of Energy", "submissionValue": "SF12206B", "synonyms": ["SF122-Did You Have a Lot of Energy"]}, {"conceptId": "C177857", "definition": "The Short Form 12 Health Survey Acute, US Version 1.0 - Please give the one answer that comes closest to the way you have been feeling. How much of the time during the past week - have you felt downhearted and blue?", "preferredTerm": "SF12 v1.0 Acute - You Felt Downhearted and Blue", "submissionValue": "SF12206C", "synonyms": ["SF122-You Felt Downhearted and Blue"]}, {"conceptId": "C177858", "definition": "The Short Form 12 Health Survey Acute, US Version 1.0 - During the past week, how much of the time has your physical health or emotional problems interfered with your social activities (like visiting friends, relatives, etc.)?", "preferredTerm": "SF12 v1.0 Acute - Time Physical Health, Emotional Interfered", "submissionValue": "SF12207", "synonyms": ["SF122-Time Phys/Emotional Interfered"]}, {"conceptId": "C180454", "definition": "The Short Form 12 Health Survey Acute, US Version 1.0 - Physical component score.", "preferredTerm": "SF12 v1.0 Acute - Physical Component Score", "submissionValue": "SF12208", "synonyms": ["SF122-Physical Component Score"]}, {"conceptId": "C180455", "definition": "The Short Form 12 Health Survey Acute, US Version 1.0 - Mental component score.", "preferredTerm": "SF12 v1.0 Acute - Mental Component Score", "submissionValue": "SF12209", "synonyms": ["SF122-Mental Component Score"]}, {"conceptId": "C180456", "definition": "The Short Form 12 Health Survey Acute, US Version 1.0 - SF-6D_R2 (utility index release 2) score.", "preferredTerm": "SF12 v1.0 Acute - SF-6D_R2 Score", "submissionValue": "SF12210", "synonyms": ["SF122-SF-6D_R2 (Util Index Rel 2) Score"]}]}