{"_links": {"parentPackage": {"href": "/mdr/ct/packages/sdtmct-2021-12-17", "title": "SDTM Controlled Terminology Package 48 Effective 2021-12-17", "type": "Terminology"}, "priorVersion": {"href": "/mdr/ct/packages/sdtmct-2021-09-24/codelists/C179947", "title": "CDISC Questionnaire Combat Exposure Scale CES0103 Original Response Terminology", "type": "Code List"}, "rootItem": {"href": "/mdr/root/ct/sdtmct/codelists/C179947", "title": "Version-agnostic anchor resource for codelist C179947", "type": "Root Value Domain"}, "self": {"href": "/mdr/ct/packages/sdtmct-2021-12-17/codelists/C179947", "title": "CDISC Questionnaire Combat Exposure Scale CES0103 Original Response Terminology", "type": "Code List"}}, "conceptId": "C179947", "definition": "Combat Exposure Scale original result for CES0103 test and test code.", "extensible": "false", "name": "Combat Exposure Scale Questionnaire ORRES for CES0103 TN/TC", "preferredTerm": "CDISC Questionnaire Combat Exposure Scale CES0103 Original Response Terminology", "submissionValue": "CES0103OR", "synonyms": ["Combat Exposure Scale Questionnaire ORRES for CES0103 TN/TC"], "terms": [{"conceptId": "C180272", "definition": "Combat Exposure Scale original result for CES0103-1-2 times.", "preferredTerm": "Combat Exposure Scale CES0103 Original Result - 1-2 Times", "submissionValue": "1-2 times", "synonyms": ["CES0103-1-2 times"]}, {"conceptId": "C180274", "definition": "Combat Exposure Scale original result for CES0103-13-25 times.", "preferredTerm": "Combat Exposure Scale CES0103 Original Result - 13-25 Times", "submissionValue": "13-25 times", "synonyms": ["CES0103-13-25 times"]}, {"conceptId": "C180275", "definition": "Combat Exposure Scale original result for CES0103-26+times.", "preferredTerm": "Combat Exposure Scale CES0103 Original Result - 26+ Times", "submissionValue": "26+ times", "synonyms": ["CES0103-26+times"]}, {"conceptId": "C180273", "definition": "Combat Exposure Scale original result for CES0103-3-12 times.", "preferredTerm": "Combat Exposure Scale CES0103 Original Result - 3-12 Times", "submissionValue": "3-12 times", "synonyms": ["CES0103-3-12 times"]}, {"conceptId": "C180271", "definition": "Combat Exposure Scale original result for CES0103-No.", "preferredTerm": "Combat Exposure Scale CES0103 Original Result - No", "submissionValue": "No", "synonyms": ["CES0103-No"]}]}