{"_links": {"parentPackage": {"href": "/mdr/ct/packages/sdtmct-2021-12-17", "title": "SDTM Controlled Terminology Package 48 Effective 2021-12-17", "type": "Terminology"}, "priorVersion": {"href": "/mdr/ct/packages/sdtmct-2021-09-24/codelists/C179593", "title": "CDISC SDTM Pancreatic Cancer Findings About Test Name Terminology", "type": "Code List"}, "rootItem": {"href": "/mdr/root/ct/sdtmct/codelists/C179593", "title": "Version-agnostic anchor resource for codelist C179593", "type": "Root Value Domain"}, "self": {"href": "/mdr/ct/packages/sdtmct-2021-12-17/codelists/C179593", "title": "CDISC SDTM Pancreatic Cancer Findings About Test Name Terminology", "type": "Code List"}}, "conceptId": "C179593", "definition": "Terminology relevant to the test names that describe findings about an pancreatic cancer event or intervention.", "extensible": "true", "name": "Pancreatic Cancer Findings About Test Name", "preferredTerm": "CDISC SDTM Pancreatic Cancer Findings About Test Name Terminology", "submissionValue": "PAFATS", "synonyms": ["Pancreatic Cancer Findings About Test Name"], "terms": [{"conceptId": "C179451", "definition": "The anatomical location of the primary tumor site of disease.", "preferredTerm": "Primary Tumor Site", "submissionValue": "Primary Site of Tumor Origin", "synonyms": ["Primary Site of Tumor Origin"]}]}