{"_links": {"parentPackage": {"href": "/mdr/ct/packages/sdtmct-2021-12-17", "title": "SDTM Controlled Terminology Package 48 Effective 2021-12-17", "type": "Terminology"}, "priorVersion": {"href": "/mdr/ct/packages/sdtmct-2021-09-24/codelists/C181181", "title": "CDISC SDTM Genomic Findings Analytical Method Calculation Formula Terminology", "type": "Code List"}, "rootItem": {"href": "/mdr/root/ct/sdtmct/codelists/C181181", "title": "Version-agnostic anchor resource for codelist C181181", "type": "Root Value Domain"}, "self": {"href": "/mdr/ct/packages/sdtmct-2021-12-17/codelists/C181181", "title": "CDISC SDTM Genomic Findings Analytical Method Calculation Formula Terminology", "type": "Code List"}}, "conceptId": "C181181", "definition": "Terminology relevant to the formula names associated with a genomic findings test calculation.", "extensible": "true", "name": "Genomic Findings Analytical Method Calculation Formula", "preferredTerm": "CDISC SDTM Genomic Findings Analytical Method Calculation Formula Terminology", "submissionValue": "GFANMET", "synonyms": ["Genomic Findings Analytical Method Calculation Formula"], "terms": [{"conceptId": "C181324", "definition": "A formula that normalizes transcript fragment counts based on the total number of transcript fragments that are sequenced. CPM equals the number of reads divided by the number of sequenced transcript fragments, and multiplied by 1,000,000.", "preferredTerm": "Transcript Fragment Count per Million Formula", "submissionValue": "COUNTS PER MILLION FORMULA", "synonyms": ["CPM"]}, {"conceptId": "C181328", "definition": "A formula that compares gene expression by calculating the log2 fold difference between two gene expression intensities, or 2^(Value 2 Intensity - Value 1 Intensity).", "preferredTerm": "Differences Of Log2 Intensities Formula", "submissionValue": "DIFFERENCES OF LOG2 INTENSITIES FORMULA"}, {"conceptId": "C181325", "definition": "A formula that calculates the number of fragments per million fragments sampled (calculated by dividing the fragment counts by a per million scaling factor, which is derived by taking the total fragments in the sample and dividing by 1,000,000) divided by the length of the gene, in kilobases. Fragments are represented by either paired or single end reads.", "preferredTerm": "Fragments Per Kilobase Million Formula", "submissionValue": "FRAGMENTS PER KILOBASE MILLION FORMULA", "synonyms": ["FPKM"]}, {"conceptId": "C181329", "definition": "A unique pattern of gene expression of one to many combinations of genes that is associated with type 1 interferon activity.", "preferredTerm": "IFN-1 Gene Signature", "submissionValue": "IFN-1 GENE SIGNATURE"}, {"conceptId": "C181326", "definition": "A formula that calculates the number of fragments per million fragments sampled (calculated by dividing the fragment counts by a per million scaling factor, which is derived by taking the total fragments in the sample and dividing by 1,000,000) divided by the length of the gene, in kilobases. Fragments are represented by single end reads.", "preferredTerm": "Reads Per Kilobase Million Formula", "submissionValue": "READS PER KILOBASE MILLION FORMULA", "synonyms": ["RPKM"]}, {"conceptId": "C181327", "definition": "A formula that identifies the reads per kilobase (RPK, derived by dividing the read counts by the length of each gene, in kilobases) divided by a per million scaling factor (which is the count of RPK values in a sample divided by 1,000,000).", "preferredTerm": "Transcripts Per Million Formula", "submissionValue": "TRANSCRIPTS PER MILLION FORMULA", "synonyms": ["TPM"]}]}