{"_links": {"parentPackage": {"href": "/mdr/ct/packages/sdtmct-2021-12-17", "title": "SDTM Controlled Terminology Package 48 Effective 2021-12-17", "type": "Terminology"}, "rootItem": {"href": "/mdr/root/ct/sdtmct/codelists/C182519", "title": "Version-agnostic anchor resource for codelist C182519", "type": "Root Value Domain"}, "self": {"href": "/mdr/ct/packages/sdtmct-2021-12-17/codelists/C182519", "title": "CDISC Clinical Classification Kurtzke Functional System Scores KFSS106 Standardized Character Response Terminology", "type": "Code List"}}, "conceptId": "C182519", "definition": "Kurtzke Functional System Scores standardized character result for KFSS106 test and test code.", "extensible": "false", "name": "Kurtzke Functional System Scores Clinical Classification STRESC for KFSS106 TN/TC", "preferredTerm": "CDISC Clinical Classification Kurtzke Functional System Scores KFSS106 Standardized Character Response Terminology", "submissionValue": "KFSS106STR", "synonyms": ["Kurtzke Functional System Scores Clinical Classification STRESC for KFSS106 TN/TC"], "terms": [{"conceptId": "C182854", "definition": "Kurtzke Functional System Scores standardized character result for KFSS106-Normal.", "preferredTerm": "Kurtzke Functional System Scores KFSS106 Standardized Character Result 0", "submissionValue": "0", "synonyms": ["KFSS106-0"]}, {"conceptId": "C182855", "definition": "Kurtzke Functional System Scores standardized character result for KFSS106-Scotoma with visual acuity (corrected) better than 20/30.", "preferredTerm": "Kurtzke Functional System Scores KFSS106 Standardized Character Result 1", "submissionValue": "1", "synonyms": ["KFSS106-1"]}, {"conceptId": "C182856", "definition": "Kurtzke Functional System Scores standardized character result for KFSS106-Worse eye with scotoma with maximal visual acuity (corrected) of 20/30 to 20/59.", "preferredTerm": "Kurtzke Functional System Scores KFSS106 Standardized Character Result 2", "submissionValue": "2", "synonyms": ["KFSS106-2"]}, {"conceptId": "C182857", "definition": "Kurtzke Functional System Scores standardized character result for KFSS106-Worse eye with large scotoma, or moderate decrease in fields, but with maximal visual acuity (corrected) of 20/60 to 20/99.", "preferredTerm": "Kurtzke Functional System Scores KFSS106 Standardized Character Result 3", "submissionValue": "3", "synonyms": ["KFSS106-3"]}, {"conceptId": "C182858", "definition": "Kurtzke Functional System Scores standardized character result for KFSS106-Worse eye with marked decrease of fields and maximal visual acuity (corrected) of 20/100 to 20/200; grade 3 plus maximal acuity of better eye of 20/60 or less.", "preferredTerm": "Kurtzke Functional System Scores KFSS106 Standardized Character Result 4", "submissionValue": "4", "synonyms": ["KFSS106-4"]}, {"conceptId": "C182859", "definition": "Kurtzke Functional System Scores standardized character result for KFSS106-Worse eye with maximal visual acuity (corrected) less than 20/200; grade 4 plus maximal acuity of better eye of 20/60 or less.", "preferredTerm": "Kurtzke Functional System Scores KFSS106 Standardized Character Result 5", "submissionValue": "5", "synonyms": ["KFSS106-5"]}, {"conceptId": "C182860", "definition": "Kurtzke Functional System Scores standardized character result for KFSS106-Grade 5 plus maximal visual acuity of better eye of 20/60 or less.", "preferredTerm": "Kurtzke Functional System Scores KFSS106 Standardized Character Result 6", "submissionValue": "6", "synonyms": ["KFSS106-6"]}, {"conceptId": "C182861", "definition": "Kurtzke Functional System Scores standardized character result for KFSS106-Unknown.", "preferredTerm": "Kurtzke Functional System Scores KFSS106 Standardized Character Result Unknown", "submissionValue": "Unknown", "synonyms": ["KFSS106-Unknown"]}]}