{"_links": {"parentPackage": {"href": "/mdr/ct/packages/sdtmct-2021-12-17", "title": "SDTM Controlled Terminology Package 48 Effective 2021-12-17", "type": "Terminology"}, "rootItem": {"href": "/mdr/root/ct/sdtmct/codelists/C182500", "title": "Version-agnostic anchor resource for codelist C182500", "type": "Root Value Domain"}, "self": {"href": "/mdr/ct/packages/sdtmct-2021-12-17/codelists/C182500", "title": "CDISC Questionnaire International Prostate Symptom Score IPS0107 Standardized Character Response Terminology", "type": "Code List"}}, "conceptId": "C182500", "definition": "International Prostate Symptom Score standardized character result for IPS0107 test and test code.", "extensible": "false", "name": "International Prostate Symptom Score Questionnaire STRESC for IPS0107 TN/TC", "preferredTerm": "CDISC Questionnaire International Prostate Symptom Score IPS0107 Standardized Character Response Terminology", "submissionValue": "IPS0107STR", "synonyms": ["International Prostate Symptom Score Questionnaire STRESC for IPS0107 TN/TC"], "terms": [{"conceptId": "C182652", "definition": "International Prostate Symptom Score standardized character result for IPS0107-None.", "preferredTerm": "International Prostate Symptom Score IPS0107 Standardized Character Result 0", "submissionValue": "0", "synonyms": ["IPS0107-0"]}, {"conceptId": "C182653", "definition": "International Prostate Symptom Score standardized character result for IPS0107-1 time.", "preferredTerm": "International Prostate Symptom Score IPS0107 Standardized Character Result 1", "submissionValue": "1", "synonyms": ["IPS0107-1"]}, {"conceptId": "C182654", "definition": "International Prostate Symptom Score standardized character result for IPS0107-2 times.", "preferredTerm": "International Prostate Symptom Score IPS0107 Standardized Character Result 2", "submissionValue": "2", "synonyms": ["IPS0107-2"]}, {"conceptId": "C182655", "definition": "International Prostate Symptom Score standardized character result for IPS0107-3 times.", "preferredTerm": "International Prostate Symptom Score IPS0107 Standardized Character Result 3", "submissionValue": "3", "synonyms": ["IPS0107-3"]}, {"conceptId": "C182656", "definition": "International Prostate Symptom Score standardized character result for IPS0107-4 times.", "preferredTerm": "International Prostate Symptom Score IPS0107 Standardized Character Result 4", "submissionValue": "4", "synonyms": ["IPS0107-4"]}, {"conceptId": "C182657", "definition": "International Prostate Symptom Score standardized character result for IPS0107-5 or more times.", "preferredTerm": "International Prostate Symptom Score IPS0107 Standardized Character Result 5", "submissionValue": "5", "synonyms": ["IPS0107-5"]}]}