{"_links": {"parentPackage": {"href": "/mdr/ct/packages/sdtmct-2021-12-17", "title": "SDTM Controlled Terminology Package 48 Effective 2021-12-17", "type": "Terminology"}, "rootItem": {"href": "/mdr/root/ct/sdtmct/codelists/C182528", "title": "Version-agnostic anchor resource for codelist C182528", "type": "Root Value Domain"}, "self": {"href": "/mdr/ct/packages/sdtmct-2021-12-17/codelists/C182528", "title": "CDISC Clinical Classification Acute Physiology and Chronic Health Evaluation II APCH106A Standardized Character Response Terminology", "type": "Code List"}}, "conceptId": "C182528", "definition": "Acute Physiology and Chronic Health Evaluation II standardized character result for APCH106A test and test code.", "extensible": "false", "name": "Acute Physiology and Chronic Health Evaluation II Clinical Classification STRESC for APCH106A TN/TC", "preferredTerm": "CDISC Clinical Classification Acute Physiology and Chronic Health Evaluation II APCH106A Standardized Character Response Terminology", "submissionValue": "APCH106ASTR", "synonyms": ["Acute Physiology and Chronic Health Evaluation II Clinical Classification STRESC for APCH106A TN/TC"], "terms": [{"conceptId": "C182955", "definition": "Acute Physiology and Chronic Health Evaluation II standardized character result for APCH106A-7.33-7.49.", "preferredTerm": "Acute Physiology and Chronic Health Evaluation II APCH106A Standardized Character Result 0", "submissionValue": "0", "synonyms": ["APCH106A-0"]}, {"conceptId": "C182954", "definition": "Acute Physiology and Chronic Health Evaluation II standardized character result for APCH106A-7.5-7.59.", "preferredTerm": "Acute Physiology and Chronic Health Evaluation II APCH106A Standardized Character Result 1", "submissionValue": "1", "synonyms": ["APCH106A-1"]}, {"conceptId": "C182953", "definition": "Acute Physiology and Chronic Health Evaluation II standardized character result for APCH106A-7.25-7.32.", "preferredTerm": "Acute Physiology and Chronic Health Evaluation II APCH106A Standardized Character Result 2", "submissionValue": "2", "synonyms": ["APCH106A2"]}, {"conceptId": "C182952", "definition": "Acute Physiology and Chronic Health Evaluation II standardized character result for APCH106A-7.6-7.69; 7.15-7.24.", "preferredTerm": "Acute Physiology and Chronic Health Evaluation II APCH106A Standardized Character Result 3", "submissionValue": "3", "synonyms": ["APCH106A-3"]}, {"conceptId": "C182951", "definition": "Acute Physiology and Chronic Health Evaluation II standardized character result for APCH106A-Greater than or equal to 7.7; Less than 7.15.", "preferredTerm": "Acute Physiology and Chronic Health Evaluation II APCH106A Standardized Character Result 4", "submissionValue": "4", "synonyms": ["APCH106A-4"]}]}