{"_links": {"parentPackage": {"href": "/mdr/ct/packages/sdtmct-2021-12-17", "title": "SDTM Controlled Terminology Package 48 Effective 2021-12-17", "type": "Terminology"}, "rootItem": {"href": "/mdr/root/ct/sdtmct/codelists/C182473", "title": "Version-agnostic anchor resource for codelist C182473", "type": "Root Value Domain"}, "self": {"href": "/mdr/ct/packages/sdtmct-2021-12-17/codelists/C182473", "title": "CDISC Clinical Classification ATLAS Score ATLAS104 Original Response Terminology", "type": "Code List"}}, "conceptId": "C182473", "definition": "ATLAS original result for ATLAS104 test and test code.", "extensible": "false", "name": "ATLAS Clinical Classification ORRES for ATLAS104 TN/TC", "preferredTerm": "CDISC Clinical Classification ATLAS Score ATLAS104 Original Response Terminology", "submissionValue": "ATLAS104OR", "synonyms": ["ATLAS Clinical Classification ORRES for ATLAS104 TN/TC"], "terms": [{"conceptId": "C182755", "definition": "ATLAS original result for ATLAS104-26-35.", "preferredTerm": "ATLAS Score ATLAS104 Original Result - 26-35", "submissionValue": "26-35", "synonyms": ["ATLAS104-26-35"]}, {"conceptId": "C182756", "definition": "ATLAS original result for ATLAS104-Less than or equal to 25.", "preferredTerm": "ATLAS Score ATLAS104 Original Result - <=25", "submissionValue": "<=25", "synonyms": ["ATLAS104-<=25"]}, {"conceptId": "C182754", "definition": "ATLAS original result for ATLAS104-Greater than 35.", "preferredTerm": "ATLAS Score ATLAS104 Original Result - >35", "submissionValue": ">35", "synonyms": ["ATLAS104->35"]}]}