{"_links": {"parentPackage": {"href": "/mdr/ct/packages/sdtmct-2021-12-17", "title": "SDTM Controlled Terminology Package 48 Effective 2021-12-17", "type": "Terminology"}, "rootItem": {"href": "/mdr/root/ct/sdtmct/codelists/C182504", "title": "Version-agnostic anchor resource for codelist C182504", "type": "Root Value Domain"}, "self": {"href": "/mdr/ct/packages/sdtmct-2021-12-17/codelists/C182504", "title": "CDISC Clinical Classification Abnormal Involuntary Movement Scale AIMS0110 Standardized Character Response Terminology", "type": "Code List"}}, "conceptId": "C182504", "definition": "Abnormal Involuntary Movement Scale standardized character result for AIMS0110 test and test code.", "extensible": "false", "name": "Abnormal Involuntary Movement Scale Clinical Classification STRESC for AIMS0110 TN/TC", "preferredTerm": "CDISC Clinical Classification Abnormal Involuntary Movement Scale AIMS0110 Standardized Character Response Terminology", "submissionValue": "AIMS0110STR", "synonyms": ["Abnormal Involuntary Movement Scale Clinical Classification STRESC for AIMS0110 TN/TC"], "terms": [{"conceptId": "C182697", "definition": "Abnormal Involuntary Movement Scale standardized character result for AIMS0110-No awareness.", "preferredTerm": "Abnormal Involuntary Movement Scale AIMS0110 Standardized Character Result 0", "submissionValue": "0", "synonyms": ["AIMS0110-0"]}, {"conceptId": "C182698", "definition": "Abnormal Involuntary Movement Scale standardized character result for AIMS0110-Aware, no distress.", "preferredTerm": "Abnormal Involuntary Movement Scale AIMS0110 Standardized Character Result 1", "submissionValue": "1", "synonyms": ["AIMS0110-1"]}, {"conceptId": "C182699", "definition": "Abnormal Involuntary Movement Scale standardized character result for AIMS0110-Aware, mild distress.", "preferredTerm": "Abnormal Involuntary Movement Scale AIMS0110 Standardized Character Result 2", "submissionValue": "2", "synonyms": ["AIMS0110-2"]}, {"conceptId": "C182700", "definition": "Abnormal Involuntary Movement Scale standardized character result for AIMS0110-Aware, moderate distress.", "preferredTerm": "Abnormal Involuntary Movement Scale AIMS0110 Standardized Character Result 3", "submissionValue": "3", "synonyms": ["AIMS0110-3"]}, {"conceptId": "C182701", "definition": "Abnormal Involuntary Movement Scale standardized character result for AIMS0110-Aware, severe distress.", "preferredTerm": "Abnormal Involuntary Movement Scale AIMS0110 Standardized Character Result 4", "submissionValue": "4", "synonyms": ["AIMS0110-4"]}]}