{"_links": {"parentPackage": {"href": "/mdr/ct/packages/sdtmct-2021-12-17", "title": "SDTM Controlled Terminology Package 48 Effective 2021-12-17", "type": "Terminology"}, "rootItem": {"href": "/mdr/root/ct/sdtmct/codelists/C182534", "title": "Version-agnostic anchor resource for codelist C182534", "type": "Root Value Domain"}, "self": {"href": "/mdr/ct/packages/sdtmct-2021-12-17/codelists/C182534", "title": "CDISC Clinical Classification Acute Physiology and Chronic Health Evaluation II APCH111 Standardized Character Response Terminology", "type": "Code List"}}, "conceptId": "C182534", "definition": "Acute Physiology and Chronic Health Evaluation II standardized character result for APCH111 test and test code.", "extensible": "false", "name": "Acute Physiology and Chronic Health Evaluation II Clinical Classification STRESC for APCH111 TN/TC", "preferredTerm": "CDISC Clinical Classification Acute Physiology and Chronic Health Evaluation II APCH111 Standardized Character Response Terminology", "submissionValue": "APCH111STR", "synonyms": ["Acute Physiology and Chronic Health Evaluation II Clinical Classification STRESC for APCH111 TN/TC"], "terms": [{"conceptId": "C183026", "definition": "Acute Physiology and Chronic Health Evaluation II standardized character result for APCH111-3-14.9.", "preferredTerm": "Acute Physiology and Chronic Health Evaluation II APCH111 Standardized Character Result 0", "submissionValue": "0", "synonyms": ["APCH111-0"]}, {"conceptId": "C183025", "definition": "Acute Physiology and Chronic Health Evaluation II standardized character result for APCH111-15-19.9.", "preferredTerm": "Acute Physiology and Chronic Health Evaluation II APCH111 Standardized Character Result 1", "submissionValue": "1", "synonyms": ["APCH111-1"]}, {"conceptId": "C183024", "definition": "Acute Physiology and Chronic Health Evaluation II standardized character result for APCH111-20-39.9; 1-2.9.", "preferredTerm": "Acute Physiology and Chronic Health Evaluation II APCH111 Standardized Character Result 2", "submissionValue": "2", "synonyms": ["APCH111-2"]}, {"conceptId": "C183023", "definition": "Acute Physiology and Chronic Health Evaluation II standardized character result for APCH111-Greater than or equal to 40; Less than 1.", "preferredTerm": "Acute Physiology and Chronic Health Evaluation II APCH111 Standardized Character Result 4", "submissionValue": "4", "synonyms": ["APCH111-4"]}]}