{"_links": {"parentPackage": {"href": "/mdr/ct/packages/sdtmct-2021-12-17", "title": "SDTM Controlled Terminology Package 48 Effective 2021-12-17", "type": "Terminology"}, "rootItem": {"href": "/mdr/root/ct/sdtmct/codelists/C182535", "title": "Version-agnostic anchor resource for codelist C182535", "type": "Root Value Domain"}, "self": {"href": "/mdr/ct/packages/sdtmct-2021-12-17/codelists/C182535", "title": "CDISC Clinical Classification Acute Physiology and Chronic Health Evaluation II APCH114 Standardized Character Response Terminology", "type": "Code List"}}, "conceptId": "C182535", "definition": "Acute Physiology and Chronic Health Evaluation II standardized character result for APCH114 test and test code.", "extensible": "false", "name": "Acute Physiology and Chronic Health Evaluation II Clinical Classification STRESC for APCH114 TN/TC", "preferredTerm": "CDISC Clinical Classification Acute Physiology and Chronic Health Evaluation II APCH114 Standardized Character Response Terminology", "submissionValue": "APCH114STR", "synonyms": ["Acute Physiology and Chronic Health Evaluation II Clinical Classification STRESC for APCH114 TN/TC"], "terms": [{"conceptId": "C183032", "definition": "Acute Physiology and Chronic Health Evaluation II standardized character result for APCH114-Less than or equal to 44.", "preferredTerm": "Acute Physiology and Chronic Health Evaluation II APCH114 Standardized Character Result 0", "submissionValue": "0", "synonyms": ["APCH114-0"]}, {"conceptId": "C183033", "definition": "Acute Physiology and Chronic Health Evaluation II standardized character result for APCH114-45-54.", "preferredTerm": "Acute Physiology and Chronic Health Evaluation II APCH114 Standardized Character Result 2", "submissionValue": "2", "synonyms": ["APCH114-2"]}, {"conceptId": "C183034", "definition": "Acute Physiology and Chronic Health Evaluation II standardized character result for APCH114-55-64.", "preferredTerm": "Acute Physiology and Chronic Health Evaluation II APCH114 Standardized Character Result 3", "submissionValue": "3", "synonyms": ["APCH114-3"]}, {"conceptId": "C183035", "definition": "Acute Physiology and Chronic Health Evaluation II standardized character result for APCH114-65-74.", "preferredTerm": "Acute Physiology and Chronic Health Evaluation II APCH114 Standardized Character Result 5", "submissionValue": "5", "synonyms": ["APCH114-5"]}, {"conceptId": "C183036", "definition": "Acute Physiology and Chronic Health Evaluation II standardized character result for APCH114-Greater than or equal to 75.", "preferredTerm": "Acute Physiology and Chronic Health Evaluation II APCH114 Standardized Character Result 6", "submissionValue": "6", "synonyms": ["APCH114-6"]}]}