{"_links": {"parentPackage": {"href": "/mdr/ct/packages/sdtmct-2021-12-17", "title": "SDTM Controlled Terminology Package 48 Effective 2021-12-17", "type": "Terminology"}, "rootItem": {"href": "/mdr/root/ct/sdtmct/codelists/C182477", "title": "Version-agnostic anchor resource for codelist C182477", "type": "Root Value Domain"}, "self": {"href": "/mdr/ct/packages/sdtmct-2021-12-17/codelists/C182477", "title": "CDISC Clinical Classification Kurtzke Functional System Scores KFSS102A and KFSS106A Original Response Terminology", "type": "Code List"}}, "conceptId": "C182477", "definition": "Kurtzke Functional System Scores original result for KFSS102A and KFSS106A test and test code.", "extensible": "false", "name": "Kurtzke Functional System Scores Clinical Classification ORRES for KFSS102A and KFSS106A TN/TC", "preferredTerm": "CDISC Clinical Classification Kurtzke Functional System Scores KFSS102A and KFSS106A Original Response Terminology", "submissionValue": "KFSS102A&6AOR", "synonyms": ["Kurtzke Functional System Scores Clinical Classification ORRES for KFSS102A and KFSS106A TN/TC"], "terms": [{"conceptId": "C182796", "definition": "Kurtzke Functional System Scores original result for KFSS102 and KFSS106A-Checked.", "preferredTerm": "Kurtzke Functional System Scores KFSS102 and KFSS106A Original Result - CHECKED", "submissionValue": "CHECKED", "synonyms": ["KFSS102 and KFSS106A-CHECKED"]}, {"conceptId": "C182797", "definition": "Kurtzke Functional System Scores original result for KFSS102 and KFSS106A-Not checked.", "preferredTerm": "Kurtzke Functional System Scores KFSS102 and KFSS106A Original Result - NOT CHECKED", "submissionValue": "NOT CHECKED", "synonyms": ["KFSS102 and KFSS106A-NOT CHECKED"]}]}