{"_links": {"parentPackage": {"href": "/mdr/ct/packages/sdtmct-2021-12-17", "title": "SDTM Controlled Terminology Package 48 Effective 2021-12-17", "type": "Terminology"}, "rootItem": {"href": "/mdr/root/ct/sdtmct/codelists/C182510", "title": "Version-agnostic anchor resource for codelist C182510", "type": "Root Value Domain"}, "self": {"href": "/mdr/ct/packages/sdtmct-2021-12-17/codelists/C182510", "title": "CDISC Clinical Classification ATLAS Score ATLAS103 Standardized Character Response Terminology", "type": "Code List"}}, "conceptId": "C182510", "definition": "ATLAS standardized character result for ATLAS103 test and test code.", "extensible": "false", "name": "ATLAS Clinical Classification STRESC for ATLAS103 TN/TC", "preferredTerm": "CDISC Clinical Classification ATLAS Score ATLAS103 Standardized Character Response Terminology", "submissionValue": "ATLAS103STR", "synonyms": ["ATLAS Clinical Classification STRESC for ATLAS103 TN/TC"], "terms": [{"conceptId": "C182751", "definition": "ATLAS standardized character result for ATLAS103-Less than 16,000.", "preferredTerm": "ATLAS Score ATLAS103 Standardized Character Result 0", "submissionValue": "0", "synonyms": ["ATLAS103-0"]}, {"conceptId": "C182752", "definition": "ATLAS standardized character result for ATLAS103-16,000-25,000.", "preferredTerm": "ATLAS Score ATLAS103 Standardized Character Result 1", "submissionValue": "1", "synonyms": ["ATLAS103-1"]}, {"conceptId": "C182753", "definition": "ATLAS standardized character result for ATLAS103-Greater than 25,000.", "preferredTerm": "ATLAS Score ATLAS103 Standardized Character Result 2", "submissionValue": "2", "synonyms": ["ATLAS103-2"]}]}