{"_links": {"parentPackage": {"href": "/mdr/ct/packages/sdtmct-2021-12-17", "title": "SDTM Controlled Terminology Package 48 Effective 2021-12-17", "type": "Terminology"}, "rootItem": {"href": "/mdr/root/ct/sdtmct/codelists/C182483", "title": "Version-agnostic anchor resource for codelist C182483", "type": "Root Value Domain"}, "self": {"href": "/mdr/ct/packages/sdtmct-2021-12-17/codelists/C182483", "title": "CDISC Clinical Classification Kurtzke Functional System Scores KFSS108 Original Response Terminology", "type": "Code List"}}, "conceptId": "C182483", "definition": "Kurtzke Functional System Scores original result for KFSS108 test and test code.", "extensible": "false", "name": "Kurtzke Functional System Scores Clinical Classification ORRES for KFSS108 TN/TC", "preferredTerm": "CDISC Clinical Classification Kurtzke Functional System Scores KFSS108 Original Response Terminology", "submissionValue": "KFSS108OR", "synonyms": ["Kurtzke Functional System Scores Clinical Classification ORRES for KFSS108 TN/TC"], "terms": [{"conceptId": "C182877", "definition": "Kurtzke Functional System Scores original result for KFSS108-Any other neurologic findings attributed to MS (specify).", "preferredTerm": "Kurtzke Functional System Scores KFSS108 Original Result - Any other neurologic findings attributed to MS (specify)", "submissionValue": "Any other neurologic findings attributed to MS (specify)", "synonyms": ["KFSS108-Any other neurologic findings attributed to MS (specify)"]}, {"conceptId": "C182876", "definition": "Kurtzke Functional System Scores original result for KFSS108-None.", "preferredTerm": "Kurtzke Functional System Scores KFSS108 Original Result - None", "submissionValue": "None", "synonyms": ["KFSS108-None"]}, {"conceptId": "C182878", "definition": "Kurtzke Functional System Scores original result for KFSS108-Unknown.", "preferredTerm": "Kurtzke Functional System Scores KFSS108 Original Result - Unknown", "submissionValue": "Unknown", "synonyms": ["KFSS108-Unknown"]}]}