{"_links": {"parentPackage": {"href": "/mdr/ct/packages/sdtmct-2021-12-17", "title": "SDTM Controlled Terminology Package 48 Effective 2021-12-17", "type": "Terminology"}, "rootItem": {"href": "/mdr/root/ct/sdtmct/codelists/C182497", "title": "Version-agnostic anchor resource for codelist C182497", "type": "Root Value Domain"}, "self": {"href": "/mdr/ct/packages/sdtmct-2021-12-17/codelists/C182497", "title": "CDISC Clinical Classification Acute Physiology and Chronic Health Evaluation II APCH114 Original Response Terminology", "type": "Code List"}}, "conceptId": "C182497", "definition": "Acute Physiology and Chronic Health Evaluation II original result for APCH114 test and test code.", "extensible": "false", "name": "Acute Physiology and Chronic Health Evaluation II Clinical Classification ORRES for APCH114 TN/TC", "preferredTerm": "CDISC Clinical Classification Acute Physiology and Chronic Health Evaluation II APCH114 Original Response Terminology", "submissionValue": "APCH114OR", "synonyms": ["Acute Physiology and Chronic Health Evaluation II Clinical Classification ORRES for APCH114 TN/TC"], "terms": [{"conceptId": "C183028", "definition": "Acute Physiology and Chronic Health Evaluation II original result for APCH114-45-54.", "preferredTerm": "Acute Physiology and Chronic Health Evaluation II APCH114 Original Result - 45-54", "submissionValue": "45-54", "synonyms": ["APCH114-45-54"]}, {"conceptId": "C183029", "definition": "Acute Physiology and Chronic Health Evaluation II original result for APCH114-55-64.", "preferredTerm": "Acute Physiology and Chronic Health Evaluation II APCH114 Original Result - 55-64", "submissionValue": "55-64", "synonyms": ["APCH114-55-64"]}, {"conceptId": "C183030", "definition": "Acute Physiology and Chronic Health Evaluation II original result for APCH114-65-74.", "preferredTerm": "Acute Physiology and Chronic Health Evaluation II APCH114 Original Result - 65-74", "submissionValue": "65-74", "synonyms": ["APCH114-65-74"]}, {"conceptId": "C183027", "definition": "Acute Physiology and Chronic Health Evaluation II original result for APCH114-Less than or equal to 44.", "preferredTerm": "Acute Physiology and Chronic Health Evaluation II APCH114 Original Result - <=44", "submissionValue": "<=44", "synonyms": ["APCH114-<=44"]}, {"conceptId": "C183031", "definition": "Acute Physiology and Chronic Health Evaluation II original result for APCH114-Greater than or equal to 75.", "preferredTerm": "Acute Physiology and Chronic Health Evaluation II APCH114 Original Result - >=75", "submissionValue": ">=75", "synonyms": ["APCH114->=75"]}]}