{"_links": {"parentPackage": {"href": "/mdr/ct/packages/sdtmct-2021-12-17", "title": "SDTM Controlled Terminology Package 48 Effective 2021-12-17", "type": "Terminology"}, "rootItem": {"href": "/mdr/root/ct/sdtmct/codelists/C182511", "title": "Version-agnostic anchor resource for codelist C182511", "type": "Root Value Domain"}, "self": {"href": "/mdr/ct/packages/sdtmct-2021-12-17/codelists/C182511", "title": "CDISC Clinical Classification ATLAS Score ATLAS104 Standardized Character Response Terminology", "type": "Code List"}}, "conceptId": "C182511", "definition": "ATLAS standardized character result for ATLAS104 test and test code.", "extensible": "false", "name": "ATLAS Clinical Classification STRESC for ATLAS104 TN/TC", "preferredTerm": "CDISC Clinical Classification ATLAS Score ATLAS104 Standardized Character Response Terminology", "submissionValue": "ATLAS104STR", "synonyms": ["ATLAS Clinical Classification STRESC for ATLAS104 TN/TC"], "terms": [{"conceptId": "C182757", "definition": "ATLAS standardized character result for ATLAS104-Greater than 35.", "preferredTerm": "ATLAS Score ATLAS104 Standardized Character Result 0", "submissionValue": "0", "synonyms": ["ATLAS104-0"]}, {"conceptId": "C182758", "definition": "ATLAS standardized character result for ATLAS104-26-35.", "preferredTerm": "ATLAS Score ATLAS104 Standardized Character Result 1", "submissionValue": "1", "synonyms": ["ATLAS104-1"]}, {"conceptId": "C182759", "definition": "ATLAS standardized character result for ATLAS104-Less than or equal to 25.", "preferredTerm": "ATLAS Score ATLAS104 Standardized Character Result 2", "submissionValue": "2", "synonyms": ["ATLAS104-2"]}]}