{"_links": {"parentPackage": {"href": "/mdr/ct/packages/sdtmct-2021-12-17", "title": "SDTM Controlled Terminology Package 48 Effective 2021-12-17", "type": "Terminology"}, "rootItem": {"href": "/mdr/root/ct/sdtmct/codelists/C182512", "title": "Version-agnostic anchor resource for codelist C182512", "type": "Root Value Domain"}, "self": {"href": "/mdr/ct/packages/sdtmct-2021-12-17/codelists/C182512", "title": "CDISC Clinical Classification ATLAS Score ATLAS105 Standardized Character Response Terminology", "type": "Code List"}}, "conceptId": "C182512", "definition": "ATLAS standardized character result for ATLAS105 test and test code.", "extensible": "false", "name": "ATLAS Clinical Classification STRESC for ATLAS105 TN/TC", "preferredTerm": "CDISC Clinical Classification ATLAS Score ATLAS105 Standardized Character Response Terminology", "submissionValue": "ATLAS105STR", "synonyms": ["ATLAS Clinical Classification STRESC for ATLAS105 TN/TC"], "terms": [{"conceptId": "C182763", "definition": "ATLAS standardized character result for ATLAS105-Less than or equal to 120.", "preferredTerm": "ATLAS Score ATLAS105 Standardized Character Result 0", "submissionValue": "0", "synonyms": ["ATLAS105-0"]}, {"conceptId": "C182764", "definition": "ATLAS standardized character result for ATLAS105-121-179.", "preferredTerm": "ATLAS Score ATLAS105 Standardized Character Result 1", "submissionValue": "1", "synonyms": ["ATLAS105-1"]}, {"conceptId": "C182765", "definition": "ATLAS standardized character result for ATLAS105-Greater than or equal to 180.", "preferredTerm": "ATLAS Score ATLAS105 Standardized Character Result 2", "submissionValue": "2", "synonyms": ["ATLAS105-2"]}]}