{"_links": {"parentPackage": {"href": "/mdr/ct/packages/sdtmct-2021-12-17", "title": "SDTM Controlled Terminology Package 48 Effective 2021-12-17", "type": "Terminology"}, "rootItem": {"href": "/mdr/root/ct/sdtmct/codelists/C182524", "title": "Version-agnostic anchor resource for codelist C182524", "type": "Root Value Domain"}, "self": {"href": "/mdr/ct/packages/sdtmct-2021-12-17/codelists/C182524", "title": "CDISC Clinical Classification Acute Physiology and Chronic Health Evaluation II APCH103 Standardized Character Response Terminology", "type": "Code List"}}, "conceptId": "C182524", "definition": "Acute Physiology and Chronic Health Evaluation II standardized character result for APCH103 test and test code.", "extensible": "false", "name": "Acute Physiology and Chronic Health Evaluation II Clinical Classification STRESC for APCH103 TN/TC", "preferredTerm": "CDISC Clinical Classification Acute Physiology and Chronic Health Evaluation II APCH103 Standardized Character Response Terminology", "submissionValue": "APCH103STR", "synonyms": ["Acute Physiology and Chronic Health Evaluation II Clinical Classification STRESC for APCH103 TN/TC"], "terms": [{"conceptId": "C182915", "definition": "Acute Physiology and Chronic Health Evaluation II standardized character result for APCH103-70-109.", "preferredTerm": "Acute Physiology and Chronic Health Evaluation II APCH103 Standardized Character Result 0", "submissionValue": "0", "synonyms": ["APCH103-0"]}, {"conceptId": "C182914", "definition": "Acute Physiology and Chronic Health Evaluation II standardized character result for APCH103-110-139; 55-69.", "preferredTerm": "Acute Physiology and Chronic Health Evaluation II APCH103 Standardized Character Result 2", "submissionValue": "2", "synonyms": ["APCH103-2"]}, {"conceptId": "C182913", "definition": "Acute Physiology and Chronic Health Evaluation II standardized character result for APCH103-140-179; 40-54.", "preferredTerm": "Acute Physiology and Chronic Health Evaluation II APCH103 Standardized Character Result 3", "submissionValue": "3", "synonyms": ["APCH103-3"]}, {"conceptId": "C182912", "definition": "Acute Physiology and Chronic Health Evaluation II standardized character result for APCH103-Greater than or equal to 180; Less than or equal 39.", "preferredTerm": "Acute Physiology and Chronic Health Evaluation II APCH103 Standardized Character Result 4", "submissionValue": "4", "synonyms": ["APCH103-4"]}]}