{"_links": {"parentPackage": {"href": "/mdr/ct/packages/sdtmct-2021-12-17", "title": "SDTM Controlled Terminology Package 48 Effective 2021-12-17", "type": "Terminology"}, "rootItem": {"href": "/mdr/root/ct/sdtmct/codelists/C182503", "title": "Version-agnostic anchor resource for codelist C182503", "type": "Root Value Domain"}, "self": {"href": "/mdr/ct/packages/sdtmct-2021-12-17/codelists/C182503", "title": "CDISC Clinical Classification Abnormal Involuntary Movement Scale AIMS0108 Through AIMS0109 Standardized Character Response Terminology", "type": "Code List"}}, "conceptId": "C182503", "definition": "Abnormal Involuntary Movement Scale standardized character result for AIMS0108 through AIMS0109 test and test code.", "extensible": "false", "name": "Abnormal Involuntary Movement Scale Clinical Classification STRESC for AIMS0108 Through AIMS0109 TN/TC", "preferredTerm": "CDISC Clinical Classification Abnormal Involuntary Movement Scale AIMS0108 Through AIMS0109 Standardized Character Response Terminology", "submissionValue": "AIMS0108T09STR", "synonyms": ["Abnormal Involuntary Movement Scale Clinical Classification STRESC for AIMS0108 Through AIMS0109 TN/TC"], "terms": [{"conceptId": "C182687", "definition": "Abnormal Involuntary Movement Scale standardized character result for AIMS0108 through AIMS0109-None, normal.", "preferredTerm": "Abnormal Involuntary Movement Scale AIMS0108 Through AIMS0109 Standardized Character Result 0", "submissionValue": "0", "synonyms": ["AIMS0108 through AIMS0109-0"]}, {"conceptId": "C182688", "definition": "Abnormal Involuntary Movement Scale standardized character result for AIMS0108 through AIMS0109-Minimal.", "preferredTerm": "Abnormal Involuntary Movement Scale AIMS0108 Through AIMS0109 Standardized Character Result 1", "submissionValue": "1", "synonyms": ["AIMS0108 through AIMS0109-1"]}, {"conceptId": "C182689", "definition": "Abnormal Involuntary Movement Scale standardized character result for AIMS0108 through AIMS0109-Mild.", "preferredTerm": "Abnormal Involuntary Movement Scale AIMS0108 Through AIMS0109 Standardized Character Result 2", "submissionValue": "2", "synonyms": ["AIMS0108 through AIMS0109-2"]}, {"conceptId": "C182690", "definition": "Abnormal Involuntary Movement Scale standardized character result for AIMS0108 through AIMS0109-Moderate.", "preferredTerm": "Abnormal Involuntary Movement Scale AIMS0108 Through AIMS0109 Standardized Character Result 3", "submissionValue": "3", "synonyms": ["AIMS0108 through AIMS0109-3"]}, {"conceptId": "C182691", "definition": "Abnormal Involuntary Movement Scale standardized character result for AIMS0108 through AIMS0109-Severe.", "preferredTerm": "Abnormal Involuntary Movement Scale AIMS0108 Through AIMS0109 Standardized Character Result 4", "submissionValue": "4", "synonyms": ["AIMS0108 through AIMS0109-4"]}]}