{"_links": {"parentPackage": {"href": "/mdr/ct/packages/sdtmct-2021-12-17", "title": "SDTM Controlled Terminology Package 48 Effective 2021-12-17", "type": "Terminology"}, "rootItem": {"href": "/mdr/root/ct/sdtmct/codelists/C182525", "title": "Version-agnostic anchor resource for codelist C182525", "type": "Root Value Domain"}, "self": {"href": "/mdr/ct/packages/sdtmct-2021-12-17/codelists/C182525", "title": "CDISC Clinical Classification Acute Physiology and Chronic Health Evaluation II APCH104 Standardized Character Response Terminology", "type": "Code List"}}, "conceptId": "C182525", "definition": "Acute Physiology and Chronic Health Evaluation II standardized character result for APCH104 test and test code.", "extensible": "false", "name": "Acute Physiology and Chronic Health Evaluation II Clinical Classification STRESC for APCH104 TN/TC", "preferredTerm": "CDISC Clinical Classification Acute Physiology and Chronic Health Evaluation II APCH104 Standardized Character Response Terminology", "submissionValue": "APCH104STR", "synonyms": ["Acute Physiology and Chronic Health Evaluation II Clinical Classification STRESC for APCH104 TN/TC"], "terms": [{"conceptId": "C182927", "definition": "Acute Physiology and Chronic Health Evaluation II standardized character result for APCH104-12-24.", "preferredTerm": "Acute Physiology and Chronic Health Evaluation II APCH104 Standardized Character Result 0", "submissionValue": "0", "synonyms": ["APCH104-0"]}, {"conceptId": "C182926", "definition": "Acute Physiology and Chronic Health Evaluation II standardized character result for APCH104-25-34; 10-11.", "preferredTerm": "Acute Physiology and Chronic Health Evaluation II APCH104 Standardized Character Result 1", "submissionValue": "1", "synonyms": ["APCH104-1"]}, {"conceptId": "C182925", "definition": "Acute Physiology and Chronic Health Evaluation II standardized character result for APCH104-6-9.", "preferredTerm": "Acute Physiology and Chronic Health Evaluation II APCH104 Standardized Character Result 2", "submissionValue": "2", "synonyms": ["APCH104-2"]}, {"conceptId": "C182924", "definition": "Acute Physiology and Chronic Health Evaluation II standardized character result for APCH104-35-49.", "preferredTerm": "Acute Physiology and Chronic Health Evaluation II APCH104 Standardized Character Result 3", "submissionValue": "3", "synonyms": ["APCH104-3"]}, {"conceptId": "C182923", "definition": "Acute Physiology and Chronic Health Evaluation II standardized character result for APCH104-Greater than or equal to 50; Less than or equal to 5.", "preferredTerm": "Acute Physiology and Chronic Health Evaluation II APCH104 Standardized Character Result 4", "submissionValue": "4", "synonyms": ["APCH104-4"]}]}