{"_links": {"parentPackage": {"href": "/mdr/ct/packages/sdtmct-2021-12-17", "title": "SDTM Controlled Terminology Package 48 Effective 2021-12-17", "type": "Terminology"}, "rootItem": {"href": "/mdr/root/ct/sdtmct/codelists/C183549", "title": "Version-agnostic anchor resource for codelist C183549", "type": "Root Value Domain"}, "self": {"href": "/mdr/ct/packages/sdtmct-2021-12-17/codelists/C183549", "title": "CDISC Questionnaire DIBSS-C Version 1.0 Test Code Terminology", "type": "Code List"}}, "conceptId": "C183549", "definition": "Diary for Irritable Bowel Syndrome Symptoms-Constipation v1.0 test code.", "extensible": "false", "name": "Diary for Irritable Bowel Syndrome Symptoms-Constipation v1.0 Questionnaire Test Code", "preferredTerm": "CDISC Questionnaire DIBSS-C Version 1.0 Test Code Terminology", "submissionValue": "DIBC01TC", "synonyms": ["Diary for Irritable Bowel Syndrome Symptoms-Constipation v1.0 Questionnaire Test Code"], "terms": [{"conceptId": "C183608", "definition": "Diary for Irritable Bowel Syndrome Symptoms-Constipation v1.0 - How would you rate your worst abdominal pain in the past 24 hours?", "preferredTerm": "DIBSS-C Version 1.0 - Rate Worst Abdominal Pain", "submissionValue": "DIBC0101", "synonyms": ["DIBC01-Rate Worst Abdominal Pain"]}, {"conceptId": "C183609", "definition": "Diary for Irritable Bowel Syndrome Symptoms-Constipation v1.0 - How would you rate your worst abdominal discomfort in the past 24 hours?", "preferredTerm": "DIBSS-C Version 1.0 - Rate Worst Abdominal Discomfort", "submissionValue": "DIBC0102", "synonyms": ["DIBC01-Rate Worst Abdominal Discomfort"]}, {"conceptId": "C183610", "definition": "Diary for Irritable Bowel Syndrome Symptoms-Constipation v1.0 - How would you rate your worst abdominal bloating in the past 24 hours?", "preferredTerm": "DIBSS-C Version 1.0 - Rate Worst Abdominal Bloating", "submissionValue": "DIBC0103", "synonyms": ["DIBC01-Rate Worst Abdominal Bloating"]}, {"conceptId": "C183611", "definition": "Diary for Irritable Bowel Syndrome Symptoms-Constipation v1.0 - Do you have any other bowel movements to report?", "preferredTerm": "DIBSS-C Version 1.0 - Other Bowel Movements to Report", "submissionValue": "DIBC0104", "synonyms": ["DIBC01-Other Bowel Movements to Report"]}, {"conceptId": "C183612", "definition": "Diary for Irritable Bowel Syndrome Symptoms-Constipation v1.0 - Did you feel like you completely emptied your bowels after your bowel movement?", "preferredTerm": "DIBSS-C Version 1.0 - Completely Emptied Bowels", "submissionValue": "DIBC0105", "synonyms": ["DIBC01-Completely Emptied Bowels"]}, {"conceptId": "C183613", "definition": "Diary for Irritable Bowel Syndrome Symptoms-Constipation v1.0 - How much did you strain during your bowel movement?", "preferredTerm": "DIBSS-C Version 1.0 - How Much Did You Strain", "submissionValue": "DIBC0106", "synonyms": ["DIBC01-How Much Did You Strain"]}, {"conceptId": "C183614", "definition": "Diary for Irritable Bowel Syndrome Symptoms-Constipation v1.0 - How would you describe the consistency of your stool?", "preferredTerm": "DIBSS-C Version 1.0 - Describe Consistency of Stool", "submissionValue": "DIBC0107", "synonyms": ["DIBC01-Describe Consistency of Stool"]}, {"conceptId": "C183615", "definition": "Diary for Irritable Bowel Syndrome Symptoms-Constipation v1.0 - Stool frequency: weekly score, total number of BMs across days on which no laxative, enema, or suppository use was reported.", "preferredTerm": "DIBSS-C Version 1.0 - Stool Frequency Weekly Total", "submissionValue": "DIBC0108", "synonyms": ["DIBC01-Stool Frequency Weekly Total"]}, {"conceptId": "C183616", "definition": "Diary for Irritable Bowel Syndrome Symptoms-Constipation v1.0 - Stool frequency: weekly score, the weekly total score minus any BMs reported as not complete.", "preferredTerm": "DIBSS-C Version 1.0 - Stool Frequency Weekly Complete", "submissionValue": "DIBC0109", "synonyms": ["DIBC01-Stool Frequency Weekly Complete"]}, {"conceptId": "C183617", "definition": "Diary for Irritable Bowel Syndrome Symptoms-Constipation v1.0 - Abdominal symptom subscale.", "preferredTerm": "DIBSS-C Version 1.0 - Abdominal Symptom Subscale", "submissionValue": "DIBC0110", "synonyms": ["DIBC01-Abdominal Symptom Subscale"]}]}