{"_links": {"parentPackage": {"href": "/mdr/ct/packages/sdtmct-2021-12-17", "title": "SDTM Controlled Terminology Package 48 Effective 2021-12-17", "type": "Terminology"}, "priorVersion": {"href": "/mdr/ct/packages/sdtmct-2021-09-24/codelists/C66734", "title": "CDISC SDTM Submission Domain Abbreviation Terminology", "type": "Code List"}, "rootItem": {"href": "/mdr/root/ct/sdtmct/codelists/C66734", "title": "Version-agnostic anchor resource for codelist C66734", "type": "Root Value Domain"}, "self": {"href": "/mdr/ct/packages/sdtmct-2021-12-17/codelists/C66734", "title": "CDISC SDTM Submission Domain Abbreviation Terminology", "type": "Code List"}}, "conceptId": "C66734", "definition": "A unique, 2-character domain code used in the regulatory submission process. The domain abbreviation is used consistently throughout the submission, i.e. in the dataset name, as the value of the domain variable within the dataset, and as a prefix for most variable names in the dataset. (CDISC Glossary)", "extensible": "true", "name": "SDTM Domain Abbreviation", "preferredTerm": "CDISC SDTM Submission Domain Abbreviation Terminology", "submissionValue": "DOMAIN", "synonyms": ["SDTM Domain Abbreviation"], "terms": [{"conceptId": "C49563", "definition": "A two-letter prefix used to denote ADaM-compliant analysis datasets used for statistical analysis and reporting by the sponsor. These are submitted in addition to the data tabulation datasets.", "preferredTerm": "Analysis Dataset Domain", "submissionValue": "AD", "synonyms": ["Analysis Dataset"]}, {"conceptId": "C49562", "definition": "An events domain that contains data describing untoward medical occurrences in a patient or subjects that are administered a pharmaceutical product and which may not necessarily have a causal relationship with the treatment.", "preferredTerm": "Adverse Event Domain", "submissionValue": "AE", "synonyms": ["Adverse Events"]}, {"conceptId": "C117755", "definition": "An interventions domain that contains the agents administered to the subject as part of a procedure or assessment, as opposed to drugs, medications and therapies administered with therapeutic intent.", "preferredTerm": "Procedure Agents Domain", "submissionValue": "AG", "synonyms": ["Procedure Agents"]}, {"conceptId": "C111282", "definition": "A two-letter prefix used to denote an analysis dataset that is not compliant with a defined ADaM structure.", "preferredTerm": "Non-Compliant ADaM Datasets Domain", "submissionValue": "AX", "synonyms": ["Non-Compliant ADaM Dataset"]}, {"conceptId": "C111138", "definition": "An events domain that documents actions taken that affect or may affect a specimen (e.g., specimen collection, freezing and thawing, aliquoting, transportation).", "preferredTerm": "Biospecimen Events Domain", "submissionValue": "BE", "synonyms": ["Biospecimen Events"]}, {"conceptId": "C111137", "definition": "A findings domain that contains data related to biospecimen characteristics.", "preferredTerm": "Biospecimen Domain", "submissionValue": "BS", "synonyms": ["Biospecimen Findings"]}, {"conceptId": "C85441", "definition": "An events domain that contains clinical events of interest that would not be classified as adverse events.", "preferredTerm": "Clinical Events Domain", "submissionValue": "CE", "synonyms": ["Clinical Events"]}, {"conceptId": "C49568", "definition": "An interventions domain that contains concomitant and prior medications used by the subject, such as those given on an as needed basis or condition-appropriate medications.", "preferredTerm": "Concomitant Medication Domain", "submissionValue": "CM", "synonyms": ["Concomitant/Prior Medications"]}, {"conceptId": "C49569", "definition": "A special-purpose domain that contains comments that may be collected alongside other data.", "preferredTerm": "Comment Domain", "submissionValue": "CO", "synonyms": ["Comments"]}, {"conceptId": "C181319", "definition": "A findings domain that contains data related to the characterization of cell phenotype, lineage, and function based on expression of specific markers in single cell or particle suspensions.", "preferredTerm": "Cell Phenotype Findings Domain", "submissionValue": "CP", "synonyms": ["Cell Phenotype Findings"]}, {"conceptId": "C102605", "definition": "A findings domain that contains physiological and morphological findings related to the cardiovascular system, including the heart, blood vessels and lymphatic vessels.", "preferredTerm": "Cardiovascular System Findings Domain", "submissionValue": "CV", "synonyms": ["Cardiovascular System Findings"]}, {"conceptId": "C49578", "definition": "A findings domain that contains the accountability of study product, such as information on the receipt, dispensing, return, and packaging.", "preferredTerm": "Product Accountability Domain", "submissionValue": "DA", "synonyms": ["Product Accountability"]}, {"conceptId": "C95087", "definition": "A findings domain that contains the diagnosis of the cause of death for a subject.", "preferredTerm": "Death Diagnosis Domain", "submissionValue": "DD", "synonyms": ["Death Details", "Death Diagnosis and Details"]}, {"conceptId": "C102616", "definition": "An events domain that contains data for device-related events.", "preferredTerm": "Device Events Domain", "submissionValue": "DE", "synonyms": ["Device Events"]}, {"conceptId": "C102618", "definition": "A special-purpose domain containing information that identifies a specific device unit.", "preferredTerm": "Device Identifiers Domain", "submissionValue": "DI", "synonyms": ["Device Identifiers"]}, {"conceptId": "C49572", "definition": "A special-purpose domain that includes a set of essential standard variables that describe each subject in a clinical study. It is the parent domain for all other observations for human clinical subjects.", "preferredTerm": "Demographics Domain", "submissionValue": "DM", "synonyms": ["Demographics"]}, {"conceptId": "C102619", "definition": "A findings domain that contains the device characteristics that do not vary over the course of the study.", "preferredTerm": "Device Properties Domain", "submissionValue": "DO", "synonyms": ["Device Properties"]}, {"conceptId": "C102620", "definition": "A special-purpose domain that contains the linkage of each subject to the device(s) to which they may have been exposed during the study.", "preferredTerm": "Device to Subject Relationship Domain", "submissionValue": "DR", "synonyms": ["Device-Subject Relationships"]}, {"conceptId": "C49576", "definition": "An events domain that contains information encompassing and representing data related to subject disposition.", "preferredTerm": "Disposition Domain", "submissionValue": "DS", "synonyms": ["Disposition"]}, {"conceptId": "C102621", "definition": "A events domain that contains the logistics and disposition information specific to a given device.", "preferredTerm": "Device Tracking and Disposition Domain", "submissionValue": "DT", "synonyms": ["Device Tracking and Disposition"]}, {"conceptId": "C102622", "definition": "A findings domain that contains the measurements and settings that are intentionally set on a device when it is in use. These are characteristics that exist for the device, and have a specific setting for a use instance.", "preferredTerm": "Device-In-Use Domain", "submissionValue": "DU", "synonyms": ["Device In-Use"]}, {"conceptId": "C49585", "definition": "An events domain that contains protocol violations and deviations during the course of the study.", "preferredTerm": "Protocol Deviations Domain", "submissionValue": "DV", "synonyms": ["Protocol Deviations"]}, {"conceptId": "C102617", "definition": "An interventions domain that contains a subject's exposure to a medical device under study.", "preferredTerm": "Device Exposure Domain", "submissionValue": "DX", "synonyms": ["Device Exposure"]}, {"conceptId": "C117466", "definition": "An interventions domain that contains information about protocol-specified study treatment administrations, as collected.", "preferredTerm": "Exposure as Collected Domain", "submissionValue": "EC", "synonyms": ["Exposure as Collected"]}, {"conceptId": "C102630", "definition": "A findings domain that contains physiological and morphological findings related to the endocrine system, including the glands and cells that make hormones that are released directly into the blood and travel to tissues and organs all over the body.", "preferredTerm": "Endocrine System Findings Domain", "submissionValue": "ED", "synonyms": ["Endocrine System Findings"]}, {"conceptId": "C49626", "definition": "A findings domain that contains ECG data, including position of the subject, method of evaluation, all cycle measurements and all findings from the ECG including an overall interpretation if collected or derived.", "preferredTerm": "Electrocardiogram Domain", "submissionValue": "EG", "synonyms": ["ECG Test Results"]}, {"conceptId": "C49587", "definition": "An interventions domain that contains the details of a subject's exposure to protocol-specified study treatment. Study treatment may be any intervention that is prospectively defined as a test material within a study, and is typically but not always supplied to the subject.", "preferredTerm": "Exposure Domain", "submissionValue": "EX", "synonyms": ["Exposure"]}, {"conceptId": "C85442", "definition": "A findings domain that contains the findings about an event or intervention that cannot be represented within an events or interventions domain record or as a supplemental qualifier.", "preferredTerm": "Findings About Events or Interventions Domain", "submissionValue": "FA", "synonyms": ["Findings About Events or Interventions"]}, {"conceptId": "C117756", "definition": "A findings domain that contains data for named, stand-alone, task-based evaluations designed to provide an assessment of mobility, dexterity, or cognitive ability.", "preferredTerm": "Functional Tests Domain", "submissionValue": "FT", "synonyms": ["Functional Tests"]}, {"conceptId": "C181320", "definition": "A findings domain that contains data related to the structure, function, evolution, mapping, and editing of subject and non-host organism genomic material of interest. This domain includes but is not limited to assessments and results for genetic variation and transcription, and summary measures derived from these assessments. The GF domain is used for findings from characteristics assessed from nucleic acids and may include subsequent inferences and/or predictions about related proteins/amino acids.", "preferredTerm": "Genomics Findings Domain", "submissionValue": "GF", "synonyms": ["Genomics Findings"]}, {"conceptId": "C102640", "definition": "A findings domain that contains physiological and morphological findings related to the gastrointestinal system, including the esophagus, stomach, small and large intestine, anus, liver, biliary tract and pancreas.", "preferredTerm": "Digestive System Findings Domain", "submissionValue": "GI", "synonyms": ["Gastrointestinal System Findings"]}, {"conceptId": "C102641", "definition": "A findings domain that contains physiological and morphological findings related to the hematopoietic system, including the bone marrow and lymph nodes involved in the production of blood.", "preferredTerm": "Hematopoietic System Findings Domain", "submissionValue": "HM", "synonyms": ["Hematopoietic System Findings"]}, {"conceptId": "C117757", "definition": "A events domain that contains data for inpatient and outpatient healthcare events (e.g., hospitalization, nursing home stay, rehabilitation facility stay, ambulatory surgery).", "preferredTerm": "Healthcare Encounters Domain", "submissionValue": "HO", "synonyms": ["Healthcare Encounters"]}, {"conceptId": "C61536", "definition": "A findings domain that contains those criteria that cause the subject to be in violation of the inclusion/exclusion criteria.", "preferredTerm": "Inclusion Exclusion Criteria Not Met Domain", "submissionValue": "IE", "synonyms": ["Inclusion/Exclusion Criteria Not Met"]}, {"conceptId": "C102651", "definition": "A findings domain that contains physiological and morphological findings related to the integumentary system, including the epidermis, dermis, and all of their derivatives including hairs, nails, sudoriferous glands, and sebaceous glands.", "preferredTerm": "Integumentary System Findings Domain", "submissionValue": "IG", "synonyms": ["Integumentary System Findings"]}, {"conceptId": "C112320", "definition": "A findings domain for assessments of antigen induced humoral or cell-mediated immune response in the subject.", "preferredTerm": "Immunogenicity Specimen Assessments Domain", "submissionValue": "IS", "synonyms": ["Immunogenicity Specimen Assessments"]}, {"conceptId": "C49592", "definition": "A findings domain that contains laboratory test data such as hematology, clinical chemistry and urinalysis. This domain does not include microbiology or pharmacokinetic data, which are stored in separate domains.", "preferredTerm": "Laboratory Data Domain", "submissionValue": "LB", "synonyms": ["Laboratory Test Results"]}, {"conceptId": "C49602", "definition": "A findings domain that represents non-host organisms identified including bacteria, viruses, parasites, protozoa and fungi.", "preferredTerm": "Microbiology Specimen Domain", "submissionValue": "MB", "synonyms": ["Microbiology Specimen"]}, {"conceptId": "C49603", "definition": "An events domain that contains data that includes the subject's prior medical history at the start of the trial.", "preferredTerm": "Medical History Domain", "submissionValue": "MH", "synonyms": ["Medical History"]}, {"conceptId": "C95095", "definition": "A findings domain that contains histopathology findings and microscopic evaluations.", "preferredTerm": "Microscopic Findings Domain", "submissionValue": "MI", "synonyms": ["Microscopic Findings"]}, {"conceptId": "C102674", "definition": "A findings domain that contains physiological and morphological findings related to the system of muscles, tendons, ligaments, bones, joints, and associated tissues.", "preferredTerm": "Musculoskeletal Findings, Connective and Soft Tissue Findings Domain", "submissionValue": "MK", "synonyms": ["Musculoskeletal System Findings"]}, {"conceptId": "C49604", "definition": "An interventions domain that contains information describing a subject's food product consumption.", "preferredTerm": "Meal Data Domain", "submissionValue": "ML", "synonyms": ["Meal Data"]}, {"conceptId": "C61531", "definition": "A findings domain that represents drug susceptibility testing results only. This includes phenotypic testing (where drug is added directly to a culture of organisms) and genotypic tests that provide results in terms of susceptible or resistant. Drug susceptibility testing may occur on a wide variety of non-host organisms, including bacteria, viruses, fungi, protozoa and parasites.", "preferredTerm": "Microbiology Susceptibility Domain", "submissionValue": "MS", "synonyms": ["Microbiology Susceptibility"]}, {"conceptId": "C102677", "definition": "A findings domain that contains physiological and morphological findings related to the nervous system, including the brain, spinal cord, the cranial and spinal nerves, autonomic ganglia and plexuses.", "preferredTerm": "Nervous System Findings Domain", "submissionValue": "NV", "synonyms": ["Nervous System Findings"]}, {"conceptId": "C147180", "definition": "A findings domain that contains tests that measure a person's ocular health and visual status, to detect abnormalities in the components of the visual system, and to determine how well the person can see.", "preferredTerm": "Ophthalmic Examinations Domain", "submissionValue": "OE", "synonyms": ["Ophthalmic Examinations"]}, {"conceptId": "C161329", "definition": "A special-purpose domain containing information that identifies levels of taxonomic nomenclature of microbes or parasites that have been either experimentally determined in the course of a study or are previously known, as in the case of lab strains used as reference in the study.", "preferredTerm": "Non-host Organism Identifiers Domain", "submissionValue": "OI", "synonyms": ["Non-host Organism Identifiers"]}, {"conceptId": "C49606", "definition": "A findings domain that contains concentrations of drugs or metabolites in fluids or tissues as a function of time.", "preferredTerm": "Pharmacokinetic Concentration Domain", "submissionValue": "PC", "synonyms": ["Pharmacokinetics Concentrations"]}, {"conceptId": "C49608", "definition": "A findings domain that contains findings observed during a physical examination where the body is evaluated by inspection, palpation, percussion, and auscultation.", "preferredTerm": "Physical Exam Domain", "submissionValue": "PE", "synonyms": ["Physical Examination"]}, {"conceptId": "C147181", "definition": "A dataset that identifies individual subjects included in a pool of subjects for which a single observation record (pool level) is captured.", "preferredTerm": "Pool Definition Dataset", "submissionValue": "POOLDEF", "synonyms": ["Pool Definition"]}, {"conceptId": "C49607", "definition": "A findings domain that contains pharmacokinetic parameters derived from pharmacokinetic concentration-time (PC) data.", "preferredTerm": "Pharmacokinetic Parameters Domain", "submissionValue": "PP", "synonyms": ["Pharmacokinetics Parameters"]}, {"conceptId": "C102700", "definition": "An interventions domain that contains interventional activity intended to have diagnostic, preventive, therapeutic, or palliative effects.", "preferredTerm": "Procedure Domain", "submissionValue": "PR", "synonyms": ["Procedures"]}, {"conceptId": "C49609", "definition": "A findings domain that contains data for named, stand-alone instruments designed to provide an assessment of a concept. Questionnaires have a defined standard structure, format, and content; consist of conceptually related items that are typically scored; and have documented methods for administration and analysis.", "preferredTerm": "Questionnaire Domain", "submissionValue": "QS", "synonyms": ["Questionnaires"]}, {"conceptId": "C95098", "definition": "A findings domain that contains physiological and morphological findings related to the respiratory system, including the organs that are involved in breathing such as the nose, throat, larynx, trachea, bronchi and lungs.", "preferredTerm": "Respiratory Domain", "submissionValue": "RE", "synonyms": ["Respiratory System Findings"]}, {"conceptId": "C147182", "definition": "A dataset used to describe relationships between records for a subject within or across domains, and relationships of records across datasets.", "preferredTerm": "Related Records Dataset", "submissionValue": "RELREC", "synonyms": ["Related Records"]}, {"conceptId": "C181321", "definition": "A dataset used to represent relationships between specimens.", "preferredTerm": "Related Specimens Dataset", "submissionValue": "RELSPEC", "synonyms": ["Related Specimens"]}, {"conceptId": "C147183", "definition": "A dataset used to represent relationships between study subjects.", "preferredTerm": "Related Subjects Dataset", "submissionValue": "RELSUB", "synonyms": ["Related Subjects"]}, {"conceptId": "C102707", "definition": "A findings domain that contains physiological and morphological findings related to the male and female reproductive systems.", "preferredTerm": "Reproductive System Findings Domain", "submissionValue": "RP", "synonyms": ["Reproductive System Findings"]}, {"conceptId": "C107097", "definition": "A findings domain for the assessment of disease response to therapy, or clinical classification based on published criteria.", "preferredTerm": "Disease Response Domain", "submissionValue": "RS", "synonyms": ["Disease Response and Clin Classification"]}, {"conceptId": "C177945", "definition": "An events domain that contains data describing untoward medical occurrences considered serious (SAE) in a patient or subjects that are administered a pharmaceutical product and which may not necessarily have a causal relationship with the treatment.", "preferredTerm": "Serious Adverse Events Domain", "submissionValue": "SA", "synonyms": ["Serious Adverse Events"]}, {"conceptId": "C49610", "definition": "A findings domain that contains subject-related data not collected in other domains.", "preferredTerm": "Subject Characteristics Domain", "submissionValue": "SC", "synonyms": ["Subject Characteristics"]}, {"conceptId": "C49616", "definition": "A special-purpose domain that contains the actual order of elements followed by the subject, together with the start date/time and end date/time for each element.", "preferredTerm": "Subject Element Domain", "submissionValue": "SE", "synonyms": ["Subject Elements"]}, {"conceptId": "C147184", "definition": "A special-purpose domain that is designed to record the timing, for each subject, of disease milestones that have been defined in the Trial Disease Milestones (TM) domain.", "preferredTerm": "Subject Disease Milestones Domain", "submissionValue": "SM", "synonyms": ["Subject Disease Milestones"]}, {"conceptId": "C112420", "definition": "A findings about domain for submitting dermal responses to antigens.", "preferredTerm": "Skin Response Domain", "submissionValue": "SR", "synonyms": ["Skin Response"]}, {"conceptId": "C117655", "definition": "A findings domain that contains the subject's status that is evaluated periodically to determine if it has changed.", "preferredTerm": "Subject Status Domain", "submissionValue": "SS", "synonyms": ["Subject Status"]}, {"conceptId": "C49615", "definition": "An interventions domain that contains substance use information that may be used to assess the efficacy and/or safety of therapies that look to mitigate the effects of chronic substance use.", "preferredTerm": "Substance Use Domain", "submissionValue": "SU", "synonyms": ["Substance Use"]}, {"conceptId": "C49617", "definition": "A special-purpose domain that contains information for each subject's actual and planned visits and contact events.", "preferredTerm": "Subject Visits Domain", "submissionValue": "SV", "synonyms": ["Subject Visits"]}, {"conceptId": "C49618", "definition": "A trial design domain that contains each planned arm in the trial.", "preferredTerm": "Trial Arms Domain", "submissionValue": "TA", "synonyms": ["Trial Arms"]}, {"conceptId": "C117699", "definition": "A trial design domain that provides information on the protocol-specified disease assessment schedule, to be used for comparison with the actual occurrence of the efficacy assessments in order to determine whether there was good compliance with the schedule.", "preferredTerm": "Trial Disease Assessments Domain", "submissionValue": "TD", "synonyms": ["Trial Disease Assessments"]}, {"conceptId": "C49619", "definition": "A trial design domain that contains the element code that is unique for each element, the element description, and the rules for starting and ending an element.", "preferredTerm": "Trial Elements Domain", "submissionValue": "TE", "synonyms": ["Trial Elements"]}, {"conceptId": "C49620", "definition": "A trial design domain that contains one record for each of the inclusion and exclusion criteria for the trial. This domain is not subject oriented.", "preferredTerm": "Trial Inclusion and Exclusion Criteria Domain", "submissionValue": "TI", "synonyms": ["Trial Inclusion/Exclusion Criteria"]}, {"conceptId": "C147270", "definition": "A trial design domain that is used to describe disease milestones, which are observations or activities anticipated to occur in the course of the disease under study, and which trigger the collection of data.", "preferredTerm": "Trial Disease Milestones Domain", "submissionValue": "TM", "synonyms": ["Trial Disease Milestones"]}, {"conceptId": "C106578", "definition": "A findings domain that represents quantitative measurements and/or qualitative assessments of the tumors, lesions, or locations of interest identified in the Tumor/Lesion Identification (TU) domain.", "preferredTerm": "Tumor Results Domain", "submissionValue": "TR", "synonyms": ["Tumor/Lesion Results"]}, {"conceptId": "C53483", "definition": "A trial design domain that contains one record for each trial summary characteristic. This domain is not subject oriented.", "preferredTerm": "Trial Summary Domain", "submissionValue": "TS", "synonyms": ["Trial Summary"]}, {"conceptId": "C106577", "definition": "A findings domain that represents data that uniquely identifies tumors, lesions, or locations of interest under study.", "preferredTerm": "Tumor Identifier Domain", "submissionValue": "TU", "synonyms": ["Tumor/Lesion Identification"]}, {"conceptId": "C49621", "definition": "A trial design domain that contains the planned order and number of visits in the study within each arm.", "preferredTerm": "Trial Visits Domain", "submissionValue": "TV", "synonyms": ["Trial Visits"]}, {"conceptId": "C102726", "definition": "A findings domain that contains physiological and morphological findings related to the urinary tract, including the organs involved in the creation and excretion of urine such as the kidneys, ureters, bladder and urethra.", "preferredTerm": "Urinary System Findings Domain", "submissionValue": "UR", "synonyms": ["Urinary System Findings"]}, {"conceptId": "C49622", "definition": "A findings domain that contains measurements including but not limited to blood pressure, temperature, respiration, body surface area, body mass index, height and weight.", "preferredTerm": "Vital Signs Domain", "submissionValue": "VS", "synonyms": ["Vital Signs"]}]}