{"_links": {"parentPackage": {"href": "/mdr/ct/packages/sdtmct-2021-12-17", "title": "SDTM Controlled Terminology Package 48 Effective 2021-12-17", "type": "Terminology"}, "priorVersion": {"href": "/mdr/ct/packages/sdtmct-2021-09-24/codelists/C66732", "title": "CDISC SDTM Sex of Study Group Terminology", "type": "Code List"}, "rootItem": {"href": "/mdr/root/ct/sdtmct/codelists/C66732", "title": "Version-agnostic anchor resource for codelist C66732", "type": "Root Value Domain"}, "self": {"href": "/mdr/ct/packages/sdtmct-2021-12-17/codelists/C66732", "title": "CDISC SDTM Sex of Study Group Terminology", "type": "Code List"}}, "conceptId": "C66732", "definition": "A terminology codelist relevant to the specific sex, either male, female, or mixed of the subject group being studied.", "extensible": "false", "name": "Sex of Participants Response", "preferredTerm": "CDISC SDTM Sex of Study Group Terminology", "submissionValue": "SEXPOP", "synonyms": ["Sex of Participants Response"], "terms": [{"conceptId": "C49636", "definition": "One and the other; relating to or being two in conjunction. (NCI)", "preferredTerm": "Both", "submissionValue": "BOTH"}, {"conceptId": "C16576", "definition": "A person who belongs to the sex that normally produces ova. The term is used to indicate biological sex distinctions, or cultural gender role distinctions, or both. (NCI)", "preferredTerm": "Female", "submissionValue": "F", "synonyms": ["Female"]}, {"conceptId": "C20197", "definition": "A person who belongs to the sex that normally produces sperm. The term is used to indicate biological sex distinctions, cultural gender role distinctions, or both. (NCI)", "preferredTerm": "Male", "submissionValue": "M", "synonyms": ["Male"]}]}