{"_links": {"parentPackage": {"href": "/mdr/ct/packages/sdtmct-2021-12-17", "title": "SDTM Controlled Terminology Package 48 Effective 2021-12-17", "type": "Terminology"}, "priorVersion": {"href": "/mdr/ct/packages/sdtmct-2021-09-24/codelists/C67153", "title": "CDISC SDTM Vital Sign Test Name Terminology", "type": "Code List"}, "rootItem": {"href": "/mdr/root/ct/sdtmct/codelists/C67153", "title": "Version-agnostic anchor resource for codelist C67153", "type": "Root Value Domain"}, "self": {"href": "/mdr/ct/packages/sdtmct-2021-12-17/codelists/C67153", "title": "CDISC SDTM Vital Sign Test Name Terminology", "type": "Code List"}}, "conceptId": "C67153", "definition": "The test name given to the test that analyzes a particular set of vital signs including temperature, respiratory rate, heart rate, and blood pressure.", "extensible": "true", "name": "Vital Signs Test Name", "preferredTerm": "CDISC SDTM Vital Sign Test Name Terminology", "submissionValue": "VSTEST", "synonyms": ["Vital Signs Test Name"], "terms": [{"conceptId": "C103346", "definition": "A measurement for determining the subcutaneous fat layer thickness whereby a pinch of skin approximately five centimeters to the right of the umbilicus is measured using calipers. (NCI)", "preferredTerm": "Abdominal Skinfold Thickness", "submissionValue": "Abdominal Skinfold Thickness", "synonyms": ["Abdominal Skinfold Thickness"]}, {"conceptId": "C181553", "definition": "A measurement of the length from the tip of the middle finger on one hand to the tip of the middle finger on the other hand with the individual standing against the wall with both arms abducted to 90 degrees, the elbows and wrists extended, and the palms facing directly forward. (Philip H. Quanjer, Andre Capderou, Mumtaz M. Mazicioglu, Ashutosh N. Aggarwal, Sudip Datta Banik, Stevo Popovic, Francis A.K. Tayie, Mohammad Golshan, Mary S.M. Ip, Marc Zelter. European Respiratory Journal 2014 44: 905-912)", "preferredTerm": "Arm Span", "submissionValue": "Arm Span", "synonyms": ["Arm Span", "Armspan", "Reach", "Wingspan"]}, {"conceptId": "C126083", "definition": "The measurement of a subject's energy expenditure when at rest.", "preferredTerm": "Basal Metabolic Rate", "submissionValue": "Basal Metabolic Rate", "synonyms": ["Basal Metabolic Rate"]}, {"conceptId": "C76325", "definition": "A measurement of the weight of a neonate at birth.", "preferredTerm": "Birth Weight", "submissionValue": "Birth Weight", "synonyms": ["Birth Weight"]}, {"conceptId": "C163567", "definition": "An assessed relationship of an individual's body mass index and age to that of a reference population, expressed as a percentile.", "preferredTerm": "BMI-for-Age Percentile", "submissionValue": "BMI-for-Age Percentile", "synonyms": ["BMI-for-Age Percentile"]}, {"conceptId": "C122232", "definition": "A measurement of the total fat mass within the subject's body. (NCI)", "preferredTerm": "Body Fat Measurement", "submissionValue": "Body Fat Measurement", "synonyms": ["Body Fat Measurement"]}, {"conceptId": "C49680", "definition": "The categorization of a person's body frame into small, medium and large based on the measurement of wrist circumference or the breadth of the elbow. (NCI)", "preferredTerm": "Body Frame Size", "submissionValue": "Body Frame Size", "synonyms": ["Body Frame Size"]}, {"conceptId": "C81298", "definition": "The linear extent in space from one end of the body to the other end, or the extent of the body from beginning to end.", "preferredTerm": "Total Body Length", "submissionValue": "Body Length", "synonyms": ["Body Length"]}, {"conceptId": "C16358", "definition": "A general indicator of the body fat an individual is carrying based upon the ratio of weight to height. (NCI)", "preferredTerm": "Body Mass Index", "submissionValue": "Body Mass Index", "synonyms": ["Body Mass Index"]}, {"conceptId": "C25157", "definition": "A measure of the 2-dimensional extent of the body surface (i.e., the skin). Body surface area (BSA) can be calculated by mathematical formula or from a chart that relates height to weight. BSA is often an important factor in dosing. (NCI)", "preferredTerm": "Body Surface Area", "submissionValue": "Body Surface Area", "synonyms": ["Body Surface Area"]}, {"conceptId": "C178060", "definition": "A circumferential measurement of the lower leg in the region of the calf at the widest point.", "preferredTerm": "Calf Circumference", "submissionValue": "Calf Circumference", "synonyms": ["Calf Circumference"]}, {"conceptId": "C168125", "definition": "The amount of time it takes for a capillary bed to refill with blood after pressure blanching.", "preferredTerm": "Capillary Refill Test", "submissionValue": "Capillary Refill Time", "synonyms": ["Capillary Refill Time"]}, {"conceptId": "C156606", "definition": "The distance around an individual's chest.", "preferredTerm": "Chest Circumference", "submissionValue": "Chest Circumference", "synonyms": ["Chest Circumference"]}, {"conceptId": "C174370", "definition": "A measurement of the temperature within the deep tissues of the body.", "preferredTerm": "Core Body Temperature", "submissionValue": "Core Body Temperature", "synonyms": ["Core Body Temperature"]}, {"conceptId": "C170639", "definition": "A measurement of the length of the body from the crown of the head to the bottom of the heel.", "preferredTerm": "Crown to Heel Length", "submissionValue": "Crown-to-Heel Length", "synonyms": ["Crown-to-Heel Length"]}, {"conceptId": "C25299", "definition": "The minimum blood pressure in the systemic arterial circulation during the cardiac cycle.", "preferredTerm": "Diastolic Blood Pressure", "submissionValue": "Diastolic Blood Pressure", "synonyms": ["Diastolic Blood Pressure"]}, {"conceptId": "C172610", "definition": "An assessed relationship of an individual's diastolic blood pressure and age to that of a reference population, expressed as a percentile.", "preferredTerm": "Diastolic Blood Pressure-for-Age Percentile", "submissionValue": "Diastolic BP-for-Age Percentile", "synonyms": ["Diastolic Blood Pressure-for-Age Percentile", "Diastolic BP-for-Age Percentile"]}, {"conceptId": "C172609", "definition": "An assessed relationship of an individual's diastolic blood pressure and height to that of a reference population, expressed as a percentile.", "preferredTerm": "Diastolic Blood Pressure-for-Height Percentile", "submissionValue": "Diastolic BP-for-Height Percentile", "synonyms": ["Diastolic Blood Pressure-for-Height Percentile", "Diastolic BP-for-Height Percentile"]}, {"conceptId": "C147491", "definition": "A measurement of the amount of energy used to carry out a physiological or physical function.", "preferredTerm": "Energy Expenditure", "submissionValue": "Energy Expenditure", "synonyms": ["Energy Expenditure"]}, {"conceptId": "C132482", "definition": "An approximate determination of the body weight of the subject.", "preferredTerm": "Estimated Body Weight", "submissionValue": "Estimated Weight", "synonyms": ["Estimated Body Weight", "Estimated Weight"]}, {"conceptId": "C174372", "definition": "An approximate determination of the weight of the fetus.", "preferredTerm": "Fetal Estimated Weight", "submissionValue": "Fetal Estimated Weight", "synonyms": ["Fetal Estimated Weight"]}, {"conceptId": "C158297", "definition": "A circumferential measurement of the fetal head at the widest point.", "preferredTerm": "Fetal Head Circumference", "submissionValue": "Fetal Head Circumference", "synonyms": ["Fetal Head Circumference"]}, {"conceptId": "C92716", "definition": "The number of fetal heartbeats per unit of time.", "preferredTerm": "Fetal Heart Rate", "submissionValue": "Fetal Heart Rate", "synonyms": ["Fetal Heart Rate", "Fetal HR"]}, {"conceptId": "C174375", "definition": "A measurement of the length of the fetal mandible.", "preferredTerm": "Fetal Mandibular Length", "submissionValue": "Fetal Mandibular Length", "synonyms": ["Fetal Mandibular Length"]}, {"conceptId": "C174373", "definition": "A measurement of the sagittal abdominal diameter of the fetus.", "preferredTerm": "Fetal Sagittal Abdominal Diameter", "submissionValue": "Fetal Sagittal Abdominal Diameter", "synonyms": ["Fetal SAD", "Fetal Sagittal Abdominal Diameter"]}, {"conceptId": "C174374", "definition": "An assessed relationship of the fetal weight and gestational age to that of a reference population, expressed as a percentile.", "preferredTerm": "Fetal Weight-for-Gestational Age Percentile", "submissionValue": "Fetal Weight-for-Gest Age Percentile", "synonyms": ["Fetal Weight-for-Gest Age Percentile", "Fetal Weight-for-Gestational Age Percentile"]}, {"conceptId": "C100946", "definition": "The distance around an individual's forearm.", "preferredTerm": "Forearm Circumference", "submissionValue": "Forearm Circumference", "synonyms": ["Forearm Circumference"]}, {"conceptId": "C38082", "definition": "A measurement of the volumetric fraction of oxygen in the inhaled gas.", "preferredTerm": "Fraction of Inspired Oxygen", "submissionValue": "Fraction of Inspired Oxygen", "synonyms": ["Fraction of Inspired Oxygen"]}, {"conceptId": "C81255", "definition": "A circumferential measurement of the head at the widest point.", "preferredTerm": "Head Circumference", "submissionValue": "Head Circumference", "synonyms": ["Head Circumference"]}, {"conceptId": "C49677", "definition": "The number of heartbeats per unit of time, usually expressed as beats per minute. (NCI)", "preferredTerm": "Heart Rate", "submissionValue": "Heart Rate", "synonyms": ["Heart Rate"]}, {"conceptId": "C25347", "definition": "The vertical measurement or distance from the base to the top of an object; the vertical dimension of extension. (NCI)", "preferredTerm": "Height", "submissionValue": "Height", "synonyms": ["Height"]}, {"conceptId": "C163568", "definition": "An assessed relationship of an individual's height and age to that of a reference population, expressed as a percentile.", "preferredTerm": "Height-for-Age Percentile", "submissionValue": "Height-for-Age Percentile", "synonyms": ["Height-for-Age Percentile"]}, {"conceptId": "C100947", "definition": "The distance around an individual's pelvic area or hips.", "preferredTerm": "Hip Circumference", "submissionValue": "Hip Circumference", "synonyms": ["Hip Circumference"]}, {"conceptId": "C117976", "definition": "A person's optimum weight as calculated by a standard methodology.", "preferredTerm": "Ideal Body Weight", "submissionValue": "Ideal Body Weight", "synonyms": ["Ideal Body Weight"]}, {"conceptId": "C41255", "definition": "An act or process of elucidation; explication, or explanation of the meaning of the event or thing via the assignment of objects from the domain to the constants of a formal language, truth-values to the proposition symbols, truth-functions to the connectives, other functions to the function symbols, and extensions to the predicates, if any. The assignments are result of human logic application and are not native to the symbols of the formal language.", "preferredTerm": "Interpretation", "submissionValue": "Interpretation", "synonyms": ["Interpretation"]}, {"conceptId": "C84372", "definition": "A measurement of the length of the lower leg from the top of the knee to the bottom of the heel. This measurement may be taken with a knemometer or calipers. (NCI)", "preferredTerm": "Knee to Heel Length Measurement", "submissionValue": "Knee to Heel Length", "synonyms": ["Knee to Heel Length"]}, {"conceptId": "C71258", "definition": "The weight of all organs and tissue in an individual less the weight of the individual's body fat.", "preferredTerm": "Lean Body Mass", "submissionValue": "Lean Body Mass", "synonyms": ["Lean Body Mass"]}, {"conceptId": "C174233", "definition": "A measurement of the length of the mandible.", "preferredTerm": "Mandibular Length", "submissionValue": "Mandibular Length", "synonyms": ["Mandibular Length"]}, {"conceptId": "C147492", "definition": "The predicted upper limit for an individual's heart rate, which is calculated as 220 minus the subject's age for men, and 210 minus the subject's age for women.", "preferredTerm": "Maximum Predicted Heart Rate", "submissionValue": "Maximum Predicted Heart Rate", "synonyms": ["Maximum Predicted Heart Rate"]}, {"conceptId": "C49679", "definition": "The mean pressure of the blood within the arterial circulation.", "preferredTerm": "Mean Arterial Pressure", "submissionValue": "Mean Arterial Pressure", "synonyms": ["Mean Arterial Pressure"]}, {"conceptId": "C124475", "definition": "The distance around an individual's upper arm, at the widest point.", "preferredTerm": "Mid-Upper Arm Circumference", "submissionValue": "Mid-Upper Arm Circumference", "synonyms": ["Mid-Upper Arm Circumference"]}, {"conceptId": "C154891", "definition": "A circumferential measurement of the neck, just below the larynx.", "preferredTerm": "Neck Circumference", "submissionValue": "Neck Circumference", "synonyms": ["Neck Circumference"]}, {"conceptId": "C60832", "definition": "A measurement of the oxygen-hemoglobin saturation of a volume of blood.", "preferredTerm": "Oxygen Saturation Measurement", "submissionValue": "Oxygen Saturation", "synonyms": ["Oxygen Saturation"]}, {"conceptId": "C174311", "definition": "A relative measurement (ratio or percentage) of the oxygen-hemoglobin saturation of a volume of blood to the volumetric fraction of oxygen in the inhaled gas.", "preferredTerm": "Oxygen Saturation/Fraction Inspired O2", "submissionValue": "Oxygen Saturation/Fraction Inspired O2", "synonyms": ["Oxygen Saturation/Fraction Inspired O2"]}, {"conceptId": "C174371", "definition": "A measurement of the temperature of the body at or near its surface.", "preferredTerm": "Peripheral Body Temperature", "submissionValue": "Peripheral Body Temperature", "synonyms": ["Peripheral Body Temperature"]}, {"conceptId": "C100945", "definition": "The change in systolic to diastolic pressure which produces a pulse.", "preferredTerm": "Pulse Pressure", "submissionValue": "Pulse Pressure", "synonyms": ["Pulse Pressure"]}, {"conceptId": "C49676", "definition": "The rate of the pulse as observed in an artery, expressed as beats per minute. It can be measured at several anatomical sites, including the wrist, neck, temple, groin, behind the knees, or on top of the foot. (NCI)", "preferredTerm": "Pulse Rate", "submissionValue": "Pulse Rate", "synonyms": ["Pulse Rate"]}, {"conceptId": "C49678", "definition": "The rate of breathing (inhalation and exhalation) measured within in a unit time, usually expressed as breaths per minute. (NCI)", "preferredTerm": "Respiratory Rate", "submissionValue": "Respiratory Rate", "synonyms": ["Respiratory Rate"]}, {"conceptId": "C87054", "definition": "A standard measure of visceral obesity, or abdominal fat, which is measured from the patient's back to upper abdomen between the bottom of the rib cage and the top of the pelvic area. This measurement may be taken with the patient standing or in the supine position. (NCI)", "preferredTerm": "Sagittal Abdominal Diameter", "submissionValue": "Sagittal Abdominal Diameter", "synonyms": ["Sagittal Abdominal Diameter"]}, {"conceptId": "C98785", "definition": "A measurement of the thickness of a pinch of skin situated below or on the underside of the scapula. (NCI)", "preferredTerm": "Subscapular Skinfold Thickness", "submissionValue": "Subscapular Skinfold Thickness", "synonyms": ["Subscapular Skinfold Thickness"]}, {"conceptId": "C25298", "definition": "The maximum blood pressure in the systemic arterial circulation during the cardiac cycle.", "preferredTerm": "Systolic Blood Pressure", "submissionValue": "Systolic Blood Pressure", "synonyms": ["Systolic Blood Pressure"]}, {"conceptId": "C172608", "definition": "An assessed relationship of an individual's systolic blood pressure and age to that of a reference population, expressed as a percentile.", "preferredTerm": "Systolic Blood Pressure-for-Age Percentile", "submissionValue": "Systolic BP-for-Age Percentile", "synonyms": ["Systolic Blood Pressure-for-Age Percentile", "Systolic BP-for-Age Percentile"]}, {"conceptId": "C172607", "definition": "An assessed relationship of an individual's systolic blood pressure and height to that of a reference population, expressed as a percentile.", "preferredTerm": "Systolic Blood Pressure-for-Height Percentile", "submissionValue": "Systolic BP-for-Height Percentile", "synonyms": ["Systolic Blood Pressure-for-Height Percentile", "Systolic BP-for-Height Percentile"]}, {"conceptId": "C174446", "definition": "A measurement of the temperature of the body.", "preferredTerm": "Body Temperature", "submissionValue": "Temperature", "synonyms": ["Body Temperature", "Temperature"]}, {"conceptId": "C104622", "definition": "A measurement of the quantity of water within the body, including both the intracellular and extracellular compartments.", "preferredTerm": "Total Body Water Measurement", "submissionValue": "Total Body Water", "synonyms": ["Total Body Water"]}, {"conceptId": "C98793", "definition": "A measurement of the thickness of a pinch of skin on the triceps. (NCI)", "preferredTerm": "Triceps Skinfold Thickness", "submissionValue": "Triceps Skinfold Thickness", "synonyms": ["Triceps Skinfold Thickness"]}, {"conceptId": "C174376", "definition": "A measurement of the length of the ulna.", "preferredTerm": "Ulnar Length", "submissionValue": "Ulnar Length", "synonyms": ["Ulnar Length"]}, {"conceptId": "C100948", "definition": "The distance around an individual's midsection or waist.", "preferredTerm": "Waist Circumference", "submissionValue": "Waist Circumference", "synonyms": ["Waist Circumference"]}, {"conceptId": "C181552", "definition": "A measurement from the top of the waist to the bottom of the heel.", "preferredTerm": "Waist to Heel Length", "submissionValue": "Waist to Heel Length", "synonyms": ["Waist to Heel Length"]}, {"conceptId": "C17651", "definition": "A relative measurement (ratio) of the waist circumference to the hip circumference.", "preferredTerm": "Waist-Hip Ratio", "submissionValue": "Waist to Hip Ratio", "synonyms": ["Waist to Hip Ratio"]}, {"conceptId": "C25208", "definition": "The vertical force exerted by a mass as a result of gravity. (NCI)", "preferredTerm": "Weight", "submissionValue": "Weight", "synonyms": ["Weight"]}, {"conceptId": "C163569", "definition": "An assessed relationship of an individual's weight and age to that of a reference population, expressed as a percentile.", "preferredTerm": "Weight-for-Age Percentile", "submissionValue": "Weight-for-Age Percentile", "synonyms": ["Weight-for-Age Percentile"]}, {"conceptId": "C163570", "definition": "An assessed relationship of an individual's weight and height to that of a reference population, expressed as a percentile.", "preferredTerm": "Weight-for-Height Percentile", "submissionValue": "Weight-for-Height Percentile", "synonyms": ["Weight-for-Height Percentile"]}]}