{"_links": {"parentPackage": {"href": "/mdr/ct/packages/sdtmct-2021-12-17", "title": "SDTM Controlled Terminology Package 48 Effective 2021-12-17", "type": "Terminology"}, "priorVersion": {"href": "/mdr/ct/packages/sdtmct-2021-09-24/codelists/C99074", "title": "CDISC SDTM Directionality Terminology", "type": "Code List"}, "rootItem": {"href": "/mdr/root/ct/sdtmct/codelists/C99074", "title": "Version-agnostic anchor resource for codelist C99074", "type": "Root Value Domain"}, "self": {"href": "/mdr/ct/packages/sdtmct-2021-12-17/codelists/C99074", "title": "CDISC SDTM Directionality Terminology", "type": "Code List"}}, "conceptId": "C99074", "definition": "CDISC terminology for anatomical location or specimen further detailing directionality.", "extensible": "true", "name": "Directionality", "preferredTerm": "CDISC SDTM Directionality Terminology", "submissionValue": "DIR", "synonyms": ["Directionality"], "terms": [{"conceptId": "C25231", "definition": "Denoting the front portion of the body or a structure.", "preferredTerm": "Anterior", "submissionValue": "ANTERIOR"}, {"conceptId": "C25422", "definition": "Denoting the area of the body in front of and away from the middle line.", "preferredTerm": "Anterolateral", "submissionValue": "ANTEROLATERAL"}, {"conceptId": "C147159", "definition": "Denoting the front portion of the body towards the median plane.", "preferredTerm": "Anteromedial", "submissionValue": "ANTEROMEDIAL"}, {"conceptId": "C85512", "definition": "Directed from front to back.", "preferredTerm": "Anteroposterior Orientation", "submissionValue": "ANTEROPOSTERIOR"}, {"conceptId": "C165868", "definition": "Denoting the front portion of the body toward the temple.", "preferredTerm": "Anterotemporal", "submissionValue": "ANTEROTEMPORAL"}, {"conceptId": "C25423", "definition": "Relating to or located at the apex.", "preferredTerm": "Apical", "submissionValue": "APICAL"}, {"conceptId": "C90067", "definition": "Relating to or located at the lowest portion of a structure.", "preferredTerm": "Basal", "submissionValue": "BASAL"}, {"conceptId": "C73851", "definition": "Toward the tail in a body.", "preferredTerm": "Caudal", "submissionValue": "CAUDAL"}, {"conceptId": "C25445", "definition": "A point or area that is approximately central within some larger region or structure. (NCI)", "preferredTerm": "Center", "submissionValue": "CENTRAL"}, {"conceptId": "C37936", "definition": "Toward the head in a body.", "preferredTerm": "Cranial", "submissionValue": "CRANIAL"}, {"conceptId": "C25240", "definition": "Extending relatively far inward. (NCI)", "preferredTerm": "Deep", "submissionValue": "DEEP"}, {"conceptId": "C147160", "definition": "Pertaining to the farthest portion from the palm side of a hand or the sole side of a foot.", "preferredTerm": "Distal Volar", "submissionValue": "DISTAL VOLAR"}, {"conceptId": "C25237", "definition": "Situated farthest from a point of reference.", "preferredTerm": "Distal", "submissionValue": "DISTAL"}, {"conceptId": "C45874", "definition": "Pertaining to the back or upper surface of the body.", "preferredTerm": "Dorsal", "submissionValue": "DORSAL"}, {"conceptId": "C90376", "definition": "Toward the back and side of a body.", "preferredTerm": "Dorsolateral", "submissionValue": "DORSOLATERAL"}, {"conceptId": "C161327", "definition": "Of, or related to, or in the direction of the face. (NCI)", "preferredTerm": "Facial", "submissionValue": "FACIAL"}, {"conceptId": "C90386", "definition": "Of or involving the front of a main body. (NCI)", "preferredTerm": "Fore", "submissionValue": "FORE"}, {"conceptId": "C161325", "definition": "Of, or related to, or in the direction of the front of the body, structure, or object. (NCI)", "preferredTerm": "Frontal", "submissionValue": "FRONTAL"}, {"conceptId": "C90393", "definition": "Of or involving the back of a main body. (NCI)", "preferredTerm": "Hind", "submissionValue": "HIND"}, {"conceptId": "C25353", "definition": "Pertaining to a point below a given reference point.", "preferredTerm": "Inferior", "submissionValue": "INFERIOR"}, {"conceptId": "C37980", "definition": "Inside or closer to the inside of the body or object. (NCI)", "preferredTerm": "Inner", "submissionValue": "INNER"}, {"conceptId": "C73705", "definition": "Located between two points or extremes.", "preferredTerm": "Intermediate", "submissionValue": "INTERMEDIATE"}, {"conceptId": "C25230", "definition": "Situated at or extending to the side.", "preferredTerm": "Lateral", "submissionValue": "LATERAL"}, {"conceptId": "C147161", "definition": "Pertaining to the lower portion of the surface on the opposite side of the joint when it bends.", "preferredTerm": "Lower Extensor Surface", "submissionValue": "LOWER EXTENSOR SURFACE"}, {"conceptId": "C147162", "definition": "Pertaining to the lower portion of the surface on the same side of the joint when it bends.", "preferredTerm": "Lower Flexor Surface", "submissionValue": "LOWER FLEXOR SURFACE"}, {"conceptId": "C147163", "definition": "Denoting the lower portion of the body towards the median plane.", "preferredTerm": "Lower Medial", "submissionValue": "LOWER MEDIAL"}, {"conceptId": "C25309", "definition": "The bottom one of two. (NCI)", "preferredTerm": "Lower", "submissionValue": "LOWER"}, {"conceptId": "C25232", "definition": "Toward the middle or in a limb toward the median plane.", "preferredTerm": "Medial", "submissionValue": "MEDIAL"}, {"conceptId": "C81170", "definition": "A medial line, especially the medial line or medial plane of the body (or some part of the body).", "preferredTerm": "Midline", "submissionValue": "MIDLINE"}, {"conceptId": "C27958", "definition": "Of, or related to, or in the direction of the nose.", "preferredTerm": "Nasal", "submissionValue": "NASAL"}, {"conceptId": "C161326", "definition": "Of, or related to, or in the direction of the occiput, or back of the head. (NCI)", "preferredTerm": "Occipital", "submissionValue": "OCCIPITAL"}, {"conceptId": "C38166", "definition": "Being on or toward the outside of the body or object. (NCI)", "preferredTerm": "Outer", "submissionValue": "OUTER"}, {"conceptId": "C170564", "definition": "Of, or related to, the area of the body where the parietal and occipital lobes of the brain meet.", "preferredTerm": "Parieto-Occipital", "submissionValue": "PARIETO-OCCIPITAL"}, {"conceptId": "C25233", "definition": "On or near an edge or constituting an outer boundary; the outer area. (NCI)", "preferredTerm": "Peripheral", "submissionValue": "PERIPHERAL"}, {"conceptId": "C165869", "definition": "Of, or pertaining to, the area surrounding the ventricles of the brain.", "preferredTerm": "Periventricular", "submissionValue": "PERIVENTRICULAR"}, {"conceptId": "C25622", "definition": "Denoting the back portion of the body or a structure.", "preferredTerm": "Posterior", "submissionValue": "POSTERIOR"}, {"conceptId": "C147164", "definition": "Pertaining to the nearest portion from the palm side of a hand or the sole side of a foot.", "preferredTerm": "Proximal Volar", "submissionValue": "PROXIMAL VOLAR"}, {"conceptId": "C25236", "definition": "Situated nearest to a point of reference.", "preferredTerm": "Proximal", "submissionValue": "PROXIMAL"}, {"conceptId": "C94393", "definition": "Toward the muzzle in the head.", "preferredTerm": "Rostral", "submissionValue": "ROSTRAL"}, {"conceptId": "C165870", "definition": "Denoting the area below a cortex.", "preferredTerm": "Subcortical", "submissionValue": "SUBCORTICAL"}, {"conceptId": "C25239", "definition": "Of or pertaining to the exterior surface. (NCI)", "preferredTerm": "Superficial", "submissionValue": "SUPERFICIAL"}, {"conceptId": "C25235", "definition": "Pertaining to a point above a given reference point.", "preferredTerm": "Superior", "submissionValue": "SUPERIOR"}, {"conceptId": "C25245", "definition": "The extended two-dimensional outer layer or area of a three-dimensional object. (NCI)", "preferredTerm": "Surface", "submissionValue": "SURFACE"}, {"conceptId": "C117754", "definition": "Of, or related to, or in the direction of the anatomic sites that are located in the temple.", "preferredTerm": "Temporal Anatomic Qualifier", "submissionValue": "TEMPORAL"}, {"conceptId": "C90069", "definition": "The pointed end of a structure.", "preferredTerm": "Tip", "submissionValue": "TIP"}, {"conceptId": "C147165", "definition": "Pertaining to the upper portion of the surface on the opposite side of the joint when it bends.", "preferredTerm": "Upper Extensor Surface", "submissionValue": "UPPER EXTENSOR SURFACE"}, {"conceptId": "C147166", "definition": "Pertaining to the upper portion of the surface on the same side of the joint when it bends.", "preferredTerm": "Upper Flexor Surface", "submissionValue": "UPPER FLEXOR SURFACE"}, {"conceptId": "C25355", "definition": "The top one of two.", "preferredTerm": "Upper", "submissionValue": "UPPER"}, {"conceptId": "C45875", "definition": "Pertaining to the front or lower surface of the body.", "preferredTerm": "Ventral", "submissionValue": "VENTRAL"}, {"conceptId": "C98798", "definition": "Of or pertaining to the front and side of a main body. (NCI)", "preferredTerm": "Ventrolateral", "submissionValue": "VENTROLATERAL"}, {"conceptId": "C147167", "definition": "Pertaining to the palm side of a hand or the sole side of a foot.", "preferredTerm": "Volar", "submissionValue": "VOLAR"}]}