{"_links": {"parentPackage": {"href": "/mdr/ct/packages/sendct-2019-03-29", "title": "SEND Controlled Terminology Package 37 Effective 2019-03-29", "type": "Terminology"}, "priorVersion": {"href": "/mdr/ct/packages/sendct-2018-12-21/codelists/C120530", "title": "CDISC SEND Distribution Terminology", "type": "Code List"}, "rootItem": {"href": "/mdr/root/ct/sendct/codelists/C120530", "title": "Version-agnostic anchor resource for codelist C120530", "type": "Root Value Domain"}, "self": {"href": "/mdr/ct/packages/sendct-2019-03-29/codelists/C120530", "title": "CDISC SEND Distribution Terminology", "type": "Code List"}}, "conceptId": "C120530", "definition": "Terminology relevant to the distribution of a finding within a specimen.", "extensible": "true", "name": "Distribution", "preferredTerm": "CDISC SEND Distribution Terminology", "submissionValue": "DSTRBN", "synonyms": ["Distribution"], "terms": [{"conceptId": "C14175", "definition": "Widely spread; not localized or confined.", "preferredTerm": "Diffuse", "submissionValue": "DIFFUSE", "synonyms": ["Widespread"]}, {"conceptId": "C28224", "definition": "Limited to a specific area.", "preferredTerm": "Focal", "submissionValue": "FOCAL"}, {"conceptId": "C120857", "definition": "A finding that generally has features of focal and multifocal distribution.", "preferredTerm": "Focal/Multifocal", "submissionValue": "FOCAL/MULTIFOCAL"}, {"conceptId": "C120858", "definition": "Being widespread throughout a specific area.", "preferredTerm": "Locally Extensive", "submissionValue": "LOCALLY EXTENSIVE", "synonyms": ["Focally Extensive", "Regionally Extensive"]}, {"conceptId": "C25253", "definition": "Arising from, pertaining to, or having many locations.", "preferredTerm": "Multifocal", "submissionValue": "MULTIFOCAL"}, {"conceptId": "C17648", "definition": "More than one. (NCI)", "preferredTerm": "Multiple", "submissionValue": "MULTIPLE"}, {"conceptId": "C48440", "definition": "One.", "preferredTerm": "Single", "submissionValue": "SINGLE"}]}