{"_links": {"parentPackage": {"href": "/mdr/ct/packages/sendct-2019-03-29", "title": "SEND Controlled Terminology Package 37 Effective 2019-03-29", "type": "Terminology"}, "priorVersion": {"href": "/mdr/ct/packages/sendct-2018-12-21/codelists/C124315", "title": "CDISC SEND Fetal Pathology Findings Test Name Terminology", "type": "Code List"}, "rootItem": {"href": "/mdr/root/ct/sendct/codelists/C124315", "title": "Version-agnostic anchor resource for codelist C124315", "type": "Root Value Domain"}, "self": {"href": "/mdr/ct/packages/sendct-2019-03-29/codelists/C124315", "title": "CDISC SEND Fetal Pathology Findings Test Name Terminology", "type": "Code List"}}, "conceptId": "C124315", "definition": "Terminology for the test names relevant to fetal pathology findings.", "extensible": "true", "name": "Fetal Pathology Findings Test Name", "preferredTerm": "CDISC SEND Fetal Pathology Findings Test Name Terminology", "submissionValue": "FXTEST", "synonyms": ["Fetal Pathology Findings Test Name"], "terms": [{"conceptId": "C124596", "definition": "An assessment of the  outer body structures.", "preferredTerm": "External Examination", "submissionValue": "External Examination", "synonyms": ["External Examination"]}, {"conceptId": "C124597", "definition": "An assessment of the shared maternal and fetal tissues including amniotic fluid, umbilical cord and placenta.", "preferredTerm": "Maternal-Fetal Examination", "submissionValue": "Maternal-Fetal Examination", "synonyms": ["Maternal-Fetal Examination"]}, {"conceptId": "C124598", "definition": "An assessment of the bone and cartilage structures.", "preferredTerm": "Skeletal Examination", "submissionValue": "Skeletal Examination", "synonyms": ["Skeletal Examination"]}, {"conceptId": "C124599", "definition": "An assessment of the internal soft tissue structures.", "preferredTerm": "Visceral Examination", "submissionValue": "Visceral Examination", "synonyms": ["Visceral Examination"]}]}