{"_links": {"parentPackage": {"href": "/mdr/ct/packages/sendct-2019-03-29", "title": "SEND Controlled Terminology Package 37 Effective 2019-03-29", "type": "Terminology"}, "priorVersion": {"href": "/mdr/ct/packages/sendct-2018-12-21/codelists/C66786", "title": "CDISC SEND Country Terminology", "type": "Code List"}, "rootItem": {"href": "/mdr/root/ct/sendct/codelists/C66786", "title": "Version-agnostic anchor resource for codelist C66786", "type": "Root Value Domain"}, "self": {"href": "/mdr/ct/packages/sendct-2019-03-29/codelists/C66786", "title": "CDISC SEND Country Terminology", "type": "Code List"}}, "conceptId": "C66786", "definition": "A collective generic term that refers here to a wide variety of dependencies, areas of special sovereignty, uninhabited islands, and other entities in addition to the traditional countries or independent states. (NCI)", "extensible": "false", "name": "Country", "preferredTerm": "CDISC SEND Country Terminology", "submissionValue": "COUNTRY", "synonyms": ["Country"], "terms": [{"conceptId": "C17884", "definition": "Island in the Caribbean Sea, north of Venezuela. (NCI)", "preferredTerm": "Aruba", "submissionValue": "ABW", "synonyms": ["ARUBA"]}, {"conceptId": "C16267", "definition": "A country in Southern Asia, north and west of Pakistan, east of Iran. (NCI)", "preferredTerm": "Afghanistan", "submissionValue": "AFG", "synonyms": ["AFGHANISTAN"]}, {"conceptId": "C16292", "definition": "A country in Southern Africa, bordering the South Atlantic Ocean, between Namibia and Democratic Republic of the Congo. (NCI)", "preferredTerm": "Angola", "submissionValue": "AGO", "synonyms": ["ANGOLA"]}, {"conceptId": "C20133", "definition": "An island in the Caribbean Sea, east of Puerto Rico. (NCI)", "preferredTerm": "Anguilla", "submissionValue": "AIA", "synonyms": ["ANGUILLA"]}, {"conceptId": "C44481", "definition": "An archipelago in the Baltic Sea at the entrance to the Gulf of Bothnia between Sweden and Finland. (NCI)", "preferredTerm": "Aland Islands", "submissionValue": "ALA", "synonyms": ["ALAND ISLANDS"]}, {"conceptId": "C16271", "definition": "A country in Southeastern Europe, bordering the Adriatic Sea and Ionian Sea, between Greece and Serbia and Montenegro. (NCI)", "preferredTerm": "Albania", "submissionValue": "ALB", "synonyms": ["ALBANIA"]}, {"conceptId": "C16289", "definition": "A country in Southwestern Europe, between France and Spain. (NCI)", "preferredTerm": "Andorra", "submissionValue": "AND", "synonyms": ["ANDORRA"]}, {"conceptId": "C17232", "definition": "A country in the Middle East, bordering the Gulf of Oman and the Persian Gulf, between Oman and Saudi Arabia. (NCI)", "preferredTerm": "United Arab Emirates", "submissionValue": "ARE", "synonyms": ["UNITED ARAB EMIRATES"]}, {"conceptId": "C16305", "definition": "A country in Southern South America, bordering the South Atlantic Ocean, between Chile and Uruguay. (NCI)", "preferredTerm": "Argentina", "submissionValue": "ARG", "synonyms": ["ARGENTINA"]}, {"conceptId": "C16306", "definition": "A country in Southwestern Asia, east of Turkey. (NCI)", "preferredTerm": "Armenia", "submissionValue": "ARM", "synonyms": ["ARMENIA"]}, {"conceptId": "C17739", "definition": "A group of islands in the South Pacific Ocean, about half way between Hawaii and New Zealand. (NCI)", "preferredTerm": "American Samoa", "submissionValue": "ASM", "synonyms": ["AMERICAN SAMOA"]}, {"conceptId": "C18007", "definition": "The continent lying mostly south of the Antarctic Circle. (NCI)", "preferredTerm": "Antarctica", "submissionValue": "ATA", "synonyms": ["ANTARCTICA"]}, {"conceptId": "C20105", "definition": "Islands in the southern Indian Ocean, south of Africa, about equidistant between Africa, Antarctica, and Australia. (NCI)", "preferredTerm": "French Southern and Antarctic Lands", "submissionValue": "ATF", "synonyms": ["FRENCH SOUTHERN TERRITORIES"]}, {"conceptId": "C16303", "definition": "Islands between the Caribbean Sea and the North Atlantic Ocean, east-southeast of Puerto Rico. (NCI)", "preferredTerm": "Antigua and Barbuda", "submissionValue": "ATG", "synonyms": ["ANTIGUA AND BARBUDA"]}, {"conceptId": "C16311", "definition": "The continent between the Indian Ocean and the South Pacific Ocean. (NCI)", "preferredTerm": "Australia", "submissionValue": "AUS", "synonyms": ["AUSTRALIA"]}, {"conceptId": "C16312", "definition": "A country in Central Europe, north of Italy and Slovenia. (NCI)", "preferredTerm": "Austria", "submissionValue": "AUT", "synonyms": ["AUSTRIA"]}, {"conceptId": "C16316", "definition": "A country in Southwestern Asia, bordering the Caspian Sea, between Iran and Russia. (NCI)", "preferredTerm": "Azerbaijan", "submissionValue": "AZE", "synonyms": ["AZERBAIJAN"]}, {"conceptId": "C16371", "definition": "A country in Central Africa, east of Democratic Republic of the Congo. (NCI)", "preferredTerm": "Burundi", "submissionValue": "BDI", "synonyms": ["BURUNDI"]}, {"conceptId": "C16329", "definition": "A country in Western Europe, bordering the North Sea, between France and the Netherlands. (NCI)", "preferredTerm": "Belgium", "submissionValue": "BEL", "synonyms": ["BELGIUM"]}, {"conceptId": "C16333", "definition": "A country in Western Africa, bordering the North Atlantic Ocean, between Nigeria and Togo. (NCI)", "preferredTerm": "Benin", "submissionValue": "BEN", "synonyms": ["BENIN", "BENIN REPUBLIC"]}, {"conceptId": "C101224", "definition": "Three Caribbean islands that are part of the Lesser Antilles; Bonaire is east of Aruba and Curacao off the coast of Venezuela, Sint Eustatius and Saba are located south of Sint Maarten and northeast of Saint Kitts and Nevis. (NCI)", "preferredTerm": "Bonaire, Sint Eustatius and Saba", "submissionValue": "BES", "synonyms": ["BONAIRE, SINT EUSTATIUS AND SABA"]}, {"conceptId": "C16369", "definition": "A country in Western Africa, north of Ghana. (NCI)", "preferredTerm": "Burkina Faso", "submissionValue": "BFA", "synonyms": ["BURKINA FASO"]}, {"conceptId": "C16323", "definition": "A country in Southern Asia, bordering the Bay of Bengal, between Burma and India. (NCI)", "preferredTerm": "Bangladesh", "submissionValue": "BGD", "synonyms": ["BANGLADESH"]}, {"conceptId": "C16368", "definition": "A country in Southeastern Europe, bordering the Black Sea, between Romania and Turkey. (NCI)", "preferredTerm": "Bulgaria", "submissionValue": "BGR", "synonyms": ["BULGARIA"]}, {"conceptId": "C16322", "definition": "An archipelago in the Persian Gulf, east of Saudi Arabia. (NCI)", "preferredTerm": "Bahrain", "submissionValue": "BHR", "synonyms": ["BAHRAIN"]}, {"conceptId": "C16321", "definition": "A chain of islands in the North Atlantic Ocean, southeast of Florida. (NCI)", "preferredTerm": "Bahamas", "submissionValue": "BHS", "synonyms": ["BAHAMAS"]}, {"conceptId": "C16361", "definition": "A country in Southeastern Europe, bordering the Adriatic Sea and Croatia. (NCI)", "preferredTerm": "Bosnia and Herzegovina", "submissionValue": "BIH", "synonyms": ["BOSNIA AND HERZEGOVINA", "BOSNIA-HERZEGOVINA"]}, {"conceptId": "C83609", "definition": "An island in the Caribbean sea, between Saint Martin and Saint Kitts and Nevis. (NCI)", "preferredTerm": "Saint Barthelemy", "submissionValue": "BLM", "synonyms": ["SAINT BARTHELEMY"]}, {"conceptId": "C16372", "definition": "A country in Eastern Europe, east of Poland. (NCI)", "preferredTerm": "Belarus", "submissionValue": "BLR", "synonyms": ["BELARUS"]}, {"conceptId": "C16331", "definition": "A country in Central America, bordering the Caribbean Sea, between Guatemala and Mexico. (NCI)", "preferredTerm": "Belize", "submissionValue": "BLZ", "synonyms": ["BELIZE"]}, {"conceptId": "C16334", "definition": "A group of islands in the North Atlantic Ocean, east of South Carolina. (NCI)", "preferredTerm": "Bermuda", "submissionValue": "BMU", "synonyms": ["BERMUDA"]}, {"conceptId": "C16359", "definition": "A country in Central South America, southwest of Brazil. (NCI)", "preferredTerm": "Bolivia, Plurinational State of", "submissionValue": "BOL", "synonyms": ["BOLIVIA", "BOLIVIA, PLURINATIONAL STATE OF"]}, {"conceptId": "C16364", "definition": "A country in Eastern South America, bordering the Atlantic Ocean. (NCI)", "preferredTerm": "Brazil", "submissionValue": "BRA", "synonyms": ["BRAZIL"]}, {"conceptId": "C16324", "definition": "An island between the Caribbean Sea and the North Atlantic Ocean, northeast of Venezuela. (NCI)", "preferredTerm": "Barbados", "submissionValue": "BRB", "synonyms": ["BARBADOS"]}, {"conceptId": "C16367", "definition": "A country in Southeastern Asia, bordering the South China Sea and Malaysia. (NCI)", "preferredTerm": "Brunei Darussalam", "submissionValue": "BRN", "synonyms": ["BRUNEI", "BRUNEI DARUSSALAM"]}, {"conceptId": "C16336", "definition": "A country in Southern Asia, between China and India. (NCI)", "preferredTerm": "Bhutan", "submissionValue": "BTN", "synonyms": ["BHUTAN"]}, {"conceptId": "C20104", "definition": "An island in the South Atlantic Ocean, south-southwest of the Cape of Good Hope (South Africa). (NCI)", "preferredTerm": "Bouvet Island", "submissionValue": "BVT", "synonyms": ["BOUVET ISLAND"]}, {"conceptId": "C16363", "definition": "A country in Southern Africa, north of South Africa. (NCI)", "preferredTerm": "Botswana", "submissionValue": "BWA", "synonyms": ["BOTSWANA"]}, {"conceptId": "C16409", "definition": "A country in Central Africa, north of Democratic Republic of the Congo. (NCI)", "preferredTerm": "Central African Republic", "submissionValue": "CAF", "synonyms": ["CENTRAL AFRICAN REPUBLIC"]}, {"conceptId": "C16380", "definition": "A country in Northern North America, bordering the North Atlantic Ocean on the east, North Pacific Ocean on the west, and the Arctic Ocean on the north, north of the conterminous US. (NCI)", "preferredTerm": "Canada", "submissionValue": "CAN", "synonyms": ["CANADA"]}, {"conceptId": "C16445", "definition": "A group of islands in the Indian Ocean, south of Indonesia, about halfway from Australia to Sri Lanka. (NCI)", "preferredTerm": "Cocos (Keeling) Islands", "submissionValue": "CCK", "synonyms": ["COCOS (KEELING) ISLANDS"]}, {"conceptId": "C17181", "definition": "A country in Central Europe, east of France, north of Italy. (NCI)", "preferredTerm": "Switzerland", "submissionValue": "CHE", "synonyms": ["SWITZERLAND"]}, {"conceptId": "C16427", "definition": "A country in Southern South America, bordering the South Atlantic Ocean and South Pacific Ocean, between Argentina and Peru. (NCI)", "preferredTerm": "Chile", "submissionValue": "CHL", "synonyms": ["CHILE"]}, {"conceptId": "C16428", "definition": "A country in Eastern Asia, bordering the East China Sea, Korea Bay, Yellow Sea, and South China Sea, between North Korea and Vietnam. (NCI)", "preferredTerm": "China", "submissionValue": "CHN", "synonyms": ["CHINA"]}, {"conceptId": "C16762", "definition": "A country in Western Africa, bordering the North Atlantic Ocean, between Ghana and Liberia. (NCI)", "preferredTerm": "Cote d'Ivoire", "submissionValue": "CIV", "synonyms": ["COTE D'IVOIRE"]}, {"conceptId": "C16379", "definition": "A country in Western Africa, bordering the Bight of Biafra, between Equatorial Guinea and Nigeria. (NCI)", "preferredTerm": "Cameroon", "submissionValue": "CMR", "synonyms": ["CAMEROON"]}, {"conceptId": "C17266", "definition": "A country in Central Africa, northeast of Angola. (NCI)", "preferredTerm": "Congo, the Democratic Republic of the", "submissionValue": "COD", "synonyms": ["CONGO, THE DEMOCRATIC REPUBLIC OF", "DEMOCRATIC REPUBLIC OF THE CONGO"]}, {"conceptId": "C16467", "definition": "A country in Western Africa, bordering the South Atlantic Ocean, between Angola and Gabon. (NCI)", "preferredTerm": "Congo", "submissionValue": "COG", "synonyms": ["CONGO"]}, {"conceptId": "C16469", "definition": "A group of islands in the South Pacific Ocean, about one-half of the way from Hawaii to New Zealand. (NCI)", "preferredTerm": "Cook Islands", "submissionValue": "COK", "synonyms": ["COOK ISLANDS"]}, {"conceptId": "C16449", "definition": "A country in Northern South America, bordering the Caribbean Sea, between Panama and Venezuela, and bordering the North Pacific Ocean, between Ecuador and Panama. (NCI)", "preferredTerm": "Colombia", "submissionValue": "COL", "synonyms": ["COLOMBIA"]}, {"conceptId": "C16458", "definition": "A group of islands in the Mozambique Channel, about two-thirds of the way between northern Madagascar and northern Mozambique. (NCI)", "preferredTerm": "Comoros", "submissionValue": "COM", "synonyms": ["COMOROS"]}, {"conceptId": "C16382", "definition": "A group of islands in the North Atlantic Ocean, west of Senegal. (NCI)", "preferredTerm": "Cape Verde", "submissionValue": "CPV", "synonyms": ["CAPE VERDE"]}, {"conceptId": "C16470", "definition": "A country in Central America, bordering both the Caribbean Sea and the North Pacific Ocean, between Nicaragua and Panama. (NCI)", "preferredTerm": "Costa Rica", "submissionValue": "CRI", "synonyms": ["COSTA RICA"]}, {"conceptId": "C16477", "definition": "An island between the Caribbean Sea and the North Atlantic Ocean, 150 km south of Key West, Florida. (NCI)", "preferredTerm": "Cuba", "submissionValue": "CUB", "synonyms": ["CUBA"]}, {"conceptId": "C101225", "definition": "An island nation located in the Caribbean Sea off the coast of Venezuela. (NCI)", "preferredTerm": "Curacao", "submissionValue": "CUW", "synonyms": ["CURACAO"]}, {"conceptId": "C44482", "definition": "An Australian-administered island in the eastern Indian Ocean south of Java, Indonesia. (NCI)", "preferredTerm": "Christmas Island", "submissionValue": "CXR", "synonyms": ["CHRISTMAS ISLAND"]}, {"conceptId": "C16391", "definition": "An island group in the Caribbean Sea, nearly one-half of the way from Cuba to Honduras. (NCI)", "preferredTerm": "Cayman Islands", "submissionValue": "CYM", "synonyms": ["CAYMAN ISLANDS"]}, {"conceptId": "C16480", "definition": "An island in the Mediterranean Sea, south of Turkey. (NCI)", "preferredTerm": "Cyprus", "submissionValue": "CYP", "synonyms": ["CYPRUS"]}, {"conceptId": "C17668", "definition": "A country in Central Europe, southeast of Germany. (NCI)", "preferredTerm": "Czechia", "submissionValue": "CZE", "synonyms": ["CZECH REPUBLIC"]}, {"conceptId": "C16636", "definition": "A country in Central Europe, bordering the Baltic Sea and the North Sea, between the Netherlands and Poland, south of Denmark. (NCI)", "preferredTerm": "Germany", "submissionValue": "DEU", "synonyms": ["GERMANY"]}, {"conceptId": "C16506", "definition": "A country in Eastern Africa, bordering the Gulf of Aden and the Red Sea, between Eritrea and Somalia. (NCI)", "preferredTerm": "Djibouti", "submissionValue": "DJI", "synonyms": ["DJIBOUTI"]}, {"conceptId": "C16519", "definition": "An island between the Caribbean Sea and the North Atlantic Ocean, about one-half of the way from Puerto Rico to Trinidad and Tobago. (NCI)", "preferredTerm": "Dominica", "submissionValue": "DMA", "synonyms": ["DOMINICA"]}, {"conceptId": "C16496", "definition": "A country in Northern Europe, bordering the Baltic Sea and the North Sea, on a peninsula north of Germany (Jutland); also includes two major islands (Sjaelland and Fyn). (NCI)", "preferredTerm": "Denmark", "submissionValue": "DNK", "synonyms": ["DENMARK"]}, {"conceptId": "C16520", "definition": "A country comprising the eastern two-thirds of the island of Hispaniola, between the Caribbean Sea and the North Atlantic Ocean, east of Haiti. (NCI)", "preferredTerm": "Dominican Republic", "submissionValue": "DOM", "synonyms": ["DOMINICAN REPUBLIC"]}, {"conceptId": "C16274", "definition": "A country in Northern Africa, bordering the Mediterranean Sea, between Morocco and Tunisia. (NCI)", "preferredTerm": "Algeria", "submissionValue": "DZA", "synonyms": ["ALGERIA"]}, {"conceptId": "C16528", "definition": "A country in Western South America, bordering the Pacific Ocean at the Equator, between Colombia and Peru. (NCI)", "preferredTerm": "Ecuador", "submissionValue": "ECU", "synonyms": ["ECUADOR"]}, {"conceptId": "C16530", "definition": "A country in Northern Africa, bordering the Mediterranean Sea, between Libya and the Gaza Strip. (NCI)", "preferredTerm": "Egypt", "submissionValue": "EGY", "synonyms": ["EGYPT"]}, {"conceptId": "C16558", "definition": "A country in Eastern Africa, bordering the Red Sea, between Djibouti and Sudan. (NCI)", "preferredTerm": "Eritrea", "submissionValue": "ERI", "synonyms": ["ERITREA"]}, {"conceptId": "C20113", "definition": "A country in Northern Africa, bordering the North Atlantic Ocean, between Mauritania and Morocco. (NCI)", "preferredTerm": "Western Sahara", "submissionValue": "ESH", "synonyms": ["WESTERN SAHARA"]}, {"conceptId": "C17152", "definition": "A country in Southwestern Europe, bordering the Bay of Biscay, Mediterranean Sea, North Atlantic Ocean, and Pyrenees Mountains, southwest of France. (NCI)", "preferredTerm": "Spain", "submissionValue": "ESP", "synonyms": ["SPAIN"]}, {"conceptId": "C16562", "definition": "A country in Eastern Europe, bordering the Baltic Sea and Gulf of Finland, between Latvia and Russia. (NCI)", "preferredTerm": "Estonia", "submissionValue": "EST", "synonyms": ["ESTONIA"]}, {"conceptId": "C16563", "definition": "A country in Eastern Africa, west of Somalia. (NCI)", "preferredTerm": "Ethiopia", "submissionValue": "ETH", "synonyms": ["ETHIOPIA"]}, {"conceptId": "C16584", "definition": "A country in Northern Europe, bordering the Baltic Sea, Gulf of Bothnia, and Gulf of Finland, between Sweden and Russia. (NCI)", "preferredTerm": "Finland", "submissionValue": "FIN", "synonyms": ["FINLAND"]}, {"conceptId": "C16582", "definition": "An island group in the South Pacific Ocean, about two-thirds of the way from Hawaii to New Zealand. (NCI)", "preferredTerm": "Fiji", "submissionValue": "FJI", "synonyms": ["FIJI"]}, {"conceptId": "C17954", "definition": "Islands in the South Atlantic Ocean, east of southern Argentina. (NCI)", "preferredTerm": "Falkland Islands (Malvinas)", "submissionValue": "FLK", "synonyms": ["FALKLAND ISLANDS", "FALKLAND ISLANDS (MALVINAS)"]}, {"conceptId": "C16592", "definition": "A country in Western Europe, bordering the Bay of Biscay and English Channel, between Belgium and Spain, southeast of the UK; bordering the Mediterranean Sea, between Italy and Spain. (NCI)", "preferredTerm": "France", "submissionValue": "FRA", "synonyms": ["FRANCE"]}, {"conceptId": "C16573", "definition": "An island group between the Norwegian Sea and the North Atlantic Ocean, about one-half of the way from Iceland to Norway. (NCI)", "preferredTerm": "Faroe Islands", "submissionValue": "FRO", "synonyms": ["FAROE ISLANDS"]}, {"conceptId": "C17881", "definition": "An island group in the North Pacific Ocean, about three-quarters of the way from Hawaii to Indonesia. (NCI)", "preferredTerm": "Micronesia, Federated States of", "submissionValue": "FSM", "synonyms": ["MICRONESIA, FEDERATED STATES OF"]}, {"conceptId": "C16596", "definition": "A country in Western Africa, bordering the Atlantic Ocean at the Equator, between Republic of the Congo and Equatorial Guinea. (NCI)", "preferredTerm": "Gabon", "submissionValue": "GAB", "synonyms": ["GABON"]}, {"conceptId": "C17233", "definition": "A country in Western Europe, comprising islands, including the northern one-sixth of the island of Ireland, between the North Atlantic Ocean and the North Sea, northwest of France. (NCI)", "preferredTerm": "United Kingdom", "submissionValue": "GBR", "synonyms": ["UNITED KINGDOM"]}, {"conceptId": "C16634", "definition": "A country in Southwestern Asia, bordering the Black Sea, between Turkey and Russia. (NCI)", "preferredTerm": "Georgia (Republic)", "submissionValue": "GEO", "synonyms": ["GEORGIA"]}, {"conceptId": "C64375", "definition": "The island of Guernsey and the other Channel Islands represent the last remnants of the medieval Dukedom of Normandy, which held sway in both France and England. Guernsey is a British crown dependency, but is not part of the UK. (NCI)", "preferredTerm": "Guernsey", "submissionValue": "GGY", "synonyms": ["GUERNSEY"]}, {"conceptId": "C26330", "definition": "A country in Western Africa, bordering the Gulf of Guinea, between Cote d'Ivoire and Togo. (NCI)", "preferredTerm": "Ghana", "submissionValue": "GHA", "synonyms": ["GHANA"]}, {"conceptId": "C16638", "definition": "A dependency in Southwestern Europe, bordering the Strait of Gibraltar, on the southern coast of Spain. (NCI)", "preferredTerm": "Gibraltar", "submissionValue": "GIB", "synonyms": ["GIBRALTAR"]}, {"conceptId": "C16655", "definition": "A country in Western Africa, bordering the North Atlantic Ocean, between Guinea-Bissau and Sierra Leone. (NCI)", "preferredTerm": "Guinea", "submissionValue": "GIN", "synonyms": ["GUINEA"]}, {"conceptId": "C16651", "definition": "Islands in the eastern Caribbean Sea, southeast of Puerto Rico. (NCI)", "preferredTerm": "Guadeloupe", "submissionValue": "GLP", "synonyms": ["GUADELOUPE"]}, {"conceptId": "C16598", "definition": "A country in Western Africa, bordering the North Atlantic Ocean and Senegal. (NCI)", "preferredTerm": "The Gambia", "submissionValue": "GMB", "synonyms": ["GAMBIA"]}, {"conceptId": "C16656", "definition": "A country in Western Africa, bordering the North Atlantic Ocean, between Guinea and Senegal. (NCI)", "preferredTerm": "Guinea-Bissau", "submissionValue": "GNB", "synonyms": ["GUINEA-BISSAU"]}, {"conceptId": "C16557", "definition": "A country in Western Africa, bordering the Bight of Biafra, between Cameroon and Gabon; composed of a mainland portion and five inhabited islands. (NCI)", "preferredTerm": "Equatorial Guinea", "submissionValue": "GNQ", "synonyms": ["EQUATORIAL GUINEA"]}, {"conceptId": "C16645", "definition": "A country in Southern Europe, bordering the Aegean Sea, Ionian Sea, and the Mediterranean Sea, between Albania and Turkey. (NCI)", "preferredTerm": "Greece", "submissionValue": "GRC", "synonyms": ["GREECE"]}, {"conceptId": "C16647", "definition": "An island between the Caribbean Sea and Atlantic Ocean, north of Trinidad and Tobago. (NCI)", "preferredTerm": "Grenada", "submissionValue": "GRD", "synonyms": ["GRENADA"]}, {"conceptId": "C16646", "definition": "An island between the Arctic Ocean and the North Atlantic Ocean, northeast of Canada. (NCI)", "preferredTerm": "Greenland", "submissionValue": "GRL", "synonyms": ["GREENLAND"]}, {"conceptId": "C16654", "definition": "A country in Central America, bordering the Caribbean Sea, between Honduras and Belize and bordering the North Pacific Ocean, between El Salvador and Mexico. (NCI)", "preferredTerm": "Guatemala", "submissionValue": "GTM", "synonyms": ["GUATEMALA"]}, {"conceptId": "C16593", "definition": "A country in Northern South America, bordering the North Atlantic Ocean, between Brazil and Suriname. (NCI)", "preferredTerm": "French Guiana", "submissionValue": "GUF", "synonyms": ["FRENCH GUIANA"]}, {"conceptId": "C16652", "definition": "Island in the North Pacific Ocean, about three-quarters of the way from Hawaii to the Philippines. (NCI)", "preferredTerm": "Guam", "submissionValue": "GUM", "synonyms": ["GUAM"]}, {"conceptId": "C16657", "definition": "A country in Northern South America, bordering the North Atlantic Ocean, between Suriname and Venezuela. (NCI)", "preferredTerm": "Guyana", "submissionValue": "GUY", "synonyms": ["GUYANA"]}, {"conceptId": "C16695", "definition": "A special administrative region of China, bordering the South China Sea and China. (NCI)", "preferredTerm": "Hong Kong", "submissionValue": "HKG", "synonyms": ["HONG KONG"]}, {"conceptId": "C20106", "definition": "Islands in the Indian Ocean, about two-thirds of the way from Madagascar to Antarctica. (NCI)", "preferredTerm": "Heard Island and McDonald Islands", "submissionValue": "HMD", "synonyms": ["HEARD ISLAND AND MCDONALD ISLANDS"]}, {"conceptId": "C16694", "definition": "A country in Central America, bordering the Caribbean Sea, between Guatemala and Nicaragua and bordering the North Pacific Ocean, between El Salvador and Nicaragua. (NCI)", "preferredTerm": "Honduras", "submissionValue": "HND", "synonyms": ["HONDURAS"]}, {"conceptId": "C16474", "definition": "A country in Southeastern Europe, bordering the Adriatic Sea, between Bosnia and Herzegovina and Slovenia. (NCI)", "preferredTerm": "Croatia", "submissionValue": "HRV", "synonyms": ["CROATIA"]}, {"conceptId": "C16660", "definition": "A country comprising the western one-third of the island of Hispaniola, between the Caribbean Sea and the North Atlantic Ocean, west of the Dominican Republic. (NCI)", "preferredTerm": "Haiti", "submissionValue": "HTI", "synonyms": ["HAITI"]}, {"conceptId": "C16699", "definition": "A country in Central Europe, northwest of Romania. (NCI)", "preferredTerm": "Hungary", "submissionValue": "HUN", "synonyms": ["HUNGARY"]}, {"conceptId": "C16728", "definition": "A country in Southeastern Asia, comprising the archipelago between the Indian Ocean and the Pacific Ocean. (NCI)", "preferredTerm": "Indonesia", "submissionValue": "IDN", "synonyms": ["INDONESIA"]}, {"conceptId": "C44480", "definition": "An island in the Irish Sea, between Great Britain and Ireland. (NCI)", "preferredTerm": "Isle of Man", "submissionValue": "IMN", "synonyms": ["ISLE OF MAN"]}, {"conceptId": "C16727", "definition": "A country in Southern Asia, bordering the Arabian Sea and the Bay of Bengal, between Burma and Pakistan. (NCI)", "preferredTerm": "India", "submissionValue": "IND", "synonyms": ["INDIA"]}, {"conceptId": "C16365", "definition": "An archipelago in the Indian Ocean, about one-half the way from Africa to Indonesia. (NCI)", "preferredTerm": "British Indian Ocean Territory", "submissionValue": "IOT", "synonyms": ["BRITISH INDIAN OCEAN TERRITORY"]}, {"conceptId": "C16757", "definition": "A country in Western Europe, occupying five-sixths of the island of Ireland in the North Atlantic Ocean, west of Great Britain. (NCI)", "preferredTerm": "Ireland", "submissionValue": "IRL", "synonyms": ["IRELAND"]}, {"conceptId": "C16755", "definition": "A country in the Middle East, bordering the Gulf of Oman, the Persian Gulf, and the Caspian Sea, between Iraq and Pakistan. (NCI)", "preferredTerm": "Iran, Islamic Republic of", "submissionValue": "IRN", "synonyms": ["IRAN"]}, {"conceptId": "C16756", "definition": "A country in the Middle East, bordering the Persian Gulf, between Iran and Kuwait. (NCI)", "preferredTerm": "Iraq", "submissionValue": "IRQ", "synonyms": ["IRAQ"]}, {"conceptId": "C16704", "definition": "A country in Northern Europe, island between the Greenland Sea and the North Atlantic Ocean, northwest of the UK. (NCI)", "preferredTerm": "Iceland", "submissionValue": "ISL", "synonyms": ["ICELAND"]}, {"conceptId": "C16760", "definition": "A country in the Middle East, bordering the Mediterranean Sea, between Egypt and Lebanon. (NCI)", "preferredTerm": "Israel", "submissionValue": "ISR", "synonyms": ["ISRAEL"]}, {"conceptId": "C16761", "definition": "A country in Southern Europe, occupying a peninsula extending into the central Mediterranean Sea, northeast of Tunisia. (NCI)", "preferredTerm": "Italy", "submissionValue": "ITA", "synonyms": ["ITALY"]}, {"conceptId": "C16763", "definition": "An island in the Caribbean Sea, south of Cuba. (NCI)", "preferredTerm": "Jamaica", "submissionValue": "JAM", "synonyms": ["JAMAICA"]}, {"conceptId": "C64374", "definition": "Jersey and the other Channel Islands represent the last remnants of the medieval Dukedom of Normandy that held sway in both France and England. Jersey is a British crown dependency, but is not part of the UK. (NCI)", "preferredTerm": "Jersey", "submissionValue": "JEY", "synonyms": ["JERSEY"]}, {"conceptId": "C16765", "definition": "A country in the Middle East, northwest of Saudi Arabia. (NCI)", "preferredTerm": "Jordan", "submissionValue": "JOR", "synonyms": ["JORDAN"]}, {"conceptId": "C16764", "definition": "A country in Eastern Asia, occupying an island chain between the North Pacific Ocean and the Sea of Japan, east of the Korean Peninsula. (NCI)", "preferredTerm": "Japan", "submissionValue": "JPN", "synonyms": ["JAPAN"]}, {"conceptId": "C20107", "definition": "A country in Central Asia, northwest of China. (NCI)", "preferredTerm": "Kazakhstan", "submissionValue": "KAZ", "synonyms": ["KAZAKHSTAN"]}, {"conceptId": "C16769", "definition": "A country in Eastern Africa, bordering the Indian Ocean, between Somalia and Tanzania. (NCI)", "preferredTerm": "Kenya", "submissionValue": "KEN", "synonyms": ["KENYA"]}, {"conceptId": "C16771", "definition": "A country in Central Asia, west of China. (NCI)", "preferredTerm": "Kyrgyzstan", "submissionValue": "KGZ", "synonyms": ["KYRGYZSTAN"]}, {"conceptId": "C16378", "definition": "A country in Southeastern Asia, bordering the Gulf of Thailand, between Thailand, Vietnam, and Laos. (NCI)", "preferredTerm": "Cambodia", "submissionValue": "KHM", "synonyms": ["CAMBODIA"]}, {"conceptId": "C16639", "definition": "A group of 33 coral atolls in the Pacific Ocean, straddling the equator; the capital Tarawa is about one-half of the way from Hawaii to Australia. (NCI)", "preferredTerm": "Kiribati", "submissionValue": "KIR", "synonyms": ["KIRIBATI"]}, {"conceptId": "C17885", "definition": "Islands in the Caribbean Sea, about one-third of the way from Puerto Rico to Trinidad and Tobago. (NCI)", "preferredTerm": "Saint Kitts and Nevis", "submissionValue": "KNA", "synonyms": ["SAINT KITTS AND NEVIS"]}, {"conceptId": "C16774", "definition": "A country in Eastern Asia, occupying the southern half of the Korean Peninsula, bordering the Sea of Japan and the Yellow Sea. (NCI)", "preferredTerm": "Korea, Republic of", "submissionValue": "KOR", "synonyms": ["KOREA, REPUBLIC OF", "SOUTH KOREA"]}, {"conceptId": "C16775", "definition": "A country in the Middle East, bordering the Persian Gulf, between Iraq and Saudi Arabia. (NCI)", "preferredTerm": "Kuwait", "submissionValue": "KWT", "synonyms": ["KUWAIT"]}, {"conceptId": "C16780", "definition": "A country in Southeastern Asia, northeast of Thailand, west of Vietnam. (NCI)", "preferredTerm": "Lao People's Democratic Republic", "submissionValue": "LAO", "synonyms": ["LAO PEOPLE'S DEMOCRATIC REPUBLIC"]}, {"conceptId": "C16784", "definition": "A country in the Middle East, bordering the Mediterranean Sea, between Israel and Syria. (NCI)", "preferredTerm": "Lebanon", "submissionValue": "LBN", "synonyms": ["LEBANON"]}, {"conceptId": "C16791", "definition": "A country in Western Africa, bordering the North Atlantic Ocean, between Cote d'Ivoire and Sierra Leone. (NCI)", "preferredTerm": "Liberia", "submissionValue": "LBR", "synonyms": ["LIBERIA"]}, {"conceptId": "C16793", "definition": "A country in Northern Africa, bordering the Mediterranean Sea, between Egypt and Tunisia. (NCI)", "preferredTerm": "Libya", "submissionValue": "LBY", "synonyms": ["LIBYA"]}, {"conceptId": "C17113", "definition": "A country in the Caribbean, occupying an island between the Caribbean Sea and North Atlantic Ocean, north of Trinidad and Tobago. (NCI)", "preferredTerm": "Saint Lucia", "submissionValue": "LCA", "synonyms": ["SAINT LUCIA"]}, {"conceptId": "C16794", "definition": "A country in Central Europe, between Austria and Switzerland. (NCI)", "preferredTerm": "Liechtenstein", "submissionValue": "LIE", "synonyms": ["LIECHTENSTEIN"]}, {"conceptId": "C17163", "definition": "A country in Southern Asia, occupying an island in the Indian Ocean, south of India. (NCI)", "preferredTerm": "Sri Lanka", "submissionValue": "LKA", "synonyms": ["SRI LANKA"]}, {"conceptId": "C16787", "definition": "A country in Southern Africa, an enclave of South Africa. (NCI)", "preferredTerm": "Lesotho", "submissionValue": "LSO", "synonyms": ["LESOTHO"]}, {"conceptId": "C16799", "definition": "A country in Eastern Europe, bordering the Baltic Sea, between Latvia and Russia. (NCI)", "preferredTerm": "Lithuania", "submissionValue": "LTU", "synonyms": ["LITHUANIA"]}, {"conceptId": "C16803", "definition": "A country in Western Europe, between France, Belgium, and Germany. (NCI)", "preferredTerm": "Luxembourg", "submissionValue": "LUX", "synonyms": ["LUXEMBOURG"]}, {"conceptId": "C16783", "definition": "A country in Eastern Europe, bordering the Baltic Sea, between Estonia and Lithuania. (NCI)", "preferredTerm": "Latvia", "submissionValue": "LVA", "synonyms": ["LATVIA"]}, {"conceptId": "C16807", "definition": "A country in Eastern Asia, bordering the South China Sea and China. (NCI)", "preferredTerm": "Macau", "submissionValue": "MAC", "synonyms": ["MACAO"]}, {"conceptId": "C83610", "definition": "An island in the Caribbean sea, between Anguilla and Saint Barthelemy. (NCI)", "preferredTerm": "Saint Martin (French Part)", "submissionValue": "MAF", "synonyms": ["SAINT MARTIN (FRENCH PART)", "SAINT MARTIN, FRENCH"]}, {"conceptId": "C16878", "definition": "A country in Northern Africa, bordering the North Atlantic Ocean and the Mediterranean Sea, between Algeria and Western Sahara. (NCI)", "preferredTerm": "Morocco", "submissionValue": "MAR", "synonyms": ["MOROCCO"]}, {"conceptId": "C16874", "definition": "A country in Western Europe, bordering the Mediterranean Sea on the southern coast of France, near the border with Italy. (NCI)", "preferredTerm": "Monaco", "submissionValue": "MCO", "synonyms": ["MONACO"]}, {"conceptId": "C16871", "definition": "A country in Eastern Europe, northeast of Romania. (NCI)", "preferredTerm": "Moldova, Republic of", "submissionValue": "MDA", "synonyms": ["MOLDOVA, REPUBLIC OF"]}, {"conceptId": "C16808", "definition": "A country in Southern Africa, occupying an island in the Indian Ocean, east of Mozambique. (NCI)", "preferredTerm": "Madagascar", "submissionValue": "MDG", "synonyms": ["MADAGASCAR"]}, {"conceptId": "C16815", "definition": "A country in Southern Asia, occupying a group of atolls in the Indian Ocean, south-southwest of India. (NCI)", "preferredTerm": "Maldives", "submissionValue": "MDV", "synonyms": ["MALDIVES"]}, {"conceptId": "C16850", "definition": "A country in Central America, bordering the Caribbean Sea and the Gulf of Mexico, between Belize and the US and bordering the North Pacific Ocean, between Guatemala and the US. (NCI)", "preferredTerm": "Mexico", "submissionValue": "MEX", "synonyms": ["MEXICO"]}, {"conceptId": "C16822", "definition": "A group of atolls and reefs in the North Pacific Ocean, about one-half of the way from Hawaii to Australia. (NCI)", "preferredTerm": "Marshall Islands", "submissionValue": "MHL", "synonyms": ["MARSHALL ISLANDS"]}, {"conceptId": "C17654", "definition": "A country in Southeastern Europe, north of Greece. (NCI)", "preferredTerm": "Macedonia, the Former Yugoslav Republic of", "submissionValue": "MKD", "synonyms": ["MACEDONIA, THE FORMER YUGOSLAV REPUBLIC OF", "REPUBLIC OF MACEDONIA"]}, {"conceptId": "C16816", "definition": "A country in Western Africa, southwest of Algeria. (NCI)", "preferredTerm": "Mali", "submissionValue": "MLI", "synonyms": ["MALI"]}, {"conceptId": "C16817", "definition": "A country in Southern Europe, occupying islands in the Mediterranean Sea, south of Sicily (Italy). (NCI)", "preferredTerm": "Malta", "submissionValue": "MLT", "synonyms": ["MALTA"]}, {"conceptId": "C16370", "definition": "A country in Southeastern Asia, bordering the Andaman Sea and the Bay of Bengal, between Bangladesh and Thailand. (NCI)", "preferredTerm": "Myanmar", "submissionValue": "MMR", "synonyms": ["MYANMAR"]}, {"conceptId": "C64378", "definition": "A republic in Southeastern Europe, bordering the Adriatic Sea, between Albania and Bosnia and Herzegovina. Formerly part of Serbia and Montenegro (Federation Republic of Yugoslavia). (NCI)", "preferredTerm": "Montenegro", "submissionValue": "MNE", "synonyms": ["MONTENEGRO"]}, {"conceptId": "C16875", "definition": "A country in Northern Asia, between China and Russia. (NCI)", "preferredTerm": "Mongolia", "submissionValue": "MNG", "synonyms": ["MONGOLIA"]}, {"conceptId": "C17882", "definition": "A country in the Pacific, comprising islands in the North Pacific Ocean, about three-quarters of the way from Hawaii to the Philippines. (NCI)", "preferredTerm": "Northern Mariana Islands", "submissionValue": "MNP", "synonyms": ["NORTHERN MARIANA ISLANDS"]}, {"conceptId": "C16882", "definition": "A country in Southern Africa, bordering the Mozambique Channel, between South Africa and Tanzania. (NCI)", "preferredTerm": "Mozambique", "submissionValue": "MOZ", "synonyms": ["MOZAMBIQUE"]}, {"conceptId": "C16826", "definition": "A country in Northern Africa, bordering the North Atlantic Ocean, between Senegal and Western Sahara. (NCI)", "preferredTerm": "Mauritania", "submissionValue": "MRT", "synonyms": ["MAURITANIA"]}, {"conceptId": "C16876", "definition": "A country in the Caribbean, occupying an island in the Caribbean Sea, southeast of Puerto Rico. (NCI)", "preferredTerm": "Montserrat", "submissionValue": "MSR", "synonyms": ["MONTSERRAT"]}, {"conceptId": "C16823", "definition": "An island in the Caribbean Sea, north of Trinidad and Tobago. (NCI)", "preferredTerm": "Martinique", "submissionValue": "MTQ", "synonyms": ["MARTINIQUE"]}, {"conceptId": "C16827", "definition": "A country in Southern Africa, occupying an island in the Indian Ocean, east of Madagascar. (NCI)", "preferredTerm": "Mauritius", "submissionValue": "MUS", "synonyms": ["MAURITIUS"]}, {"conceptId": "C16813", "definition": "A country in Southern Africa, east of Zambia. (NCI)", "preferredTerm": "Malawi", "submissionValue": "MWI", "synonyms": ["MALAWI"]}, {"conceptId": "C16814", "definition": "A country in Southeastern Asia, occupying a peninsula and the northern one-third of the island of Borneo, bordering Indonesia and the South China Sea, south of Vietnam. (NCI)", "preferredTerm": "Malaysia", "submissionValue": "MYS", "synonyms": ["MALAYSIA"]}, {"conceptId": "C16828", "definition": "A country in Southern Africa, occupying an island in the Mozambique Channel, about one-half of the way from northern Madagascar to northern Mozambique. (NCI)", "preferredTerm": "Mayotte", "submissionValue": "MYT", "synonyms": ["MAYOTTE"]}, {"conceptId": "C16891", "definition": "A country in Southern Africa, bordering the South Atlantic Ocean, between Angola and South Africa. (NCI)", "preferredTerm": "Namibia", "submissionValue": "NAM", "synonyms": ["NAMIBIA"]}, {"conceptId": "C16913", "definition": "A country in the Pacific, comprised of islands in the South Pacific Ocean, east of Australia. (NCI)", "preferredTerm": "New Caledonia", "submissionValue": "NCL", "synonyms": ["NEW CALEDONIA"]}, {"conceptId": "C16916", "definition": "A country in Western Africa, southeast of Algeria. (NCI)", "preferredTerm": "Niger", "submissionValue": "NER", "synonyms": ["NIGER"]}, {"conceptId": "C16919", "definition": "A country in the Pacific, occupying an island in the South Pacific Ocean, east of Australia. (NCI)", "preferredTerm": "Norfolk Island", "submissionValue": "NFK", "synonyms": ["NORFOLK ISLAND"]}, {"conceptId": "C16917", "definition": "A country in Western Africa, bordering the Gulf of Guinea, between Benin and Cameroon. (NCI)", "preferredTerm": "Nigeria", "submissionValue": "NGA", "synonyms": ["NIGERIA"]}, {"conceptId": "C16915", "definition": "A country in Central America, bordering both the Caribbean Sea and the North Pacific Ocean, between Costa Rica and Honduras. (NCI)", "preferredTerm": "Nicaragua", "submissionValue": "NIC", "synonyms": ["NICARAGUA"]}, {"conceptId": "C16918", "definition": "A country in the Pacific, occupying an island in the South Pacific Ocean, east of Tonga. (NCI)", "preferredTerm": "Niue", "submissionValue": "NIU", "synonyms": ["NIUE"]}, {"conceptId": "C16903", "definition": "A country in Western Europe, bordering the North Sea, between Belgium and Germany. (NCI)", "preferredTerm": "Netherlands", "submissionValue": "NLD", "synonyms": ["NETHERLANDS"]}, {"conceptId": "C16920", "definition": "A country in Northern Europe, bordering the North Sea and the North Atlantic Ocean, west of Sweden. (NCI)", "preferredTerm": "Norway", "submissionValue": "NOR", "synonyms": ["NORWAY"]}, {"conceptId": "C16901", "definition": "A country in Southern Asia, between China and India. (NCI)", "preferredTerm": "Nepal", "submissionValue": "NPL", "synonyms": ["NEPAL"]}, {"conceptId": "C16896", "definition": "A country in Oceania, occupying an island in the South Pacific Ocean, south of the Marshall Islands. (NCI)", "preferredTerm": "Nauru", "submissionValue": "NRU", "synonyms": ["NAURU"]}, {"conceptId": "C16914", "definition": "A country in the Pacific, comprised of islands in the South Pacific Ocean, southeast of Australia. (NCI)", "preferredTerm": "New Zealand", "submissionValue": "NZL", "synonyms": ["NEW ZEALAND"]}, {"conceptId": "C16933", "definition": "A country in the Middle East, bordering the Arabian Sea, Gulf of Oman, and Persian Gulf, between Yemen and the United Arab Emirates. (NCI)", "preferredTerm": "Oman", "submissionValue": "OMN", "synonyms": ["OMAN"]}, {"conceptId": "C16949", "definition": "A country in Southern Asia, bordering the Arabian Sea, between India on the east and Iran and Afghanistan on the west and China in the north. (NCI)", "preferredTerm": "Pakistan", "submissionValue": "PAK", "synonyms": ["PAKISTAN"]}, {"conceptId": "C16951", "definition": "A country in Central America, bordering both the Caribbean Sea and the North Pacific Ocean, between Colombia and Costa Rica. (NCI)", "preferredTerm": "Panama", "submissionValue": "PAN", "synonyms": ["PANAMA"]}, {"conceptId": "C16993", "definition": "A country in the Pacific, comprised of islands in the South Pacific Ocean, about midway between Peru and New Zealand. (NCI)", "preferredTerm": "Pitcairn", "submissionValue": "PCN", "synonyms": ["PITCAIRN"]}, {"conceptId": "C16972", "definition": "A country in Western South America, bordering the South Pacific Ocean, between Chile and Ecuador. (NCI)", "preferredTerm": "Peru", "submissionValue": "PER", "synonyms": ["PERU"]}, {"conceptId": "C16978", "definition": "A country in Southeastern Asia, comprised of an archipelago between the Philippine Sea and the South China Sea, east of Vietnam. (NCI)", "preferredTerm": "Philippines", "submissionValue": "PHL", "synonyms": ["PHILIPPINES"]}, {"conceptId": "C17733", "definition": "A country in the Pacific, comprising a group of islands in the North Pacific Ocean, southeast of the Philippines. (NCI)", "preferredTerm": "Palau", "submissionValue": "PLW", "synonyms": ["PALAU"]}, {"conceptId": "C16952", "definition": "A country in Southeastern Asia, comprising a group of islands and including the eastern half of the island of New Guinea, between the Coral Sea and the South Pacific Ocean, east of Indonesia. (NCI)", "preferredTerm": "Papua New Guinea", "submissionValue": "PNG", "synonyms": ["PAPUA NEW GUINEA"]}, {"conceptId": "C17002", "definition": "A country in Central Europe, east of Germany. (NCI)", "preferredTerm": "Poland", "submissionValue": "POL", "synonyms": ["POLAND"]}, {"conceptId": "C17043", "definition": "An island between the Caribbean Sea and the North Atlantic Ocean, east of the Dominican Republic. (NCI)", "preferredTerm": "Puerto Rico", "submissionValue": "PRI", "synonyms": ["PUERTO RICO"]}, {"conceptId": "C16773", "definition": "A country in Eastern Asia, occupying the northern half of the Korean Peninsula, bordering the Korea Bay and the Sea of Japan, between China and South Korea. (NCI)", "preferredTerm": "Korea, Democratic People's Republic of", "submissionValue": "PRK", "synonyms": ["KOREA, DEMOCRATIC PEOPLE'S REPUBLIC OF", "NORTH KOREA"]}, {"conceptId": "C17006", "definition": "A country in Southwestern Europe, bordering the North Atlantic Ocean, west of Spain. (NCI)", "preferredTerm": "Portugal", "submissionValue": "PRT", "synonyms": ["PORTUGAL"]}, {"conceptId": "C16953", "definition": "A country in Central South America, northeast of Argentina. (NCI)", "preferredTerm": "Paraguay", "submissionValue": "PRY", "synonyms": ["PARAGUAY"]}, {"conceptId": "C20110", "definition": "A collective name for the West Bank and the Gaza Strip, two territories in Palestine. (NCI)", "preferredTerm": "State of Palestine", "submissionValue": "PSE", "synonyms": ["PALESTINIAN TERRITORY, OCCUPIED"]}, {"conceptId": "C16594", "definition": "An archipelago in the South Pacific Ocean, about one-half of the way from South America to Australia. (NCI)", "preferredTerm": "French Polynesia", "submissionValue": "PYF", "synonyms": ["FRENCH POLYNESIA"]}, {"conceptId": "C17045", "definition": "A country in the Middle East, occupying a peninsula bordering the Persian Gulf and Saudi Arabia. (NCI)", "preferredTerm": "Qatar", "submissionValue": "QAT", "synonyms": ["QATAR"]}, {"conceptId": "C17095", "definition": "A country in Southern Africa, occupying an island in the Indian Ocean, east of Madagascar. (NCI)", "preferredTerm": "Reunion", "submissionValue": "REU", "synonyms": ["REUNION"]}, {"conceptId": "C17108", "definition": "A country in Southeastern Europe, bordering the Black Sea, between Bulgaria and Ukraine. (NCI)", "preferredTerm": "Romania", "submissionValue": "ROU", "synonyms": ["ROMANIA"]}, {"conceptId": "C17111", "definition": "A country in Northern Asia (that part west of the Urals is sometimes included with Europe), bordering the Arctic Ocean, between Europe and the North Pacific Ocean. (NCI)", "preferredTerm": "Russian Federation", "submissionValue": "RUS", "synonyms": ["RUSSIAN FEDERATION"]}, {"conceptId": "C17112", "definition": "A country in Central Africa, east of Democratic Republic of the Congo. (NCI)", "preferredTerm": "Rwanda", "submissionValue": "RWA", "synonyms": ["RWANDA"]}, {"conceptId": "C17117", "definition": "A country in the Middle East, bordering the Persian Gulf and the Red Sea, north of Yemen. (NCI)", "preferredTerm": "Saudi Arabia", "submissionValue": "SAU", "synonyms": ["SAUDI ARABIA"]}, {"conceptId": "C17170", "definition": "A country in Northern Africa, bordering the Red Sea, between Egypt and Eritrea. (NCI)", "preferredTerm": "Sudan", "submissionValue": "SDN", "synonyms": ["SUDAN"]}, {"conceptId": "C17121", "definition": "A country in Western Africa, bordering the North Atlantic Ocean, between Guinea-Bissau and Mauritania. (NCI)", "preferredTerm": "Senegal", "submissionValue": "SEN", "synonyms": ["SENEGAL"]}, {"conceptId": "C17134", "definition": "A country in Southeastern Asia, comprised of islands between Malaysia and Indonesia. (NCI)", "preferredTerm": "Singapore", "submissionValue": "SGP", "synonyms": ["SINGAPORE"]}, {"conceptId": "C20111", "definition": "A group of islands in the South Atlantic Ocean, east of the tip of South America. (NCI)", "preferredTerm": "South Georgia and the South Sandwich Islands", "submissionValue": "SGS", "synonyms": ["SOUTH GEORGIA AND THE SOUTH SANDWICH ISLANDS"]}, {"conceptId": "C17164", "definition": "Islands in the South Atlantic Ocean, about midway between South America and Africa. (NCI)", "preferredTerm": "Saint Helena, Ascension and Tristan da Cunha", "submissionValue": "SHN", "synonyms": ["SAINT HELENA", "SAINT HELENA, ASCENSION AND TRISTAN DA CUNHA"]}, {"conceptId": "C17178", "definition": "Islands between the Arctic Ocean, Barents Sea, Greenland Sea, and Norwegian Sea, northeast of Iceland and north of Norway. (NCI)", "preferredTerm": "Svalbard and Jan Mayen", "submissionValue": "SJM", "synonyms": ["SVALBARD AND JAN MAYEN"]}, {"conceptId": "C17148", "definition": "A group of islands in the South Pacific Ocean, east of Papua New Guinea. (NCI)", "preferredTerm": "Solomon Islands", "submissionValue": "SLB", "synonyms": ["SOLOMON ISLANDS"]}, {"conceptId": "C17130", "definition": "A country in Western Africa, bordering the North Atlantic Ocean, between Guinea and Liberia. (NCI)", "preferredTerm": "Sierra Leone", "submissionValue": "SLE", "synonyms": ["SIERRA LEONE"]}, {"conceptId": "C16532", "definition": "A country in Central America, bordering the North Pacific Ocean, between Guatemala and Honduras. (NCI)", "preferredTerm": "El Salvador", "submissionValue": "SLV", "synonyms": ["EL SALVADOR"]}, {"conceptId": "C17115", "definition": "A country in Southern Europe, an enclave in central Italy. (NCI)", "preferredTerm": "San Marino", "submissionValue": "SMR", "synonyms": ["SAN MARINO"]}, {"conceptId": "C17149", "definition": "A country in Eastern Africa, bordering the Gulf of Aden and the Indian Ocean, east of Ethiopia. (NCI)", "preferredTerm": "Somalia", "submissionValue": "SOM", "synonyms": ["SOMALIA"]}, {"conceptId": "C17165", "definition": "A country in Northern North America, comprised of islands in the North Atlantic Ocean, south of Newfoundland (Canada). (NCI)", "preferredTerm": "Saint Pierre and Miquelon", "submissionValue": "SPM", "synonyms": ["SAINT PIERRE AND MIQUELON"]}, {"conceptId": "C64377", "definition": "A republic in Southeastern Europe, bordering the Adriatic Sea, between Albania and Bosnia and Herzegovina. Formerly part of Serbia and Montenegro (Federation Republic of Yugoslavia). (NCI)", "preferredTerm": "Serbia", "submissionValue": "SRB", "synonyms": ["SERBIA"]}, {"conceptId": "C97351", "definition": "A northeastern African country located in the Sahel region and bordered by Sudan in the north, Uganda and Kenya in the south and Ethiopia in the west. (NCI)", "preferredTerm": "South Sudan", "submissionValue": "SSD", "synonyms": ["SOUTH SUDAN"]}, {"conceptId": "C17116", "definition": "A country in Western Africa, comprised of islands in the Gulf of Guinea, straddling the Equator, west of Gabon. (NCI)", "preferredTerm": "Sao Tome and Principe", "submissionValue": "STP", "synonyms": ["SAO TOME AND PRINCIPE"]}, {"conceptId": "C17175", "definition": "A country in Northern South America, bordering the North Atlantic Ocean, between French Guiana and Guyana. (NCI)", "preferredTerm": "Suriname", "submissionValue": "SUR", "synonyms": ["SURINAME"]}, {"conceptId": "C17669", "definition": "A country in Central Europe, south of Poland. (NCI)", "preferredTerm": "Slovakia", "submissionValue": "SVK", "synonyms": ["SLOVAKIA"]}, {"conceptId": "C17138", "definition": "A country in Central Europe, bordering the Adriatic Sea, between Austria and Croatia. (NCI)", "preferredTerm": "Slovenia", "submissionValue": "SVN", "synonyms": ["SLOVENIA"]}, {"conceptId": "C17180", "definition": "A country in Northern Europe, bordering the Baltic Sea, Gulf of Bothnia, Kattegat, and Skagerrak, between Finland and Norway. (NCI)", "preferredTerm": "Sweden", "submissionValue": "SWE", "synonyms": ["SWEDEN"]}, {"conceptId": "C17179", "definition": "A country in Southern Africa, between Mozambique and South Africa. (NCI)", "preferredTerm": "Swaziland", "submissionValue": "SWZ", "synonyms": ["SWAZILAND"]}, {"conceptId": "C101226", "definition": "The southern portion of an island in the Caribbean sea, between Anguilla and Saint Barthelemy. (NCI)", "preferredTerm": "Sint Maarten (Dutch Part)", "submissionValue": "SXM", "synonyms": ["SINT MAARTEN (DUTCH PART)", "SINT MAARTEN (DUTCH)"]}, {"conceptId": "C17129", "definition": "A country in Eastern Africa, comprised of a group of islands in the Indian Ocean, northeast of Madagascar. (NCI)", "preferredTerm": "Seychelles", "submissionValue": "SYC", "synonyms": ["SEYCHELLES"]}, {"conceptId": "C17182", "definition": "A country in the Middle East, bordering the Mediterranean Sea, between Lebanon and Turkey. (NCI)", "preferredTerm": "Syrian Arab Republic", "submissionValue": "SYR", "synonyms": ["SYRIAN ARAB REPUBLIC"]}, {"conceptId": "C17224", "definition": "Two island groups in the North Atlantic Ocean, southeast of The Bahamas. (NCI)", "preferredTerm": "Turks and Caicos Islands", "submissionValue": "TCA", "synonyms": ["TURKS AND CAICOS ISLANDS"]}, {"conceptId": "C16412", "definition": "A country in Central Africa, south of Libya. (NCI)", "preferredTerm": "Chad", "submissionValue": "TCD", "synonyms": ["CHAD"]}, {"conceptId": "C17202", "definition": "A country in Western Africa, bordering the Bight of Benin, between Benin and Ghana. (NCI)", "preferredTerm": "Togo", "submissionValue": "TGO", "synonyms": ["TOGO"]}, {"conceptId": "C17192", "definition": "A country in Southeastern Asia, bordering the Andaman Sea and the Gulf of Thailand, southeast of Burma. (NCI)", "preferredTerm": "Thailand", "submissionValue": "THA", "synonyms": ["THAILAND"]}, {"conceptId": "C17183", "definition": "A country in Central Asia, west of China. (NCI)", "preferredTerm": "Tajikistan", "submissionValue": "TJK", "synonyms": ["TAJIKISTAN"]}, {"conceptId": "C17704", "definition": "A group of three atolls in the South Pacific Ocean, about one-half of the way from Hawaii to New Zealand. (NCI)", "preferredTerm": "Tokelau", "submissionValue": "TKL", "synonyms": ["TOKELAU"]}, {"conceptId": "C17223", "definition": "A country in Central Asia, bordering the Caspian Sea, between Iran and Kazakhstan. (NCI)", "preferredTerm": "Turkmenistan", "submissionValue": "TKM", "synonyms": ["TURKMENISTAN"]}, {"conceptId": "C17200", "definition": "A country in Southeastern Asia, northwest of Australia in the Lesser Sunda Islands at the eastern end of the Indonesian archipelago. East Timor includes the eastern half of the island of Timor, the Oecussi (Ambeno) region on the northwest portion of the island of Timor, and the islands of Pulau Atauro and Pulau Jaco. (NCI)", "preferredTerm": "Timor-Leste", "submissionValue": "TLS", "synonyms": ["TIMOR-LESTE"]}, {"conceptId": "C17205", "definition": "An archipelago in the South Pacific Ocean, about two-thirds of the way from Hawaii to New Zealand. (NCI)", "preferredTerm": "Tonga", "submissionValue": "TON", "synonyms": ["TONGA"]}, {"conceptId": "C17217", "definition": "Islands between the Caribbean Sea and the North Atlantic Ocean, northeast of Venezuela. (NCI)", "preferredTerm": "Trinidad and Tobago", "submissionValue": "TTO", "synonyms": ["TRINIDAD AND TOBAGO"]}, {"conceptId": "C17221", "definition": "A country in Northern Africa, bordering the Mediterranean Sea, between Algeria and Libya. (NCI)", "preferredTerm": "Tunisia", "submissionValue": "TUN", "synonyms": ["TUNISIA"]}, {"conceptId": "C17222", "definition": "A country in southeastern Europe and southwestern Asia (that portion of Turkey west of the Bosporus is geographically part of Europe), bordering the Black Sea, between Bulgaria and Georgia, and bordering the Aegean Sea and the Mediterranean Sea, between Greece and Syria. (NCI)", "preferredTerm": "Turkey", "submissionValue": "TUR", "synonyms": ["TURKEY"]}, {"conceptId": "C17225", "definition": "An island group consisting of nine coral atolls in the South Pacific Ocean, about one-half of the way from Hawaii to Australia. (NCI)", "preferredTerm": "Tuvalu", "submissionValue": "TUV", "synonyms": ["TUVALU"]}, {"conceptId": "C17184", "definition": "A group of islands bordering the East China Sea, Philippine Sea, South China Sea, and Taiwan Strait, north of the Philippines, off the southeastern coast of China. (NCI)", "preferredTerm": "Taiwan", "submissionValue": "TWN", "synonyms": ["TAIWAN"]}, {"conceptId": "C17185", "definition": "A country in Eastern Africa, bordering the Indian Ocean, between Kenya and Mozambique. (NCI)", "preferredTerm": "Tanzania, United Republic of", "submissionValue": "TZA", "synonyms": ["TANZANIA, UNITED REPUBLIC OF"]}, {"conceptId": "C17228", "definition": "A country in Eastern Africa, west of Kenya. (NCI)", "preferredTerm": "Uganda", "submissionValue": "UGA", "synonyms": ["UGANDA"]}, {"conceptId": "C17229", "definition": "A country in Eastern Europe, bordering the Black Sea, between Poland and Russia. (NCI)", "preferredTerm": "Ukraine", "submissionValue": "UKR", "synonyms": ["UKRAINE"]}, {"conceptId": "C20112", "definition": "The U.S. Minor Outlying Islands consist of Baker Island, Howland Island, Jarvis Island, Johnston Atoll, Kingman Reef, Midway Island, Navassa Island, Palmyra Atoll, and Wake Island (Wake Atoll). (NCI)", "preferredTerm": "United States Minor Outlying Islands", "submissionValue": "UMI", "synonyms": ["UNITED STATES MINOR OUTLYING ISLANDS"]}, {"conceptId": "C17244", "definition": "A country in Southern South America, bordering the South Atlantic Ocean, between Argentina and Brazil. (NCI)", "preferredTerm": "Uruguay", "submissionValue": "URY", "synonyms": ["URUGUAY"]}, {"conceptId": "C17234", "definition": "A country in North America, bordering both the North Atlantic Ocean and the North Pacific Ocean, between Canada and Mexico. (NCI)", "preferredTerm": "United States", "submissionValue": "USA", "synonyms": ["UNITED STATES"]}, {"conceptId": "C17246", "definition": "A country in Central Asia, north of Afghanistan. (NCI)", "preferredTerm": "Uzbekistan", "submissionValue": "UZB", "synonyms": ["UZBEKISTAN"]}, {"conceptId": "C17249", "definition": "An enclave of Rome (Italy). (NCI)", "preferredTerm": "Holy See (Vatican City State)", "submissionValue": "VAT", "synonyms": ["VATICAN CITY STATE"]}, {"conceptId": "C17114", "definition": "A country in the Caribbean, comprised of islands in the Caribbean Sea, north of Trinidad and Tobago. (NCI)", "preferredTerm": "Saint Vincent and the Grenadines", "submissionValue": "VCT", "synonyms": ["SAINT VINCENT AND THE GRENADINES"]}, {"conceptId": "C17250", "definition": "A country in Northern South America, bordering the Caribbean Sea and the North Atlantic Ocean, between Colombia and Guyana. (NCI)", "preferredTerm": "Venezuela, Bolivarian Republic of", "submissionValue": "VEN", "synonyms": ["VENEZUELA", "VENEZUELA, BOLIVARIAN REPUBLIC OF"]}, {"conceptId": "C17653", "definition": "Islands between the Caribbean Sea and the North Atlantic Ocean, east of Puerto Rico. (NCI)", "preferredTerm": "Virgin Islands, British", "submissionValue": "VGB", "synonyms": ["VIRGIN ISLANDS, BRITISH"]}, {"conceptId": "C17255", "definition": "Islands between the Caribbean Sea and the North Atlantic Ocean, east of Puerto Rico. (NCI)", "preferredTerm": "Virgin Islands, U.S.", "submissionValue": "VIR", "synonyms": ["VIRGIN ISLANDS, U.S."]}, {"conceptId": "C17252", "definition": "A country in Southeastern Asia, bordering the Gulf of Thailand, Gulf of Tonkin, and South China Sea, alongside China, Laos, and Cambodia. (NCI)", "preferredTerm": "Viet Nam", "submissionValue": "VNM", "synonyms": ["VIET NAM", "VIETNAM"]}, {"conceptId": "C17247", "definition": "A group of islands in the South Pacific Ocean, about three-quarters of the way from Hawaii to Australia. (NCI)", "preferredTerm": "Vanuatu", "submissionValue": "VUT", "synonyms": ["VANUATU"]}, {"conceptId": "C17259", "definition": "Islands in the South Pacific Ocean, about two-thirds of the way from Hawaii to New Zealand. (NCI)", "preferredTerm": "Wallis and Futuna", "submissionValue": "WLF", "synonyms": ["WALLIS AND FUTUNA"]}, {"conceptId": "C17740", "definition": "A group of islands in the South Pacific Ocean, about one-half of the way from Hawaii to New Zealand. (NCI)", "preferredTerm": "Samoa", "submissionValue": "WSM", "synonyms": ["SAMOA"]}, {"conceptId": "C17264", "definition": "A country in the Middle East, bordering the Arabian Sea, Gulf of Aden, and Red Sea, between Oman and Saudi Arabia. (NCI)", "preferredTerm": "Yemen", "submissionValue": "YEM", "synonyms": ["YEMEN"]}, {"conceptId": "C17151", "definition": "A country in Southern Africa, at the southern tip of the continent of Africa. (NCI)", "preferredTerm": "South Africa", "submissionValue": "ZAF", "synonyms": ["SOUTH AFRICA"]}, {"conceptId": "C17267", "definition": "A country in Southern Africa, east of Angola. (NCI)", "preferredTerm": "Zambia", "submissionValue": "ZMB", "synonyms": ["ZAMBIA"]}, {"conceptId": "C17268", "definition": "A country in Southern Africa, between South Africa and Zambia. (NCI)", "preferredTerm": "Zimbabwe", "submissionValue": "ZWE", "synonyms": ["ZIMBABWE"]}]}