{"_links": {"parentPackage": {"href": "/mdr/ct/packages/sendct-2019-03-29", "title": "SEND Controlled Terminology Package 37 Effective 2019-03-29", "type": "Terminology"}, "priorVersion": {"href": "/mdr/ct/packages/sendct-2018-12-21/codelists/C89968", "title": "CDISC SEND Standardized Disposition Term Terminology", "type": "Code List"}, "rootItem": {"href": "/mdr/root/ct/sendct/codelists/C89968", "title": "Version-agnostic anchor resource for codelist C89968", "type": "Root Value Domain"}, "self": {"href": "/mdr/ct/packages/sendct-2019-03-29/codelists/C89968", "title": "CDISC SEND Standardized Disposition Term Terminology", "type": "Code List"}}, "conceptId": "C89968", "definition": "Terminology related to the final disposition of the subject in a study.", "extensible": "false", "name": "Standardized Disposition Term", "preferredTerm": "CDISC SEND Standardized Disposition Term Terminology", "submissionValue": "DSDECOD", "synonyms": ["Standardized Disposition Term"], "terms": [{"conceptId": "C90351", "definition": "An indication that the subject's death or sacrifice was due to a mishap or technical/operational error.", "preferredTerm": "Accidental Death", "submissionValue": "ACCIDENTAL DEATH"}, {"conceptId": "C90387", "definition": "An indication that a subject was found in a deceased state. (NCI)", "preferredTerm": "Found Dead", "submissionValue": "FOUND DEAD"}, {"conceptId": "C90436", "definition": "An indication that the study subject is part of a protocol-defined set of animals that are sacrificed before the protocol-defined terminal sacrifice date.", "preferredTerm": "Interim Sacrifice", "submissionValue": "INTERIM SACRIFICE"}, {"conceptId": "C96372", "definition": "An indication that the subject could not be found, in which case, its disposition was not known, and no postmortem data was available.", "preferredTerm": "Missing Study Animal", "submissionValue": "MISSING"}, {"conceptId": "C90425", "definition": "An indication that a subject was euthanized due to ethical reasons, such as being in poor health or near death.", "preferredTerm": "Moribund Sacrifice", "submissionValue": "MORIBUND SACRIFICE"}, {"conceptId": "C123635", "definition": "An indication that a subject was euthanized due to factors not associated with the general health of the subject.", "preferredTerm": "Non-Moribund Sacrifice", "submissionValue": "NON-MORIBUND SACRIFICE"}, {"conceptId": "C90445", "definition": "An indication that the study subject is part of a protocol-defined set of animals that are sacrificed after a protocol-defined treatment-free period.", "preferredTerm": "Recovery Sacrifice", "submissionValue": "RECOVERY SACRIFICE"}, {"conceptId": "C90447", "definition": "An indication that the subject was alive when taken out of the study. (NCI)", "preferredTerm": "Removed From Study Alive", "submissionValue": "REMOVED FROM STUDY ALIVE"}, {"conceptId": "C90465", "definition": "An indication that the subject was sacrificed at the end of the protocol-defined treatment or observation period.", "preferredTerm": "Terminal Sacrifice", "submissionValue": "TERMINAL SACRIFICE"}]}