{"_links": {"parentPackage": {"href": "/mdr/ct/packages/sendct-2018-12-21", "title": "SEND Controlled Terminology Package 36 Effective 2018-12-21", "type": "Terminology"}, "priorVersion": {"href": "/mdr/ct/packages/sendct-2018-09-28/codelists/C124319", "title": "CDISC SEND Implantation Findings Test Name Terminology", "type": "Code List"}, "rootItem": {"href": "/mdr/root/ct/sendct/codelists/C124319", "title": "Version-agnostic anchor resource for codelist C124319", "type": "Root Value Domain"}, "self": {"href": "/mdr/ct/packages/sendct-2018-12-21/codelists/C124319", "title": "CDISC SEND Implantation Findings Test Name Terminology", "type": "Code List"}}, "conceptId": "C124319", "definition": "Terminology for the test names relevant to implantation classifications.", "extensible": "true", "name": "Implantation Findings Test Name", "preferredTerm": "CDISC SEND Implantation Findings Test Name Terminology", "submissionValue": "ICTEST", "synonyms": ["Implantation Findings Test Name"], "terms": [{"conceptId": "C124279", "definition": "\"The condition of an implantation site, embryo, or fetus based on examination.\"", "preferredTerm": "Implantation Site Characterization", "submissionValue": "Implantation Site Characterization", "synonyms": ["Implantation Site Characterization"]}]}