{"_links": {"parentPackage": {"href": "/mdr/ct/packages/sendct-2018-12-21", "title": "SEND Controlled Terminology Package 36 Effective 2018-12-21", "type": "Terminology"}, "priorVersion": {"href": "/mdr/ct/packages/sendct-2018-09-28/codelists/C124318", "title": "CDISC SEND Implantation Findings Test Code Terminology", "type": "Code List"}, "rootItem": {"href": "/mdr/root/ct/sendct/codelists/C124318", "title": "Version-agnostic anchor resource for codelist C124318", "type": "Root Value Domain"}, "self": {"href": "/mdr/ct/packages/sendct-2018-12-21/codelists/C124318", "title": "CDISC SEND Implantation Findings Test Code Terminology", "type": "Code List"}}, "conceptId": "C124318", "definition": "Terminology for the test codes relevant to implantation classifications.", "extensible": "true", "name": "Implantation Findings Test Code", "preferredTerm": "CDISC SEND Implantation Findings Test Code Terminology", "submissionValue": "ICTESTCD", "synonyms": ["Implantation Findings Test Code"], "terms": [{"conceptId": "C124279", "definition": "\"The condition of an implantation site, embryo, or fetus based on examination.\"", "preferredTerm": "Implantation Site Characterization", "submissionValue": "IMPSCHCT", "synonyms": ["Implantation Site Characterization"]}]}