{"_links": {"parentPackage": {"href": "/mdr/ct/packages/sendct-2018-12-21", "title": "SEND Controlled Terminology Package 36 Effective 2018-12-21", "type": "Terminology"}, "priorVersion": {"href": "/mdr/ct/packages/sendct-2018-09-28/codelists/C89959", "title": "CDISC SEND Body Weight Gain Test Name Terminology", "type": "Code List"}, "rootItem": {"href": "/mdr/root/ct/sendct/codelists/C89959", "title": "Version-agnostic anchor resource for codelist C89959", "type": "Root Value Domain"}, "self": {"href": "/mdr/ct/packages/sendct-2018-12-21/codelists/C89959", "title": "CDISC SEND Body Weight Gain Test Name Terminology", "type": "Code List"}}, "conceptId": "C89959", "definition": "Terminology for the test names concerned with the increase in overall body mass.", "extensible": "true", "name": "Body Weight Gain Test Name", "preferredTerm": "CDISC SEND Body Weight Gain Test Name Terminology", "submissionValue": "BGTEST", "synonyms": ["Body Weight Gain Test Name"], "terms": [{"conceptId": "C90363", "definition": "\"The mean value of the amount of weight change over a period of time, relative to the beginning of the collection period.\"", "preferredTerm": "Average Body Weight Gain", "submissionValue": "Average Body Weight Gain", "synonyms": ["Average Body Weight Gain"]}, {"conceptId": "C62754", "definition": "\"A change in overall body weight, relative to the beginning of the collection period.\"", "preferredTerm": "Weight Gain", "submissionValue": "Body Weight Gain", "synonyms": ["Body Weight Gain"]}, {"conceptId": "C124476", "definition": "The amount of maternal body weight gained over a period of time where the weight at the end of the interval is adjusted for the gravid uterus weight. This is derived by subtracting the maternal body weight adjusted for the gravid uterus from the total maternal body weight.", "preferredTerm": "Gravid Uterus Adjusted Maternal Body Weight Gain", "submissionValue": "Gravid Uterus Adjusted Body Weight Gain", "synonyms": ["Gravid Uterus Adjusted Body Weight Gain"]}, {"conceptId": "C90434", "definition": "\"The amount of weight change over a period of time in relation to the total weight, relative to the beginning of the collection period.\"", "preferredTerm": "Percentage Body Weight Gain", "submissionValue": "Percentage Body Weight Gain", "synonyms": ["Percentage Body Weight Gain"]}]}