{"_links": {"parentPackage": {"href": "/mdr/ct/packages/sendct-2018-12-21", "title": "SEND Controlled Terminology Package 36 Effective 2018-12-21", "type": "Terminology"}, "priorVersion": {"href": "/mdr/ct/packages/sendct-2018-09-28/codelists/C90005", "title": "CDISC SEND Tumor Findings Test Name Terminology", "type": "Code List"}, "rootItem": {"href": "/mdr/root/ct/sendct/codelists/C90005", "title": "Version-agnostic anchor resource for codelist C90005", "type": "Root Value Domain"}, "self": {"href": "/mdr/ct/packages/sendct-2018-12-21/codelists/C90005", "title": "CDISC SEND Tumor Findings Test Name Terminology", "type": "Code List"}}, "conceptId": "C90005", "definition": "Terminology for the test names concerned with the assessment or evaluation of a neoplastic mass.", "extensible": "true", "name": "Tumor Findings Test Name", "preferredTerm": "CDISC SEND Tumor Findings Test Name Terminology", "submissionValue": "TFTEST", "synonyms": ["Tumor Findings Test Name"], "terms": [{"conceptId": "C90479", "definition": "An assessment or evaluation of a neoplastic mass. (NCI)", "preferredTerm": "Tumor Examination", "submissionValue": "Tumor Examination", "synonyms": ["Tumor Examination"]}]}