{"_links": {"parentPackage": {"href": "/mdr/ct/packages/define-xmlct-2021-12-17", "title": "Define-XML Controlled Terminology Package 48 Effective 2021-12-17", "type": "Terminology"}, "priorVersion": {"href": "/mdr/ct/packages/define-xmlct-2021-09-24/codelists/C170451", "title": "CDISC Define-XML Standard Type Terminology", "type": "Code List"}, "rootItem": {"href": "/mdr/root/ct/define-xmlct/codelists/C170451", "title": "Version-agnostic anchor resource for codelist C170451", "type": "Root Value Domain"}, "self": {"href": "/mdr/ct/packages/define-xmlct-2021-12-17/codelists/C170451", "title": "CDISC Define-XML Standard Type Terminology", "type": "Code List"}}, "conceptId": "C170451", "definition": "Terminology relevant to the classification of the standard described in the Define-XML document.", "extensible": "false", "name": "Standard Type", "preferredTerm": "CDISC Define-XML Standard Type Terminology", "submissionValue": "STDTYP", "synonyms": ["Standard Type"], "terms": [{"conceptId": "C163415", "definition": "A standard terminology developed and maintained by Clinical Data Interchange Standards Consortium (CDISC) and the National Cancer Institute Enterprise Vocabulary Services (NCI-EVS) to support CDISC models, domains and specifications for data representation in regulated research.", "preferredTerm": "Clinical Data Interchange Standards Consortium Controlled Terminology", "submissionValue": "CT", "synonyms": ["CDISC Controlled Terminology", "Clinical Data Interchange Standards Consortium Controlled Terminology"]}, {"conceptId": "C170454", "definition": "A standard document developed and maintained by Clinical Data Interchange Standards Consortium (CDISC) that contains instructions and requirements for the organization, structure, and format of standard clinical and non-clinical trial tabulation and analysis datasets.", "preferredTerm": "CDISC Implementation Guide", "submissionValue": "IG", "synonyms": ["CDISC Implementation Guide"]}]}