{"_links": {"parentPackage": {"href": "/mdr/ct/packages/define-xmlct-2021-12-17", "title": "Define-XML Controlled Terminology Package 48 Effective 2021-12-17", "type": "Terminology"}, "priorVersion": {"href": "/mdr/ct/packages/define-xmlct-2021-09-24/codelists/C172331", "title": "CDISC Define-XML CDISC Controlled Terminology Standard Type Terminology", "type": "Code List"}, "rootItem": {"href": "/mdr/root/ct/define-xmlct/codelists/C172331", "title": "Version-agnostic anchor resource for codelist C172331", "type": "Root Value Domain"}, "self": {"href": "/mdr/ct/packages/define-xmlct-2021-12-17/codelists/C172331", "title": "CDISC Define-XML CDISC Controlled Terminology Standard Type Terminology", "type": "Code List"}}, "conceptId": "C172331", "definition": "Terminology relevant to the classification of the CDISC controlled terminology standard described in the Define-XML document.", "extensible": "false", "name": "CDISC Controlled Terminology Standard Type", "preferredTerm": "CDISC Define-XML CDISC Controlled Terminology Standard Type Terminology", "submissionValue": "CTSTDTYP", "synonyms": ["CDISC Controlled Terminology Standard Type"], "terms": [{"conceptId": "C180548", "definition": "The controlled terminology standard subset that includes terms pertaining to the Clinical Data Interchange Standards Consortium (CDISC) Analysis Data Model (ADaM).", "preferredTerm": "CDISC ADaM Standard Terminology", "submissionValue": "ADaM"}, {"conceptId": "C180549", "definition": "The controlled terminology standard subset that includes terms relevant to the Clinical Data Interchange Standards Consortium (CDISC) Clinical Data Acquisition Standards Harmonization (CDASH) group.", "preferredTerm": "CDISC CDASH Standard Terminology", "submissionValue": "CDASH"}, {"conceptId": "C180550", "definition": "The controlled terminology standard subset that includes terms relevant to the Clinical Data Interchange Standards Consortium (CDISC) Define-XML standard.", "preferredTerm": "CDISC Define-XML Standard Terminology", "submissionValue": "DEFINE-XML"}, {"conceptId": "C180551", "definition": "The controlled terminology standard subset that includes terms pertaining to the Clinical Data Interchange Standards Consortium (CDISC) Study Data Tabulation Model (SDTM).", "preferredTerm": "CDISC SDTM Standard Terminology", "submissionValue": "SDTM"}, {"conceptId": "C180552", "definition": "The controlled terminology standard subset that includes terms relevant to the Clinical Data Interchange Standards Consortium (CDISC) Standard for Exchange of Non-clinical Data (SEND) group.", "preferredTerm": "CDISC SEND Standard Terminology", "submissionValue": "SEND"}]}