{"_links": {"parentPackage": {"href": "/mdr/ct/packages/sdtmct-2016-03-25", "title": "SDTM Controlled Terminology Package 25 Effective 2016-03-25", "type": "Terminology"}, "priorVersion": {"href": "/mdr/ct/packages/sdtmct-2015-12-18/codelists/C100153", "title": "CDISC Questionnaire FPSR Test Name Terminology", "type": "Code List"}, "rootItem": {"href": "/mdr/root/ct/sdtmct/codelists/C100153", "title": "Version-agnostic anchor resource for codelist C100153", "type": "Root Value Domain"}, "self": {"href": "/mdr/ct/packages/sdtmct-2016-03-25/codelists/C100153", "title": "CDISC Questionnaire FPSR Test Name Terminology", "type": "Code List"}}, "conceptId": "C100153", "definition": "Faces Pain Scale - Revised test name.", "extensible": "false", "name": "Faces Pain Scale - Revised Questionnaire Test Name", "preferredTerm": "CDISC Questionnaire FPSR Test Name Terminology", "submissionValue": "FPSR1TN", "synonyms": ["Faces Pain Scale - Revised Questionnaire Test Name"], "terms": [{"conceptId": "C101013", "definition": "Faces Pain Scale - Revised - Point to the face that shows how much you hurt [right now].", "preferredTerm": "FPSR - How Much do You Hurt", "submissionValue": "FPSR1-How Much do you Hurt", "synonyms": ["FPSR1-How Much do you Hurt"]}]}