{"_links": {"parentPackage": {"href": "/mdr/ct/packages/sdtmct-2016-03-25", "title": "SDTM Controlled Terminology Package 25 Effective 2016-03-25", "type": "Terminology"}, "priorVersion": {"href": "/mdr/ct/packages/sdtmct-2015-12-18/codelists/C100134", "title": "CDISC Questionnaire BPRS-A Test Code Terminology", "type": "Code List"}, "rootItem": {"href": "/mdr/root/ct/sdtmct/codelists/C100134", "title": "Version-agnostic anchor resource for codelist C100134", "type": "Root Value Domain"}, "self": {"href": "/mdr/ct/packages/sdtmct-2016-03-25/codelists/C100134", "title": "CDISC Questionnaire BPRS-A Test Code Terminology", "type": "Code List"}}, "conceptId": "C100134", "definition": "The Brief Psychiatric Rating Scale-A test code.", "extensible": "false", "name": "Brief Psychiatric Rating Scale-A Questionnaire Test Code", "preferredTerm": "CDISC Questionnaire BPRS-A Test Code Terminology", "submissionValue": "BPR01TC", "synonyms": ["Brief Psychiatric Rating Scale-A Questionnaire Test Code"], "terms": [{"conceptId": "C100372", "definition": "Brief Psychiatric Rating Scale-A - Somatic Concern.", "preferredTerm": "BPRS-A - Somatic Concern", "submissionValue": "BPR0101", "synonyms": ["BPR01-Somatic Concern"]}, {"conceptId": "C100373", "definition": "Brief Psychiatric Rating Scale-A - Anxiety.", "preferredTerm": "BPRS-A - Anxiety", "submissionValue": "BPR0102", "synonyms": ["BPR01-Anxiety"]}, {"conceptId": "C100374", "definition": "Brief Psychiatric Rating Scale-A - Emotional Withdrawal.", "preferredTerm": "BPRS-A - Emotional Withdrawal", "submissionValue": "BPR0103", "synonyms": ["BPR01-Emotional Withdrawal"]}, {"conceptId": "C100375", "definition": "Brief Psychiatric Rating Scale-A - Conceptual Disorganization.", "preferredTerm": "BPRS-A - Conceptual Disorganization", "submissionValue": "BPR0104", "synonyms": ["BPR01-Conceptual Disorganization"]}, {"conceptId": "C100376", "definition": "Brief Psychiatric Rating Scale-A - Guilt Feelings.", "preferredTerm": "BPRS-A - Guilt Feelings", "submissionValue": "BPR0105", "synonyms": ["BPR01-Guilt Feelings"]}, {"conceptId": "C100377", "definition": "Brief Psychiatric Rating Scale-A - Tension.", "preferredTerm": "BPRS-A - Tension", "submissionValue": "BPR0106", "synonyms": ["BPR01-Tension"]}, {"conceptId": "C100378", "definition": "Brief Psychiatric Rating Scale-A - Mannerisms and Posturing.", "preferredTerm": "BPRS-A - Mannerisms and Posturing", "submissionValue": "BPR0107", "synonyms": ["BPR01-Mannerisms and Posturing"]}, {"conceptId": "C100379", "definition": "Brief Psychiatric Rating Scale-A - Grandiosity.", "preferredTerm": "BPRS-A - Grandiosity", "submissionValue": "BPR0108", "synonyms": ["BPR01-Grandiosity"]}, {"conceptId": "C100380", "definition": "Brief Psychiatric Rating Scale-A - Depressive Mood.", "preferredTerm": "BPRS-A - Depressive Mood", "submissionValue": "BPR0109", "synonyms": ["BPR01-Depressive Mood"]}, {"conceptId": "C100381", "definition": "Brief Psychiatric Rating Scale-A - Hostility.", "preferredTerm": "BPRS-A - Hostility", "submissionValue": "BPR0110", "synonyms": ["BPR01-Hostility"]}, {"conceptId": "C100382", "definition": "Brief Psychiatric Rating Scale-A - Suspiciousness.", "preferredTerm": "BPRS-A - Suspiciousness", "submissionValue": "BPR0111", "synonyms": ["BPR01-Suspiciousness"]}, {"conceptId": "C100383", "definition": "Brief Psychiatric Rating Scale-A - Hallucinatory Behavior.", "preferredTerm": "BPRS-A - Hallucinatory Behavior", "submissionValue": "BPR0112", "synonyms": ["BPR01-Hallucinatory Behavior"]}, {"conceptId": "C100384", "definition": "Brief Psychiatric Rating Scale-A - Motor Retardation.", "preferredTerm": "BPRS-A - Motor Retardation", "submissionValue": "BPR0113", "synonyms": ["BPR01-Motor Retardation"]}, {"conceptId": "C100385", "definition": "Brief Psychiatric Rating Scale-A - Uncooperativeness.", "preferredTerm": "BPRS-A - Uncooperativeness", "submissionValue": "BPR0114", "synonyms": ["BPR01-Uncooperativeness"]}, {"conceptId": "C100386", "definition": "Brief Psychiatric Rating Scale-A - Unusual Thought Content.", "preferredTerm": "BPRS-A - Unusual Thought Content", "submissionValue": "BPR0115", "synonyms": ["BPR01-Unusual Thought Content"]}, {"conceptId": "C100387", "definition": "Brief Psychiatric Rating Scale-A - Blunted Affect.", "preferredTerm": "BPRS-A - Blunted Affect", "submissionValue": "BPR0116", "synonyms": ["BPR01-Blunted Affect"]}, {"conceptId": "C100388", "definition": "Brief Psychiatric Rating Scale-A - Excitement.", "preferredTerm": "BPRS-A - Excitement", "submissionValue": "BPR0117", "synonyms": ["BPR01-Excitement"]}, {"conceptId": "C100389", "definition": "Brief Psychiatric Rating Scale-A - Disorientation.", "preferredTerm": "BPRS-A - Disorientation", "submissionValue": "BPR0118", "synonyms": ["BPR01-Disorientation"]}]}