{"_links": {"parentPackage": {"href": "/mdr/ct/packages/sdtmct-2016-03-25", "title": "SDTM Controlled Terminology Package 25 Effective 2016-03-25", "type": "Terminology"}, "priorVersion": {"href": "/mdr/ct/packages/sdtmct-2015-12-18/codelists/C101854", "title": "CDISC SDTM Cardiac Valvular Stenosis Severity Terminology", "type": "Code List"}, "rootItem": {"href": "/mdr/root/ct/sdtmct/codelists/C101854", "title": "Version-agnostic anchor resource for codelist C101854", "type": "Root Value Domain"}, "self": {"href": "/mdr/ct/packages/sdtmct-2016-03-25/codelists/C101854", "title": "CDISC SDTM Cardiac Valvular Stenosis Severity Terminology", "type": "Code List"}}, "conceptId": "C101854", "definition": "A terminology codelist to describe the severity of cardiac valvular stenosis.", "extensible": "false", "name": "Cardiac Valvular Stenosis Severity", "preferredTerm": "CDISC SDTM Cardiac Valvular Stenosis Severity Terminology", "submissionValue": "CVLSTSEV", "synonyms": ["Cardiac Valvular Stenosis Severity"], "terms": [{"conceptId": "C99986", "definition": "The cardiac valve orifice is abnormally narrow, to a mild degree.", "preferredTerm": "Mild Cardiac Valve Stenosis", "submissionValue": "MILD CARDIAC VALVE STENOSIS"}, {"conceptId": "C99990", "definition": "The cardiac valve orifice is abnormally narrow, to a moderate degree.", "preferredTerm": "Moderate Cardiac Valve Stenosis", "submissionValue": "MODERATE CARDIAC VALVE STENOSIS"}, {"conceptId": "C99992", "definition": "The cardiac valve orifice is not abnormally narrow.", "preferredTerm": "No Cardiac Valve Stenosis", "submissionValue": "NO CARDIAC VALVE STENOSIS"}, {"conceptId": "C100013", "definition": "The cardiac valve orifice is abnormally narrow, to a severe degree.", "preferredTerm": "Severe Cardiac Valve Stenosis", "submissionValue": "SEVERE CARDIAC VALVE STENOSIS"}]}