{"_links": {"parentPackage": {"href": "/mdr/ct/packages/sdtmct-2016-03-25", "title": "SDTM Controlled Terminology Package 25 Effective 2016-03-25", "type": "Terminology"}, "priorVersion": {"href": "/mdr/ct/packages/sdtmct-2015-12-18/codelists/C101814", "title": "CDISC Questionnaire COWS Test Name Terminology", "type": "Code List"}, "rootItem": {"href": "/mdr/root/ct/sdtmct/codelists/C101814", "title": "Version-agnostic anchor resource for codelist C101814", "type": "Root Value Domain"}, "self": {"href": "/mdr/ct/packages/sdtmct-2016-03-25/codelists/C101814", "title": "CDISC Questionnaire COWS Test Name Terminology", "type": "Code List"}}, "conceptId": "C101814", "definition": "Clinical Opiate Withdrawal Scale test name.", "extensible": "false", "name": "Clinical Opiate Withdrawal Scale Questionnaire Test Name", "preferredTerm": "CDISC Questionnaire COWS Test Name Terminology", "submissionValue": "COWS1TN", "synonyms": ["Clinical Opiate Withdrawal Scale Questionnaire Test Name"], "terms": [{"conceptId": "C102065", "definition": "Clinical Opiate Withdrawal Scale - Anxiety or irritability.", "preferredTerm": "COWS - Anxiety or Irritability", "submissionValue": "COWS1-Anxiety or Irritability", "synonyms": ["COWS1-Anxiety or Irritability"]}, {"conceptId": "C102060", "definition": "Clinical Opiate Withdrawal Scale - Bone or joint aches.", "preferredTerm": "COWS - Bone or Joint Aches", "submissionValue": "COWS1-Bone or Joint Aches", "synonyms": ["COWS1-Bone or Joint Aches"]}, {"conceptId": "C102062", "definition": "Clinical Opiate Withdrawal Scale - GI upset.", "preferredTerm": "COWS - GI Upset", "submissionValue": "COWS1-GI Upset", "synonyms": ["COWS1-GI Upset"]}, {"conceptId": "C102066", "definition": "Clinical Opiate Withdrawal Scale - Gooseflesh skin.", "preferredTerm": "COWS - Gooseflesh Skin", "submissionValue": "COWS1-Gooseflesh Skin", "synonyms": ["COWS1-Gooseflesh Skin"]}, {"conceptId": "C102059", "definition": "Clinical Opiate Withdrawal Scale - Pupil size.", "preferredTerm": "COWS - Pupil Size", "submissionValue": "COWS1-Pupil Size", "synonyms": ["COWS1-Pupil Size"]}, {"conceptId": "C102056", "definition": "Clinical Opiate Withdrawal Scale - Resting pulse rate.", "preferredTerm": "COWS - Resting Pulse Rate", "submissionValue": "COWS1-Resting Pulse Rate", "synonyms": ["COWS1-Resting Pulse Rate"]}, {"conceptId": "C112467", "definition": "Clinical Opiate Withdrawal Scale - Resting pulse rate: beats/minute.", "preferredTerm": "COWS - Resting Pulse Rate: Beats/Minute", "submissionValue": "COWS1-Resting Pulse Rate Beats/Minute", "synonyms": ["COWS1-Resting Pulse Rate Beats/minute"]}, {"conceptId": "C102058", "definition": "Clinical Opiate Withdrawal Scale - Restlessness.", "preferredTerm": "COWS - Restlessness", "submissionValue": "COWS1-Restlessness", "synonyms": ["COWS1-Restlessness"]}, {"conceptId": "C102061", "definition": "Clinical Opiate Withdrawal Scale - Runny nose or tearing.", "preferredTerm": "COWS - Runny Nose or Tearing", "submissionValue": "COWS1-Runny Nose or Tearing", "synonyms": ["COWS1-Runny Nose or Tearing"]}, {"conceptId": "C102057", "definition": "Clinical Opiate Withdrawal Scale - Sweating.", "preferredTerm": "COWS - Sweating", "submissionValue": "COWS1-Sweating", "synonyms": ["COWS1-Sweating"]}, {"conceptId": "C112468", "definition": "Clinical Opiate Withdrawal Scale - Total score.", "preferredTerm": "COWS - Total Score", "submissionValue": "COWS1-Total Score", "synonyms": ["COWS1-Total Score"]}, {"conceptId": "C102063", "definition": "Clinical Opiate Withdrawal Scale - Tremor.", "preferredTerm": "COWS - Tremor", "submissionValue": "COWS1-Tremor", "synonyms": ["COWS1-Tremor"]}, {"conceptId": "C102064", "definition": "Clinical Opiate Withdrawal Scale - Yawning.", "preferredTerm": "COWS - Yawning", "submissionValue": "COWS1-Yawning", "synonyms": ["COWS1-Yawning"]}]}