{"_links": {"parentPackage": {"href": "/mdr/ct/packages/sdtmct-2016-03-25", "title": "SDTM Controlled Terminology Package 25 Effective 2016-03-25", "type": "Terminology"}, "priorVersion": {"href": "/mdr/ct/packages/sdtmct-2015-12-18/codelists/C103489", "title": "CDISC Questionnaire UPS Test Code Terminology", "type": "Code List"}, "rootItem": {"href": "/mdr/root/ct/sdtmct/codelists/C103489", "title": "Version-agnostic anchor resource for codelist C103489", "type": "Root Value Domain"}, "self": {"href": "/mdr/ct/packages/sdtmct-2016-03-25/codelists/C103489", "title": "CDISC Questionnaire UPS Test Code Terminology", "type": "Code List"}}, "conceptId": "C103489", "definition": "Urgency Perception Scale test code.", "extensible": "false", "name": "Urgency Perception Scale Questionnaire Test Code", "preferredTerm": "CDISC Questionnaire UPS Test Code Terminology", "submissionValue": "UPS01TC", "synonyms": ["Urgency Perception Scale Questionnaire Test Code"], "terms": [{"conceptId": "C103761", "definition": "Urgency Perception Scale - Which of the following would typically describe your experience when you have a desire to urinate.", "preferredTerm": "UPS - Describe Your Experience When You Desire to Urinate", "submissionValue": "UPS0101", "synonyms": ["UPS01-Describe Your Desire to Urinate"]}]}