{"_links": {"parentPackage": {"href": "/mdr/ct/packages/sdtmct-2016-03-25", "title": "SDTM Controlled Terminology Package 25 Effective 2016-03-25", "type": "Terminology"}, "priorVersion": {"href": "/mdr/ct/packages/sdtmct-2015-12-18/codelists/C103459", "title": "CDISC Questionnaire ADCS-CGIC Test Code Terminology", "type": "Code List"}, "rootItem": {"href": "/mdr/root/ct/sdtmct/codelists/C103459", "title": "Version-agnostic anchor resource for codelist C103459", "type": "Root Value Domain"}, "self": {"href": "/mdr/ct/packages/sdtmct-2016-03-25/codelists/C103459", "title": "CDISC Questionnaire ADCS-CGIC Test Code Terminology", "type": "Code List"}}, "conceptId": "C103459", "definition": "Alzheimer's Disease Cooperative Study-Clinical Global Impression of Change test code.", "extensible": "false", "name": "Alzheimer's Disease Cooperative Study-Clinical Global Impression of Change Questionnaire Test Code", "preferredTerm": "CDISC Questionnaire ADCS-CGIC Test Code Terminology", "submissionValue": "ACGC01TC", "synonyms": ["Alzheimer's Disease Cooperative Study-Clinical Global Impression of Change Questionnaire Test Code"], "terms": [{"conceptId": "C103531", "definition": "Alzheimer's Disease Cooperative Study-Clinical Global Impression of Change - Clinical impression of change from baseline.", "preferredTerm": "ADCS-CGIC - Clinical Impression of Change from Baseline", "submissionValue": "ACGC0101", "synonyms": ["ACGC01-Clinical Impression of Change"]}]}