{"_links": {"parentPackage": {"href": "/mdr/ct/packages/sdtmct-2016-03-25", "title": "SDTM Controlled Terminology Package 25 Effective 2016-03-25", "type": "Terminology"}, "priorVersion": {"href": "/mdr/ct/packages/sdtmct-2015-12-18/codelists/C106655", "title": "CDISC Questionnaire BDI Test Code Terminology", "type": "Code List"}, "rootItem": {"href": "/mdr/root/ct/sdtmct/codelists/C106655", "title": "Version-agnostic anchor resource for codelist C106655", "type": "Root Value Domain"}, "self": {"href": "/mdr/ct/packages/sdtmct-2016-03-25/codelists/C106655", "title": "CDISC Questionnaire BDI Test Code Terminology", "type": "Code List"}}, "conceptId": "C106655", "definition": "Baseline Dyspnea Index test code.", "extensible": "false", "name": "Baseline Dyspnea Index Questionnaire Test Code", "preferredTerm": "CDISC Questionnaire BDI Test Code Terminology", "submissionValue": "BDI01TC", "synonyms": ["Baseline Dyspnea Index Questionnaire Test Code"], "terms": [{"conceptId": "C106701", "definition": "Baseline Dyspnea Index - Functional impairment.", "preferredTerm": "BDI - Functional Impairment", "submissionValue": "BDI0101", "synonyms": ["BDI01-Functional Impairment"]}, {"conceptId": "C106702", "definition": "Baseline Dyspnea Index - Magnitude of task.", "preferredTerm": "BDI - Magnitude of Task", "submissionValue": "BDI0102", "synonyms": ["BDI01-Magnitude of Task"]}, {"conceptId": "C106703", "definition": "Baseline Dyspnea Index - Magnitude of effort.", "preferredTerm": "BDI - Magnitude of Effort", "submissionValue": "BDI0103", "synonyms": ["BDI01-Magnitude of Effort"]}]}