{"_links": {"parentPackage": {"href": "/mdr/ct/packages/sdtmct-2016-03-25", "title": "SDTM Controlled Terminology Package 25 Effective 2016-03-25", "type": "Terminology"}, "priorVersion": {"href": "/mdr/ct/packages/sdtmct-2015-12-18/codelists/C106480", "title": "CDISC SDTM Device Identifier Parameter Long Name Terminology", "type": "Code List"}, "rootItem": {"href": "/mdr/root/ct/sdtmct/codelists/C106480", "title": "Version-agnostic anchor resource for codelist C106480", "type": "Root Value Domain"}, "self": {"href": "/mdr/ct/packages/sdtmct-2016-03-25/codelists/C106480", "title": "CDISC SDTM Device Identifier Parameter Long Name Terminology", "type": "Code List"}}, "conceptId": "C106480", "definition": "A terminology codelist for the long name of the identifier characteristic of the device.", "extensible": "true", "name": "Device Identifier Long Name", "preferredTerm": "CDISC SDTM Device Identifier Parameter Long Name Terminology", "submissionValue": "DIPARM", "synonyms": ["Device Identifier Long Name"], "terms": [{"conceptId": "C104504", "definition": "A distinctive alpha-numeric identification code assigned by the manufacturer or distributor to a specific quantity of manufactured material or product that is produced in a manner that is expected to render it homogeneous.", "preferredTerm": "Batch Number", "submissionValue": "Batch Number", "synonyms": ["Batch Identifier", "Batch Number"]}, {"conceptId": "C53265", "definition": "Generic category of medical device within the device classification established by a regulatory authority.", "preferredTerm": "Type of Device", "submissionValue": "Device Type", "synonyms": ["Device Type"]}, {"conceptId": "C112279", "definition": "A UDI is a unique numeric or alphanumeric code that includes a device identifier, which is specific to a device model, and a production identifier, which includes the current production information for that specific device, such as the lot or batch number, the serial number and/or expiration date. (FDA)", "preferredTerm": "FDA Unique Device Identifier", "submissionValue": "FDA Unique Device Identification", "synonyms": ["FDA Unique Device Identification"]}, {"conceptId": "C70848", "definition": "A distinctive alpha-numeric identification code assigned by the manufacturer or distributor to a specific quantity of manufactured material or product within a batch.", "preferredTerm": "Lot Number", "submissionValue": "Lot Number", "synonyms": ["Lot Identifier", "Lot Number"]}, {"conceptId": "C25392", "definition": "The organization defined as being responsible for creating the product as stated on the package in which the product is supplied. (BRIDG)", "preferredTerm": "Manufacturer", "submissionValue": "Manufacturer", "synonyms": ["Manufacturer"]}, {"conceptId": "C99285", "definition": "The identifier assigned to a particular design of a device, usually an alphanumeric text string.", "preferredTerm": "Model Number", "submissionValue": "Model Number", "synonyms": ["Model Identifier", "Model Number"]}, {"conceptId": "C111191", "definition": "The type of locking device used to securely fasten the electrical leads to the device. (NCI)", "preferredTerm": "Electrical Lead Locking Type", "submissionValue": "Secure Lead Type", "synonyms": ["Secure Lead Type"]}, {"conceptId": "C73518", "definition": "A unique identifier assigned to an individual object.", "preferredTerm": "Serial Number", "submissionValue": "Serial Number", "synonyms": ["Serial Number"]}, {"conceptId": "C106570", "definition": "The classification of the cage structure used to immobilize the head or other body part in preparation for stereotactic surgery. (NCI)", "preferredTerm": "Stereotactic Surgery Frame Type", "submissionValue": "Stereotactic Surgery Frame Type", "synonyms": ["Stereotactic Surgery Frame Type"]}, {"conceptId": "C71898", "definition": "The part of the name or logo associated with a specific product or service identifying and distinguishing it from varieties of the same product or service marketed by competing companies.", "preferredTerm": "Proprietary Name", "submissionValue": "Trade Name", "synonyms": ["Trade Name"]}]}