{"_links": {"parentPackage": {"href": "/mdr/ct/packages/sdtmct-2016-03-25", "title": "SDTM Controlled Terminology Package 25 Effective 2016-03-25", "type": "Terminology"}, "priorVersion": {"href": "/mdr/ct/packages/sdtmct-2015-12-18/codelists/C112437", "title": "CDISC Questionnaire DS Test Code Terminology", "type": "Code List"}, "rootItem": {"href": "/mdr/root/ct/sdtmct/codelists/C112437", "title": "Version-agnostic anchor resource for codelist C112437", "type": "Root Value Domain"}, "self": {"href": "/mdr/ct/packages/sdtmct-2016-03-25/codelists/C112437", "title": "CDISC Questionnaire DS Test Code Terminology", "type": "Code List"}}, "conceptId": "C112437", "definition": "Disease Steps test code.", "extensible": "false", "name": "Disease Steps Questionnaire Test Code", "preferredTerm": "CDISC Questionnaire DS Test Code Terminology", "submissionValue": "DS01TC", "synonyms": ["Disease Steps Questionnaire Test Code"], "terms": [{"conceptId": "C112549", "definition": "Disease Steps - Methods: For Disease Steps, classification of a patient is determined by history and neurologic examination as well as course of MS.", "preferredTerm": "DS - Disease Steps Classification", "submissionValue": "DS0101", "synonyms": ["DS01-Disease Steps Classification"]}]}