{"_links": {"parentPackage": {"href": "/mdr/ct/packages/sdtmct-2016-03-25", "title": "SDTM Controlled Terminology Package 25 Effective 2016-03-25", "type": "Terminology"}, "priorVersion": {"href": "/mdr/ct/packages/sdtmct-2015-12-18/codelists/C114117", "title": "CDISC SDTM Morphology Test Code Terminology", "type": "Code List"}, "rootItem": {"href": "/mdr/root/ct/sdtmct/codelists/C114117", "title": "Version-agnostic anchor resource for codelist C114117", "type": "Root Value Domain"}, "self": {"href": "/mdr/ct/packages/sdtmct-2016-03-25/codelists/C114117", "title": "CDISC SDTM Morphology Test Code Terminology", "type": "Code List"}}, "conceptId": "C114117", "definition": "A terminology codelist based on the test codes for macroscopic assessments that are seen by the naked eye or observed via procedures such as imaging modalities, endoscopy, or other technologies.", "extensible": "true", "name": "Morphology Test Code", "preferredTerm": "CDISC SDTM Morphology Test Code Terminology", "submissionValue": "MOTESTCD", "synonyms": ["Morphology Test Code"], "terms": [{"conceptId": "C114183", "definition": "A measurement of change in volume of an organ or anatomical feature as determined by a shift in tissue boundary over time.", "preferredTerm": "Boundary Shift Integral", "submissionValue": "BSI", "synonyms": ["Boundary Shift Integral"]}, {"conceptId": "C119331", "definition": "An indication as to whether there is a new acute reduction in coronary flow (TIMI grade 0-1) in the absence of dissection, thrombus, spasm, or high-grade residual stenosis at the original PCI lesion site.", "preferredTerm": "Coronary No Reflow at PCI Site Indicator", "submissionValue": "CANRFIND", "synonyms": ["Coronary Artery No Reflow Indicator"]}, {"conceptId": "C120538", "definition": "A measurement of the number of cells contained in a unit of volume.", "preferredTerm": "Cell Density", "submissionValue": "CELLDENS", "synonyms": ["Cell Density"]}, {"conceptId": "C120710", "definition": "The maximum number in a group of values that represent the cell density.", "preferredTerm": "Maximum Cell Density", "submissionValue": "CELLDMAX", "synonyms": ["Cell Density, Maximum"]}, {"conceptId": "C120711", "definition": "The minimum number in a group of values that represent the cell density.", "preferredTerm": "Minimum Cell Density", "submissionValue": "CELLDMIN", "synonyms": ["Cell Density, Minimum"]}, {"conceptId": "C120712", "definition": "The mean number in a group of values that represent the cell density.", "preferredTerm": "Mean Cell Density", "submissionValue": "CELLDMN", "synonyms": ["Cell Density, Mean"]}, {"conceptId": "C120713", "definition": "The standard deviation in a group of values that represent the cell density.", "preferredTerm": "Standard Deviation of Cell Density", "submissionValue": "CELLDSD", "synonyms": ["Cell Density, Standard Deviation"]}, {"conceptId": "C37927", "definition": "The appearance of objects (or light sources) described in terms of a person's perception of their hue and lightness (or brightness) and saturation. (NCI)", "preferredTerm": "Color", "submissionValue": "COLOR", "synonyms": ["Color"]}, {"conceptId": "C120714", "definition": "The ratio of the diameter of the optic cup compared to the diameter of the optic disc. (NCI)", "preferredTerm": "Optic Cup to Disc Ratio", "submissionValue": "CUPDISC", "synonyms": ["Cup to Disc Ratio"]}, {"conceptId": "C25333", "definition": "The extent downward or inward; the perpendicular measurement from the surface downward to determine deepness. (NCI)", "preferredTerm": "Depth", "submissionValue": "DEPTH", "synonyms": ["Depth"]}, {"conceptId": "C25285", "definition": "The length of a straight line passing through the center of a circle or sphere and connecting two points on the circumference. (NCI)", "preferredTerm": "Diameter", "submissionValue": "DIAMETER", "synonyms": ["Diameter"]}, {"conceptId": "C120715", "definition": "The minimum number in a group of values that represent the diameter of an object.", "preferredTerm": "Minimum Diameter", "submissionValue": "DIAMMIN", "synonyms": ["Diameter, Minimum"]}, {"conceptId": "C120716", "definition": "The mean number in a group of values that represent the diameter of an object.", "preferredTerm": "Mean Diameter", "submissionValue": "DIAMMN", "synonyms": ["Diameter, Mean"]}, {"conceptId": "C120717", "definition": "The standard deviation in a group of values that represent the diameter of an object.", "preferredTerm": "Standard Deviation of Diameter", "submissionValue": "DIAMSD", "synonyms": ["Diameter, Standard Deviation"]}, {"conceptId": "C119332", "definition": "A quantitative measurement of an organ's ability to deform in response to physiological force and return to its normal shape by passive elastic recoil.", "preferredTerm": "Organ Elasticity", "submissionValue": "ELASTIC", "synonyms": ["Elasticity"]}, {"conceptId": "C116148", "definition": "An indication as to whether there is re-narrowing of a stent implanted at a lesion site to treat a prior stenosis, to a diameter stenosis of greater than 50% within the stent.", "preferredTerm": "In-Stent Restenosis Indicator", "submissionValue": "INRSTIND", "synonyms": ["In-Stent Restenosis Indicator"]}, {"conceptId": "C41255", "definition": "An act or process of elucidation; explication, or explanation of the meaning of the event or thing via the assignment of objects from the domain to the constants of a formal language, truth-values to the proposition symbols, truth-functions to the connectives, other functions to the function symbols, and extensions to the predicates, if any. The assignments are result of human logic application and are not native to the symbols of the formal language.", "preferredTerm": "Interpretation", "submissionValue": "INTP", "synonyms": ["Interpretation"]}, {"conceptId": "C116146", "definition": "The difference between the mean minimum lumen diameter (MLD) assessed immediately after an index procedure and the MLD assessed at follow-up angiography.", "preferredTerm": "Late Lumen Loss Measurement", "submissionValue": "LATELOSS", "synonyms": ["Late Loss"]}, {"conceptId": "C96684", "definition": "The longest possible length of a straight line passing through the center of a circular or spheroid object that connects two points on the circumference.", "preferredTerm": "Longest Diameter", "submissionValue": "LDIAM", "synonyms": ["Longest Diameter"]}, {"conceptId": "C25334", "definition": "The linear extent in space from one end of something to the other end, or the extent of something from beginning to end. (NCI)", "preferredTerm": "Length", "submissionValue": "LENGTH", "synonyms": ["Length"]}, {"conceptId": "C120718", "definition": "The condition or state of the lens of the eye. (NCI)", "preferredTerm": "Lens Status", "submissionValue": "LENSSTAT", "synonyms": ["Lens Status"]}, {"conceptId": "C116147", "definition": "An indication as to whether there is re-narrowing of a lesion site following treatment of a prior stenosis, to a diameter stenosis of greater than 50% at the previously treated lesion site.", "preferredTerm": "Lesion Restenosis Indicator", "submissionValue": "LRSTIND", "synonyms": ["Lesion Restenosis Indicator"]}, {"conceptId": "C43246", "definition": "The amount of matter in an object.", "preferredTerm": "Mass", "submissionValue": "MASS", "synonyms": ["Mass"]}, {"conceptId": "C116143", "definition": "The mean of the inside diameters of the normal blood vessel segments.", "preferredTerm": "Mean Vessel Diameter", "submissionValue": "MEANVDIA", "synonyms": ["Mean Vessel Diameter"]}, {"conceptId": "C116144", "definition": "The minimum diameter of the inside of a blood vessel (lumen) derived quantitatively in a single view.", "preferredTerm": "Minimum Vessel Lumen Diameter", "submissionValue": "MINLDIAM", "synonyms": ["Minimum Vessel Lumen Diameter"]}, {"conceptId": "C116145", "definition": "The value calculated as 100 x (1 - MLD/RVD), using the mean quantitative values for minimum lumen diameter (MLD) and reference vessel diameter (RVD).", "preferredTerm": "Percent Diameter Stenosis Measurement", "submissionValue": "PCTDIAST", "synonyms": ["Percent Diameter Stenosis"]}, {"conceptId": "C25677", "definition": "The spatial arrangement of something as distinct from its substance. (NCI)", "preferredTerm": "Shape", "submissionValue": "SHAPE", "synonyms": ["Shape"]}, {"conceptId": "C41145", "definition": "The dimension between two surfaces of an object, usually the smallest dimension as opposed to the width or the length.", "preferredTerm": "Thickness", "submissionValue": "THICK", "synonyms": ["Thickness"]}, {"conceptId": "C120719", "definition": "The maximum number in a group of values that represent the thickness of an object.", "preferredTerm": "Maximum Thickness", "submissionValue": "THICKMAX", "synonyms": ["Thickness, Maximum"]}, {"conceptId": "C120720", "definition": "The minimum number in a group of values that represent the thickness of an object.", "preferredTerm": "Minimum Thickness", "submissionValue": "THICKMIN", "synonyms": ["Thickness, Minimum"]}, {"conceptId": "C120721", "definition": "The mean number in a group of values that represent the thickness of an object.", "preferredTerm": "Mean Thickness", "submissionValue": "THICKMN", "synonyms": ["Thickness, Mean"]}, {"conceptId": "C120722", "definition": "The standard deviation in a group of values that represent the thickness of an object.", "preferredTerm": "Standard Deviation of Thickness", "submissionValue": "THICKSD", "synonyms": ["Thickness, Standard Deviation"]}, {"conceptId": "C25335", "definition": "The amount of three dimensional space occupied by an object or the capacity of a space or container. (NCI)", "preferredTerm": "Volume", "submissionValue": "VOLUME", "synonyms": ["Volume"]}, {"conceptId": "C25208", "definition": "The vertical force exerted by a mass as a result of gravity. (NCI)", "preferredTerm": "Weight", "submissionValue": "WEIGHT", "synonyms": ["Weight"]}, {"conceptId": "C25345", "definition": "The extent or measurement of something from side to side. (NCI)", "preferredTerm": "Width", "submissionValue": "WIDTH", "synonyms": ["Width"]}]}