{"_links": {"parentPackage": {"href": "/mdr/ct/packages/sdtmct-2016-03-25", "title": "SDTM Controlled Terminology Package 25 Effective 2016-03-25", "type": "Terminology"}, "priorVersion": {"href": "/mdr/ct/packages/sdtmct-2015-12-18/codelists/C116111", "title": "CDISC SDTM Species Terminology", "type": "Code List"}, "rootItem": {"href": "/mdr/root/ct/sdtmct/codelists/C116111", "title": "Version-agnostic anchor resource for codelist C116111", "type": "Root Value Domain"}, "self": {"href": "/mdr/ct/packages/sdtmct-2016-03-25/codelists/C116111", "title": "CDISC SDTM Species Terminology", "type": "Code List"}}, "conceptId": "C116111", "definition": "Terminology relevant to the species of the pathogen to which the subject is a host when the pathogen is the focus of the test or interpretation.", "extensible": "true", "name": "SDTM Species", "preferredTerm": "CDISC SDTM Species Terminology", "submissionValue": "SPCIES", "synonyms": ["SDTM Species"], "terms": [{"conceptId": "C86095", "definition": "Any bacterial organism that can be assigned to the species Acinetobacter lwoffii.", "preferredTerm": "Acinetobacter lwoffii", "submissionValue": "ACINETOBACTER LWOFFII", "synonyms": ["Acinetobacter calcoaceticus subsp. lwoffii"]}, {"conceptId": "C86101", "definition": "Any bacterial organism that can be assigned to the species Actinobacillus pleuropneumoniae.", "preferredTerm": "Actinobacillus pleuropneumoniae", "submissionValue": "ACTINOBACILLUS PLEUROPNEUMONIAE", "synonyms": ["Haemophilus pleuropneumoniae"]}, {"conceptId": "C86160", "definition": "Any bacterial organism that can be assigned to the species Bacillus anthracis.", "preferredTerm": "Bacillus anthracis", "submissionValue": "BACILLUS ANTHRACIS"}, {"conceptId": "C112232", "definition": "Any viral organism that can be assigned to the species Barmah Forest virus.", "preferredTerm": "Barmah Forest Virus", "submissionValue": "BARMAH FOREST VIRUS"}, {"conceptId": "C89820", "definition": "Any viral organism that can be assigned to the species BK polyomavirus.", "preferredTerm": "BK Virus", "submissionValue": "BK POLYOMAVIRUS", "synonyms": ["BK Virus"]}, {"conceptId": "C76205", "definition": "Any bacterial organism that can be assigned to the species Bordetella pertussis.", "preferredTerm": "Bordetella pertussis", "submissionValue": "BORDETELLA PERTUSSIS"}, {"conceptId": "C86229", "definition": "Any bacterial organism that can be assigned to the species Buttiauxella agrestis.", "preferredTerm": "Buttiauxella agrestis", "submissionValue": "BUTTIAUXELLA AGRESTIS"}, {"conceptId": "C86253", "definition": "Any bacterial organism that can be assigned to the species Chlamydia trachomatis.", "preferredTerm": "Chlamydia trachomatis", "submissionValue": "CHLAMYDIA TRACHOMATIS"}, {"conceptId": "C76272", "definition": "Any bacterial organism that can be assigned to the species Chlamydophila pneumoniae.", "preferredTerm": "Chlamydophila pneumoniae", "submissionValue": "CHLAMYDOPHILA PNEUMONIAE", "synonyms": ["Chlamydia pneumoniae"]}, {"conceptId": "C86280", "definition": "Any bacterial organism that can be assigned to the species Clostridium glycolicum.", "preferredTerm": "Clostridium glycolicum", "submissionValue": "CLOSTRIDIUM GLYCOLICUM"}, {"conceptId": "C86282", "definition": "Any bacterial organism that can be assigned to the species Clostridium histolyticum.", "preferredTerm": "Clostridium histolyticum", "submissionValue": "CLOSTRIDIUM HISTOLYTICUM"}, {"conceptId": "C86285", "definition": "Any bacterial organism that can be assigned to the species Clostridium novyi.", "preferredTerm": "Clostridium novyi", "submissionValue": "CLOSTRIDIUM NOVYI"}, {"conceptId": "C86297", "definition": "Any bacterial organism that can be assigned to the species Clostridium tertium.", "preferredTerm": "Clostridium tertium", "submissionValue": "CLOSTRIDIUM TERTIUM"}, {"conceptId": "C112240", "definition": "Any viral organism that can be assigned to the species Colorado tick fever virus.", "preferredTerm": "Colorado Tick Fever Virus", "submissionValue": "COLORADO TICK FEVER VIRUS", "synonyms": ["CTFV"]}, {"conceptId": "C86308", "definition": "Any bacterial organism that can be assigned to the species Corynebacterium amycolatum.", "preferredTerm": "Corynebacterium amycolatum", "submissionValue": "CORYNEBACTERIUM AMYCOLATUM"}, {"conceptId": "C86312", "definition": "Any bacterial organism that can be assigned to the species Corynebacterium diphtheriae.", "preferredTerm": "Corynebacterium diphtheriae", "submissionValue": "CORYNEBACTERIUM DIPHTHERIAE"}, {"conceptId": "C86315", "definition": "Any bacterial organism that can be assigned to the species Corynebacterium macginleyi.", "preferredTerm": "Corynebacterium macginleyi", "submissionValue": "CORYNEBACTERIUM MACGINLEYI"}, {"conceptId": "C86325", "definition": "Any bacterial organism that can be assigned to the species Corynebacterium urealyticum.", "preferredTerm": "Corynebacterium urealyticum", "submissionValue": "CORYNEBACTERIUM UREALYTICUM", "synonyms": ["CDC Coryneform Group D-2"]}, {"conceptId": "C86326", "definition": "Any bacterial organism that can be assigned to the species Corynebacterium xerosis.", "preferredTerm": "Corynebacterium xerosis", "submissionValue": "CORYNEBACTERIUM XEROSIS"}, {"conceptId": "C86328", "definition": "Any bacterial organism that can be assigned to the species Coxiella burnetii.", "preferredTerm": "Coxiella burnetii", "submissionValue": "COXIELLA BURNETII"}, {"conceptId": "C112036", "definition": "Any viral organism that can be assigned to the species Dengue virus.", "preferredTerm": "Dengue Virus", "submissionValue": "DENGUE VIRUS"}, {"conceptId": "C112272", "definition": "Any viral organism that can be assigned to the species Echovirus.", "preferredTerm": "Echovirus", "submissionValue": "ECHOVIRUS"}, {"conceptId": "C86356", "definition": "Any bacterial organism that can be assigned to the species Enterobacter aerogenes.", "preferredTerm": "Enterobacter aerogenes", "submissionValue": "ENTEROBACTER AEROGENES", "synonyms": ["Aerobacter aerogenes"]}, {"conceptId": "C86358", "definition": "Any bacterial organism that can be assigned to the species Enterobacter asburiae.", "preferredTerm": "Enterobacter asburiae", "submissionValue": "ENTEROBACTER ASBURIAE", "synonyms": ["CDC Enteric Group 17"]}, {"conceptId": "C14206", "definition": "Any bacterial organism that can be assigned to the species Escherichia coli.", "preferredTerm": "Escherichia coli", "submissionValue": "ESCHERICHIA COLI", "synonyms": ["E. coli"]}, {"conceptId": "C86380", "definition": "Any bacterial organism that can be assigned to the species Escherichia fergusonii.", "preferredTerm": "Escherichia fergusonii", "submissionValue": "ESCHERICHIA FERGUSONII", "synonyms": ["CDC Enteric Group 10"]}, {"conceptId": "C86382", "definition": "Any bacterial organism that can be assigned to the species Escherichia vulneris.", "preferredTerm": "Escherichia vulneris", "submissionValue": "ESCHERICHIA VULNERIS", "synonyms": ["CDC Enteric Group 1"]}, {"conceptId": "C86391", "definition": "Any bacterial organism that can be assigned to the species Ewingella americana.", "preferredTerm": "Ewingella americana", "submissionValue": "EWINGELLA AMERICANA"}, {"conceptId": "C86886", "definition": "Any bacterial organism that can be assigned to the species Exiguobacterium acetylicum.", "preferredTerm": "Exiguobacterium acetylicum", "submissionValue": "EXIGUOBACTERIUM ACETYLICUM", "synonyms": ["Brevibacterium acetylicum"]}, {"conceptId": "C86416", "definition": "Any bacterial organism that can be assigned to the species Gordonia bronchialis.", "preferredTerm": "Gordonia bronchialis", "submissionValue": "GORDONIA BRONCHIALIS", "synonyms": ["Gordona bronchialis", "Rhodococcus bronchialis"]}, {"conceptId": "C86418", "definition": "Any bacterial organism that can be assigned to the species Gordonia sputi.", "preferredTerm": "Gordonia sputi", "submissionValue": "GORDONIA SPUTI", "synonyms": ["Gordona sputi"]}, {"conceptId": "C86428", "definition": "Any bacterial organism that can be assigned to the species Haemophilus aegyptius.", "preferredTerm": "Haemophilus aegyptius", "submissionValue": "HAEMOPHILUS AEGYPTIUS"}, {"conceptId": "C86431", "definition": "Any bacterial organism that can be assigned to the species Haemophilus influenzae.", "preferredTerm": "Haemophilus influenzae", "submissionValue": "HAEMOPHILUS INFLUENZAE", "synonyms": ["H-flu"]}, {"conceptId": "C112289", "definition": "Any viral organism that can be assigned to the species Hendra virus.", "preferredTerm": "Hendra Virus", "submissionValue": "HENDRA VIRUS"}, {"conceptId": "C14325", "definition": "Any viral organism that can be assigned to the species Hepatitis A virus.", "preferredTerm": "Hepatitis A Virus", "submissionValue": "HEPATITIS A VIRUS", "synonyms": ["HAV"]}, {"conceptId": "C14215", "definition": "Any viral organism that can be assigned to the species Hepatitis B virus.", "preferredTerm": "Hepatitis B Virus", "submissionValue": "HEPATITIS B VIRUS", "synonyms": ["HBV"]}, {"conceptId": "C14312", "definition": "Any viral organism that can be assigned to the species Hepatitis C virus.", "preferredTerm": "Hepatitis C Virus", "submissionValue": "HEPATITIS C VIRUS", "synonyms": ["HCV"]}, {"conceptId": "C93324", "definition": "Any viral organism that can be assigned to the species Hepatitis D virus.", "preferredTerm": "Hepatitis D Virus", "submissionValue": "HEPATITIS D VIRUS", "synonyms": ["HDV"]}, {"conceptId": "C14295", "definition": "Any viral organism that can be assigned to the species Hepatitis E virus.", "preferredTerm": "Hepatitis E Virus", "submissionValue": "HEPATITIS E VIRUS", "synonyms": ["HEV"]}, {"conceptId": "C14311", "definition": "Any viral organism that can be assigned to the species Human Herpesvirus 1 within the genus Simplexvirus.", "preferredTerm": "Human Herpesvirus 1", "submissionValue": "HUMAN HERPESVIRUS 1", "synonyms": ["HHV-1", "HSV-1", "Herpes Simplex Virus Type 1"]}, {"conceptId": "C112313", "definition": "Any viral organism that can be assigned to the species Human Herpesvirus 2 within the genus Simplexvirus.", "preferredTerm": "Human Herpesvirus 2", "submissionValue": "HUMAN HERPESVIRUS 2", "synonyms": ["HHV-2", "HSV-2", "Herpes Simplex Virus Type 2"]}, {"conceptId": "C71091", "definition": "Any viral organism that can be assigned to the species Human Herpesvirus 3.", "preferredTerm": "Varicella Zoster Virus", "submissionValue": "HUMAN HERPESVIRUS 3", "synonyms": ["HHV-3", "VZV", "Varicella Zoster Virus"]}, {"conceptId": "C14204", "definition": "Any viral organism that can be assigned to the species Human Herpesvirus 4.", "preferredTerm": "Epstein-Barr Virus", "submissionValue": "HUMAN HERPESVIRUS 4", "synonyms": ["EBV", "Epstein-Barr Virus", "HHV-4"]}, {"conceptId": "C112314", "definition": "Any viral organism that can be assigned to the species Human Herpesvirus 5.", "preferredTerm": "Human Herpesvirus 5", "submissionValue": "HUMAN HERPESVIRUS 5", "synonyms": ["HCMV", "HHV-5", "Human Cytomegalovirus"]}, {"conceptId": "C14218", "definition": "Any viral organism that can be assigned to the species Human Herpesvirus 6.", "preferredTerm": "Human Herpesvirus 6", "submissionValue": "HUMAN HERPESVIRUS 6", "synonyms": ["HHV-6"]}, {"conceptId": "C112315", "definition": "Any viral organism that can be assigned to the species Human Herpesvirus 7.", "preferredTerm": "Human Herpesvirus 7", "submissionValue": "HUMAN HERPESVIRUS 7", "synonyms": ["HHV-7"]}, {"conceptId": "C14327", "definition": "Any viral organism that can be assigned to the species Human herpesvirus 8.", "preferredTerm": "Human Herpesvirus 8", "submissionValue": "HUMAN HERPESVIRUS 8", "synonyms": ["HHV-8", "KSHV", "Kaposi's sarcoma-associated herpesvirus"]}, {"conceptId": "C14220", "definition": "Any viral organism that can be assigned to the species Human Immunodeficiency virus 1.", "preferredTerm": "Human Immunodeficiency Virus 1", "submissionValue": "HUMAN IMMUNODEFICIENCY VIRUS 1", "synonyms": ["HIV-1", "LAV-1"]}, {"conceptId": "C14221", "definition": "Any viral organism that can be assigned to the species Human Immunodeficiency virus 2.", "preferredTerm": "Human Immunodeficiency Virus 2", "submissionValue": "HUMAN IMMUNODEFICIENCY VIRUS 2", "synonyms": ["HIV-2", "LAV-2"]}, {"conceptId": "C89772", "definition": "Any viral organism that can be assigned to the species Human Parvovirus B19.", "preferredTerm": "Parvovirus B19", "submissionValue": "HUMAN PARVOVIRUS B19", "synonyms": ["B19 Virus", "Human Erythrovirus B19", "Parvovirus B19"]}, {"conceptId": "C14267", "definition": "Any viral organism that can be assigned to the species Human Respiratory Syncitial virus.", "preferredTerm": "Human Respiratory Syncytial Virus", "submissionValue": "HUMAN RESPIRATORY SYNCYTIAL VIRUS", "synonyms": ["Human RSV", "RSV", "hRSV"]}, {"conceptId": "C53454", "definition": "Any viral organism that can be assigned to the species Influenza A virus.", "preferredTerm": "Influenza A Virus", "submissionValue": "INFLUENZA A VIRUS", "synonyms": ["FLUAV", "Influenza Virus Type A"]}, {"conceptId": "C53468", "definition": "Any viral organism that can be assigned to the species Influenza B virus.", "preferredTerm": "Influenza B Virus", "submissionValue": "INFLUENZA B VIRUS", "synonyms": ["FLUBV", "Influenza Virus Type B"]}, {"conceptId": "C97157", "definition": "Any viral organism that can be assigned to the species Influenza C virus.", "preferredTerm": "Influenza C Virus", "submissionValue": "INFLUENZA C VIRUS", "synonyms": ["FLUCV", "Influenza Virus Type C"]}, {"conceptId": "C14229", "definition": "Any viral organism that can be assigned to the species JC polyomavirus.", "preferredTerm": "JC Virus", "submissionValue": "JC VIRUS", "synonyms": ["Human polyomavirus (type JC)", "Polyomavirus hominis 2", "polyomavirus JC"]}, {"conceptId": "C86456", "definition": "Any bacterial organism that can be assigned to the species Klebsiella ozaenae.", "preferredTerm": "Klebsiella ozaenae", "submissionValue": "KLEBSIELLA OZAENAE", "synonyms": ["Klebsiella pneumoniae subsp. ozaenae"]}, {"conceptId": "C86457", "definition": "Any bacterial organism that can be assigned to the species Klebsiella pneumoniae.", "preferredTerm": "Klebsiella pneumoniae", "submissionValue": "KLEBSIELLA PNEUMONIAE"}, {"conceptId": "C86458", "definition": "Any bacterial organism that can be assigned to the species Klebsiella rhinoscleromatis.", "preferredTerm": "Klebsiella rhinoscleromatis", "submissionValue": "KLEBSIELLA RHINOSCLEROMATIS", "synonyms": ["Klebsiella pneumoniae subsp. rhinoscleromatis"]}, {"conceptId": "C86459", "definition": "Any bacterial organism that can be assigned to the species Klebsiella singaporensis.", "preferredTerm": "Klebsiella singaporensis", "submissionValue": "KLEBSIELLA SINGAPORENSIS"}, {"conceptId": "C86460", "definition": "Any bacterial organism that can be assigned to the species Klebsiella variicola.", "preferredTerm": "Klebsiella variicola", "submissionValue": "KLEBSIELLA VARIICOLA"}, {"conceptId": "C86462", "definition": "Any bacterial organism that can be assigned to the species Kluyvera ascorbata.", "preferredTerm": "Kluyvera ascorbata", "submissionValue": "KLUYVERA ASCORBATA", "synonyms": ["CDC Enteric Group 8"]}, {"conceptId": "C86463", "definition": "Any bacterial organism that can be assigned to the species Kluyvera cryocrescens.", "preferredTerm": "Kluyvera cryocrescens", "submissionValue": "KLUYVERA CRYOCRESCENS"}, {"conceptId": "C86468", "definition": "Any bacterial organism that can be assigned to the species Kocuria kristinae.", "preferredTerm": "Kocuria kristinae", "submissionValue": "KOCURIA KRISTINAE", "synonyms": ["Micrococcus kristinae"]}, {"conceptId": "C86513", "definition": "Any bacterial organism that can be assigned to the species Kocuria rhizophila.", "preferredTerm": "Micrococcus luteus", "submissionValue": "KOCURIA RHIZOPHILA", "synonyms": ["Micrococcus luteus", "Sarcina lutea"]}, {"conceptId": "C86469", "definition": "Any bacterial organism that can be assigned to the species Kocuria rosea.", "preferredTerm": "Kocuria rosea", "submissionValue": "KOCURIA ROSEA"}, {"conceptId": "C86470", "definition": "Any bacterial organism that can be assigned to the species Kocuria varians.", "preferredTerm": "Kocuria varians", "submissionValue": "KOCURIA VARIANS"}, {"conceptId": "C86489", "definition": "Any bacterial organism that can be assigned to the species Legionella pneumophila.", "preferredTerm": "Legionella pneumophila", "submissionValue": "LEGIONELLA PNEUMOPHILA"}, {"conceptId": "C86508", "definition": "Any bacterial organism that can be assigned to the species Mannheimia haemolytica.", "preferredTerm": "Mannheimia haemolytica", "submissionValue": "MANNHEIMIA HAEMOLYTICA", "synonyms": ["Pasteurella haemolytica"]}, {"conceptId": "C14237", "definition": "Any viral organism that can be assigned to the species Measles virus.", "preferredTerm": "Measles Virus", "submissionValue": "MEASLES VIRUS", "synonyms": ["Rougeole Virus", "Rubeola Virus", "SSPEV", "Subacute Sclerosing Panencephalitis Virus"]}, {"conceptId": "C86896", "definition": "Any bacterial organism that can be assigned to the species Megasphaera elsdenii.", "preferredTerm": "Megasphaera elsdenii", "submissionValue": "MEGASPHAERA ELSDENII", "synonyms": ["Peptostreptococcus elsdenii"]}, {"conceptId": "C86510", "definition": "Any bacterial organism that can be assigned to the species Methylobacterium mesophilicum.", "preferredTerm": "Methylobacterium mesophilicum", "submissionValue": "METHYLOBACTERIUM MESOPHILICUM", "synonyms": ["Pseudomonas mesophilica"]}, {"conceptId": "C86512", "definition": "Any bacterial organism that can be assigned to the species Microbacterium paraoxydans.", "preferredTerm": "Microbacterium paraoxydans", "submissionValue": "MICROBACTERIUM PARAOXYDANS"}, {"conceptId": "C86514", "definition": "Any bacterial organism that can be assigned to the species Micrococcus lylae.", "preferredTerm": "Micrococcus lylae", "submissionValue": "MICROCOCCUS LYLAE"}, {"conceptId": "C86516", "definition": "Any bacterial organism that can be assigned to the species Mitsuokella multacida.", "preferredTerm": "Mitsuokella multacida", "submissionValue": "MITSUOKELLA MULTACIDA"}, {"conceptId": "C112357", "definition": "Any viral organism that can be assigned to the species Molluscum contagiosum virus.", "preferredTerm": "Molluscum Contagiosum Virus", "submissionValue": "MOLLUSCUM CONTAGIOSUM VIRUS", "synonyms": ["MCV", "MOCV"]}, {"conceptId": "C86524", "definition": "Any bacterial organism that can be assigned to the species Moraxella bovis.", "preferredTerm": "Moraxella bovis", "submissionValue": "MORAXELLA BOVIS"}, {"conceptId": "C76210", "definition": "Any bacterial organism that can be assigned to the species Moraxella catarrhalis.", "preferredTerm": "Moraxella catarrhalis", "submissionValue": "MORAXELLA CATARRHALIS", "synonyms": ["Branhamella catarrhalis"]}, {"conceptId": "C86526", "definition": "Any bacterial organism that can be assigned to the species Moraxella lacunata.", "preferredTerm": "Moraxella lacunata", "submissionValue": "MORAXELLA LACUNATA", "synonyms": ["Moraxella liquefaciens"]}, {"conceptId": "C86538", "definition": "Any bacterial organism that can be assigned to the species Mycobacterium fortuitum.", "preferredTerm": "Mycobacterium fortuitum", "submissionValue": "MYCOBACTERIUM FORTUITUM"}, {"conceptId": "C86546", "definition": "Any bacterial organism that can be assigned to the species Mycobacterium peregrinum.", "preferredTerm": "Mycobacterium peregrinum", "submissionValue": "MYCOBACTERIUM PEREGRINUM"}, {"conceptId": "C86590", "definition": "Any bacterial organism that can be assigned to the species Mycobacterium smegmatis.", "preferredTerm": "Mycobacterium smegmatis", "submissionValue": "MYCOBACTERIUM SMEGMATIS"}, {"conceptId": "C86599", "definition": "Any bacterial organism that can be assigned to the species Mycoplasma pneumoniae.", "preferredTerm": "Mycoplasma pneumoniae", "submissionValue": "MYCOPLASMA PNEUMONIAE"}, {"conceptId": "C86954", "definition": "Any bacterial organism that can be assigned to the species Myroides odoratus.", "preferredTerm": "Myroides odoratus", "submissionValue": "MYROIDES ODORATUS", "synonyms": ["Flavobacterium odoratum"]}, {"conceptId": "C86603", "definition": "Any bacterial organism that can be assigned to the species Neisseria gonorrhoeae.", "preferredTerm": "Neisseria gonorrhoeae", "submissionValue": "NEISSERIA GONORRHOEAE"}, {"conceptId": "C93023", "definition": "Any viral organism that can be assigned to the species Newcastle disease virus.", "preferredTerm": "Newcastle Disease Virus", "submissionValue": "NEWCASTLE DISEASE VIRUS", "synonyms": ["Avian Paramyxovirus Type 1", "NDV"]}, {"conceptId": "C112359", "definition": "Any viral organism that can be assigned to the species Nipah virus.", "preferredTerm": "Nipah Virus", "submissionValue": "NIPAH VIRUS", "synonyms": ["NiV"]}, {"conceptId": "C112363", "definition": "Any viral organism that can be assigned to the species Norwalk virus.", "preferredTerm": "Norwalk Virus", "submissionValue": "NORWALK VIRUS", "synonyms": ["NV", "Norwalk calicivirus"]}, {"conceptId": "C14259", "definition": "Any viral organism that can be assigned to the species Poliovirus.", "preferredTerm": "Poliovirus", "submissionValue": "POLIOVIRUS", "synonyms": ["Enterovirus C", "Human enterovirus C"]}, {"conceptId": "C86019", "definition": "Any bacterial organism that can be assigned to the species Proteus mirabilis.", "preferredTerm": "Proteus mirabilis", "submissionValue": "PROTEUS MIRABILIS"}, {"conceptId": "C86688", "definition": "Any bacterial organism that can be assigned to the species Proteus penneri.", "preferredTerm": "Proteus penneri", "submissionValue": "PROTEUS PENNERI", "synonyms": ["Indole Negative Proteus vulgaris"]}, {"conceptId": "C112401", "definition": "Any viral organism that can be assigned to the species Pseudocowpox virus.", "preferredTerm": "Pseudocowpox Virus", "submissionValue": "PSEUDOCOWPOX VIRUS", "synonyms": ["Paravaccinia virus", "Pseudocowpoxvirus"]}, {"conceptId": "C86696", "definition": "Any bacterial organism that can be assigned to the species Pseudomonas aeruginosa.", "preferredTerm": "Pseudomonas aeruginosa", "submissionValue": "PSEUDOMONAS AERUGINOSA"}, {"conceptId": "C112405", "definition": "Any viral organism that can be assigned to the species Rabies virus.", "preferredTerm": "Rabies Virus", "submissionValue": "RABIES VIRUS"}, {"conceptId": "C112407", "definition": "Any viral organism that can be assigned to the species Rhinovirus A.", "preferredTerm": "Rhinovirus A", "submissionValue": "RHINOVIRUS A", "synonyms": ["Human Rhinovirus A"]}, {"conceptId": "C112408", "definition": "Any viral organism that can be assigned to the species Rhinovirus B.", "preferredTerm": "Rhinovirus B", "submissionValue": "RHINOVIRUS B", "synonyms": ["Human Rhinovirus B"]}, {"conceptId": "C112409", "definition": "Any viral organism that can be assigned to the species Rhinovirus C.", "preferredTerm": "Rhinovirus C", "submissionValue": "RHINOVIRUS C", "synonyms": ["Human Rhinovirus C"]}, {"conceptId": "C112411", "definition": "Any viral organism that can be assigned to the species Ross River virus.", "preferredTerm": "Ross River Virus", "submissionValue": "ROSS RIVER VIRUS", "synonyms": ["RRV"]}, {"conceptId": "C77198", "definition": "Any viral organism that can be assigned to the species Rubella virus.", "preferredTerm": "Rubella Virus", "submissionValue": "RUBELLA VIRUS", "synonyms": ["German Measles Virus"]}, {"conceptId": "C112415", "definition": "Any viral organism that can be assigned to the species Sapporo virus.", "preferredTerm": "Sapporo Virus", "submissionValue": "SAPPORO VIRUS", "synonyms": ["Human Calicivirus SLV", "Human Calicivirus Sapporo-like Virus"]}, {"conceptId": "C112432", "definition": "Any viral organism that can be assigned to the species SARS coronavirus.", "preferredTerm": "SARS Coronavirus", "submissionValue": "SARS CORONAVIRUS", "synonyms": ["HCoV-SARS", "SARS", "Severe Acute Respiratory Syndrome Coronavirus"]}, {"conceptId": "C86740", "definition": "Any bacterial organism that can be assigned to the species Serratia plymuthica.", "preferredTerm": "Serratia plymuthica", "submissionValue": "SERRATIA PLYMUTHICA"}, {"conceptId": "C50921", "definition": "Any bacterial organism that can be assigned to the species Staphylococcus aureus.", "preferredTerm": "Staphylococcus aureus", "submissionValue": "STAPHYLOCOCCUS AUREUS", "synonyms": ["Staph. aureus"]}, {"conceptId": "C86752", "definition": "Any bacterial organism that can be assigned to the species Staphylococcus capitis.", "preferredTerm": "Staphylococcus capitis", "submissionValue": "STAPHYLOCOCCUS CAPITIS"}, {"conceptId": "C86756", "definition": "Any bacterial organism that can be assigned to the species Staphylococcus cohnii.", "preferredTerm": "Staphylococcus cohnii", "submissionValue": "STAPHYLOCOCCUS COHNII"}, {"conceptId": "C76384", "definition": "Any bacterial organism that can be assigned to the species Streptococcus pneumoniae.", "preferredTerm": "Streptococcus pneumoniae", "submissionValue": "STREPTOCOCCUS PNEUMONIAE", "synonyms": ["Diplococcus pneumoniae"]}, {"conceptId": "C86816", "definition": "Any bacterial organism that can be assigned to the species Suttonella indologenes.", "preferredTerm": "Suttonella indologenes", "submissionValue": "SUTTONELLA INDOLOGENES", "synonyms": ["Kingella indologenes"]}, {"conceptId": "C86817", "definition": "Any bacterial organism that can be assigned to the species Legionella micdadei.", "preferredTerm": "Tatlockia micdadei", "submissionValue": "TATLOCKIA MICDADEI", "synonyms": ["Legionella micdadei"]}, {"conceptId": "C112422", "definition": "Any viral organism that can be assigned to the species Tick-borne encephalitis virus.", "preferredTerm": "Tick-Borne Encephalitis Virus", "submissionValue": "TICK-BORNE ENCEPHALITIS VIRUS", "synonyms": ["FSME virus", "TBEV"]}, {"conceptId": "C14281", "definition": "Any viral organism that can be assigned to the species Vaccinia virus.", "preferredTerm": "Vaccinia Virus", "submissionValue": "VACCINIA VIRUS", "synonyms": ["VV"]}, {"conceptId": "C96527", "definition": "Any viral organism that can be assigned to the species Variola virus.", "preferredTerm": "Variola Virus", "submissionValue": "VARIOLA VIRUS", "synonyms": ["Smallpox Virus", "Variola Virus VAR"]}, {"conceptId": "C86840", "definition": "Any bacterial organism that can be assigned to the species Vibrio alginolyticus.", "preferredTerm": "Vibrio alginolyticus", "submissionValue": "VIBRIO ALGINOLYTICUS"}, {"conceptId": "C86846", "definition": "Any bacterial organism that can be assigned to the species Vibrio parahaemolyticus.", "preferredTerm": "Vibrio parahaemolyticus", "submissionValue": "VIBRIO PARAHAEMOLYTICUS"}, {"conceptId": "C86847", "definition": "Any bacterial organism that can be assigned to the species Vibrio vulnificus.", "preferredTerm": "Vibrio vulnificus", "submissionValue": "VIBRIO VULNIFICUS", "synonyms": ["Beneckea vulnifica"]}, {"conceptId": "C71877", "definition": "Any viral organism that can be assigned to the species West Nile virus.", "preferredTerm": "West Nile Virus", "submissionValue": "WEST NILE VIRUS", "synonyms": ["WNV"]}, {"conceptId": "C97156", "definition": "Any viral organism that can be assigned to the species Yellow fever virus.", "preferredTerm": "Yellow Fever Virus", "submissionValue": "YELLOW FEVER VIRUS", "synonyms": ["Flavivirus febricis", "YFV"]}, {"conceptId": "C86860", "definition": "Any bacterial organism that can be assigned to the species Yersinia pestis.", "preferredTerm": "Yersinia pestis", "submissionValue": "YERSINIA PESTIS", "synonyms": ["Pasteurella pestis"]}]}