{"_links": {"parentPackage": {"href": "/mdr/ct/packages/sdtmct-2016-03-25", "title": "SDTM Controlled Terminology Package 25 Effective 2016-03-25", "type": "Terminology"}, "priorVersion": {"href": "/mdr/ct/packages/sdtmct-2015-12-18/codelists/C120982", "title": "CDISC Functional Test BACS Test Name Terminology", "type": "Code List"}, "rootItem": {"href": "/mdr/root/ct/sdtmct/codelists/C120982", "title": "Version-agnostic anchor resource for codelist C120982", "type": "Root Value Domain"}, "self": {"href": "/mdr/ct/packages/sdtmct-2016-03-25/codelists/C120982", "title": "CDISC Functional Test BACS Test Name Terminology", "type": "Code List"}}, "conceptId": "C120982", "definition": "Brief Assessment of Cognition in Schizophrenia test name.", "extensible": "false", "name": "Brief Assessment of Cognition in Schizophrenia Functional Test Test Name", "preferredTerm": "CDISC Functional Test BACS Test Name Terminology", "submissionValue": "BACS1TN", "synonyms": ["Brief Assessment of Cognition in Schizophrenia Functional Test Test Name"], "terms": [{"conceptId": "C121061", "definition": "Brief Assessment of Cognition in Schizophrenia Questionnaire - Symbol Coding-Raw score.", "preferredTerm": "BACS - Symbol Coding Raw Score", "submissionValue": "BACS-Symbol Coding Raw Score", "synonyms": ["BACS-Symbol Coding Raw Score"]}, {"conceptId": "C121060", "definition": "Brief Assessment of Cognition in Schizophrenia Questionnaire - Verbal Fluency-Total number of Verbal Fluency items.", "preferredTerm": "BACS - Verbal Fluency Total", "submissionValue": "BACS-Verbal Fluency Total", "synonyms": ["BACS-Verbal Fluency Total"]}, {"conceptId": "C121057", "definition": "Brief Assessment of Cognition in Schizophrenia Questionnaire - Verbal Fluency-Category instances.", "preferredTerm": "BACS - Category Instances", "submissionValue": "BACS1-Category Instances", "synonyms": ["BACS1-Category Instances"]}, {"conceptId": "C121058", "definition": "Brief Assessment of Cognition in Schizophrenia Questionnaire - Verbal Fluency-Letter fluency 1.", "preferredTerm": "BACS - Letter Fluency 1", "submissionValue": "BACS1-Letter Fluency 1", "synonyms": ["BACS1-Letter Fluency 1"]}, {"conceptId": "C121059", "definition": "Brief Assessment of Cognition in Schizophrenia Questionnaire - Verbal Fluency-Letter fluency 2.", "preferredTerm": "BACS - Letter Fluency 2", "submissionValue": "BACS1-Letter Fluency 2", "synonyms": ["BACS1-Letter Fluency 2"]}, {"conceptId": "C121055", "definition": "Brief Assessment of Cognition in Schizophrenia Questionnaire - Token Motor Task-Total number of tokens incorrectly placed in container.", "preferredTerm": "BACS - Number Tokens Incorrectly Placed", "submissionValue": "BACS1-Number Tokens Incorrectly Placed", "synonyms": ["BACS1-Number Tokens Incorrectly Placed"]}, {"conceptId": "C121052", "definition": "Brief Assessment of Cognition in Schizophrenia - Digit Sequencing-Number of correct sequences.", "preferredTerm": "BACS - Number of Correct Sequences", "submissionValue": "BACS1-Number of Correct Sequences", "synonyms": ["BACS1-Number of Correct Sequences"]}, {"conceptId": "C121050", "definition": "Brief Assessment of Cognition in Schizophrenia - Verbal Memory-Number of items recalled on each trial.", "preferredTerm": "BACS - Number of Items Recalled", "submissionValue": "BACS1-Number of Items Recalled", "synonyms": ["BACS1-Number of Items Recalled"]}, {"conceptId": "C121051", "definition": "Brief Assessment of Cognition in Schizophrenia - Verbal Memory-Total number of items recalled.", "preferredTerm": "BACS - Number of Items Recalled Total", "submissionValue": "BACS1-Number of Items Recalled Total", "synonyms": ["BACS1-Number of Items Recalled Total"]}, {"conceptId": "C121056", "definition": "Brief Assessment of Cognition in Schizophrenia Questionnaire - Token Motor Task-Number of tokens correctly placed.", "preferredTerm": "BACS - Number of Tokens Correctly Placed", "submissionValue": "BACS1-Number of Tokens Correctly Placed", "synonyms": ["BACS1-Number of Tokens Correctly Placed"]}, {"conceptId": "C121053", "definition": "Brief Assessment of Cognition in Schizophrenia - Token Motor Task-Total number of tokens left on the table.", "preferredTerm": "BACS - Number of Tokens Left on the Table", "submissionValue": "BACS1-Number of Tokens Left on the Table", "synonyms": ["BACS1-Number of Tokens Left on the Table"]}, {"conceptId": "C121054", "definition": "Brief Assessment of Cognition in Schizophrenia - Token Motor Task-Total number of tokens placed in the container.", "preferredTerm": "BACS - Total Number Tokens in Container", "submissionValue": "BACS1-Total Number Tokens in Container", "synonyms": ["BACS1-Total Number Tokens in Container"]}, {"conceptId": "C121062", "definition": "Brief Assessment of Cognition in Schizophrenia Questionnaire - Tower of London-Number of correct responses.", "preferredTerm": "BACS - Tower of London Correct Responses", "submissionValue": "BACS1-Tower of London Correct Responses", "synonyms": ["BACS1-Tower of London Correct Responses"]}]}