{"_links": {"parentPackage": {"href": "/mdr/ct/packages/sdtmct-2016-03-25", "title": "SDTM Controlled Terminology Package 25 Effective 2016-03-25", "type": "Terminology"}, "priorVersion": {"href": "/mdr/ct/packages/sdtmct-2015-12-18/codelists/C124300", "title": "CDISC SDTM Biospecimen Characteristics Test Code Terminology", "type": "Code List"}, "rootItem": {"href": "/mdr/root/ct/sdtmct/codelists/C124300", "title": "Version-agnostic anchor resource for codelist C124300", "type": "Root Value Domain"}, "self": {"href": "/mdr/ct/packages/sdtmct-2016-03-25/codelists/C124300", "title": "CDISC SDTM Biospecimen Characteristics Test Code Terminology", "type": "Code List"}}, "conceptId": "C124300", "definition": "Terminology relevant to the test codes that describe the characteristics of biospecimens and extracted samples.", "extensible": "true", "name": "Biospecimen Characteristics Test Code", "preferredTerm": "CDISC SDTM Biospecimen Characteristics Test Code Terminology", "submissionValue": "BSTESTCD", "synonyms": ["Biospecimen Characteristics Test Code"], "terms": [{"conceptId": "C63637", "definition": "A numerical assessment of the integrity of RNA based on the entire electrophoretic trace of the RNA sample, including the presence or absence of degradation products. (NCI)", "preferredTerm": "RNA Integrity Number", "submissionValue": "RIN", "synonyms": ["RNA Integrity Number"]}, {"conceptId": "C25206", "definition": "The property of a body or region of space that determines whether or not there will be a net flow of heat into it or out of it from a neighboring body or region and in which direction (if any) the heat will flow, perceptible by living organism as a somatic sensation of cold or heat. It is a measure of the average translational kinetic energy associated with the disordered microscopic motion of atoms and molecules. Temperature is measured in one of the three standard temperature scales: Celsius, Kelvin, and Fahrenheit. (NCI)", "preferredTerm": "Temperature", "submissionValue": "TEMP", "synonyms": ["Temperature"]}, {"conceptId": "C25335", "definition": "The amount of three dimensional space occupied by an object or the capacity of a space or container. (NCI)", "preferredTerm": "Volume", "submissionValue": "VOLUME", "synonyms": ["Volume"]}]}