{"_links": {"parentPackage": {"href": "/mdr/ct/packages/sdtmct-2016-03-25", "title": "SDTM Controlled Terminology Package 25 Effective 2016-03-25", "type": "Terminology"}, "rootItem": {"href": "/mdr/root/ct/sdtmct/codelists/C125922", "title": "Version-agnostic anchor resource for codelist C125922", "type": "Root Value Domain"}, "self": {"href": "/mdr/ct/packages/sdtmct-2016-03-25/codelists/C125922", "title": "CDISC SDTM Microscopic Findings Test Detail Terminology", "type": "Code List"}}, "conceptId": "C125922", "definition": "Terminology relevant to the additional descriptions of the test being performed to produce the microscopic result.", "extensible": "true", "name": "Microscopic Findings Test Details", "preferredTerm": "CDISC SDTM Microscopic Findings Test Detail Terminology", "submissionValue": "MIFTSDTL", "synonyms": ["Microscopic Findings Test Details"], "terms": [{"conceptId": "C125985", "definition": "A score developed by Allred et al. (1998) and assigned based on the percent positivity of cells for a particular protein (Allred DC, Harvey JM, Berardo M, Clark GM. Prognostic and predictive factors in breast cancer by immunohistochemical analysis. Mod Pathol. 1998 Feb;11(2):155-68).", "preferredTerm": "Allred Proportion Positive Score", "submissionValue": "ALLRED PROPORTION POSITIVE SCORE"}, {"conceptId": "C125986", "definition": "A score developed by Allred et al. (1998) and assigned based on the average staining intensity of cells for a particular protein (Allred DC, Harvey JM, Berardo M, Clark GM. Prognostic and predictive factors in breast cancer by immunohistochemical analysis. Mod Pathol. 1998 Feb;11(2):155-68).", "preferredTerm": "Allred Average Staining Intensity Score", "submissionValue": "ALLRED STAINING INTENSITY SCORE"}, {"conceptId": "C125987", "definition": "The histopathological evaluation of staining in tissue based on the Allred scoring system (Allred DC, Harvey JM, Berardo M, Clark GM. Prognostic and predictive factors in breast cancer by immunohistochemical analysis. Mod Pathol. 1998 Feb;11(2):155-68).", "preferredTerm": "Allred Total Score", "submissionValue": "ALLRED TOTAL SCORE"}, {"conceptId": "C125988", "definition": "The histopathological evaluation of staining in tissue based on the H Score scoring system (McCarty KS Jr, Miller LS, Cox EB, et al. Estrogen receptor analyses: correlation of biochemical and immunohistochemical methods using monoclonal antireceptor antibodies. Arch Pathol Lab Med. 1985;109(8):716-721).", "preferredTerm": "H Score Total Score", "submissionValue": "H SCORE TOTAL SCORE"}, {"conceptId": "C70460", "definition": "A measurement of the proportion of cells that are positive for a given protein.", "preferredTerm": "Percent of Positive Cells", "submissionValue": "PERCENT POSITIVE CELL"}, {"conceptId": "C125989", "definition": "An assessment of the status of a biological specimen with regards to a given receptor.", "preferredTerm": "Receptor Overall Status", "submissionValue": "RECEPTOR OVERALL STATUS"}]}