{"_links": {"parentPackage": {"href": "/mdr/ct/packages/sdtmct-2016-03-25", "title": "SDTM Controlled Terminology Package 25 Effective 2016-03-25", "type": "Terminology"}, "priorVersion": {"href": "/mdr/ct/packages/sdtmct-2015-12-18/codelists/C78738", "title": "CDISC SDTM Never/Current/Former Classification Terminology", "type": "Code List"}, "rootItem": {"href": "/mdr/root/ct/sdtmct/codelists/C78738", "title": "Version-agnostic anchor resource for codelist C78738", "type": "Root Value Domain"}, "self": {"href": "/mdr/ct/packages/sdtmct-2016-03-25/codelists/C78738", "title": "CDISC SDTM Never/Current/Former Classification Terminology", "type": "Code List"}}, "conceptId": "C78738", "definition": "A classification of usage or experience that falls into three categories; never, current, or former.", "extensible": "true", "name": "Never/Current/Former Classification", "preferredTerm": "CDISC SDTM Never/Current/Former Classification Terminology", "submissionValue": "NCF", "synonyms": ["Never/Current/Former Classification"], "terms": [{"conceptId": "C25471", "definition": "Occurring in or belonging to the present time. (NCI)", "preferredTerm": "Current", "submissionValue": "CURRENT"}, {"conceptId": "C25627", "definition": "Occurring prior to something else. (NCI)", "preferredTerm": "Previous", "submissionValue": "FORMER", "synonyms": ["Previous"]}, {"conceptId": "C70543", "definition": "Not ever; at no time in the past.", "preferredTerm": "Never", "submissionValue": "NEVER"}]}