{"_links": {"parentPackage": {"href": "/mdr/ct/packages/sdtmct-2016-03-25", "title": "SDTM Controlled Terminology Package 25 Effective 2016-03-25", "type": "Terminology"}, "priorVersion": {"href": "/mdr/ct/packages/sdtmct-2015-12-18/codelists/C96779", "title": "CDISC SDTM Tumor or Lesion Properties Test Code Terminology", "type": "Code List"}, "rootItem": {"href": "/mdr/root/ct/sdtmct/codelists/C96779", "title": "Version-agnostic anchor resource for codelist C96779", "type": "Root Value Domain"}, "self": {"href": "/mdr/ct/packages/sdtmct-2016-03-25/codelists/C96779", "title": "CDISC SDTM Tumor or Lesion Properties Test Code Terminology", "type": "Code List"}}, "conceptId": "C96779", "definition": "Terminology relevant to the test codes that describe the assessment or measurement of a tumor, lesion or site of disease.", "extensible": "true", "name": "Tumor or Lesion Properties Test Code", "preferredTerm": "CDISC SDTM Tumor or Lesion Properties Test Code Terminology", "submissionValue": "TRTESTCD", "synonyms": ["Tumor or Lesion Properties Test Code"], "terms": [{"conceptId": "C103347", "definition": "The current value minus the lowest value previously recorded.", "preferredTerm": "Absolute Change From Nadir", "submissionValue": "ACHNAD", "synonyms": ["Absolute Change From Nadir"]}, {"conceptId": "C112218", "definition": "The current sum of diameters minus the lowest sum of diameters previously recorded.", "preferredTerm": "Absolute Change From Nadir in Sum of Diameter", "submissionValue": "ACNSD", "synonyms": ["Absolute Change Nadir in Sum of Diam"]}, {"conceptId": "C25244", "definition": "The extent of a 2-dimensional surface enclosed within a boundary. (NCI)", "preferredTerm": "Area", "submissionValue": "AREA", "synonyms": ["Area"]}, {"conceptId": "C96566", "definition": "A semiquantitative analysis of the average uptake of analyte by body tissue in relation to the total administered dose of the analyte.", "preferredTerm": "Average Metabolic Standard Uptake Value", "submissionValue": "AVMETSUV", "synonyms": ["Average Metabolic Standard Uptake Value"]}, {"conceptId": "C126056", "definition": "An indication as to whether calcification is present.", "preferredTerm": "Calcification Indicator", "submissionValue": "CALCFIND", "synonyms": ["Calcification Indicator"]}, {"conceptId": "C25285", "definition": "The length of a straight line passing through the center of a circle or sphere and connecting two points on the circumference. (NCI)", "preferredTerm": "Diameter", "submissionValue": "DIAMETER", "synonyms": ["Diameter"]}, {"conceptId": "C96684", "definition": "The longest possible length of a straight line passing through the center of a circular or spheroid object that connects two points on the circumference.", "preferredTerm": "Longest Diameter", "submissionValue": "LDIAM", "synonyms": ["Longest Diameter"]}, {"conceptId": "C119551", "definition": "An indication as to whether lesion failure occurred.", "preferredTerm": "Lesion Failure Indicator", "submissionValue": "LESFLIND", "synonyms": ["Lesion Failure Indicator"]}, {"conceptId": "C119552", "definition": "An indication as to whether repeat revascularization of a lesion occurred.", "preferredTerm": "Lesion Revascularization Indicator", "submissionValue": "LESRVIND", "synonyms": ["Lesion Revascularization Indicator"]}, {"conceptId": "C119553", "definition": "An indication as to whether a performed procedure of a target lesion is considered successful.", "preferredTerm": "Lesion Success Indicator", "submissionValue": "LESSCIND", "synonyms": ["Lesion Success Indicator"]}, {"conceptId": "C119554", "definition": "An indication as to whether limb failure occurred.", "preferredTerm": "Limb Failure Indicator", "submissionValue": "LMBFLIND", "synonyms": ["Limb Failure Indicator"]}, {"conceptId": "C124446", "definition": "The number of lymph nodes that were examined.", "preferredTerm": "Number of Lymph Nodes Examined", "submissionValue": "LMNDEXAM", "synonyms": ["Number of Lymph Nodes Examined"]}, {"conceptId": "C124447", "definition": "The number of subject lymph nodes that were positive for presence of disease.", "preferredTerm": "Number of Lymph Nodes Positive", "submissionValue": "LMNDPNUM", "synonyms": ["Number of Lymph Nodes Positive"]}, {"conceptId": "C124448", "definition": "A condition or state of a lymph node at a particular time.", "preferredTerm": "Lymph Node State", "submissionValue": "LNSTATE", "synonyms": ["Lymph Node State"]}, {"conceptId": "C96685", "definition": "The longest possible straight line or plane through a body or figure that is at a right angle to a given line or plane.", "preferredTerm": "Longest Perpendicular", "submissionValue": "LPERP", "synonyms": ["Longest Perpendicular"]}, {"conceptId": "C119555", "definition": "An indication as to whether clinical or functional ischemia is present before lesion revascularization occurred.", "preferredTerm": "Lesion Revascularization Ischemia Indicator", "submissionValue": "LRISCIND", "synonyms": ["Lesion Revas Ischemia Indicator"]}, {"conceptId": "C119556", "definition": "An indication as to whether an appropriate clinical context was present before lesion revascularization occurred.", "preferredTerm": "Lesion Revascularization Clinical Indicator", "submissionValue": "LRVCLIND", "synonyms": ["Lesion Revas Clinical Indicator"]}, {"conceptId": "C103421", "definition": "The verification/confirmation by other methods or modalities that a tumor, which has not been previously seen or characterized, is present in the subject.", "preferredTerm": "New Tumor Confirmation", "submissionValue": "NEWCONF", "synonyms": ["New Tumor Confirmed"]}, {"conceptId": "C124449", "definition": "A condition or state of the tumor with regards to its palpability status at a particular point in time.", "preferredTerm": "Palpable State", "submissionValue": "PALPSTAT", "synonyms": ["Palpable State"]}, {"conceptId": "C112369", "definition": "The (current sum of areas minus the baseline sum of areas) divided by the baseline sum of areas, multiplied by 100.", "preferredTerm": "Percent Change From Baseline in Sum of Area", "submissionValue": "PCBSA", "synonyms": ["Percent Change Baseline in Sum of Area"]}, {"conceptId": "C112370", "definition": "The (current sum of diameters minus the baseline sum of diameters) divided by the baseline sum of diameters, multiplied by 100.", "preferredTerm": "Percent Change From Baseline in Sum of Diameter", "submissionValue": "PCBSD", "synonyms": ["Percent Change Baseline in Sum of Diam"]}, {"conceptId": "C112371", "definition": "The (current sum of longest diameters minus the baseline sum of longest diameters) divided by the baseline sum of longest diameters, multiplied by 100.", "preferredTerm": "Percent Change From Baseline in Sum of Longest Diameter", "submissionValue": "PCBSLD", "synonyms": ["Percent Change Baseline Sum Longest Diam"]}, {"conceptId": "C112372", "definition": "The (current sum of volumes minus the baseline sum of volumes) divided by the baseline sum of volumes, multiplied by 100.", "preferredTerm": "Percent Change From Baseline in Sum of Volume", "submissionValue": "PCBSV", "synonyms": ["Percent Change Baseline in Sum of Volume"]}, {"conceptId": "C96621", "definition": "The (current value minus the baseline value) divided by the baseline value, multiplied by 100.", "preferredTerm": "Percent Change From Baseline", "submissionValue": "PCHGBL", "synonyms": ["Percent Change From Baseline"]}, {"conceptId": "C96622", "definition": "The (current value minus the lowest value previously recorded) divided by the lowest value previously recorded, multiplied by 100.", "preferredTerm": "Percent Change From Nadir", "submissionValue": "PCHGNAD", "synonyms": ["Percent Change From Nadir"]}, {"conceptId": "C126057", "definition": "The (current sum of areas minus the lowest sum of areas previously recorded) divided by the lowest sum of areas previously recorded, multiplied by 100.", "preferredTerm": "Percent Change From Nadir in Sum of Area", "submissionValue": "PCNSA", "synonyms": ["Percent Change Nadir in Sum of Area"]}, {"conceptId": "C112373", "definition": "The (current sum of diameters minus the lowest sum of diameters previously recorded) divided by the lowest sum of diameters previously recorded, multiplied by 100.", "preferredTerm": "Percent Change From Nadir in Sum of Diameter", "submissionValue": "PCNSD", "synonyms": ["Percent Change Nadir in Sum of Diam"]}, {"conceptId": "C112374", "definition": "The (current sum of longest diameters minus the lowest sum of longest diameters previously recorded) divided by the lowest sum of longest diameters previously recorded, multiplied by 100.", "preferredTerm": "Percent Change From Nadir in Sum of Longest Diameter", "submissionValue": "PCNSLD", "synonyms": ["Percent Change Nadir in Sum Longest Diam"]}, {"conceptId": "C96627", "definition": "The transparency of a material to the passage of X-rays and other forms of radiation.", "preferredTerm": "Radiodensity", "submissionValue": "RADIODEN", "synonyms": ["Radiodensity"]}, {"conceptId": "C96630", "definition": "A calculation of the aggregated area values.", "preferredTerm": "Sum of Areas", "submissionValue": "SUMAREA", "synonyms": ["Sum of Area", "Sum of Products of Perpendicular Diameters"]}, {"conceptId": "C96631", "definition": "A calculation of the aggregated diameter values.", "preferredTerm": "Sum of Diameters", "submissionValue": "SUMDIAM", "synonyms": ["Sum of Diameter"]}, {"conceptId": "C96632", "definition": "A calculation of the aggregated longest diameter values.", "preferredTerm": "Sum of Longest Diameters", "submissionValue": "SUMLDIAM", "synonyms": ["Sum of Longest Diameter"]}, {"conceptId": "C96633", "definition": "A calculation of the aggregated longest perpendicular values.", "preferredTerm": "Sum of Longest Perpendiculars", "submissionValue": "SUMLPERP", "synonyms": ["Sum of Longest Perpendicular"]}, {"conceptId": "C103441", "definition": "A calculation of the aggregated diameter values for tumors other than the lymph nodes.", "preferredTerm": "Sum of Diameters of Non Lymph Node Tumors", "submissionValue": "SUMNLNLD", "synonyms": ["Sum Diameters of Non Lymph Node Tumors"]}, {"conceptId": "C96634", "definition": "A calculation of the aggregated diameter values taken from the viable portion of the tumor mass.", "preferredTerm": "Sum of Viable Diameters", "submissionValue": "SUMVDIAM", "synonyms": ["Sum of Viable Diameter"]}, {"conceptId": "C96635", "definition": "A calculation of the aggregated volume values.", "preferredTerm": "Sum of Volumes", "submissionValue": "SUMVOL", "synonyms": ["Sum of Volume"]}, {"conceptId": "C96643", "definition": "A condition or state of a tumor at a particular time.", "preferredTerm": "Tumor Status", "submissionValue": "TUMSTATE", "synonyms": ["Tumor State"]}, {"conceptId": "C96646", "definition": "The diameter of the portion of the tumor mass that is capable of growth, proliferation and metastasis.", "preferredTerm": "Viable Tumor Diameter", "submissionValue": "VDIAM", "synonyms": ["Viable Diameter"]}, {"conceptId": "C25335", "definition": "The amount of three dimensional space occupied by an object or the capacity of a space or container. (NCI)", "preferredTerm": "Volume", "submissionValue": "VOLUME", "synonyms": ["Volume"]}, {"conceptId": "C119557", "definition": "An indication as to whether vessel failure occurred.", "preferredTerm": "Vessel Failure Indicator", "submissionValue": "VSLFLIND", "synonyms": ["Vessel Failure Indicator"]}, {"conceptId": "C119558", "definition": "An indication as to whether an artery is patent (free of TLR or restenosis) following intervention.", "preferredTerm": "Vessel Patency Indicator", "submissionValue": "VSLPIND", "synonyms": ["Vessel Patency Indicator"]}, {"conceptId": "C119559", "definition": "An indication as to whether repeat revascularization of an artery containing a lesion occurred.", "preferredTerm": "Vessel Revascularization Indicator", "submissionValue": "VSLRVIND", "synonyms": ["Vessel Revascularization Indicator"]}]}