{"_links": {"parentPackage": {"href": "/mdr/ct/packages/sendct-2019-06-28", "title": "SEND Controlled Terminology Package 38 Effective 2019-06-28", "type": "Terminology"}, "priorVersion": {"href": "/mdr/ct/packages/sendct-2019-03-29/codelists/C158120", "title": "CDISC SEND Challenge Agent Category Response Terminology", "type": "Code List"}, "rootItem": {"href": "/mdr/root/ct/sendct/codelists/C158120", "title": "Version-agnostic anchor resource for codelist C158120", "type": "Root Value Domain"}, "self": {"href": "/mdr/ct/packages/sendct-2019-06-28/codelists/C158120", "title": "CDISC SEND Challenge Agent Category Response Terminology", "type": "Code List"}}, "conceptId": "C158120", "definition": "Terminology related to classifications that describe and group the challenge agent.", "extensible": "true", "name": "Challenge Agent Category Response", "preferredTerm": "CDISC SEND Challenge Agent Category Response Terminology", "submissionValue": "CAGTCAT", "synonyms": ["Challenge Agent Category Response"], "terms": [{"conceptId": "C158325", "definition": "A challenge agent comprising an organism or infectious agent.", "preferredTerm": "Biological Challenge Agent", "submissionValue": "BIOLOGICAL"}, {"conceptId": "C158326", "definition": "A challenge agent comprising a non-radioactive chemical or elemental substance; this category includes biotoxins.", "preferredTerm": "Chemical Challenge Agent", "submissionValue": "CHEMICAL"}, {"conceptId": "C158327", "definition": "A challenge agent that emits ionizing radiation.", "preferredTerm": "Radiological/Nuclear Challenge Agent", "submissionValue": "RADIOLOGICAL/NUCLEAR", "synonyms": ["Rad/Nuc"]}]}