{"_links": {"parentPackage": {"href": "/mdr/ct/packages/sendct-2019-06-28", "title": "SEND Controlled Terminology Package 38 Effective 2019-06-28", "type": "Terminology"}, "priorVersion": {"href": "/mdr/ct/packages/sendct-2019-03-29/codelists/C158121", "title": "CDISC SEND Rad/Nuc Agent Ionizing Radiation Type Response Terminology", "type": "Code List"}, "rootItem": {"href": "/mdr/root/ct/sendct/codelists/C158121", "title": "Version-agnostic anchor resource for codelist C158121", "type": "Root Value Domain"}, "self": {"href": "/mdr/ct/packages/sendct-2019-06-28/codelists/C158121", "title": "CDISC SEND Rad/Nuc Agent Ionizing Radiation Type Response Terminology", "type": "Code List"}}, "conceptId": "C158121", "definition": "Terminology related to the form of ionizing radiation that is emitted by the rad/nuc agent source.", "extensible": "true", "name": "Rad/Nuc Agent Ionizing Radiation Type Response", "preferredTerm": "CDISC SEND Rad/Nuc Agent Ionizing Radiation Type Response Terminology", "submissionValue": "RNAIOTYP", "synonyms": ["Rad/Nuc Agent Ionizing Radiation Type Response"], "terms": [{"conceptId": "C16279", "definition": "A positively charged particle ejected spontaneously from the nuclei of some radioactive isotopes. It is a helium nucleus that has a mass number of 4 and an electrostatic charge of +2e. (NTI)", "preferredTerm": "Alpha Radiation", "submissionValue": "ALPHA PARTICLE"}, {"conceptId": "C94864", "definition": "A charged particle (an electron or positron) emitted from a nucleus during certain types of radioactive decay, with a mass much smaller than that of a proton or a neutron. (NTI)", "preferredTerm": "Beta Particle", "submissionValue": "BETA PARTICLE"}, {"conceptId": "C44386", "definition": "A high-energy, short wavelength (shorter than X-ray), ionizing electromagnetic type of radiation emitted from the nucleus.", "preferredTerm": "Gamma Radiation", "submissionValue": "GAMMA RAY"}, {"conceptId": "C18070", "definition": "A type of ionizing radiation composed of neutrons.", "preferredTerm": "Neutron Radiation", "submissionValue": "NEUTRON RADIATION"}, {"conceptId": "C40431", "definition": "A type of ionizing radiation composed of protons.", "preferredTerm": "Proton Radiation", "submissionValue": "PROTON RADIATION"}, {"conceptId": "C17262", "definition": "A high-energy, short wavelength (longer than gamma ray), ionizing electromagnetic type of radiation emitted from outside the nucleus in the electron shell.", "preferredTerm": "X-Ray", "submissionValue": "X-RAY"}]}