{"_links": {"parentPackage": {"href": "/mdr/ct/packages/sendct-2019-06-28", "title": "SEND Controlled Terminology Package 38 Effective 2019-06-28", "type": "Terminology"}, "priorVersion": {"href": "/mdr/ct/packages/sendct-2019-03-29/codelists/C158123", "title": "CDISC SEND Restraint Mode Response Terminology", "type": "Code List"}, "rootItem": {"href": "/mdr/root/ct/sendct/codelists/C158123", "title": "Version-agnostic anchor resource for codelist C158123", "type": "Root Value Domain"}, "self": {"href": "/mdr/ct/packages/sendct-2019-06-28/codelists/C158123", "title": "CDISC SEND Restraint Mode Response Terminology", "type": "Code List"}}, "conceptId": "C158123", "definition": "Terminology related to the means by which restraint was applied to the individual.", "extensible": "true", "name": "Restraint Mode Response", "preferredTerm": "CDISC SEND Restraint Mode Response Terminology", "submissionValue": "RSTMODRS", "synonyms": ["Restraint Mode Response"], "terms": [{"conceptId": "C158343", "definition": "Movement is restricted by chemical means.", "preferredTerm": "Chemical Restraint", "submissionValue": "CHEMICAL"}, {"conceptId": "C158345", "definition": "Movement is restricted by both chemical and physical means.", "preferredTerm": "Chemical and Physical Restraint", "submissionValue": "CHEMICAL AND PHYSICAL"}, {"conceptId": "C158344", "definition": "Movement is restricted by manual means or device.", "preferredTerm": "Physical Restraint", "submissionValue": "PHYSICAL"}]}