{"_links": {"parentPackage": {"href": "/mdr/ct/packages/sendct-2019-06-28", "title": "SEND Controlled Terminology Package 38 Effective 2019-06-28", "type": "Terminology"}, "rootItem": {"href": "/mdr/root/ct/sendct/codelists/C160930", "title": "Version-agnostic anchor resource for codelist C160930", "type": "Root Value Domain"}, "self": {"href": "/mdr/ct/packages/sendct-2019-06-28/codelists/C160930", "title": "CDISC SEND Chemical Challenge Agent Name Response Terminology", "type": "Code List"}}, "conceptId": "C160930", "definition": "Terminology related to the names of chemical challenge agents.", "extensible": "true", "name": "Chemical Challenge Agent Name Response", "preferredTerm": "CDISC SEND Chemical Challenge Agent Name Response Terminology", "submissionValue": "CHAGNAMR", "synonyms": ["Chemical Challenge Agent Name Response"], "terms": [{"conceptId": "C161525", "definition": "The G-series nerve agent GA.", "preferredTerm": "G-Series Nerve Agent GA", "submissionValue": "G-SERIES NERVE AGENT GA", "synonyms": ["GA", "Tabun"]}, {"conceptId": "C161526", "definition": "The G-series nerve agent GB.", "preferredTerm": "G-Series Nerve Agent GB", "submissionValue": "G-SERIES NERVE AGENT GB", "synonyms": ["GB", "Sarin"]}, {"conceptId": "C161527", "definition": "The G-series nerve agent GC.", "preferredTerm": "G-Series Nerve Agent GC", "submissionValue": "G-SERIES NERVE AGENT GC", "synonyms": ["Chlorosarin", "GC"]}, {"conceptId": "C161528", "definition": "The G-series nerve agent GD.", "preferredTerm": "G-Series Nerve Agent GD", "submissionValue": "G-SERIES NERVE AGENT GD", "synonyms": ["GD", "Soman"]}, {"conceptId": "C161529", "definition": "The G-series nerve agent GE.", "preferredTerm": "G-Series Nerve Agent GE", "submissionValue": "G-SERIES NERVE AGENT GE", "synonyms": ["Ethylsarin", "GE"]}, {"conceptId": "C161530", "definition": "The G-series nerve agent GF.", "preferredTerm": "G-Series Nerve Agent GF", "submissionValue": "G-SERIES NERVE AGENT GF", "synonyms": ["Cyclosarin", "GF"]}, {"conceptId": "C161523", "definition": "The nitrogen mustard vesicant HN-1.", "preferredTerm": "Nitrogen Mustard HN-1", "submissionValue": "NITROGEN MUSTARD HN-1", "synonyms": ["HN1"]}, {"conceptId": "C62056", "definition": "The nitrogen mustard vesicant HN-2.", "preferredTerm": "Mechlorethamine", "submissionValue": "NITROGEN MUSTARD HN-2", "synonyms": ["HN2"]}, {"conceptId": "C161524", "definition": "The nitrogen mustard vesicant HN-3.", "preferredTerm": "Nitrogen Mustard HN-3", "submissionValue": "NITROGEN MUSTARD HN-3", "synonyms": ["HN3"]}, {"conceptId": "C44406", "definition": "The sulfur mustard vesicant HD.", "preferredTerm": "Mustard Gas", "submissionValue": "SULFUR MUSTARD HD", "synonyms": ["Agent HD", "Distilled Mustard", "Mustard Gas", "SM"]}, {"conceptId": "C161533", "definition": "The V-series nerve agent CVX.", "preferredTerm": "V-Series Nerve Agent CVX", "submissionValue": "V-SERIES NERVE AGENT CVX", "synonyms": ["CH VX", "CVX", "Chinese VX"]}, {"conceptId": "C161532", "definition": "The V-series nerve agent RVX.", "preferredTerm": "V-Series Nerve Agent RVX", "submissionValue": "V-SERIES NERVE AGENT RVX", "synonyms": ["RVX", "Russian VX", "rVX"]}, {"conceptId": "C161534", "definition": "The V-series nerve agent VE.", "preferredTerm": "V-Series Nerve Agent VE", "submissionValue": "V-SERIES NERVE AGENT VE", "synonyms": ["VE"]}, {"conceptId": "C161535", "definition": "The V-series nerve agent VG.", "preferredTerm": "V-Series Nerve Agent VG", "submissionValue": "V-SERIES NERVE AGENT VG", "synonyms": ["VG"]}, {"conceptId": "C161536", "definition": "The V-series nerve agent VM.", "preferredTerm": "V-Series Nerve Agent VM", "submissionValue": "V-SERIES NERVE AGENT VM", "synonyms": ["VM"]}, {"conceptId": "C161537", "definition": "The V-series nerve agent VP.", "preferredTerm": "V-Series Nerve Agent VP", "submissionValue": "V-SERIES NERVE AGENT VP", "synonyms": ["VP"]}, {"conceptId": "C161538", "definition": "The V-series nerve agent VS.", "preferredTerm": "V-Series Nerve Agent VS", "submissionValue": "V-SERIES NERVE AGENT VS", "synonyms": ["VS"]}, {"conceptId": "C161531", "definition": "The V-series nerve agent VX.", "preferredTerm": "V-Series Nerve Agent VX", "submissionValue": "V-SERIES NERVE AGENT VX", "synonyms": ["VX"]}]}