{"_links": {"parentPackage": {"href": "/mdr/ct/packages/sendct-2019-06-28", "title": "SEND Controlled Terminology Package 38 Effective 2019-06-28", "type": "Terminology"}, "priorVersion": {"href": "/mdr/ct/packages/sendct-2019-03-29/codelists/C65047", "title": "CDISC SDTM Laboratory Test Code Terminology", "type": "Code List"}, "rootItem": {"href": "/mdr/root/ct/sendct/codelists/C65047", "title": "Version-agnostic anchor resource for codelist C65047", "type": "Root Value Domain"}, "self": {"href": "/mdr/ct/packages/sendct-2019-06-28/codelists/C65047", "title": "CDISC SDTM Laboratory Test Code Terminology", "type": "Code List"}}, "conceptId": "C65047", "definition": "Terminology used for laboratory test codes of the CDISC Study Data Tabulation Model.", "extensible": "true", "name": "Laboratory Test Code", "preferredTerm": "CDISC SDTM Laboratory Test Code Terminology", "submissionValue": "LBTESTCD", "synonyms": ["Laboratory Test Code"], "terms": [{"conceptId": "C100429", "definition": "A measurement of the alpha-1 acid glycoprotein in a biological specimen.", "preferredTerm": "Alpha-1 Acid Glycoprotein Measurement", "submissionValue": "A1AGLP", "synonyms": ["Alpha-1 Acid Glycoprotein"]}, {"conceptId": "C80167", "definition": "A measurement of the alpha-1 antitrypsin in a biological specimen.", "preferredTerm": "Alpha-1 Antitrypsin Measurement", "submissionValue": "A1ANTRYP", "synonyms": ["Alpha-1 Antitrypsin", "Serum Trypsin Inhibitor"]}, {"conceptId": "C100462", "definition": "A relative measurement (ratio or percentage) of the alpha-1 microglobulin to creatinine in a biological specimen.", "preferredTerm": "Alpha-1 Microglobulin to Creatinine Ratio Measurement", "submissionValue": "A1MCREAT", "synonyms": ["Alpha-1 Microglobulin/Creatinine"]}, {"conceptId": "C100461", "definition": "A measurement of the alpha-1 microglobulin in a biological specimen.", "preferredTerm": "Alpha-1 Microglobulin Measurement", "submissionValue": "A1MICG", "synonyms": ["Alpha-1 Microglobulin", "Protein HC"]}, {"conceptId": "C80168", "definition": "A measurement of the alpha-2 macroglobulin in a biological specimen.", "preferredTerm": "Alpha-2 Macroglobulin Measurement", "submissionValue": "A2MACG", "synonyms": ["Alpha-2 Macroglobulin"]}, {"conceptId": "C154761", "definition": "A measurement of the alpha-aminoadipic acid in a biological specimen.", "preferredTerm": "Alpha-Aminoadipic Acid Measurement", "submissionValue": "AAMAPAC", "synonyms": ["Alpha-Aminoadipate", "Alpha-Aminoadipic Acid"]}, {"conceptId": "C154759", "definition": "A measurement of the alpha-aminobutyric acid in a biological specimen.", "preferredTerm": "Alpha-Aminobutyric Acid Measurement", "submissionValue": "AAMBTAC", "synonyms": ["Alpha-Aminobutyric Acid", "Alpha-aminobutyrate", "Homocitrulline"]}, {"conceptId": "C100430", "definition": "A measurement of the alanine aminopeptidase in a biological specimen.", "preferredTerm": "Alanine Aminopeptidase Measurement", "submissionValue": "AAP", "synonyms": ["Alanine Aminopeptidase"]}, {"conceptId": "C111124", "definition": "A measurement of the abnormal cells in a biological specimen.", "preferredTerm": "Abnormal Cell Count", "submissionValue": "ABNCE", "synonyms": ["Abnormal Cells"]}, {"conceptId": "C150835", "definition": "A relative measurement (ratio or percentage) of abnormal cells to total cells in a biological specimen.", "preferredTerm": "Abnormal Cells to Total Cells Ratio Measurement", "submissionValue": "ABNCECE", "synonyms": ["Abnormal Cells/Total Cells"]}, {"conceptId": "C150834", "definition": "A relative measurement (ratio or percentage) of abnormal cells to leukocytes in a biological specimen.", "preferredTerm": "Abnormal Cells to Leukocytes Ratio Measurement", "submissionValue": "ABNCELE", "synonyms": ["Abnormal Cells/Leukocytes"]}, {"conceptId": "C125939", "definition": "The characterization of the blood type of an individual by testing for the presence of A antigen and B antigen on the surface of red blood cells.", "preferredTerm": "ABO Blood Group Determination", "submissionValue": "ABO", "synonyms": ["ABO Blood Group"]}, {"conceptId": "C135397", "definition": "The characterization of the ABO blood group A1 subtype in an individual. (NCI)", "preferredTerm": "ABO A1 Subtype Determination", "submissionValue": "ABOA1", "synonyms": ["ABO A1 Subtype"]}, {"conceptId": "C74699", "definition": "A measurement of the acanthocytes in a biological specimen.", "preferredTerm": "Acanthocyte Count", "submissionValue": "ACANT", "synonyms": ["Acanthocytes"]}, {"conceptId": "C74633", "definition": "A relative measurement (ratio or percentage) of acanthocytes to all erythrocytes in a biological specimen.", "preferredTerm": "Acanthocyte to Erythrocyte Ratio Measurement", "submissionValue": "ACANTRBC", "synonyms": ["Acanthocytes/Erythrocytes"]}, {"conceptId": "C80169", "definition": "A measurement of the angiotensin converting enzyme in a biological specimen.", "preferredTerm": "Angiotensin Converting Enzyme Measurement", "submissionValue": "ACE", "synonyms": ["Angiotensin Converting Enzyme"]}, {"conceptId": "C135398", "definition": "A measurement of the acetaminophen in a biological specimen.", "preferredTerm": "Acetaminophen Measurement", "submissionValue": "ACETAMIN", "synonyms": ["Acetaminophen", "Paracetamol"]}, {"conceptId": "C92247", "definition": "A measurement of the acetoacetic acid in a biological specimen.", "preferredTerm": "Acetoacetic Acid Measurement", "submissionValue": "ACETOAC", "synonyms": ["Acetoacetate", "Acetoacetic Acid"]}, {"conceptId": "C147288", "definition": "A measurement of the acetone in a biological specimen.", "preferredTerm": "Acetone Measurement", "submissionValue": "ACETONE", "synonyms": ["Acetone"]}, {"conceptId": "C74838", "definition": "A measurement of the acetylcholine hormone in a biological specimen.", "preferredTerm": "Acetylcholine Measurement", "submissionValue": "ACH", "synonyms": ["Acetylcholine"]}, {"conceptId": "C96560", "definition": "A measurement of the acetylcholinesterase in a biological specimen.", "preferredTerm": "Acetylcholinesterase Measurement", "submissionValue": "ACHE", "synonyms": ["Acetylcholinesterase"]}, {"conceptId": "C96559", "definition": "A measurement of the acetylcholine receptor antibody in a biological specimen.", "preferredTerm": "Acetylcholine Receptor Antibody Measurement", "submissionValue": "ACHRAB", "synonyms": ["Acetylcholine Receptor Antibody"]}, {"conceptId": "C80163", "definition": "A measurement of the acid phosphatase in a biological specimen.", "preferredTerm": "Acid Phosphatase Measurement", "submissionValue": "ACPHOS", "synonyms": ["Acid Phosphatase"]}, {"conceptId": "C147289", "definition": "A relative measurement (ratio or percentage) of the acylcarnitine to free carnitine in a biological specimen.", "preferredTerm": "Acylcarnitine to Free Carnitine Ratio Measurement", "submissionValue": "ACRNCRNF", "synonyms": ["Acylcarnitine/Carnitine, Free"]}, {"conceptId": "C103348", "definition": "A measurement of the inhibition of blood coagulation in response to anticoagulant therapies.", "preferredTerm": "Activated Coagulation Time", "submissionValue": "ACT", "synonyms": ["Activated Clotting Time", "Activated Coagulation Time"]}, {"conceptId": "C74780", "definition": "A measurement of the adrenocorticotropic hormone in a biological specimen.", "preferredTerm": "Adrenocorticotropic Hormone Measurement", "submissionValue": "ACTH", "synonyms": ["Adrenocorticotropic Hormone", "Corticotropin"]}, {"conceptId": "C156535", "definition": "A measurement of the acylcarnitine in a biological specimen.", "preferredTerm": "Acylcarnitine Measurement", "submissionValue": "ACYCRNTN", "synonyms": ["Acylcarnitine"]}, {"conceptId": "C156534", "definition": "A measurement of the acylglycine in a biological specimen.", "preferredTerm": "Acylglycine Measurement", "submissionValue": "ACYGLYCN", "synonyms": ["Acylglycine"]}, {"conceptId": "C92286", "definition": "A measurement of the acyl coenzyme A oxidase in a biological specimen.", "preferredTerm": "Acyl Coenzyme A Oxidase Measurement", "submissionValue": "ACYLCAOX", "synonyms": ["Acyl CoA Oxidase", "Acyl Coenzyme A Oxidase", "Fatty Acyl Coenzyme A Oxidase"]}, {"conceptId": "C147290", "definition": "A measurement of the ADAM metallopeptidase domain 8 protein in a biological specimen.", "preferredTerm": "ADAM Metallopeptidase Domain 8 Measurement", "submissionValue": "ADAM8", "synonyms": ["A Disintegrin And Metalloproteinase Domain 8", "ADAM Metallopeptidase Domain 8", "CD156a Antigen"]}, {"conceptId": "C111125", "definition": "A measurement of the adenovirus antibody in a biological specimen.", "preferredTerm": "Adenovirus Antibody Measurement", "submissionValue": "ADENOVAB", "synonyms": ["Adenovirus Antibody"]}, {"conceptId": "C74847", "definition": "A measurement of the antidiuretic hormone in a biological specimen.", "preferredTerm": "Antidiuretic Hormone Measurement", "submissionValue": "ADH", "synonyms": ["Antidiuretic Hormone", "Vasopressin"]}, {"conceptId": "C158233", "definition": "A measurement of asymmetric dimethylarginine in a biological specimen.", "preferredTerm": "Asymmetric Dimethylarginine Measurement", "submissionValue": "ADMA", "synonyms": ["Asymmetric Dimethylarginine", "N,N-dimethylarginine"]}, {"conceptId": "C102257", "definition": "A measurement of the adenosine diphosphate in a biological specimen.", "preferredTerm": "Adenosine Diphosphate Measurement", "submissionValue": "ADP", "synonyms": ["Adenosine Diphosphate"]}, {"conceptId": "C74839", "definition": "A measurement of the total adiponectin hormone in a biological specimen.", "preferredTerm": "Adiponectin Measurement", "submissionValue": "ADPNCTN", "synonyms": ["Adiponectin"]}, {"conceptId": "C132363", "definition": "A measurement of the high molecular weight adiponectin hormone in a biological specimen.", "preferredTerm": "High Molecular Weight Adiponectin Measurement", "submissionValue": "ADPNHMW", "synonyms": ["Adiponectin, High Molecular Weight"]}, {"conceptId": "C74913", "definition": "A measurement of the anti-double stranded DNA antibody in a biological specimen.", "preferredTerm": "Anti-Double Stranded DNA Measurement", "submissionValue": "ADSDNA", "synonyms": ["Anti-Double Stranded DNA"]}, {"conceptId": "C98706", "definition": "A measurement of the ability of antithrombin to inactivate activated Factor X in a biological specimen. This test is used to monitor low molecular weight or unfractionated heparin levels in a biological specimen.", "preferredTerm": "Anti-Factor Xa Activity Measurement", "submissionValue": "AFACTXAA", "synonyms": ["Anti-Factor Xa Activity"]}, {"conceptId": "C74732", "definition": "A measurement of the alpha fetoprotein in a biological specimen.", "preferredTerm": "Alpha-fetoprotein Measurement", "submissionValue": "AFP", "synonyms": ["Alpha Fetoprotein", "Alpha-1-Fetoprotein"]}, {"conceptId": "C106499", "definition": "A measurement of the alpha fetoprotein activity in a biological specimen.", "preferredTerm": "Alpha Fetoprotein Activity Measurement", "submissionValue": "AFPA", "synonyms": ["Alpha Fetoprotein Activity"]}, {"conceptId": "C147291", "definition": "A measurement of alpha fetoprotein, which has been adjusted for body weight, in a biological specimen.", "preferredTerm": "Alpha Fetoprotein Adjusted for Body Weight Measurement", "submissionValue": "AFPADJBW", "synonyms": ["Alpha Fetoprotein Adj for Body Weight"]}, {"conceptId": "C96562", "definition": "A measurement of the alpha fetoprotein L1 in a biological specimen.", "preferredTerm": "Alpha Fetoprotein L1 Measurement", "submissionValue": "AFPL1", "synonyms": ["Alpha Fetoprotein L1"]}, {"conceptId": "C96563", "definition": "A measurement of the alpha fetoprotein L2 in a biological specimen.", "preferredTerm": "Alpha Fetoprotein L2 Measurement", "submissionValue": "AFPL2", "synonyms": ["Alpha Fetoprotein L2"]}, {"conceptId": "C96564", "definition": "A measurement of the alpha fetoprotein L3 in a biological specimen.", "preferredTerm": "Alpha Fetoprotein L3 Measurement", "submissionValue": "AFPL3", "synonyms": ["Alpha Fetoprotein L3"]}, {"conceptId": "C96565", "definition": "A relative measurement (ratio or percentage) of alpha fetoprotein L3 to total alpha fetoprotein in a biological specimen.", "preferredTerm": "Alpha Fetoprotein L3 to Total Alpha Fetoprotein Ratio Measurement", "submissionValue": "AFPL3AFP", "synonyms": ["A Fetoprotein L3/A Fetoprotein"]}, {"conceptId": "C124334", "definition": "A measurement of the 1,5-anhydroglucitol in a biological specimen.", "preferredTerm": "1,5-Anhydroglucitol Measurement", "submissionValue": "AG1_5", "synonyms": ["1,5-Anhydroglucitol"]}, {"conceptId": "C111126", "definition": "A measurement of the alpha-hydroxybutyrate dehydrogenase in a biological specimen.", "preferredTerm": "Alpha Hydroxybutyrate Dehydrogenase Measurement", "submissionValue": "AHBDH", "synonyms": ["Alpha Hydroxybutyrate Dehydrogenase"]}, {"conceptId": "C122091", "definition": "A measurement of the alanine in a biological specimen.", "preferredTerm": "Alanine Measurement", "submissionValue": "ALA", "synonyms": ["Alanine"]}, {"conceptId": "C147292", "definition": "A relative measurement (ratio or percentage) of the Apolipoprotein A1 to Apolipoprotein B in a biological specimen.", "preferredTerm": "Apolipoprotein A1 to Apolipoprotein B Ratio Measurement", "submissionValue": "ALA1ALB", "synonyms": ["Apolipoprotein A1/Apolipoprotein B"]}, {"conceptId": "C158222", "definition": "A relative measurement (ratio) of the total apolipoprotein A to apolipoprotein B in a biological specimen.", "preferredTerm": "Apolipoprotein A to Apolipoprotein B Ratio Measurement", "submissionValue": "ALAALB", "synonyms": ["Apolipoprotein A/Apolipoprotein B"]}, {"conceptId": "C64431", "definition": "A measurement of the albumin protein in a biological specimen.", "preferredTerm": "Albumin Measurement", "submissionValue": "ALB", "synonyms": ["Albumin", "Microalbumin"]}, {"conceptId": "C147293", "definition": "A measurement of the albumin clearance in a biological specimen.", "preferredTerm": "Albumin Clearance", "submissionValue": "ALBC", "synonyms": ["Albumin Clearance"]}, {"conceptId": "C74761", "definition": "A relative measurement (ratio) of the albumin to the creatinine in a biological specimen.", "preferredTerm": "Albumin To Creatinine Protein Ratio Measurement", "submissionValue": "ALBCREAT", "synonyms": ["Albumin/Creatinine", "Microalbumin/Creatinine Ratio"]}, {"conceptId": "C150814", "definition": "A measurement of the amount of albumin excreted in a biological specimen over a defined period of time (e.g. one hour).", "preferredTerm": "Albumin Excretion Rate", "submissionValue": "ALBEXR", "synonyms": ["Albumin Excretion Rate"]}, {"conceptId": "C158228", "definition": "A relative measurement (ratio or percentage) of the glycated albumin to total albumin in a biological specimen.", "preferredTerm": "Glycated Albumin to Albumin Ratio Measurement", "submissionValue": "ALBGALB", "synonyms": ["Glycated Albumin/Albumin", "Glycosylated Albumin/Albumin"]}, {"conceptId": "C74894", "definition": "The ratio of albumin to globulin in a biological specimen.", "preferredTerm": "Albumin to Globulin Ratio Measurement", "submissionValue": "ALBGLOB", "synonyms": ["Albumin/Globulin"]}, {"conceptId": "C122092", "definition": "A measurement of the glycated albumin present in a biological specimen.", "preferredTerm": "Glycated Albumin Measurement", "submissionValue": "ALBGLYCA", "synonyms": ["Glycated Albumin"]}, {"conceptId": "C154734", "definition": "A relative measurement (ratio) of the albumin in cerebrospinal fluid to albumin in serum in a biological specimen.", "preferredTerm": "Albumin Index", "submissionValue": "ALBIDX", "synonyms": ["Albumin Index", "CSF/Serum Albumin Index"]}, {"conceptId": "C103453", "definition": "A relative measurement (ratio or percentage) of the albumin to total protein in a biological specimen.", "preferredTerm": "Albumin to Total Protein Ratio Measurement", "submissionValue": "ALBPROT", "synonyms": ["Albumin/Total Protein"]}, {"conceptId": "C154743", "definition": "A measurement of the aldrin epoxidase in a biological specimen.", "preferredTerm": "Aldrin Epoxidase Measurement", "submissionValue": "ALDEPX", "synonyms": ["Aldrin Epoxidase"]}, {"conceptId": "C74731", "definition": "A measurement of the aldolase enzyme in a biological specimen.", "preferredTerm": "Aldolase Measurement", "submissionValue": "ALDOLASE", "synonyms": ["Aldolase"]}, {"conceptId": "C74841", "definition": "A measurement of the aldosterone hormone in a biological specimen.", "preferredTerm": "Aldosterone Measurement", "submissionValue": "ALDSTRN", "synonyms": ["Aldosterone"]}, {"conceptId": "C154762", "definition": "A measurement of the alloisoleucine in a biological specimen.", "preferredTerm": "Alloisoleucine Measurement", "submissionValue": "ALLOILE", "synonyms": ["Alloisoleucine"]}, {"conceptId": "C64432", "definition": "A measurement of the alkaline phosphatase in a biological specimen.", "preferredTerm": "Alkaline Phosphatase Measurement", "submissionValue": "ALP", "synonyms": ["Alkaline Phosphatase"]}, {"conceptId": "C147294", "definition": "A relative measurement (ratio or percentage) of the bone specific alkaline phosphatase isoform to total alkaline phosphatase in a biological specimen.", "preferredTerm": "Bone Alkaline Phosphatase to Total Alkaline Phosphatase Ratio Measurement", "submissionValue": "ALPBALP", "synonyms": ["Alk Phos, Bone/Total Alk Phos", "Alkaline Phosphatase, Bone/Total Alkaline Phosphatase"]}, {"conceptId": "C92287", "definition": "A measurement of the bone specific alkaline phosphatase isoform in a biological specimen.", "preferredTerm": "Bone Specific Alkaline Phosphatase Measurement", "submissionValue": "ALPBS", "synonyms": ["Bone Specific Alkaline Phosphatase"]}, {"conceptId": "C79438", "definition": "A relative measurement (ratio or percentage) of the alkaline phosphatase to creatinine in a biological specimen.", "preferredTerm": "Alkaline Phosphatase to Creatinine Ratio Measurement", "submissionValue": "ALPCREAT", "synonyms": ["Alkaline Phosphatase/Creatinine"]}, {"conceptId": "C147295", "definition": "A relative measurement (ratio or percentage) of the intestinal specific alkaline phosphatase isoform to total alkaline phosphatase in a biological specimen.", "preferredTerm": "Intestinal Alkaline Phosphatase to Total Alkaline Phosphatase Ratio Measurement", "submissionValue": "ALPIALP", "synonyms": ["Alk Phos, Intestinal/Total Alk Phos", "Alkaline Phosphatase, Intestinal/Total Alkaline Phosphatase"]}, {"conceptId": "C119266", "definition": "A measurement of the intestinal specific alkaline phosphatase isoform in a biological specimen.", "preferredTerm": "Intestinal Specific Alkaline Phosphatase Measurement", "submissionValue": "ALPIS", "synonyms": ["Intestinal Specific Alkaline Phosphatase"]}, {"conceptId": "C139091", "definition": "A measurement of the alkaline phosphatase isoenzyme in a biological specimen.", "preferredTerm": "Alkaline Phosphatase Isoenzyme Measurement", "submissionValue": "ALPISOE", "synonyms": ["Alkaline Phosphatase Isoenzyme"]}, {"conceptId": "C147296", "definition": "A relative measurement (ratio or percentage) of the liver specific alkaline phosphatase isoform to total alkaline phosphatase in a biological specimen.", "preferredTerm": "Liver Alkaline Phosphatase to Total Alkaline Phosphatase Ratio Measurement", "submissionValue": "ALPLALP", "synonyms": ["Alk Phos, Liver/Total Alk Phos", "Alkaline Phosphatase, Liver/Total Alkaline Phosphatase"]}, {"conceptId": "C119267", "definition": "A measurement of the liver specific alkaline phosphatase isoform in a biological specimen.", "preferredTerm": "Liver Specific Alkaline Phosphatase Measurement", "submissionValue": "ALPLS", "synonyms": ["Liver Specific Alkaline Phosphatase"]}, {"conceptId": "C75370", "definition": "A measurement of the alprazolam present in a biological specimen.", "preferredTerm": "Alprazolam Measurement", "submissionValue": "ALPRZLM", "synonyms": ["Alprazolam"]}, {"conceptId": "C64433", "definition": "A measurement of the alanine aminotransferase in a biological specimen.", "preferredTerm": "Alanine Aminotransferase Measurement", "submissionValue": "ALT", "synonyms": ["Alanine Aminotransferase", "SGPT"]}, {"conceptId": "C106498", "definition": "A relative measurement (ratio or percentage) of the alanine aminotransferase (ALT) to aspartate aminotransferase (AST) present in a sample.", "preferredTerm": "Alanine Aminotransferase to Aspartate Aminotransferase Ratio Measurement", "submissionValue": "ALTAST", "synonyms": ["ALT/AST"]}, {"conceptId": "C103349", "definition": "A measurement of the alpha tocopherol in a biological specimen.", "preferredTerm": "Alpha Tocopherol Measurement", "submissionValue": "ALTCPHRL", "synonyms": ["Alpha Tocopherol"]}, {"conceptId": "C111127", "definition": "A measurement of aluminum in a biological specimen.", "preferredTerm": "Aluminum Measurement", "submissionValue": "ALUMINUM", "synonyms": ["Al", "Aluminum"]}, {"conceptId": "C81975", "definition": "A measurement of the antimitochondrial antibodies in a biological specimen.", "preferredTerm": "Antimitochondrial Antibody Measurement", "submissionValue": "AMA", "synonyms": ["Antimitochondrial Antibodies", "Mitochondrial Antibody"]}, {"conceptId": "C147297", "definition": "A relative measurement (ratio or percentage) of the acetylcholine receptor modulation antibody to the total acetylcholine receptor antibodies in a biological specimen.", "preferredTerm": "Acetylcholine Receptor Modulation Antibody to Acetylcholine Receptor Antibody Ratio Measurement", "submissionValue": "AMABARAB", "synonyms": ["ACH Receptor Modulation Antibody/ACH Receptor Antibody", "ACH Receptor Modulatn Ab/ACH Receptor Ab"]}, {"conceptId": "C132364", "definition": "A measurement of the alpha-methylacyl coenzyme A racemase in a biological specimen.", "preferredTerm": "Alpha-Methylacyl Coenzyme A Racemase Measurement", "submissionValue": "AMACR", "synonyms": ["Alpha-Methylacyl Coenzyme A Racemase"]}, {"conceptId": "C75363", "definition": "A measurement of the amobarbital present in a biological specimen.", "preferredTerm": "Amobarbital Measurement", "submissionValue": "AMBRBTL", "synonyms": ["Amobarbital"]}, {"conceptId": "C132365", "definition": "A measurement of the alpha-methylacyl coenzyme A racemase mRNA in a biological specimen.", "preferredTerm": "Alpha-Methylacyl Coenzyme A Racemase mRNA Measurement", "submissionValue": "AMCRMRNA", "synonyms": ["AMACR mRNA"]}, {"conceptId": "C120625", "definition": "A measurement of the anti-Mullerian hormone in a biological specimen.", "preferredTerm": "Anti-Mullerian Hormone Measurement", "submissionValue": "AMH", "synonyms": ["Anti-Mullerian Hormone"]}, {"conceptId": "C74799", "definition": "A measurement of the ammonia in a biological specimen.", "preferredTerm": "Ammonia Measurement", "submissionValue": "AMMONIA", "synonyms": ["Ammonia", "NH3"]}, {"conceptId": "C81183", "definition": "A measurement of the total amino acids in a biological specimen.", "preferredTerm": "Amino Acid Measurement", "submissionValue": "AMNOACID", "synonyms": ["AA", "Amino Acids"]}, {"conceptId": "C74666", "definition": "A measurement of the amorphous sediment present in a biological specimen.", "preferredTerm": "Amorphous Sediment Measurement", "submissionValue": "AMORPHSD", "synonyms": ["Amorphous Debris", "Amorphous Sediment"]}, {"conceptId": "C74687", "definition": "A measurement of any amphetamine class drug present in a biological specimen.", "preferredTerm": "Amphetamine Drug Class Measurement", "submissionValue": "AMPHET", "synonyms": ["Amphetamine"]}, {"conceptId": "C102262", "definition": "A measurement of the dextroamphetamine in a biological specimen.", "preferredTerm": "Dextroamphetamine Measurement", "submissionValue": "AMPHETD", "synonyms": ["Dextroamphetamine", "d-amphetamine"]}, {"conceptId": "C64434", "definition": "A measurement of the total enzyme amylase in a biological specimen.", "preferredTerm": "Amylase Measurement", "submissionValue": "AMYLASE", "synonyms": ["Amylase"]}, {"conceptId": "C111243", "definition": "A measurement of macroamylase in a biological specimen.", "preferredTerm": "Macroamylase Measurement", "submissionValue": "AMYLASEM", "synonyms": ["Macroamylase"]}, {"conceptId": "C98767", "definition": "A measurement of the pancreatic enzyme amylase in a biological specimen.", "preferredTerm": "Pancreatic Amylase Measurement", "submissionValue": "AMYLASEP", "synonyms": ["Amylase, Pancreatic"]}, {"conceptId": "C98780", "definition": "A measurement of the salivary enzyme amylase in a biological specimen.", "preferredTerm": "Salivary Amylase Measurement", "submissionValue": "AMYLASES", "synonyms": ["Amylase, Salivary"]}, {"conceptId": "C103352", "definition": "A measurement of amyloid beta protein which is composed of peptides 1 to 38 in a biological specimen.", "preferredTerm": "Amyloid Beta 1-38 Measurement", "submissionValue": "AMYLB38", "synonyms": ["Amyloid Beta 1-38", "Amyloid Beta 38", "Amyloid Beta 38 Protein"]}, {"conceptId": "C103353", "definition": "A measurement of amyloid beta protein which is composed of peptides 1 to 40 in a biological specimen.", "preferredTerm": "Amyloid Beta 1-40 Measurement", "submissionValue": "AMYLB40", "synonyms": ["Amyloid Beta 1-40", "Amyloid Beta 40", "Amyloid Beta 40 Protein"]}, {"conceptId": "C84809", "definition": "A measurement of amyloid beta protein which is composed of peptides 1 to 42 in a biological specimen.", "preferredTerm": "Beta Amyloid 42 Measurement", "submissionValue": "AMYLB42", "synonyms": ["Amyloid Beta 1-42", "Amyloid Beta 42", "Amyloid Beta 42 Protein"]}, {"conceptId": "C125940", "definition": "A measurement of the total amyloid A in a biological specimen.", "preferredTerm": "Amyloid A Measurement", "submissionValue": "AMYLOIDA", "synonyms": ["Amyloid A"]}, {"conceptId": "C81999", "definition": "A measurement of the total amyloid beta in a biological specimen.", "preferredTerm": "Beta Amyloid Measurement", "submissionValue": "AMYLOIDB", "synonyms": ["Amyloid, Beta", "Beta Amyloid"]}, {"conceptId": "C81998", "definition": "A measurement of the total amyloid P in a biological specimen.", "preferredTerm": "Amyloid P Measurement", "submissionValue": "AMYLOIDP", "synonyms": ["Amyloid P"]}, {"conceptId": "C74916", "definition": "A measurement of the total antinuclear antibodies (antibodies that attack the body's own tissue) in a biological specimen.", "preferredTerm": "Antinuclear Antibody Measurement", "submissionValue": "ANA", "synonyms": ["Antinuclear Antibodies"]}, {"conceptId": "C147298", "definition": "A measurement of the anabasine in a biological specimen.", "preferredTerm": "Anabasine Measurement", "submissionValue": "ANABASN", "synonyms": ["Anabasine"]}, {"conceptId": "C147299", "definition": "A measurement of the alpha-N-acetylglucosaminidase in a biological specimen.", "preferredTerm": "Alpha-N-acetylglucosaminidase Measurement", "submissionValue": "ANAG", "synonyms": ["Alpha-N-acetylglucosaminidase"]}, {"conceptId": "C122093", "definition": "A measurement of the antinuclear IgG antibody in a biological specimen.", "preferredTerm": "Antinuclear IgG Antibody Measurement", "submissionValue": "ANAIGGAB", "synonyms": ["Antinuclear IgG Antibody"]}, {"conceptId": "C120626", "definition": "A measurement of the anti-neutrophil cytoplasmic antibody in a biological specimen.", "preferredTerm": "Anti-Neutrophil Cytoplasmic Antibody Measurement", "submissionValue": "ANCAB", "synonyms": ["Anti-Neutrophil Cytoplasmic Antibody"]}, {"conceptId": "C147300", "definition": "A measurement of the atypical (cytoplasmic staining usually uniform and no interlobular accentuation) neutrophil cytoplasmic antibodies in a biological specimen.", "preferredTerm": "Atypical Neutrophil Cytoplasmic Antibody Measurement", "submissionValue": "ANCATYAB", "synonyms": ["Anti-Neutrophil Cytoplasmic Antibody, Atypical", "Neutrophil Cytoplasmic Ab, Atypical"]}, {"conceptId": "C147301", "definition": "A measurement of the classic (cytoplasmic granular fluorescence with central interlobular accentuation) neutrophil cytoplasmic antibodies in a biological specimen.", "preferredTerm": "Classic Neutrophil Cytoplasmic Antibody Measurement", "submissionValue": "ANCCLSAB", "synonyms": ["Anti-Neutrophil Cytoplasmic Antibody, Classic", "Neutrophil Cytoplasmic Ab, Classic"]}, {"conceptId": "C147302", "definition": "A measurement of the perinuclear (perinuclear staining without nuclear extension) neutrophil cytoplasmic antibodies in a biological specimen.", "preferredTerm": "Perinuclear Neutrophil Cytoplasmic Antibody Measurement", "submissionValue": "ANCPNCAB", "synonyms": ["Anti-Neutrophil Cytoplasmic Antibody, Perinuclear", "Neutrophil Cytoplasmic Ab, Perinuclear"]}, {"conceptId": "C74842", "definition": "A measurement of the androstenediol metabolite in a biological specimen.", "preferredTerm": "Androstenediol Metabolite Measurement", "submissionValue": "ANDSTNDL", "synonyms": ["Androstenediol"]}, {"conceptId": "C74843", "definition": "A measurement of the androstenedione hormone in a biological specimen.", "preferredTerm": "Androstenedione Measurement", "submissionValue": "ANDSTNDN", "synonyms": ["4-Androstenedione", "Androstenedione"]}, {"conceptId": "C91372", "definition": "A test that uses Coombs' reagent to detect the presence of anti-erythrocyte antibodies in a biological specimen.", "preferredTerm": "Indirect Antiglobulin Test", "submissionValue": "ANGLBIND", "synonyms": ["Antiglobulin Test, Indirect", "Indirect Coombs Test"]}, {"conceptId": "C81974", "definition": "A measurement of the antibody or complement-coated erythrocytes in a biological specimen in vivo.", "preferredTerm": "Direct Antiglobulin Test", "submissionValue": "ANGLOBDR", "synonyms": ["Antiglobulin Test Polyspecific, Direct", "Antiglobulin Test, Direct", "Direct Coombs Test"]}, {"conceptId": "C111128", "definition": "A measurement of angiopoietin 1 in a biological specimen.", "preferredTerm": "Angiopoietin 1 Measurement", "submissionValue": "ANGPT1", "synonyms": ["Angiopoietin 1"]}, {"conceptId": "C74844", "definition": "A measurement of the angiotensin I hormone in a biological specimen.", "preferredTerm": "Angiotensin I Measurement", "submissionValue": "ANGTNS1", "synonyms": ["Angiotensin I"]}, {"conceptId": "C74845", "definition": "A measurement of the angiotensin II hormone in a biological specimen.", "preferredTerm": "Angiotensin II Measurement", "submissionValue": "ANGTNS2", "synonyms": ["Angiotensin II"]}, {"conceptId": "C74846", "definition": "A measurement of the angiotensinogen hormone in a biological specimen.", "preferredTerm": "Angiotensinogen Measurement", "submissionValue": "ANGTNSGN", "synonyms": ["Angiotensin Precursor", "Angiotensinogen"]}, {"conceptId": "C74685", "definition": "A computed estimate of the unmeasured anions (those other than the chloride and bicarbonate anions) in a biological specimen.", "preferredTerm": "Anion Gap Measurement", "submissionValue": "ANIONG", "synonyms": ["Anion Gap"]}, {"conceptId": "C147303", "definition": "A computed estimate of the unmeasured anions (computed as sodium minus the chloride and bicarbonate) in a biological specimen.", "preferredTerm": "Anion Gap 3 Measurement", "submissionValue": "ANIONG3", "synonyms": ["Anion Gap 3"]}, {"conceptId": "C147304", "definition": "A computed estimate of the unmeasured anions (computed as the difference between the sum of serum sodium + serum potassium and the sum of the serum bicarbonate+ chloride) in a biological specimen.", "preferredTerm": "Anion Gap 4 Measurement", "submissionValue": "ANIONG4", "synonyms": ["Anion Gap 4"]}, {"conceptId": "C74797", "definition": "A measurement of the variability in the size of the red blood cells in a whole blood specimen.", "preferredTerm": "Anisocyte Measurement", "submissionValue": "ANISO", "synonyms": ["Anisocytes", "Anisocytosis"]}, {"conceptId": "C161354", "definition": "A measurement of the color variation of erythrocytes in a biological specimen.", "preferredTerm": "Anisochromia Measurement", "submissionValue": "ANISOCHR", "synonyms": ["Anisochromia"]}, {"conceptId": "C74886", "definition": "A measurement of the atrial natriuretic peptide in a biological specimen.", "preferredTerm": "Atrial Natriuretic Peptide Measurement", "submissionValue": "ANP", "synonyms": ["Atrial Natriuretic Peptide", "Atriopeptin"]}, {"conceptId": "C139088", "definition": "A measurement of the N-terminal proA-type natriuretic peptide in a biological specimen.", "preferredTerm": "N-Terminal ProA-type Natriuretic Peptide Measurement", "submissionValue": "ANPPRONT", "synonyms": ["N-Terminal ProA-type Natriuretic Peptide", "N-terminal pro-Atrial Natriuretic Peptide", "NT proANP II"]}, {"conceptId": "C81958", "definition": "A measurement of the antithrombin activity in a biological specimen.", "preferredTerm": "Antithrombin Activity Measurement", "submissionValue": "ANTHRMA", "synonyms": ["Antithrombin Activity", "Antithrombin III Activity"]}, {"conceptId": "C81977", "definition": "A measurement of the antithrombin antigen in a biological specimen.", "preferredTerm": "Antithrombin Antigen Measurement", "submissionValue": "ANTHRMAG", "synonyms": ["Antithrombin", "Antithrombin Antigen", "Antithrombin III", "Antithrombin III Antigen"]}, {"conceptId": "C74691", "definition": "A measurement of any antidepressant class drug present in a biological specimen.", "preferredTerm": "Antidepressant Measurement", "submissionValue": "ANTIDPRS", "synonyms": ["Antidepressants"]}, {"conceptId": "C120627", "definition": "A measurement of the anti-nucleosome antibody in a biological specimen.", "preferredTerm": "Anti-Nucleosome Antibody Measurement", "submissionValue": "ANUAB", "synonyms": ["Anti-Nucleosome Antibody"]}, {"conceptId": "C102258", "definition": "A measurement of the total antiphospholipid antibodies in a biological specimen.", "preferredTerm": "Antiphospholipid Antibody Measurement", "submissionValue": "APLAB", "synonyms": ["Antiphospholipid Antibodies"]}, {"conceptId": "C161372", "definition": "A measurement to confirm the presence of Lupus anticoagulants, calculated as [(Screen aPTT - Confirm aPTT)/Screen aPTT]x100.", "preferredTerm": "APTT-LA Screen to Confirm Percent Difference", "submissionValue": "APLASCPD", "synonyms": ["APTT-LA Screen to Confirm Percent Difference", "PTT-LA Screen to Confirm Pct Difference"]}, {"conceptId": "C124335", "definition": "A measurement of the antiphospholipid IgG antibody in a biological specimen.", "preferredTerm": "Anti-Phospholipid IgG Antibody Measurement", "submissionValue": "APLIGGAB", "synonyms": ["Anti-Phospholipid IgG Antibody"]}, {"conceptId": "C124336", "definition": "A measurement of the antiphospholipid IgM antibody in a biological specimen.", "preferredTerm": "Anti-Phospholipid IgM Antibody Measurement", "submissionValue": "APLIGMAB", "synonyms": ["Anti-Phospholipid IgM Antibody"]}, {"conceptId": "C103351", "definition": "A measurement of the alpha-2 antiplasmin in a biological specimen.", "preferredTerm": "Alpha-2 Antiplasmin Measurement", "submissionValue": "APLSMA2", "synonyms": ["Alpha-2 Antiplasmin", "Alpha-2 Plasmin Inhibitor"]}, {"conceptId": "C122094", "definition": "A measurement of the alpha-2 antiplasmin activity in a biological specimen.", "preferredTerm": "Alpha-2 Antiplasmin Activity Measurement", "submissionValue": "APLSMA2A", "synonyms": ["Alpha-2 Antiplasmin Activity"]}, {"conceptId": "C124337", "definition": "A measurement of the total apolipoprotein A in a biological specimen.", "preferredTerm": "Apolipoprotein A Measurement", "submissionValue": "APOA", "synonyms": ["Apolipoprotein A"]}, {"conceptId": "C74733", "definition": "A measurement of the apolipoprotein A1 in a biological specimen.", "preferredTerm": "Apolipoprotein A1 Measurement", "submissionValue": "APOA1", "synonyms": ["Apolipoprotein A1"]}, {"conceptId": "C82000", "definition": "A measurement of the apolipoprotein AII in a biological specimen.", "preferredTerm": "Apolipoprotein AII Measurement", "submissionValue": "APOA2", "synonyms": ["Apolipoprotein AII"]}, {"conceptId": "C103354", "definition": "A measurement of the apolipoprotein A4 in a biological specimen.", "preferredTerm": "Apolipoprotein A4 Measurement", "submissionValue": "APOA4", "synonyms": ["Apolipoprotein A4"]}, {"conceptId": "C103355", "definition": "A measurement of the apolipoprotein A5 in a biological specimen.", "preferredTerm": "Apolipoprotein A5 Measurement", "submissionValue": "APOA5", "synonyms": ["Apolipoprotein A5"]}, {"conceptId": "C74734", "definition": "A measurement of the total apolipoprotein B in a biological specimen.", "preferredTerm": "Apolipoprotein B Measurement", "submissionValue": "APOB", "synonyms": ["Apolipoprotein B"]}, {"conceptId": "C120628", "definition": "A measurement of the apolipoprotein B100 in a biological specimen.", "preferredTerm": "Apolipoprotein B100 Measurement", "submissionValue": "APOB100", "synonyms": ["Apolipoprotein B100"]}, {"conceptId": "C120629", "definition": "A measurement of the apolipoprotein B48 in a biological specimen.", "preferredTerm": "Apolipoprotein B48 Measurement", "submissionValue": "APOB48", "synonyms": ["Apolipoprotein B48"]}, {"conceptId": "C103356", "definition": "A relative measurement (ratio or percentage) of the Apolipoprotein B to Apolipoprotein A1 in a biological specimen.", "preferredTerm": "Apolipoprotein B to Apolipoprotein A1 Ratio Measurement", "submissionValue": "APOBAPA1", "synonyms": ["Apolipoprotein B/Apolipoprotein A1"]}, {"conceptId": "C120630", "definition": "A measurement of the apolipoprotein CI in a biological specimen.", "preferredTerm": "Apolipoprotein CI Measurement", "submissionValue": "APOC1", "synonyms": ["Apolipoprotein CI"]}, {"conceptId": "C100427", "definition": "A measurement of the apolipoprotein C2 in a biological specimen.", "preferredTerm": "Apolipoprotein C2 Measurement", "submissionValue": "APOC2", "synonyms": ["Apolipoprotein C2", "Apolipoprotein CII"]}, {"conceptId": "C82001", "definition": "A measurement of the apolipoprotein CIII in a biological specimen.", "preferredTerm": "Apolipoprotein CIII Measurement", "submissionValue": "APOC3", "synonyms": ["Apolipoprotein CIII"]}, {"conceptId": "C82002", "definition": "A measurement of the apolipoprotein E in a biological specimen.", "preferredTerm": "Apolipoprotein E Measurement", "submissionValue": "APOE", "synonyms": ["Apolipoprotein E"]}, {"conceptId": "C92293", "definition": "A measurement of the apolipoprotein E4 in a biological specimen.", "preferredTerm": "Apolipoprotein E4 Measurement", "submissionValue": "APOE4", "synonyms": ["Apolipoprotein E4"]}, {"conceptId": "C82003", "definition": "A measurement of the apolipoprotein H in a biological specimen.", "preferredTerm": "Apolipoprotein H Measurement", "submissionValue": "APOH", "synonyms": ["Apolipoprotein H"]}, {"conceptId": "C100428", "definition": "A measurement of the apolipoprotein J in a biological specimen.", "preferredTerm": "Apolipoprotein J Measurement", "submissionValue": "APOJ", "synonyms": ["Apolipoprotein J", "Clusterin"]}, {"conceptId": "C111130", "definition": "A relative measurement (ratio or percentage) of the apolipoprotein J to creatinine in a biological specimen.", "preferredTerm": "Apolipoprotein J to Creatinine Ratio Measurement", "submissionValue": "APOJCRT", "synonyms": ["Apolipoprotein J/Creatinine", "Clusterin/Creatinine"]}, {"conceptId": "C119268", "definition": "A measurement of the amyloid alpha precursor protein present in a biological specimen.", "preferredTerm": "Amyloid Alpha Precursor Protein Measurement", "submissionValue": "APPA", "synonyms": ["Amyloid Alpha Precursor Protein"]}, {"conceptId": "C105438", "definition": "A measurement of the amyloid beta precursor protein present in a biological specimen.", "preferredTerm": "Amyloid Beta Precursor Protein Measurement", "submissionValue": "APPB", "synonyms": ["Amyloid Beta Precursor", "Amyloid Beta Precursor Protein", "Amyloid Precursor Beta", "Amyloid Precursor Protein"]}, {"conceptId": "C25377", "definition": "The outward or visible aspect of a specimen.", "preferredTerm": "Appearance", "submissionValue": "APPEAR", "synonyms": ["Specimen Appearance"]}, {"conceptId": "C119269", "definition": "A measurement of the total amyloid precursor protein present in a biological specimen.", "preferredTerm": "Total Amyloid Precursor Protein Measurement", "submissionValue": "APPT", "synonyms": ["Total Amyloid Precursor Protein"]}, {"conceptId": "C156512", "definition": "A calculation that indicates the likely presence of liver cirrhosis and fibrosis, measured as the relative measurement of aspartate aminotransferase (AST) to AST upper limit of normal, divided by the platelet count, and multiplied by 100.", "preferredTerm": "Aspartate Aminotransferase to Platelet Ratio Index", "submissionValue": "APRI", "synonyms": ["APRI Score", "AST to Platelet Ratio Index"]}, {"conceptId": "C111123", "definition": "A measurement of the a proliferation-inducing ligand in a biological specimen.", "preferredTerm": "A Proliferation-Inducing Ligand Measurement", "submissionValue": "APRIL", "synonyms": ["A Proliferation-Inducing Ligand", "CD256", "TNFSF13", "Tumor Necrosis Factor Ligand Superfamily Member 13"]}, {"conceptId": "C100471", "definition": "A measurement of the resistance in the anticoagulation response to activated protein C in a biological specimen.", "preferredTerm": "Activated Protein C Resistance Measurement", "submissionValue": "APROTCRS", "synonyms": ["Activated Protein C Resistance", "Factor V Leiden Screen"]}, {"conceptId": "C38462", "definition": "A measurement of the length of time that it takes for clotting to occur when reagents are added to a plasma specimen. The test is partial due to the absence of tissue factor (Factor III) from the reaction mixture.", "preferredTerm": "Partial Thromboplastin Time", "submissionValue": "APTT", "synonyms": ["Activated Partial Thromboplastin Time"]}, {"conceptId": "C161369", "definition": "A relative measurement (ratio or percentage) of the Lupus anticoagulant sensitive APTT in a subject's specimen when compared to a control specimen.", "preferredTerm": "APTT-LA Actual to Control Ratio Measurement", "submissionValue": "APTTLAAC", "synonyms": ["APTT-LA Actual/Control", "Lupus Anticoagulant Sensitive APTT Actual/Control"]}, {"conceptId": "C102277", "definition": "A measurement of the length of time that it takes for clotting to occur when a lupus sensitive reagent is added to a plasma specimen.", "preferredTerm": "Lupus Anticoagulant Sensitive APTT Measurement", "submissionValue": "APTTLAS", "synonyms": ["APTT-LA", "Lupus Anticoagulant Sensitive APTT"]}, {"conceptId": "C98862", "definition": "A relative measurement (ratio or percentage) of the subject's partial thromboplastin time to a standard or control partial thromboplastin time.", "preferredTerm": "Activated PTT/Standard Ratio Measurement", "submissionValue": "APTTSTND", "synonyms": ["Activated PTT/Standard", "Activated PTT/Standard PTT", "Activated Partial Thromboplastin Time/Standard Thromboplastin Time"]}, {"conceptId": "C102259", "definition": "A measurement of the arachidonic acid present in a biological specimen.", "preferredTerm": "Arachidonic Acid Measurement", "submissionValue": "ARA", "synonyms": ["Arachidonic Acid"]}, {"conceptId": "C122095", "definition": "A measurement of the arginine in a biological specimen.", "preferredTerm": "Arginine Measurement", "submissionValue": "ARG", "synonyms": ["Arginine"]}, {"conceptId": "C154763", "definition": "A measurement of the argininosuccinic acid in a biological specimen.", "preferredTerm": "Argininosuccinic Acid Measurement", "submissionValue": "ARGSAC", "synonyms": ["Argininosuccinate", "Argininosuccinic Acid"]}, {"conceptId": "C124338", "definition": "A relative measurement (ratio) of the aldosterone to renin activity in a biological specimen.", "preferredTerm": "Aldosterone to Renin Activity Ratio Measurement", "submissionValue": "ARR", "synonyms": ["Aldosterone/Renin Activity"]}, {"conceptId": "C147305", "definition": "A measurement of the arsenic in a biological specimen.", "preferredTerm": "Arsenic Measurement", "submissionValue": "ARSENIC", "synonyms": ["Arsenic", "As"]}, {"conceptId": "C81976", "definition": "A measurement of the anti-Saccharomyces cerevisiae antibody in a biological specimen.", "preferredTerm": "Anti-Saccharomyces cerevisiae Antibody Measurement", "submissionValue": "ASCAB", "synonyms": ["Anti-Saccharomyces cerevisiae Antibody"]}, {"conceptId": "C122096", "definition": "A measurement of the asparagine in a biological specimen.", "preferredTerm": "Asparagine Measurement", "submissionValue": "ASN", "synonyms": ["Asparagine"]}, {"conceptId": "C122097", "definition": "A measurement of the aspartic acid in a biological specimen.", "preferredTerm": "Aspartic Acid Measurement", "submissionValue": "ASP", "synonyms": ["Aspartate", "Aspartic Acid"]}, {"conceptId": "C92269", "definition": "A measurement of the anti-single stranded DNA IgG antibody in a biological specimen.", "preferredTerm": "Anti-Single Stranded DNA IgG Measurement", "submissionValue": "ASSDNA", "synonyms": ["Anti-Single Stranded DNA IgG"]}, {"conceptId": "C64467", "definition": "A measurement of the aspartate aminotransferase in a biological specimen.", "preferredTerm": "Aspartate Aminotransferase Measurement", "submissionValue": "AST", "synonyms": ["Aspartate Aminotransferase", "SGOT"]}, {"conceptId": "C81978", "definition": "A measurement of the aspartate aminotransferase antigen in a biological specimen.", "preferredTerm": "Aspartate Aminotransferase Antigen Measurement", "submissionValue": "ASTAG", "synonyms": ["Aspartate Aminotransferase Antigen", "SGOT Antigen"]}, {"conceptId": "C158225", "definition": "A relative measurement (ratio) of the aspartate aminotransferase to creatine kinase in a biological specimen.", "preferredTerm": "Aspartate Aminotransferase to Creatine Kinase Ratio Measurement", "submissionValue": "ASTCK", "synonyms": ["AST/Creatine Kinase", "Aspartate Aminotransferase/CPK", "Aspartate Aminotransferase/Creatine Kinase"]}, {"conceptId": "C117830", "definition": "A relative measurement (ratio or percentage) of the aspartate aminotransferase to creatinine in a biological specimen.", "preferredTerm": "Aspartate Aminotransferase to Creatinine Ratio Measurement", "submissionValue": "ASTCREAT", "synonyms": ["Aspartate Aminotransferase/Creatinine"]}, {"conceptId": "C142272", "definition": "A measurement of the alpha synuclein protein in a biological specimen.", "preferredTerm": "Alpha Synuclein Protein Measurement", "submissionValue": "ASYNP", "synonyms": ["Alpha Synuclein Protein"]}, {"conceptId": "C147306", "definition": "A relative measurement (ratio or percentage) of the biological activity of antithrombin in a subject's specimen when compared to the same activity in a control specimen.", "preferredTerm": "Antithrombin Activity Actual to Control Ratio Measurement", "submissionValue": "ATHMBAAC", "synonyms": ["Antithrombin Activity Actual/Antithrombin Activity Control", "Antithrombin Activity Actual/Control", "Antithrombin Activity Actual/Normal"]}, {"conceptId": "C154726", "definition": "A measurement of the base 10 logarithm of the ratio of molar concentration of plasma triglyceride to high density lipoprotein cholesterol in a biological specimen.", "preferredTerm": "Atherogenic Index of Plasma", "submissionValue": "ATHPIDX", "synonyms": ["AIP", "Atherogenic Index", "Atherogenic Index of Plasma"]}, {"conceptId": "C147307", "definition": "A measurement of the adenosine triphosphate in a biological specimen.", "preferredTerm": "Adenosine Triphosphate Measurement", "submissionValue": "ATP", "synonyms": ["Adenosine Triphosphate"]}, {"conceptId": "C103350", "definition": "A relative measurement (ratio or percentage) of alpha-tocopherol to the total vitamin E in a biological specimen.", "preferredTerm": "Alpha Tocopherol to Vitamin E Ratio Measurement", "submissionValue": "ATPVITE", "synonyms": ["Alpha Tocopherol/Vitamin E"]}, {"conceptId": "C74657", "definition": "A measurement of the Auer rods (elongated needle structures that are found in the cytoplasm of leukemic blasts and are formed by clumps of azurophilic granular material) in a biological specimen.", "preferredTerm": "Auer Rod Measurement", "submissionValue": "AUERRODS", "synonyms": ["Auer Rods"]}, {"conceptId": "C116185", "definition": "An observation of azurophilic granules in a biological specimen.", "preferredTerm": "Azurophilic Granule Measurement", "submissionValue": "AZURGRAN", "synonyms": ["Azurophilic Granulation", "Azurophilic Granules"]}, {"conceptId": "C127607", "definition": "A measurement of the beta-1B glycoprotein in a biological specimen.", "preferredTerm": "Beta-1B Glycoprotein Measurement", "submissionValue": "B1BGLP", "synonyms": ["Beta-1B Glycoprotein", "HPX", "Hemopexin"]}, {"conceptId": "C147308", "definition": "A measurement of the beta-2 glycoprotein 1 IgG antibodies in a biological specimen.", "preferredTerm": "Beta-2 Glycoprotein 1 IgA Antibody Measurement", "submissionValue": "B2G1GAAB", "synonyms": ["Beta-2 Glycoprotein 1 IgA Antibody"]}, {"conceptId": "C103358", "definition": "A measurement of the Beta-2 glycoprotein 1 IgG antibodies in a biological specimen.", "preferredTerm": "Beta-2 Glycoprotein 1 IgG Antibody Measurement", "submissionValue": "B2G1GGAB", "synonyms": ["Beta-2 Glycoprotein 1 IgG Antibody"]}, {"conceptId": "C103359", "definition": "A measurement of the Beta-2 glycoprotein 1 IgM antibodies in a biological specimen.", "preferredTerm": "Beta-2 Glycoprotein 1 IgM Antibody Measurement", "submissionValue": "B2G1GMAB", "synonyms": ["Beta-2 Glycoprotein 1 IgM Antibody"]}, {"conceptId": "C81979", "definition": "A measurement of the beta-2 glycoprotein antibody in a biological specimen.", "preferredTerm": "Beta-2 Glycoprotein Antibody Measurement", "submissionValue": "B2GLYAB", "synonyms": ["Beta-2 Glycoprotein Antibody"]}, {"conceptId": "C127608", "definition": "A relative measurement (ratio) of the beta-2 microglobulin to creatinine in a biological specimen.", "preferredTerm": "Beta-2 Microglobulin to Creatinine Ratio Measurement", "submissionValue": "B2MCREAT", "synonyms": ["Beta-2 Microglobulin/Creatinine"]}, {"conceptId": "C81980", "definition": "A measurement of the beta-2 microglobulin in a biological specimen.", "preferredTerm": "Beta-2 Microglobulin Measurement", "submissionValue": "B2MICG", "synonyms": ["Beta-2 Microglobulin"]}, {"conceptId": "C64469", "definition": "A measurement of the bacteria in a biological specimen.", "preferredTerm": "Bacterial Count", "submissionValue": "BACT", "synonyms": ["Bacteria"]}, {"conceptId": "C111135", "definition": "A measurement of the B-cell activating factor in a biological specimen.", "preferredTerm": "B-Cell Activating Factor Measurement", "submissionValue": "BAFF", "synonyms": ["B-Cell Activating Factor"]}, {"conceptId": "C154764", "definition": "A measurement of the beta alanine in a biological specimen.", "preferredTerm": "Beta Alanine Measurement", "submissionValue": "BALA", "synonyms": ["Beta Alanine"]}, {"conceptId": "C154765", "definition": "A measurement of the beta-aminobutyric acid in a biological specimen.", "preferredTerm": "Beta-Aminobutyric Acid Measurement", "submissionValue": "BAMBTAC", "synonyms": ["BABA", "Beta-Aminobutyric Acid", "Beta-aminobutyrate"]}, {"conceptId": "C74688", "definition": "A measurement of any barbiturate class drug present in a biological specimen.", "preferredTerm": "Barbiturate Drug Class Measurement", "submissionValue": "BARB", "synonyms": ["Barbiturates"]}, {"conceptId": "C147309", "definition": "A measurement of the amount of alkali required to return a biological specimen to a normal pH under standard conditions.", "preferredTerm": "Base Deficit", "submissionValue": "BASEDEF", "synonyms": ["Base Deficit"]}, {"conceptId": "C119270", "definition": "A calculated measurement of the amount of acid required to return blood to a normal pH under standard conditions.", "preferredTerm": "Base Excess Measurement", "submissionValue": "BASEEXCS", "synonyms": ["Actual Base Excess", "Base Excess"]}, {"conceptId": "C64470", "definition": "A measurement of the basophils in a biological specimen.", "preferredTerm": "Total Basophil Count", "submissionValue": "BASO", "synonyms": ["Basophils"]}, {"conceptId": "C130154", "definition": "A measurement of the banded basophils in a biological specimen.", "preferredTerm": "Basophil Band Form Count", "submissionValue": "BASOB", "synonyms": ["Basophils Band Form"]}, {"conceptId": "C130155", "definition": "A relative measurement (ratio or percentage) of the banded basophils to leukocytes in a biological specimen.", "preferredTerm": "Basophil Band Form to Leukocytes Ratio Measurement", "submissionValue": "BASOBLE", "synonyms": ["Basophils Band Form/Leukocytes"]}, {"conceptId": "C98865", "definition": "A relative measurement (ratio or percentage) of the basophils to total cells in a biological specimen (for example a bone marrow specimen).", "preferredTerm": "Basophil to Total Cell Ratio Measurement", "submissionValue": "BASOCE", "synonyms": ["Basophils/Total Cells"]}, {"conceptId": "C96670", "definition": "A measurement of the immature basophils in a biological specimen.", "preferredTerm": "Immature Basophil Count", "submissionValue": "BASOIM", "synonyms": ["Immature Basophils"]}, {"conceptId": "C96671", "definition": "A relative measurement (ratio or percentage) of immature basophils to total leukocytes in a biological specimen.", "preferredTerm": "Immature Basophil to Leukocyte Ratio Measurement", "submissionValue": "BASOIMLE", "synonyms": ["Immature Basophils/Leukocytes"]}, {"conceptId": "C64471", "definition": "A relative measurement (ratio or percentage) of the basophils to leukocytes in a biological specimen.", "preferredTerm": "Basophil to Leukocyte Ratio", "submissionValue": "BASOLE", "synonyms": ["Basophils/Leukocytes"]}, {"conceptId": "C135399", "definition": "A measurement of the basophilic metamyelocytes in a biological specimen.", "preferredTerm": "Basophilic Metamyelocyte Count", "submissionValue": "BASOMM", "synonyms": ["Basophilic Metamyelocytes"]}, {"conceptId": "C135400", "definition": "A measurement of the basophilic myelocytes in a biological specimen.", "preferredTerm": "Basophilic Myelocyte Count", "submissionValue": "BASOMYL", "synonyms": ["Basophilic Myelocytes"]}, {"conceptId": "C135401", "definition": "A measurement of the segmented basophils in a biological specimen.", "preferredTerm": "Segmented Basophil Count", "submissionValue": "BASOSG", "synonyms": ["Basophils, Segmented"]}, {"conceptId": "C147310", "definition": "A measurement of the Borrelia burgdorferi IgG and IgM antibodies in a biological specimen.", "preferredTerm": "Borrelia burgdorferi IgG and IgM Antibody Measurement", "submissionValue": "BBIGGMAB", "synonyms": ["B. burgdorferi IgG and IgM Antibody", "Borrelia burgdorferi IgG and IgM Antibody"]}, {"conceptId": "C122098", "definition": "A measurement of the total Borrelia burgdorferi antibody in a biological specimen.", "preferredTerm": "Borrelia Burgdorferi Antibody Measurement", "submissionValue": "BBRAB", "synonyms": ["Borrelia burgdorferi Antibody", "Lyme Antibody"]}, {"conceptId": "C122099", "definition": "A measurement of the Borrelia burgdorferi IgA antibody in a biological specimen.", "preferredTerm": "Borrelia Burgdorferi IgA Antibody Measurement", "submissionValue": "BBRIGAAB", "synonyms": ["Borrelia burgdorferi IgA Antibody", "Lyme IgA Antibody"]}, {"conceptId": "C122100", "definition": "A measurement of the Borrelia burgdorferi IgG antibody in a biological specimen.", "preferredTerm": "Borrelia Burgdorferi IgG Antibody Measurement", "submissionValue": "BBRIGGAB", "synonyms": ["Borrelia burgdorferi IgG Antibody", "Lyme IgG Antibody"]}, {"conceptId": "C122101", "definition": "A measurement of the Borrelia burgdorferi IgM antibody in a biological specimen.", "preferredTerm": "Borrelia Burgdorferi IgM Antibody Measurement", "submissionValue": "BBRIGMAB", "synonyms": ["Borrelia burgdorferi IgM Antibody", "Lyme IgM Antibody"]}, {"conceptId": "C123455", "definition": "A measurement of the beta cell function (insulin production and secretion) in a biological specimen.", "preferredTerm": "Beta-Cell Function Measurement", "submissionValue": "BCEFNCTN", "synonyms": ["Beta-cell Function"]}, {"conceptId": "C122102", "definition": "A measurement of the beta-defensin 2 in a biological specimen.", "preferredTerm": "Beta-defensin 2 Measurement", "submissionValue": "BD2", "synonyms": ["Beta-defensin 2"]}, {"conceptId": "C82004", "definition": "A measurement of the brain-derived neurotrophic factor in a biological specimen.", "preferredTerm": "Brain-Derived Neurotrophic Factor Measurement", "submissionValue": "BDNF", "synonyms": ["Brain-Derived Neurotrophic Factor"]}, {"conceptId": "C100472", "definition": "A measurement of the beta carotene in a biological specimen.", "preferredTerm": "Beta Carotene Measurement", "submissionValue": "BETACRTN", "synonyms": ["Beta Carotene", "Beta Carotin", "b-Carotene"]}, {"conceptId": "C96568", "definition": "A measurement of the total Beta-hydroxybutyrate in a biological specimen.", "preferredTerm": "Beta-Hydroxybutyrate Measurement", "submissionValue": "BHYXBTR", "synonyms": ["3-Hydroxybutyrate", "B-Hydroxybutyrate", "Beta-Hydroxybutyrate"]}, {"conceptId": "C74667", "definition": "A measurement of the bicarbonate in a biological specimen.", "preferredTerm": "Bicarbonate Measurement", "submissionValue": "BICARB", "synonyms": ["Bicarbonate", "HCO3"]}, {"conceptId": "C64481", "definition": "A measurement of the conjugated or water-soluble bilirubin in a biological specimen.", "preferredTerm": "Direct Bilirubin Measurement", "submissionValue": "BILDIR", "synonyms": ["Direct Bilirubin"]}, {"conceptId": "C158226", "definition": "A relative measurement (ratio or percentage) of the direct bilirubin to total bilirubin in a biological specimen.", "preferredTerm": "Direct Bilirubin to Bilirubin Ratio Measurement", "submissionValue": "BILDIRBI", "synonyms": ["Direct Bilirubin/Bilirubin"]}, {"conceptId": "C74800", "definition": "A measurement of the total bile acids in a biological specimen.", "preferredTerm": "Bile Acid Measurement", "submissionValue": "BILEAC", "synonyms": ["Bile Acid", "Bile Acids", "Bile Salt", "Bile Salts"]}, {"conceptId": "C38037", "definition": "A measurement of the total bilirubin in a biological specimen.", "preferredTerm": "Total Bilirubin Measurement", "submissionValue": "BILI", "synonyms": ["Bilirubin", "Total Bilirubin"]}, {"conceptId": "C64483", "definition": "A measurement of the unconjugated or non-water-soluble bilirubin in a biological specimen.", "preferredTerm": "Indirect Bilirubin Measurement", "submissionValue": "BILIND", "synonyms": ["Indirect Bilirubin"]}, {"conceptId": "C74700", "definition": "A measurement of the bite cells (erythrocytes with the appearance of a bite having been removed, due to oxidative hemolysis) in a biological specimen.", "preferredTerm": "Bite Cell Count", "submissionValue": "BITECE", "synonyms": ["Bite Cells"]}, {"conceptId": "C111136", "definition": "A measurement of the total Bence-Jones protein in a biological specimen.", "preferredTerm": "Bence-Jones Protein Measurement", "submissionValue": "BJPROT", "synonyms": ["Bence-Jones Protein"]}, {"conceptId": "C74605", "definition": "A measurement of the blast cells in a biological specimen.", "preferredTerm": "Blast Count", "submissionValue": "BLAST", "synonyms": ["Blasts"]}, {"conceptId": "C150836", "definition": "A relative measurement (ratio or percentage) of the blasts to total cells in a biological specimen.", "preferredTerm": "Blasts to Total Cells Ratio Measurement", "submissionValue": "BLASTCE", "synonyms": ["Blasts/Total Cells"]}, {"conceptId": "C147311", "definition": "A measurement of the basophilic erythroblasts in a biological specimen taken from a non-human organism.", "preferredTerm": "Basophilic Erythroblast Count", "submissionValue": "BLASTERY", "synonyms": ["Basophilic Erythroblast"]}, {"conceptId": "C103407", "definition": "A measurement of the immunoblasts in a biological specimen.", "preferredTerm": "Immunoblast Count", "submissionValue": "BLASTIMM", "synonyms": ["Immunoblastic Lymphocytes", "Immunoblasts"]}, {"conceptId": "C64487", "definition": "A relative measurement (ratio or percentage) of the blasts to leukocytes in a biological specimen.", "preferredTerm": "Blast to Leukocyte Ratio", "submissionValue": "BLASTLE", "synonyms": ["Blasts/Leukocytes"]}, {"conceptId": "C74630", "definition": "A measurement of the leukemic blasts (lymphoblasts that remain in an immature state even when outside the bone marrow) in a biological specimen.", "preferredTerm": "Leukemic Blast Count", "submissionValue": "BLASTLM", "synonyms": ["Leukemic Blasts"]}, {"conceptId": "C147312", "definition": "A relative measurement (ratio or percentage) of the blasts to the total nucleated cells in a biological specimen.", "preferredTerm": "Blasts to Nucleated Cells Ratio Measurement", "submissionValue": "BLASTNCE", "synonyms": ["Blasts/Nucleated Cells"]}, {"conceptId": "C100446", "definition": "A measurement of the rubriblasts in a biological specimen.", "preferredTerm": "Proerythroblast Measurement", "submissionValue": "BLASTRUB", "synonyms": ["Proerythroblast", "Pronormoblast", "Rubriblast"]}, {"conceptId": "C89775", "definition": "A measurement of the time from the start to cessation of an induced bleed.", "preferredTerm": "Bleeding Time", "submissionValue": "BLEEDT", "synonyms": ["Bleeding Time", "Clotting Time Homeostasis"]}, {"conceptId": "C127609", "definition": "A measurement of the blister cells in a biological specimen.", "preferredTerm": "Blister Cell Count", "submissionValue": "BLISTCE", "synonyms": ["Blister Cell"]}, {"conceptId": "C106535", "definition": "A relative measurement (ratio or percentage) of immunoblasts to all lymphocytes present in a sample.", "preferredTerm": "Immunoblasts to Lymphocytes Ratio Measurement", "submissionValue": "BLSTIMLY", "synonyms": ["Immunoblasts/Lymphocytes", "Lymphocytes, Immunoblastic/Lymphocytes"]}, {"conceptId": "C74641", "definition": "A relative measurement (ratio or percentage) of the leukemic blasts (immature lymphoblasts) to mature lymphocytes in a biological specimen.", "preferredTerm": "Leukemic Blast to Lymphocyte Ratio Measurement", "submissionValue": "BLSTLMLY", "synonyms": ["Leukemic Blasts/Lymphocytes"]}, {"conceptId": "C102278", "definition": "A measurement of the lymphoblasts (immature cells that differentiate to form lymphocytes) in a biological specimen.", "preferredTerm": "Lymphoblast Count", "submissionValue": "BLSTLY", "synonyms": ["Lymphoblasts"]}, {"conceptId": "C105444", "definition": "A relative measurement (ratio or percentage) of the lymphoblasts to leukocytes in a biological specimen.", "preferredTerm": "Lymphoblast to Leukocyte Ratio Measurement", "submissionValue": "BLSTLYLE", "synonyms": ["Lymphoblasts/Leukocytes"]}, {"conceptId": "C98761", "definition": "A relative measurement (ratio or percentage) of the myeloblasts to total cells in a biological specimen (for example a bone marrow specimen).", "preferredTerm": "Myeloblast to Total Cell Ratio Measurement", "submissionValue": "BLSTMBCE", "synonyms": ["Myeloblasts/Total Cells"]}, {"conceptId": "C98752", "definition": "A measurement of the megakaryoblasts in a biological specimen.", "preferredTerm": "Megakaryoblast Cell Count", "submissionValue": "BLSTMGK", "synonyms": ["Megakaryoblasts"]}, {"conceptId": "C98753", "definition": "A relative measurement (ratio or percentage) of the megakaryoblasts to total cells in a biological specimen (for example a bone marrow specimen).", "preferredTerm": "Megakaryoblast to Total Cell Ratio Measurement", "submissionValue": "BLSTMKCE", "synonyms": ["Megakaryoblasts/Total Cells"]}, {"conceptId": "C98764", "definition": "A relative measurement (ratio or percentage) of the normoblasts to total cells in a biological specimen (for example a bone marrow specimen).", "preferredTerm": "Normoblast to Total Cell Ratio Measurement", "submissionValue": "BLSTNMCE", "synonyms": ["Normoblasts/Total Cells"]}, {"conceptId": "C98870", "definition": "A relative measurement (ratio or percentage) of the rubriblasts to total cells in a biological specimen (for example a bone marrow specimen).", "preferredTerm": "Pronormoblast to Total Cell Ratio Measurement", "submissionValue": "BLSTRBCE", "synonyms": ["Proerythroblast/Total Cells", "Pronormoblasts/Total Cells", "Rubriblast/Total Cells"]}, {"conceptId": "C100419", "definition": "A measurement of the ringed sideroblasts (abnormal nucleated erythroblasts with a large number of iron deposits in the perinuclear mitochondria, forming a ring around the nucleus) in a biological specimen.", "preferredTerm": "Ring Sideroblast Measurement", "submissionValue": "BLSTRSID", "synonyms": ["Ringed Sideroblasts"]}, {"conceptId": "C100418", "definition": "A measurement of the sideroblasts (nucleated erythroblasts with iron granules in the cytoplasm) in a biological specimen.", "preferredTerm": "Sideroblast Measurement", "submissionValue": "BLSTSID", "synonyms": ["Sideroblast"]}, {"conceptId": "C128951", "definition": "A measurement to determine human leukocyte antigens (HLA) histocompatibility between the recipient and the donor by examining the presence or absence of the recipient's anti-HLA antibody reactivity towards HLA antigens expressed on the donor B-lymphocytes.", "preferredTerm": "B-lymphocyte Crossmatch Measurement", "submissionValue": "BLYMXM", "synonyms": ["B-lymphocyte Crossmatch"]}, {"conceptId": "C74735", "definition": "A measurement of the brain (B-type) natriuretic peptide in a biological specimen.", "preferredTerm": "Brain Natriuretic Peptide Measurement", "submissionValue": "BNP", "synonyms": ["B-Type Natriuretic Peptide", "Brain Natriuretic Peptide"]}, {"conceptId": "C82032", "definition": "A measurement of the proB-type natriuretic peptide in a biological specimen.", "preferredTerm": "ProB-Type Natriuretic Peptide Measurement", "submissionValue": "BNPPRO", "synonyms": ["Pro-Brain Natriuretic Peptide", "ProB-type Natriuretic Peptide", "proBNP"]}, {"conceptId": "C96610", "definition": "A measurement of the N-terminal proB-type natriuretic peptide in a biological specimen.", "preferredTerm": "N-Terminal ProB-type Natriuretic Peptide Measurement", "submissionValue": "BNPPRONT", "synonyms": ["N-Terminal ProB-type Natriuretic Peptide", "N-terminal pro-Brain Natriuretic Peptide", "NT proBNP II"]}, {"conceptId": "C74692", "definition": "A measurement of any benzodiazepine class drug present in a biological specimen.", "preferredTerm": "Benzodiazepine Measurement", "submissionValue": "BNZDZPN", "synonyms": ["Benzodiazepine"]}, {"conceptId": "C75350", "definition": "A measurement of the benzoylecgonine in a biological specimen.", "preferredTerm": "Benzoylecgonine Measurement", "submissionValue": "BNZLCGN", "synonyms": ["Benzoylecgonine", "Cocaine Metabolite"]}, {"conceptId": "C120631", "definition": "A measurement of the bactericidal/permeability-increasing protein antibody in a biological specimen.", "preferredTerm": "Bactericidal/Permeability-Increasing Protein Antibody Measurement", "submissionValue": "BPIAB", "synonyms": ["BPI Auto-antibody", "Bactericidal/Permeability-Inc Protein Ab"]}, {"conceptId": "C74634", "definition": "A relative measurement (ratio or percentage) of bite cells (erythrocytes with the appearance of a bite having been removed, due to oxidative hemolysis) to all erythrocytes in a biological specimen.", "preferredTerm": "Bite Cell to Erythrocyte Ratio Measurement", "submissionValue": "BTECERBC", "synonyms": ["Bite Cells/Erythrocytes"]}, {"conceptId": "C75365", "definition": "A measurement of the butalbital present in a biological specimen.", "preferredTerm": "Butalbital Measurement", "submissionValue": "BTLBTL", "synonyms": ["Butalbital"]}, {"conceptId": "C111142", "definition": "A measurement of the total butyrylcholinesterase in a biological specimen.", "preferredTerm": "Butyrylcholinesterase Measurement", "submissionValue": "BUCHE", "synonyms": ["Acylcholine Acylhydrolase", "Butyrylcholinesterase", "Non-neuronal Cholinesterase", "Plasma Cholinesterase", "Pseudocholinesterase"]}, {"conceptId": "C75352", "definition": "A measurement of the buprenorphine drug present in a biological specimen.", "preferredTerm": "Buprenorphine Measurement", "submissionValue": "BUPREN", "synonyms": ["Buprenorphine"]}, {"conceptId": "C74701", "definition": "A measurement of the Burr cells (erythrocytes characterized by the presence of small, blunt projections evenly distributed across the cell surface) in a biological specimen.", "preferredTerm": "Burr Cell Count", "submissionValue": "BURRCE", "synonyms": ["Burr Cells"]}, {"conceptId": "C130068", "definition": "A measurement of the Cynodon dactylon pollen antigen IgE antibody in a biological specimen.", "preferredTerm": "Bermuda Grass Pollen IgE Measurement", "submissionValue": "C130068", "synonyms": ["Bermuda Grass Pollen IgE"]}, {"conceptId": "C130069", "definition": "A measurement of the Cynodon dactylon pollen antigen IgA antibody in a biological specimen.", "preferredTerm": "Bermuda Grass Pollen IgA Measurement", "submissionValue": "C130069", "synonyms": ["Bermuda Grass Pollen IgA"]}, {"conceptId": "C130070", "definition": "A measurement of the Cynodon dactylon pollen antigen IgG antibody in a biological specimen.", "preferredTerm": "Bermuda Grass Pollen IgG Measurement", "submissionValue": "C130070", "synonyms": ["Bermuda Grass Pollen IgG"]}, {"conceptId": "C130071", "definition": "A measurement of the Cynodon dactylon pollen antigen IgG4 antibody in a biological specimen.", "preferredTerm": "Bermuda Grass Pollen IgG4 Measurement", "submissionValue": "C130071", "synonyms": ["Bermuda Grass Pollen IgG4"]}, {"conceptId": "C130072", "definition": "A measurement of the Betula pollen antigen IgE antibody in a biological specimen.", "preferredTerm": "Birch Pollen IgE Measurement", "submissionValue": "C130072", "synonyms": ["Birch Pollen IgE"]}, {"conceptId": "C130073", "definition": "A measurement of the Betula pollen antigen IgA antibody in a biological specimen.", "preferredTerm": "Birch Pollen IgA Measurement", "submissionValue": "C130073", "synonyms": ["Birch Pollen IgA"]}, {"conceptId": "C130074", "definition": "A measurement of the Betula pollen antigen IgG antibody in a biological specimen.", "preferredTerm": "Birch Pollen IgG Measurement", "submissionValue": "C130074", "synonyms": ["Birch Pollen IgG"]}, {"conceptId": "C130075", "definition": "A measurement of the Betula pollen antigen IgG4 antibody in a biological specimen.", "preferredTerm": "Birch Pollen IgG4 Measurement", "submissionValue": "C130075", "synonyms": ["Birch Pollen IgG4"]}, {"conceptId": "C130076", "definition": "A measurement of the Betula verrucosa pollen antigen IgE antibody in a biological specimen.", "preferredTerm": "Silver Birch Pollen IgE Measurement", "submissionValue": "C130076", "synonyms": ["Silver Birch Pollen IgE"]}, {"conceptId": "C130077", "definition": "A measurement of the Betula verrucosa pollen antigen IgA antibody in a biological specimen.", "preferredTerm": "Silver Birch Pollen IgA Measurement", "submissionValue": "C130077", "synonyms": ["Silver Birch Pollen IgA"]}, {"conceptId": "C130078", "definition": "A measurement of the Betula verrucosa pollen antigen IgG antibody in a biological specimen.", "preferredTerm": "Silver Birch Pollen IgG Measurement", "submissionValue": "C130078", "synonyms": ["Silver Birch Pollen IgG"]}, {"conceptId": "C130079", "definition": "A measurement of the Betula verrucosa pollen antigen IgG4 antibody in a biological specimen.", "preferredTerm": "Silver Birch Pollen IgG4 Measurement", "submissionValue": "C130079", "synonyms": ["Silver Birch Pollen IgG4"]}, {"conceptId": "C130080", "definition": "A measurement of the Dactylis glomerata pollen antigen IgE antibody in a biological specimen.", "preferredTerm": "Orchard Grass Pollen IgE Measurement", "submissionValue": "C130080", "synonyms": ["Cocksfoot Grass Pollen IgE", "Orchard Grass Pollen IgE"]}, {"conceptId": "C130081", "definition": "A measurement of the Dactylis glomerata pollen antigen IgA antibody in a biological specimen.", "preferredTerm": "Orchard Grass Pollen IgA Measurement", "submissionValue": "C130081", "synonyms": ["Cocksfoot Grass Pollen IgA", "Orchard Grass Pollen IgA"]}, {"conceptId": "C130082", "definition": "A measurement of the Dactylis glomerata pollen antigen IgG antibody in a biological specimen.", "preferredTerm": "Orchard Grass Pollen IgG Measurement", "submissionValue": "C130082", "synonyms": ["Cocksfoot Grass Pollen IgG", "Orchard Grass Pollen IgG"]}, {"conceptId": "C130083", "definition": "A measurement of the Dactylis glomerata pollen antigen IgG4 antibody in a biological specimen.", "preferredTerm": "Orchard Grass Pollen IgG4 Measurement", "submissionValue": "C130083", "synonyms": ["Cocksfoot Grass Pollen IgG4", "Orchard Grass Pollen IgG4"]}, {"conceptId": "C130084", "definition": "A measurement of the Plantagio lanceolata pollen antigen IgE antibody in a biological specimen.", "preferredTerm": "English Plantain Pollen IgE Measurement", "submissionValue": "C130084", "synonyms": ["English Plantain Pollen IgE"]}, {"conceptId": "C130085", "definition": "A measurement of the Plantagio lanceolata pollen antigen IgA antibody in a biological specimen.", "preferredTerm": "English Plantain Pollen IgA Measurement", "submissionValue": "C130085", "synonyms": ["English Plantain Pollen IgA"]}, {"conceptId": "C130086", "definition": "A measurement of the Plantagio lanceolata pollen antigen IgG antibody in a biological specimen.", "preferredTerm": "English Plantain Pollen IgG Measurement", "submissionValue": "C130086", "synonyms": ["English Plantain Pollen IgG"]}, {"conceptId": "C130087", "definition": "A measurement of the Plantagio lanceolata pollen antigen IgG4 antibody in a biological specimen.", "preferredTerm": "English Plantain Pollen IgG4 Measurement", "submissionValue": "C130087", "synonyms": ["English Plantain Pollen IgG4"]}, {"conceptId": "C130088", "definition": "A measurement of the Phleum pratense pollen antigen IgE antibody in a biological specimen.", "preferredTerm": "Timothy Grass Pollen IgE Measurement", "submissionValue": "C130088", "synonyms": ["Timothy Grass Pollen IgE"]}, {"conceptId": "C130089", "definition": "A measurement of the Phleum pratense pollen antigen IgA antibody in a biological specimen.", "preferredTerm": "Timothy Grass Pollen IgA Measurement", "submissionValue": "C130089", "synonyms": ["Timothy Grass Pollen IgA"]}, {"conceptId": "C130090", "definition": "A measurement of the Phleum pratense pollen antigen IgG antibody in a biological specimen.", "preferredTerm": "Timothy Grass Pollen IgG Measurement", "submissionValue": "C130090", "synonyms": ["Timothy Grass Pollen IgG"]}, {"conceptId": "C130091", "definition": "A measurement of the Phleum pratense pollen antigen IgG4 antibody in a biological specimen.", "preferredTerm": "Timothy Grass Pollen IgG4 Measurement", "submissionValue": "C130091", "synonyms": ["Timothy Grass Pollen IgG4"]}, {"conceptId": "C130092", "definition": "A measurement of the Ambrosia psilostachya pollen antigen IgE antibody in a biological specimen.", "preferredTerm": "Western Ragweed Pollen IgE Measurement", "submissionValue": "C130092", "synonyms": ["Western Ragweed Pollen IgE"]}, {"conceptId": "C130093", "definition": "A measurement of the Ambrosia psilostachya pollen antigen IgA antibody in a biological specimen.", "preferredTerm": "Western Ragweed Pollen IgA Measurement", "submissionValue": "C130093", "synonyms": ["Western Ragweed Pollen IgA"]}, {"conceptId": "C130094", "definition": "A measurement of the Ambrosia psilostachya pollen antigen IgG antibody in a biological specimen.", "preferredTerm": "Western Ragweed Pollen IgG Measurement", "submissionValue": "C130094", "synonyms": ["Western Ragweed Pollen IgG"]}, {"conceptId": "C130095", "definition": "A measurement of the Ambrosia psilostachya pollen antigen IgG4 antibody in a biological specimen.", "preferredTerm": "Western Ragweed Pollen IgG4 Measurement", "submissionValue": "C130095", "synonyms": ["Western Ragweed Pollen IgG4"]}, {"conceptId": "C130096", "definition": "A measurement of the Mucor racemosus antigen IgE antibody in a biological specimen.", "preferredTerm": "Mucor racemosus IgE Measurement", "submissionValue": "C130096", "synonyms": ["Mucor racemosus IgE"]}, {"conceptId": "C130097", "definition": "A measurement of the Mucor racemosus antigen IgA antibody in a biological specimen.", "preferredTerm": "Mucor racemosus IgA Measurement", "submissionValue": "C130097", "synonyms": ["Mucor racemosus IgA"]}, {"conceptId": "C130098", "definition": "A measurement of the Mucor racemosus antigen IgG antibody in a biological specimen.", "preferredTerm": "Mucor racemosus IgG Measurement", "submissionValue": "C130098", "synonyms": ["Mucor racemosus IgG"]}, {"conceptId": "C130099", "definition": "A measurement of the Mucor racemosus antigen IgG4 antibody in a biological specimen.", "preferredTerm": "Mucor racemosus IgG4 Measurement", "submissionValue": "C130099", "synonyms": ["Mucor racemosus IgG4"]}, {"conceptId": "C130100", "definition": "A measurement of the mixed antigen IgE antibody in a biological specimen.", "preferredTerm": "Mixed Antigen IgE Antibody Measurement", "submissionValue": "C130100", "synonyms": ["Mixed Antigen IgE Antibody"]}, {"conceptId": "C130101", "definition": "A measurement of the tree mix pollen antigen IgE antibody in a biological specimen.", "preferredTerm": "Tree Mix Pollen Antigen IgE Antibody Measurement", "submissionValue": "C130101", "synonyms": ["Tree Mix Pollen Antigen IgE Antibody"]}, {"conceptId": "C130102", "definition": "A measurement of the tree mix pollen antigen IgG antibody in a biological specimen.", "preferredTerm": "Tree Mix Pollen Antigen IgG Antibody Measurement", "submissionValue": "C130102", "synonyms": ["Tree Mix Pollen Antigen IgG Antibody"]}, {"conceptId": "C130103", "definition": "A measurement of the grass mix pollen antigen IgE antibody in a biological specimen.", "preferredTerm": "Grass Mix Pollen Antigen IgE Antibody Measurement", "submissionValue": "C130103", "synonyms": ["Grass Mix Pollen Antigen IgE Antibody"]}, {"conceptId": "C130104", "definition": "A measurement of the grass mix pollen antigen IgG antibody in a biological specimen.", "preferredTerm": "Grass Mix Pollen Antigen IgG Antibody Measurement", "submissionValue": "C130104", "synonyms": ["Grass Mix Pollen Antigen IgG Antibody"]}, {"conceptId": "C130105", "definition": "A measurement of the grass mix pollen antigen IgA antibody in a biological specimen.", "preferredTerm": "Grass Mix Pollen Antigen IgA Antibody Measurement", "submissionValue": "C130105", "synonyms": ["Grass Mix Pollen Antigen IgA Antibody"]}, {"conceptId": "C130106", "definition": "A measurement of the weed mix pollen antigen IgE antibody in a biological specimen.", "preferredTerm": "Weed Mix Pollen Antigen IgE Antibody Measurement", "submissionValue": "C130106", "synonyms": ["Weed Mix Pollen Antigen IgE Antibody"]}, {"conceptId": "C130107", "definition": "A measurement of the weed mix pollen antigen IgG antibody in a biological specimen.", "preferredTerm": "Weed Mix Pollen Antigen IgG Antibody Measurement", "submissionValue": "C130107", "synonyms": ["Weed Mix Pollen Antigen IgG Antibody"]}, {"conceptId": "C130108", "definition": "A measurement of the weed mix pollen antigen IgA antibody in a biological specimen.", "preferredTerm": "Weed Mix Pollen Antigen IgA Antibody Measurement", "submissionValue": "C130108", "synonyms": ["Weed Mix Pollen Antigen IgA Antibody"]}, {"conceptId": "C130109", "definition": "A measurement of the mold mix antigen IgE antibody in a biological specimen.", "preferredTerm": "Mold Mix Antigen IgE Antibody Measurement", "submissionValue": "C130109", "synonyms": ["Mold Mix Antigen IgE Antibody"]}, {"conceptId": "C130110", "definition": "A measurement of the mold mix antigen IgG antibody in a biological specimen.", "preferredTerm": "Mold Mix Antigen IgG Antibody Measurement", "submissionValue": "C130110", "synonyms": ["Mold Mix Antigen IgG Antibody"]}, {"conceptId": "C130111", "definition": "A measurement of the mold mix antigen IgA antibody in a biological specimen.", "preferredTerm": "Mold Mix Antigen IgA Antibody Measurement", "submissionValue": "C130111", "synonyms": ["Mold Mix Antigen IgA Antibody"]}, {"conceptId": "C130112", "definition": "A measurement of the animal mix antigen IgE antibody in a biological specimen.", "preferredTerm": "Animal Mix Antigen IgE Antibody Measurement", "submissionValue": "C130112", "synonyms": ["Animal Mix Antigen IgE Antibody"]}, {"conceptId": "C130113", "definition": "A measurement of the animal mix antigen IgG antibody in a biological specimen.", "preferredTerm": "Animal Mix Antigen IgG Antibody Measurement", "submissionValue": "C130113", "synonyms": ["Animal Mix Antigen IgG Antibody"]}, {"conceptId": "C130114", "definition": "A measurement of the industrial mix antigen IgE antibody in a biological specimen.", "preferredTerm": "Industrial Mix Antigen IgE Antibody Measurement", "submissionValue": "C130114", "synonyms": ["Industrial Mix Antigen IgE Antibody"]}, {"conceptId": "C130115", "definition": "A measurement of the industrial mix antigen IgG antibody in a biological specimen.", "preferredTerm": "Industrial Mix Antigen IgG Antibody Measurement", "submissionValue": "C130115", "synonyms": ["Industrial Mix Antigen IgG Antibody"]}, {"conceptId": "C130116", "definition": "A measurement of the bee mix antigen IgE antibody in a biological specimen.", "preferredTerm": "Bee Mix Antigen IgE Antibody Measurement", "submissionValue": "C130116", "synonyms": ["Bee Mix Antigen IgE Antibody"]}, {"conceptId": "C130117", "definition": "A measurement of the bee mix antigen IgG antibody in a biological specimen.", "preferredTerm": "Bee Mix Antigen IgG Antibody Measurement", "submissionValue": "C130117", "synonyms": ["Bee Mix Antigen IgG Antibody"]}, {"conceptId": "C130118", "definition": "A measurement of the bee mix antigen IgG4 antibody in a biological specimen.", "preferredTerm": "Bee Mix Antigen IgG4 Antibody Measurement", "submissionValue": "C130118", "synonyms": ["Bee Mix Antigen IgG4 Antibody"]}, {"conceptId": "C130119", "definition": "A measurement of the dairy mix antigen IgG antibody in a biological specimen.", "preferredTerm": "Dairy Mix Antigen IgG Antibody Measurement", "submissionValue": "C130119", "synonyms": ["Dairy Mix Antigen IgG Antibody"]}, {"conceptId": "C130120", "definition": "A measurement of the shellfish mix antigen IgE antibody in a biological specimen.", "preferredTerm": "Shellfish Mix Antigen IgE Antibody Measurement", "submissionValue": "C130120", "synonyms": ["Shellfish Mix Antigen IgE Antibody"]}, {"conceptId": "C130121", "definition": "A measurement of the shellfish mix antigen IgG antibody in a biological specimen.", "preferredTerm": "Shellfish Mix Antigen IgG Antibody Measurement", "submissionValue": "C130121", "synonyms": ["Shellfish Mix Antigen IgG Antibody"]}, {"conceptId": "C130122", "definition": "A measurement of the nut mix antigen IgE antibody in a biological specimen.", "preferredTerm": "Nut Mix Antigen IgE Antibody Measurement", "submissionValue": "C130122", "synonyms": ["Nut Mix Antigen IgE Antibody"]}, {"conceptId": "C130123", "definition": "A measurement of the nut mix antigen IgG antibody in a biological specimen.", "preferredTerm": "Nut Mix Antigen IgG Antibody Measurement", "submissionValue": "C130123", "synonyms": ["Nut Mix Antigen IgG Antibody"]}, {"conceptId": "C130124", "definition": "A measurement of the Felis catus dander antigen IgE antibody in a biological specimen.", "preferredTerm": "Cat Dander Antigen IgE Antibody Measurement", "submissionValue": "C130124", "synonyms": ["Cat Dander Antigen IgE Antibody"]}, {"conceptId": "C130125", "definition": "A measurement of the Felis catus dander antigen IgG antibody in a biological specimen.", "preferredTerm": "Cat Dander Antigen IgG Antibody Measurement", "submissionValue": "C130125", "synonyms": ["Cat Dander Antigen IgG Antibody"]}, {"conceptId": "C130126", "definition": "A measurement of the Felis catus dander antigen IgA antibody in a biological specimen.", "preferredTerm": "Cat Dander Antigen IgA Antibody Measurement", "submissionValue": "C130126", "synonyms": ["Cat Dander Antigen IgA Antibody"]}, {"conceptId": "C130127", "definition": "A measurement of the Felis catus dander antigen IgG4 antibody in a biological specimen.", "preferredTerm": "Cat Dander Antigen IgG4 Antibody Measurement", "submissionValue": "C130127", "synonyms": ["Cat Dander Antigen IgG4 Antibody"]}, {"conceptId": "C130128", "definition": "A measurement of the Canis lupus dander antigen IgE antibody in a biological specimen.", "preferredTerm": "Dog Dander Antigen IgE Antibody Measurement", "submissionValue": "C130128", "synonyms": ["Dog Dander Antigen IgE Antibody"]}, {"conceptId": "C130129", "definition": "A measurement of the Canis lupus dander antigen IgG antibody in a biological specimen.", "preferredTerm": "Dog Dander Antigen IgG Antibody Measurement", "submissionValue": "C130129", "synonyms": ["Dog Dander Antigen IgG Antibody"]}, {"conceptId": "C130130", "definition": "A measurement of the Canis lupus dander antigen IgA antibody in a biological specimen.", "preferredTerm": "Dog Dander Antigen IgA Antibody Measurement", "submissionValue": "C130130", "synonyms": ["Dog Dander Antigen IgA Antibody"]}, {"conceptId": "C130131", "definition": "A measurement of the Canis lupus dander antigen IgG4 antibody in a biological specimen.", "preferredTerm": "Dog Dander Antigen IgG4 Antibody Measurement", "submissionValue": "C130131", "synonyms": ["Dog Dander Antigen IgG4 Antibody"]}, {"conceptId": "C130132", "definition": "A measurement of the Dermatophagoides farinae antigen IgE antibody in a biological specimen.", "preferredTerm": "Dermatophagoides farinae Antigen IgE Antibody Measurement", "submissionValue": "C130132", "synonyms": ["D. farinae Antigen IgE Antibody"]}, {"conceptId": "C130133", "definition": "A measurement of the Dermatophagoides farinae antigen IgG antibody in a biological specimen.", "preferredTerm": "Dermatophagoides farinae Antigen IgG Antibody Measurement", "submissionValue": "C130133", "synonyms": ["D. farinae Antigen IgG Antibody"]}, {"conceptId": "C130134", "definition": "A measurement of the Dermatophagoides pteronyssinus antigen IgE antibody in a biological specimen.", "preferredTerm": "Dermatophagoides pteronyssinus Antigen IgE Antibody Measurement", "submissionValue": "C130134", "synonyms": ["D. pteronyssinus Antigen IgE Antibody"]}, {"conceptId": "C130135", "definition": "A measurement of the Dermatophagoides pteronyssinus antigen IgG antibody in a biological specimen.", "preferredTerm": "Dermatophagoides pteronyssinus Antigen IgG Antibody Measurement", "submissionValue": "C130135", "synonyms": ["D. pteronyssinus Antigen IgG Antibody"]}, {"conceptId": "C130136", "definition": "A measurement of the Periplaneta americana antigen IgE antibody in a biological specimen.", "preferredTerm": "American Cockroach Antigen IgE Antibody Measurement", "submissionValue": "C130136", "synonyms": ["American Cockroach Antigen IgE Antibody"]}, {"conceptId": "C130137", "definition": "A measurement of the Periplaneta americana antigen IgA antibody in a biological specimen.", "preferredTerm": "American Cockroach Antigen IgA Antibody Measurement", "submissionValue": "C130137", "synonyms": ["American Cockroach Antigen IgA Antibody"]}, {"conceptId": "C130138", "definition": "A measurement of the Periplaneta americana antigen IgG antibody in a biological specimen.", "preferredTerm": "American Cockroach Antigen IgG Antibody Measurement", "submissionValue": "C130138", "synonyms": ["American Cockroach Antigen IgG Antibody"]}, {"conceptId": "C130139", "definition": "A measurement of the Periplaneta americana antigen IgG4 antibody in a biological specimen.", "preferredTerm": "American Cockroach Antigen IgG4 Antibody Measurement", "submissionValue": "C130139", "synonyms": ["American Cockroach Antigen IgG4 Antibody"]}, {"conceptId": "C130140", "definition": "A measurement of the Blattella germanica antigen IgE antibody in a biological specimen.", "preferredTerm": "German Cockroach Antigen IgE Antibody Measurement", "submissionValue": "C130140", "synonyms": ["German Cockroach Antigen IgE Antibody"]}, {"conceptId": "C130141", "definition": "A measurement of the Blattella germanica antigen IgA antibody in a biological specimen.", "preferredTerm": "German Cockroach Antigen IgA Antibody Measurement", "submissionValue": "C130141", "synonyms": ["German Cockroach Antigen IgA Antibody"]}, {"conceptId": "C130142", "definition": "A measurement of the Blattella germanica antigen IgG antibody in a biological specimen.", "preferredTerm": "German Cockroach Antigen IgG Antibody Measurement", "submissionValue": "C130142", "synonyms": ["German Cockroach Antigen IgG Antibody"]}, {"conceptId": "C130143", "definition": "A measurement of the Blattella germanica antigen IgG4 antibody in a biological specimen.", "preferredTerm": "German Cockroach Antigen IgG4 Antibody Measurement", "submissionValue": "C130143", "synonyms": ["German Cockroach Antigen IgG4 Antibody"]}, {"conceptId": "C130144", "definition": "A measurement of the Aspergillus fumigatus antigen IgE antibody in a biological specimen.", "preferredTerm": "Aspergillus fumigatus Antigen IgE Antibody Measurement", "submissionValue": "C130144", "synonyms": ["A. fumigatus Antigen IgE Antibody"]}, {"conceptId": "C130145", "definition": "A measurement of the Aspergillus fumigatus antigen IgG antibody in a biological specimen.", "preferredTerm": "Aspergillus fumigatus Antigen IgG Antibody Measurement", "submissionValue": "C130145", "synonyms": ["A. fumigatus Antigen IgG Antibody"]}, {"conceptId": "C130146", "definition": "A measurement of the Penicillium notatum antigen IgE antibody in a biological specimen.", "preferredTerm": "Penicillium notatum Antigen IgE Antibody Measurement", "submissionValue": "C130146", "synonyms": ["P. notatum Antigen IgE Antibody"]}, {"conceptId": "C130147", "definition": "A measurement of the Penicillium notatum antigen IgA antibody in a biological specimen.", "preferredTerm": "Penicillium notatum Antigen IgA Antibody Measurement", "submissionValue": "C130147", "synonyms": ["P. notatum Antigen IgA Antibody"]}, {"conceptId": "C130148", "definition": "A measurement of the Penicillium notatum antigen IgG antibody in a biological specimen.", "preferredTerm": "Penicillium notatum Antigen IgG Antibody Measurement", "submissionValue": "C130148", "synonyms": ["P. notatum Antigen IgG Antibody"]}, {"conceptId": "C130149", "definition": "A measurement of the Penicillium notatum antigen IgG4 antibody in a biological specimen.", "preferredTerm": "Penicillium notatum Antigen IgG4 Antibody Measurement", "submissionValue": "C130149", "synonyms": ["P. notatum Antigen IgG4 Antibody"]}, {"conceptId": "C130150", "definition": "A measurement of the Alternaria tenuis alternata antigen IgE antibody in a biological specimen.", "preferredTerm": "Alternaria tenuis alternata Antigen IgE Antibody Measurement", "submissionValue": "C130150", "synonyms": ["A. tenuis alternata Antigen IgE AB"]}, {"conceptId": "C130151", "definition": "A measurement of the Alternaria tenuis alternata antigen IgA antibody in a biological specimen.", "preferredTerm": "Alternaria tenuis alternata Antigen IgA Antibody Measurement", "submissionValue": "C130151", "synonyms": ["A. tenuis alternata Antigen IgA AB"]}, {"conceptId": "C130152", "definition": "A measurement of the Alternaria tenuis alternata antigen IgG antibody in a biological specimen.", "preferredTerm": "Alternaria tenuis alternata Antigen IgG Antibody Measurement", "submissionValue": "C130152", "synonyms": ["A. tenuis alternata Antigen IgG AB"]}, {"conceptId": "C130153", "definition": "A measurement of the Alternaria tenuis alternata antigen IgG4 antibody in a biological specimen.", "preferredTerm": "Alternaria tenuis alternata Antigen IgG4 Antibody Measurement", "submissionValue": "C130153", "synonyms": ["A. tenuis alternata Antigen IgG4 AB"]}, {"conceptId": "C142249", "definition": "A measurement of the Streptococcus pneumoniae serotype 1 IgG antibody in a biological specimen.", "preferredTerm": "Streptococcus pneumoniae Serotype 1 IgG Antibody Measurement", "submissionValue": "C142249", "synonyms": ["S. pneumonia Sero 1 IgG AB", "Streptococcus pneumoniae Serotype 1 IgG Antibody"]}, {"conceptId": "C142250", "definition": "A measurement of the Streptococcus pneumoniae serotype 2 IgG antibody in a biological specimen.", "preferredTerm": "Streptococcus pneumoniae Serotype 2 IgG Antibody Measurement", "submissionValue": "C142250", "synonyms": ["S. pneumonia Sero 2 IgG AB", "Streptococcus pneumoniae Serotype 2 IgG Antibody"]}, {"conceptId": "C142251", "definition": "A measurement of the Streptococcus pneumoniae serotype 3 IgG antibody in a biological specimen.", "preferredTerm": "Streptococcus pneumoniae Serotype 3 IgG Antibody Measurement", "submissionValue": "C142251", "synonyms": ["S. pneumonia Sero 3 IgG AB", "Streptococcus pneumoniae Serotype 3 IgG Antibody"]}, {"conceptId": "C142252", "definition": "A measurement of the Streptococcus pneumoniae serotype 4 IgG antibody in a biological specimen.", "preferredTerm": "Streptococcus pneumoniae Serotype 4 IgG Antibody Measurement", "submissionValue": "C142252", "synonyms": ["S. pneumonia Sero 4 IgG AB", "Streptococcus pneumoniae Serotype 4 IgG Antibody"]}, {"conceptId": "C142253", "definition": "A measurement of the Streptococcus pneumoniae serotype 5 IgG antibody in a biological specimen.", "preferredTerm": "Streptococcus pneumoniae Serotype 5 IgG Antibody Measurement", "submissionValue": "C142253", "synonyms": ["S. pneumonia Sero 5 IgG AB", "Streptococcus pneumoniae Serotype 5 IgG Antibody"]}, {"conceptId": "C142254", "definition": "A measurement of the Streptococcus pneumoniae serotype 6B IgG antibody in a biological specimen.", "preferredTerm": "Streptococcus pneumoniae Serotype 6B IgG Antibody Measurement", "submissionValue": "C142254", "synonyms": ["S. pneumonia Sero 6B IgG AB", "Streptococcus pneumoniae Serotype 6B IgG Antibody"]}, {"conceptId": "C142255", "definition": "A measurement of the Streptococcus pneumoniae serotype 7F IgG antibody in a biological specimen.", "preferredTerm": "Streptococcus pneumoniae Serotype 7F IgG Antibody Measurement", "submissionValue": "C142255", "synonyms": ["S. pneumonia Sero 7F IgG AB", "Streptococcus pneumoniae Serotype 7F IgG Antibody"]}, {"conceptId": "C142256", "definition": "A measurement of the Streptococcus pneumoniae serotype 8 IgG antibody in a biological specimen.", "preferredTerm": "Streptococcus pneumoniae Serotype 8 IgG Antibody Measurement", "submissionValue": "C142256", "synonyms": ["S. pneumonia Sero 8 IgG AB", "Streptococcus pneumoniae Serotype 8 IgG Antibody"]}, {"conceptId": "C142257", "definition": "A measurement of the Streptococcus pneumoniae serotype 9N IgG antibody in a biological specimen.", "preferredTerm": "Streptococcus pneumoniae Serotype 9N IgG Antibody Measurement", "submissionValue": "C142257", "synonyms": ["S. pneumonia Sero 9N IgG AB", "Streptococcus pneumoniae Serotype 9N IgG Antibody"]}, {"conceptId": "C142258", "definition": "A measurement of the Streptococcus pneumoniae serotype 9V IgG antibody in a biological specimen.", "preferredTerm": "Streptococcus pneumoniae Serotype 9V IgG Antibody Measurement", "submissionValue": "C142258", "synonyms": ["S. pneumonia Sero 9V IgG AB", "Streptococcus pneumoniae Serotype 9V IgG Antibody"]}, {"conceptId": "C142259", "definition": "A measurement of the Streptococcus pneumoniae serotype 10A IgG antibody in a biological specimen.", "preferredTerm": "Streptococcus pneumoniae Serotype 10A IgG Antibody Measurement", "submissionValue": "C142259", "synonyms": ["S. pneumonia Sero 10A IgG AB", "Streptococcus pneumoniae Serotype 10A IgG Antibody"]}, {"conceptId": "C142260", "definition": "A measurement of the Streptococcus pneumoniae serotype 11A IgG antibody in a biological specimen.", "preferredTerm": "Streptococcus pneumoniae Serotype 11A IgG Antibody Measurement", "submissionValue": "C142260", "synonyms": ["S. pneumonia Sero 11A IgG AB", "Streptococcus pneumoniae Serotype 11A IgG Antibody"]}, {"conceptId": "C142261", "definition": "A measurement of the Streptococcus pneumoniae serotype 12F IgG antibody in a biological specimen.", "preferredTerm": "Streptococcus pneumoniae Serotype 12F IgG Antibody Measurement", "submissionValue": "C142261", "synonyms": ["S. pneumonia Sero 12F IgG AB", "Streptococcus pneumoniae Serotype 12F IgG Antibody"]}, {"conceptId": "C142262", "definition": "A measurement of the Streptococcus pneumoniae serotype 14 IgG antibody in a biological specimen.", "preferredTerm": "Streptococcus pneumoniae Serotype 14 IgG Antibody Measurement", "submissionValue": "C142262", "synonyms": ["S. pneumonia Sero 14 IgG AB", "Streptococcus pneumoniae Serotype 14 IgG Antibody"]}, {"conceptId": "C142263", "definition": "A measurement of the Streptococcus pneumoniae serotype 15B IgG antibody in a biological specimen.", "preferredTerm": "Streptococcus pneumoniae Serotype 15B IgG Antibody Measurement", "submissionValue": "C142263", "synonyms": ["S. pneumonia Sero 15B IgG AB", "Streptococcus pneumoniae Serotype 15B IgG Antibody"]}, {"conceptId": "C142264", "definition": "A measurement of the Streptococcus pneumoniae serotype 17F IgG antibody in a biological specimen.", "preferredTerm": "Streptococcus pneumoniae Serotype 17F IgG Antibody Measurement", "submissionValue": "C142264", "synonyms": ["S. pneumonia Sero 17F IgG AB", "Streptococcus pneumoniae Serotype 17F IgG Antibody"]}, {"conceptId": "C142265", "definition": "A measurement of the Streptococcus pneumoniae serotype 18C IgG antibody in a biological specimen.", "preferredTerm": "Streptococcus pneumoniae Serotype 18C IgG Antibody Measurement", "submissionValue": "C142265", "synonyms": ["S. pneumonia Sero 18C IgG AB", "Streptococcus pneumoniae Serotype 18C IgG Antibody"]}, {"conceptId": "C142266", "definition": "A measurement of the Streptococcus pneumoniae serotype 19F IgG antibody in a biological specimen.", "preferredTerm": "Streptococcus pneumoniae Serotype 19F IgG Antibody Measurement", "submissionValue": "C142266", "synonyms": ["S. pneumonia Sero 19F IgG AB", "Streptococcus pneumoniae Serotype 19F IgG Antibody"]}, {"conceptId": "C142267", "definition": "A measurement of the Streptococcus pneumoniae serotype 19A IgG antibody in a biological specimen.", "preferredTerm": "Streptococcus pneumoniae Serotype 19A IgG Antibody Measurement", "submissionValue": "C142267", "synonyms": ["S. pneumonia Sero 19A IgG AB", "Streptococcus pneumoniae Serotype 19A IgG Antibody"]}, {"conceptId": "C142268", "definition": "A measurement of the Streptococcus pneumoniae serotype 20 IgG antibody in a biological specimen.", "preferredTerm": "Streptococcus pneumoniae Serotype 20 IgG Antibody Measurement", "submissionValue": "C142268", "synonyms": ["S. pneumonia Sero 20 IgG AB", "Streptococcus pneumoniae Serotype 20 IgG Antibody"]}, {"conceptId": "C142269", "definition": "A measurement of the Streptococcus pneumoniae serotype 22F IgG antibody in a biological specimen.", "preferredTerm": "Streptococcus pneumoniae Serotype 22F IgG Antibody Measurement", "submissionValue": "C142269", "synonyms": ["S. pneumonia Sero 22F IgG AB", "Streptococcus pneumoniae Serotype 22F IgG Antibody"]}, {"conceptId": "C142270", "definition": "A measurement of the Streptococcus pneumoniae serotype 23F IgG antibody in a biological specimen.", "preferredTerm": "Streptococcus pneumoniae Serotype 23F IgG Antibody Measurement", "submissionValue": "C142270", "synonyms": ["S. pneumonia Sero 23F IgG AB", "Streptococcus pneumoniae Serotype 23F IgG Antibody"]}, {"conceptId": "C142271", "definition": "A measurement of the Streptococcus pneumoniae serotype 33F IgG antibody in a biological specimen.", "preferredTerm": "Streptococcus pneumoniae Serotype 33F IgG Antibody Measurement", "submissionValue": "C142271", "synonyms": ["S. pneumonia Sero 33F IgG AB", "Streptococcus pneumoniae Serotype 33F IgG Antibody"]}, {"conceptId": "C147276", "definition": "A measurement of the Arachis hypogaea antigen IgE antibody in a biological specimen.", "preferredTerm": "Arachis hypogaea Antigen IgE Antibody Measurement", "submissionValue": "C147276", "synonyms": ["Arachis hypogaea Antigen IgE Antibody", "Peanut Antigen IgE Antibody"]}, {"conceptId": "C147277", "definition": "A measurement of the Triticum aestivum antigen IgE antibody in a biological specimen.", "preferredTerm": "Triticum aestivum Antigen IgE Antibody Measurement", "submissionValue": "C147277", "synonyms": ["Bread Wheat Antigen IgE Antibody", "Triticum aestivum Antigen IgE Antibody"]}, {"conceptId": "C147278", "definition": "A measurement of the Glycine max antigen IgE antibody in a biological specimen.", "preferredTerm": "Glycine max Antigen IgE Antibody Measurement", "submissionValue": "C147278", "synonyms": ["Glycine max Antigen IgE Antibody", "Soybean Antigen IgE Antibody"]}, {"conceptId": "C147279", "definition": "A measurement of the Zea mays antigen IgE antibody in a biological specimen.", "preferredTerm": "Zea mays Antigen IgE Antibody Measurement", "submissionValue": "C147279", "synonyms": ["Corn Antigen IgE Antibody", "Zea mays Antigen IgE Antibody"]}, {"conceptId": "C147280", "definition": "A measurement of the cow milk protein antigen IgE antibody in a biological specimen.", "preferredTerm": "Cow Milk Protein Antigen IgE Antibody Measurement", "submissionValue": "C147280", "synonyms": ["Cow Milk Protein Antigen IgE Antibody"]}, {"conceptId": "C147281", "definition": "A measurement of the egg white antigen IgE antibody in a biological specimen.", "preferredTerm": "Egg White Antigen IgE Antibody Measurement", "submissionValue": "C147281", "synonyms": ["Egg White Antigen IgE Antibody"]}, {"conceptId": "C147282", "definition": "A measurement of the Quercus alba pollen antigen IgE antibody in a biological specimen.", "preferredTerm": "White Oak Pollen IgE Antibody Measurement", "submissionValue": "C147282", "synonyms": ["White Oak Pollen IgE Antibody"]}, {"conceptId": "C147283", "definition": "A measurement of the Ulmus americana pollen antigen IgG antibody in a biological specimen.", "preferredTerm": "White Elm Pollen IgG Antibody Measurement", "submissionValue": "C147283", "synonyms": ["White Elm Pollen IgG Antibody"]}, {"conceptId": "C147284", "definition": "A measurement of the Acer negundo pollen antigen IgE antibody in a biological specimen.", "preferredTerm": "Boxelder Pollen IgE Antibody Measurement", "submissionValue": "C147284", "synonyms": ["Boxelder Pollen IgE Antibody"]}, {"conceptId": "C147285", "definition": "A measurement of the Ambrosia elatior pollen antigen IgE antibody in a biological specimen.", "preferredTerm": "Common Ragweed Pollen IgE Antibody Measurement", "submissionValue": "C147285", "synonyms": ["Common Ragweed Pollen IgE Antibody"]}, {"conceptId": "C147286", "definition": "A measurement of the Cladosporium herbarum antigen IgE antibody in a biological specimen.", "preferredTerm": "Cladosporium herbarum IgE Antibody Measurement", "submissionValue": "C147286", "synonyms": ["Cladosporium herbarum IgE Antibody"]}, {"conceptId": "C147287", "definition": "A measurement of the Penicillium chrysogenum antigen IgE antibody in a biological specimen.", "preferredTerm": "Penicillium chrysogenum IgE Antibody Measurement", "submissionValue": "C147287", "synonyms": ["Penicillium chrysogenum IgE Antibody"]}, {"conceptId": "C147313", "definition": "A measurement of the complement C1 esterase inhibitor in a biological specimen.", "preferredTerm": "Complement C1 Esterase Inhibitor Measurement", "submissionValue": "C1INH", "synonyms": ["Complement C1 Esterase Inhibitor"]}, {"conceptId": "C80173", "definition": "A measurement of the complement C1q antibody in a biological specimen.", "preferredTerm": "Complement C1q Antibody Measurement", "submissionValue": "C1QAB", "synonyms": ["Complement C1q Antibody"]}, {"conceptId": "C80174", "definition": "A measurement of the complement C3 in a biological specimen.", "preferredTerm": "Complement C3 Measurement", "submissionValue": "C3", "synonyms": ["Complement C3"]}, {"conceptId": "C80175", "definition": "A measurement of the complement C3a in a biological specimen.", "preferredTerm": "Complement C3a Measurement", "submissionValue": "C3A", "synonyms": ["ASP, Complement C3 DesArg, Acetylation-stimulating Protein", "Complement C3a"]}, {"conceptId": "C80176", "definition": "A measurement of the complement C3b in a biological specimen.", "preferredTerm": "Complement C3b Measurement", "submissionValue": "C3B", "synonyms": ["Complement C3b"]}, {"conceptId": "C119271", "definition": "A measurement of the complement C3d antibody in a biological specimen.", "preferredTerm": "Complement C3d Antibody Measurement", "submissionValue": "C3DAB", "synonyms": ["Complement C3d Antibody"]}, {"conceptId": "C80177", "definition": "A measurement of the complement C4 in a biological specimen.", "preferredTerm": "Complement C4 Measurement", "submissionValue": "C4", "synonyms": ["Complement C4"]}, {"conceptId": "C80178", "definition": "A measurement of the complement C4a in a biological specimen.", "preferredTerm": "Complement C4a Measurement", "submissionValue": "C4A", "synonyms": ["Complement C4a"]}, {"conceptId": "C127610", "definition": "A measurement of the complement C4d in a biological specimen.", "preferredTerm": "Complement C4d Measurement", "submissionValue": "C4D", "synonyms": ["Complement C4d"]}, {"conceptId": "C160935", "definition": "A measurement of the total complement C5 in a biological specimen.", "preferredTerm": "Complement C5 Measurement", "submissionValue": "C5", "synonyms": ["Complement C5"]}, {"conceptId": "C80179", "definition": "A measurement of the complement C5a in a biological specimen.", "preferredTerm": "Complement C5a Measurement", "submissionValue": "C5A", "synonyms": ["Complement C5a"]}, {"conceptId": "C158235", "definition": "A measurement of the complement C5b-9 in a biological specimen.", "preferredTerm": "Complement C5b-9 Measurement", "submissionValue": "C5B9", "synonyms": ["Complement C5b-9"]}, {"conceptId": "C161357", "definition": "A measurement of the free complement C5 in a biological specimen.", "preferredTerm": "Free Complement C5 Measurement", "submissionValue": "C5FR", "synonyms": ["Complement C5, Free"]}, {"conceptId": "C64488", "definition": "A measurement of the calcium in a biological specimen.", "preferredTerm": "Calcium Measurement", "submissionValue": "CA", "synonyms": ["Calcium"]}, {"conceptId": "C79089", "definition": "A measurement of the cancer antigen 125 in a biological specimen.", "preferredTerm": "CA-125 Measurement", "submissionValue": "CA125AG", "synonyms": ["Cancer Antigen 125"]}, {"conceptId": "C103362", "definition": "A measurement of the cancer antigen 15-3 in a biological specimen.", "preferredTerm": "Cancer Antigen 15-3 Measurement", "submissionValue": "CA15_3AG", "synonyms": ["Cancer Antigen 15-3"]}, {"conceptId": "C81982", "definition": "A measurement of the cancer antigen 19-9 in a biological specimen.", "preferredTerm": "Cancer Antigen 19-9 Measurement", "submissionValue": "CA19_9AG", "synonyms": ["Cancer Antigen 19-9"]}, {"conceptId": "C103361", "definition": "A measurement of the cancer antigen 1 in a biological specimen.", "preferredTerm": "Cancer Antigen 1 Measurement", "submissionValue": "CA1AG", "synonyms": ["Cancer Antigen 1"]}, {"conceptId": "C111143", "definition": "A measurement of the cancer antigen 27-29 in a biological specimen.", "preferredTerm": "Cancer Antigen 27-29 Measurement", "submissionValue": "CA2729AG", "synonyms": ["Cancer Antigen 27-29"]}, {"conceptId": "C106505", "definition": "A measurement of the cancer antigen 72-4 in a biological specimen.", "preferredTerm": "Cancer Antigen 72-4 Measurement", "submissionValue": "CA72_4AG", "synonyms": ["CA 72-4", "Cancer Antigen 72-4", "Carbohydrate Antigen 72-4"]}, {"conceptId": "C74702", "definition": "A measurement of the Cabot rings (red-purple staining, threadlike, ring or figure 8 shaped filaments in an erythrocyte) in a biological specimen.", "preferredTerm": "Cabot Ring Count", "submissionValue": "CABOT", "synonyms": ["Cabot Rings"]}, {"conceptId": "C96589", "definition": "A measurement of the volume of serum or plasma that would be cleared of calcium by excretion of urine for a specified unit of time (e.g. one minute).", "preferredTerm": "Calcium Clearance Measurement", "submissionValue": "CACLR", "synonyms": ["Calcium Clearance"]}, {"conceptId": "C119272", "definition": "A measurement of calcium, which has been corrected using an unspecified protein, in a biological specimen.", "preferredTerm": "Calcium Corrected Measurement", "submissionValue": "CACR", "synonyms": ["Calcium Corrected"]}, {"conceptId": "C154753", "definition": "A measurement of calcium, which has been corrected for albumin, in a biological specimen.", "preferredTerm": "Albumin Corrected Calcium Measurement", "submissionValue": "CACRALB", "synonyms": ["Calcium Corrected for Albumin"]}, {"conceptId": "C79439", "definition": "A relative measurement (ratio or percentage) of the calcium to creatinine in a biological specimen.", "preferredTerm": "Calcium to Creatinine Ratio Measurement", "submissionValue": "CACREAT", "synonyms": ["Calcium/Creatinine"]}, {"conceptId": "C147314", "definition": "A measurement of calcium, which has been corrected for total protein, in a biological specimen.", "preferredTerm": "Calcium Corrected for Total Protein Measurement", "submissionValue": "CACRTP", "synonyms": ["Calcium Corrected for Total Protein"]}, {"conceptId": "C150815", "definition": "A measurement of the amount of calcium being excreted in a biological specimen over a defined period of time (e.g. one hour).", "preferredTerm": "Calcium Excretion Rate", "submissionValue": "CAEXR", "synonyms": ["Calcium Excretion Rate"]}, {"conceptId": "C75346", "definition": "A measurement of the caffeine in a biological specimen.", "preferredTerm": "Caffeine Measurement", "submissionValue": "CAFFEINE", "synonyms": ["Caffeine"]}, {"conceptId": "C81948", "definition": "A measurement of the ionized calcium in a biological specimen.", "preferredTerm": "Ionized Calcium Measurement", "submissionValue": "CAION", "synonyms": ["Calcium, Ionized"]}, {"conceptId": "C125941", "definition": "A measurement of the pH adjusted ionized calcium in a biological specimen.", "preferredTerm": "Ionized pH Adjusted Calcium Measurement", "submissionValue": "CAIONPH", "synonyms": ["Calcium, Ionized pH Adjusted"]}, {"conceptId": "C125942", "definition": "A measurement of the total calbindin in a biological specimen.", "preferredTerm": "Calbindin Measurement", "submissionValue": "CALB", "synonyms": ["Calbindin"]}, {"conceptId": "C82005", "definition": "A measurement of the calprotectin in a biological specimen.", "preferredTerm": "Calprotectin Measurement", "submissionValue": "CALPRO", "synonyms": ["Calprotectin"]}, {"conceptId": "C124339", "definition": "A measurement of cyclic adenosine 3,5-monophosphate in a biological specimen.", "preferredTerm": "Cyclic Adenosine 3,5-Monophosphate Measurement", "submissionValue": "CAMP", "synonyms": ["Cyclic Adenosine 3,5-Monophosphate"]}, {"conceptId": "C74689", "definition": "A measurement of any cannabinoid class drug present in a biological specimen.", "preferredTerm": "Cannabinoid Drug Class Measurement", "submissionValue": "CANNAB", "synonyms": ["Cannabinoids"]}, {"conceptId": "C135402", "definition": "A measurement of any synthetic cannabinoid class drug present in a biological specimen.", "preferredTerm": "Synthetic Cannabinoid Measurement", "submissionValue": "CANNABS", "synonyms": ["Cannabinoids, Synthetic"]}, {"conceptId": "C139087", "definition": "A relative measurement (ratio) of the calcium to phosphorus in a biological specimen.", "preferredTerm": "Calcium to Phosphorus Ratio Measurement", "submissionValue": "CAPHOS", "synonyms": ["Calcium/Phosphate", "Calcium/Phosphorus"]}, {"conceptId": "C103360", "definition": "A measurement of the product of the calcium and phosphate measurements in a biological specimen.", "preferredTerm": "Calcium and Phosphorus Product Measurement", "submissionValue": "CAPHOSPD", "synonyms": ["Calcium - Phosphorus Product"]}, {"conceptId": "C96591", "definition": "A measurement of the carboxyhemoglobin, carbon monoxide-bound hemoglobin, in a biological specimen.", "preferredTerm": "Carboxyhemoglobin Measurement", "submissionValue": "CARBXHGB", "synonyms": ["Carboxyhemoglobin"]}, {"conceptId": "C74682", "definition": "A measurement of the total carnitine in a biological specimen.", "preferredTerm": "Total Carnitine Measurement", "submissionValue": "CARNIT", "synonyms": ["Carnitine"]}, {"conceptId": "C92288", "definition": "A measurement of the carnitine acetyl transferase in a biological specimen.", "preferredTerm": "Carnitine Acetyl Transferase Measurement", "submissionValue": "CARNITAT", "synonyms": ["Carnitine Acetyl Transferase"]}, {"conceptId": "C74677", "definition": "A measurement of the free carnitine in a biological specimen.", "preferredTerm": "Free Carnitine Measurement", "submissionValue": "CARNITF", "synonyms": ["Carnitine, Free"]}, {"conceptId": "C142273", "definition": "A measurement of the cocaine and amphetamine-regulated transcript protein in a biological specimen.", "preferredTerm": "Cocaine Amphetamine-Regulated Transcript Protein Measurement", "submissionValue": "CARTP", "synonyms": ["CART", "Cocaine Amphetamine-Reg Transcript Prot", "Cocaine and Amphetamine-Regulated Transcript Protein"]}, {"conceptId": "C74763", "definition": "A statement that indicates casts were looked for in a biological specimen.", "preferredTerm": "Cast Present Or Absent", "submissionValue": "CASTS", "synonyms": ["Casts"]}, {"conceptId": "C96590", "definition": "A measurement of the calcium sulphate in a biological specimen.", "preferredTerm": "Calcium Sulphate Measurement", "submissionValue": "CASULPH", "synonyms": ["Calcium Sulphate"]}, {"conceptId": "C103357", "definition": "A measurement of the beta catenin in a biological specimen.", "preferredTerm": "Beta Catenin Measurement", "submissionValue": "CATNINB", "synonyms": ["Beta Catenin"]}, {"conceptId": "C135403", "definition": "A measurement of the Ba fragment of complement factor B in a biological specimen.", "preferredTerm": "Complement Ba Measurement", "submissionValue": "CBA", "synonyms": ["Ba Fragment of Complement Factor B", "Ba Fragment of Factor B", "Complement Ba"]}, {"conceptId": "C80172", "definition": "A measurement of the Bb fragment of complement factor B in a biological specimen.", "preferredTerm": "Complement Bb Measurement", "submissionValue": "CBB", "synonyms": ["Bb Fragment of Complement Factor B", "Bb Fragment of Factor B", "Complement Bb"]}, {"conceptId": "C74850", "definition": "A measurement of the cholecystokinin hormone in a biological specimen.", "preferredTerm": "Cholecystokinin Measurement", "submissionValue": "CCK", "synonyms": ["Cholecystokinin", "Pancreozymin"]}, {"conceptId": "C130156", "definition": "A measurement of the CCL12, chemokine (C-C motif) ligand 12, in a biological specimen.", "preferredTerm": "Chemokine (C-C Motif) Ligand 12 Measurement", "submissionValue": "CCL12", "synonyms": ["Chemokine (C-C Motif) Ligand 12", "Monocyte Chemotactic Protein 5"]}, {"conceptId": "C112236", "definition": "A measurement of the CCL17, chemokine (C-C motif) ligand 17, in a biological specimen.", "preferredTerm": "Chemokine (C-C Motif) Ligand 17 Measurement", "submissionValue": "CCL17", "synonyms": ["ABCD-2", "Chemokine (C-C Motif) Ligand 17", "SCYA17", "TARC", "Thymus and Activation Regulated Chemokine"]}, {"conceptId": "C112237", "definition": "A measurement of the CCL18, chemokine (C-C motif) ligand 18, in a biological specimen.", "preferredTerm": "Chemokine (C-C Motif) Ligand 18 Measurement", "submissionValue": "CCL18", "synonyms": ["AMAC-1", "AMAC1", "CKB7", "Chemokine (C-C Motif) Ligand 18", "DC-CK1", "DCCK1", "MIP4", "Macrophage inflammatory protein-4", "PARC", "Pulmonary and Activation-Regulated Chemokine", "SCYA18"]}, {"conceptId": "C130157", "definition": "A measurement of the CCL19, chemokine (C-C motif) ligand 19, in a biological specimen.", "preferredTerm": "Chemokine (C-C Motif) Ligand 19 Measurement", "submissionValue": "CCL19", "synonyms": ["Chemokine (C-C Motif) Ligand 19", "MIP3B", "Macrophage Inflammatory Protein 3 Beta"]}, {"conceptId": "C161362", "definition": "A measurement of the chemokine (C-C motif) ligand 20 in a biological specimen.", "preferredTerm": "Chemokine (C-C Motif) Ligand 20 Measurement", "submissionValue": "CCL20", "synonyms": ["CCL20", "Chemokine (C-C Motif) Ligand 20", "LARC", "Liver Activation Regulated Chemokine", "MIP3A", "Macrophage Inflammatory Protein-3 Alpha"]}, {"conceptId": "C147315", "definition": "A measurement of the CCL21, chemokine (C-C motif) ligand 21, in a biological specimen.", "preferredTerm": "Chemokine (C-C Motif) Ligand 21 Measurement", "submissionValue": "CCL21", "synonyms": ["6Ckine", "Chemokine (C-C Motif) Ligand 21", "Secondary Lymphoid Tissue Chemokine"]}, {"conceptId": "C156520", "definition": "A measurement of the amount of chemokine (C-C Motif) ligand 2 being excreted in a biological specimen over a defined period of time (e.g. one hour).", "preferredTerm": "Chemokine (C-C Motif) Ligand 2 Excretion Rate", "submissionValue": "CCL2EXR", "synonyms": ["Chemokine (C-C Motif) Ligand 2 Excr Rate", "Chemokine (C-C Motif) Ligand 2 Excretion Rate", "MCP1 Excretion Rate"]}, {"conceptId": "C130158", "definition": "A measurement of the CCL7, chemokine (C-C motif) ligand 7, in a biological specimen.", "preferredTerm": "Chemokine (C-C Motif) Ligand 7 Measurement", "submissionValue": "CCL7", "synonyms": ["Chemokine (C-C Motif) Ligand 7", "MCP3", "Monocyte Chemotactic Protein 3"]}, {"conceptId": "C96595", "definition": "A measurement of the cyclic citrullinated peptide antibody in a biological specimen.", "preferredTerm": "Cyclic Citrullinated Peptide Antibody Measurement", "submissionValue": "CCPAB", "synonyms": ["Cyclic Citrullinated Peptide Antibody"]}, {"conceptId": "C147316", "definition": "A measurement of the cyclic citrullinated peptide IgG antibody in a biological specimen.", "preferredTerm": "Cyclic Citrullinated Peptide IgG Antibody Measurement", "submissionValue": "CCPIGGAB", "synonyms": ["Cyclic Citrullinated Peptide IgG Ab", "Cyclic Citrullinated Peptide IgG Antibody"]}, {"conceptId": "C122103", "definition": "A measurement of the CCR5, chemokine (C-C motif) receptor type 5, in a biological specimen.", "preferredTerm": "C-C Chemokine Receptor Type 5 Measurement", "submissionValue": "CCR5", "synonyms": ["C-C Chemokine Receptor Type 5", "CD195"]}, {"conceptId": "C103364", "definition": "A count of the CD1 expressing cells per unit of a biological specimen.", "preferredTerm": "CD1 Expressing Cell Measurement", "submissionValue": "CD1", "synonyms": ["CD1"]}, {"conceptId": "C111146", "definition": "A measurement of the CD10 expressing cells per unit in a biological specimen.", "preferredTerm": "CD10 Expressing Cell Count", "submissionValue": "CD10", "synonyms": ["CD10"]}, {"conceptId": "C105439", "definition": "A count of the CD11a expressing cells per unit of a biological specimen.", "preferredTerm": "CD11A Expressing Cell Count", "submissionValue": "CD11A", "synonyms": ["CD11A", "CD11a"]}, {"conceptId": "C105440", "definition": "A count of the CD11b expressing cells per unit of a biological specimen.", "preferredTerm": "CD11B Expressing Cell Count", "submissionValue": "CD11B", "synonyms": ["CD11B", "CD11b", "Complement Component 3 Receptor 3 Subunit", "Complement Receptor Type 3 Alpha Subunit", "ITGAM Protein", "Integrin Alpha-M"]}, {"conceptId": "C111147", "definition": "A measurement of the CD13 expressing cells per unit in a biological specimen.", "preferredTerm": "CD13 Expressing Cell Count", "submissionValue": "CD13", "synonyms": ["CD13"]}, {"conceptId": "C103365", "definition": "A count of the CD14 expressing cells per unit of a biological specimen.", "preferredTerm": "CD14 Expressing Cell Measurement", "submissionValue": "CD14", "synonyms": ["CD14"]}, {"conceptId": "C122104", "definition": "A relative measurement (ratio or percentage) of CD161a expressing cells to all lymphocytes in a biological specimen.", "preferredTerm": "CD161a to Lymphocyte Ratio Measurement", "submissionValue": "CD161ALY", "synonyms": ["CD161a/Lymphocytes"]}, {"conceptId": "C122105", "definition": "A relative measurement (ratio or percentage) of CD161 expressing cells to all lymphocytes in a biological specimen.", "preferredTerm": "CD161 to Lymphocyte Ratio Measurement", "submissionValue": "CD161LY", "synonyms": ["CD161/Lymphocytes"]}, {"conceptId": "C154728", "definition": "A measurement of the soluble CD163 in a biological specimen.", "preferredTerm": "Soluble CD163 Measurement", "submissionValue": "CD163S", "synonyms": ["Soluble CD163"]}, {"conceptId": "C103808", "definition": "A count of the CD19 expressing cells per unit in a biological specimen.", "preferredTerm": "CD19 Expressing Cell Count", "submissionValue": "CD19", "synonyms": ["CD19"]}, {"conceptId": "C103812", "definition": "A relative measurement (ratio or percentage) of CD19 expressing cells to all lymphocytes in a biological specimen.", "preferredTerm": "CD19 Cell to Lymphocyte Ratio Measurement", "submissionValue": "CD19LY", "synonyms": ["CD19/Lymphocytes"]}, {"conceptId": "C103366", "definition": "A count of the CD2 expressing cells per unit of a biological specimen.", "preferredTerm": "CD2 Expressing Cell Measurement", "submissionValue": "CD2", "synonyms": ["CD2"]}, {"conceptId": "C103368", "definition": "A count of the CD20 expressing cells per unit of a biological specimen.", "preferredTerm": "CD20 Expressing Cell Measurement", "submissionValue": "CD20", "synonyms": ["CD20"]}, {"conceptId": "C111148", "definition": "A measurement of the CD22 expressing cells per unit in a biological specimen.", "preferredTerm": "CD22 Expressing Cell Count", "submissionValue": "CD22", "synonyms": ["CD22"]}, {"conceptId": "C111149", "definition": "A measurement of the CD23 expressing cells per unit in a biological specimen.", "preferredTerm": "CD23 Expressing Cell Count", "submissionValue": "CD23", "synonyms": ["CD23"]}, {"conceptId": "C103367", "definition": "A relative measurement (ratio or percentage) of CD2 expressing cells to all lymphocytes in a biological specimen.", "preferredTerm": "CD2 Expressing Cell to Lymphocyte Ratio Measurement", "submissionValue": "CD2LY", "synonyms": ["CD2/Lymphocytes"]}, {"conceptId": "C103809", "definition": "A count of the CD3 expressing cells per unit in a biological specimen.", "preferredTerm": "CD3 Expressing Cell Count", "submissionValue": "CD3", "synonyms": ["CD3"]}, {"conceptId": "C111150", "definition": "A measurement of the CD33 expressing cells per unit in a biological specimen.", "preferredTerm": "CD33 Expressing Cell Count", "submissionValue": "CD33", "synonyms": ["CD33"]}, {"conceptId": "C102260", "definition": "A measurement of the CD34 expressing cells per unit in a biological specimen.", "preferredTerm": "CD34 Measurement", "submissionValue": "CD34", "synonyms": ["CD34"]}, {"conceptId": "C111151", "definition": "A measurement of the CD38 expressing cells per unit in a biological specimen.", "preferredTerm": "CD38 Expressing Cell Count", "submissionValue": "CD38", "synonyms": ["CD38"]}, {"conceptId": "C103813", "definition": "A relative measurement (ratio or percentage) of CD3 expressing cells to all lymphocytes in a biological specimen.", "preferredTerm": "CD3 Cell to Lymphocyte Ratio Measurement", "submissionValue": "CD3LY", "synonyms": ["CD3/Lymphocytes"]}, {"conceptId": "C103810", "definition": "A count of the CD4 expressing cells per unit in a biological specimen.", "preferredTerm": "CD4 Expressing Cell Count", "submissionValue": "CD4", "synonyms": ["CD4"]}, {"conceptId": "C82006", "definition": "A count of the CD40 cells per unit in a biological specimen.", "preferredTerm": "CD40 Measurement", "submissionValue": "CD40", "synonyms": ["CD40"]}, {"conceptId": "C82007", "definition": "A count of the CD40 ligand cells per unit in a biological specimen.", "preferredTerm": "CD40 Ligand Measurement", "submissionValue": "CD40L", "synonyms": ["CD40 Ligand"]}, {"conceptId": "C122106", "definition": "A relative measurement (ratio or percentage) of CD45 expressing cells to all lymphocytes in a biological specimen.", "preferredTerm": "CD45 to Lymphocyte Ratio Measurement", "submissionValue": "CD45LY", "synonyms": ["CD45/Lymphocytes"]}, {"conceptId": "C122107", "definition": "A relative measurement (ratio or percentage) of CD45RA expressing cells to all lymphocytes in a biological specimen.", "preferredTerm": "CD45RA to Lymphocyte Ratio Measurement", "submissionValue": "CD45RALY", "synonyms": ["CD45RA/Lymphocytes"]}, {"conceptId": "C103814", "definition": "A relative measurement (ratio or percentage) of CD4 expressing cells to the CD8 expressing cells in a biological specimen.", "preferredTerm": "CD4 Cell to CD8 Cell Ratio Measurement", "submissionValue": "CD4CD8", "synonyms": ["CD4/CD8"]}, {"conceptId": "C103815", "definition": "A relative measurement (ratio or percentage) of CD4 expressing cells to all lymphocytes in a biological specimen.", "preferredTerm": "CD4 Cell to Lymphocyte Ratio Measurement", "submissionValue": "CD4LY", "synonyms": ["CD4/Lymphocytes"]}, {"conceptId": "C103369", "definition": "A count of the CD5 expressing cells per unit of a biological specimen.", "preferredTerm": "CD5 Expressing Cell Measurement", "submissionValue": "CD5", "synonyms": ["CD5"]}, {"conceptId": "C103370", "definition": "A count of the CD56 expressing cells per unit of a biological specimen.", "preferredTerm": "CD56 Expressing Cell Measurement", "submissionValue": "CD56", "synonyms": ["CD56"]}, {"conceptId": "C111152", "definition": "A measurement of the CD79A expressing cells per unit in a biological specimen.", "preferredTerm": "CD79A Expressing Cell Count", "submissionValue": "CD79A", "synonyms": ["CD79A"]}, {"conceptId": "C103811", "definition": "A count of the CD8 expressing cells per unit in a biological specimen.", "preferredTerm": "CD8 Expressing Cell Count", "submissionValue": "CD8", "synonyms": ["CD8"]}, {"conceptId": "C103816", "definition": "A relative measurement (ratio or percentage) of CD8 expressing cells to all lymphocytes in a biological specimen.", "preferredTerm": "CD8 Cell to Lymphocyte Ratio Measurement", "submissionValue": "CD8LY", "synonyms": ["CD8/Lymphocytes"]}, {"conceptId": "C103381", "definition": "A measurement of the Clostridium difficile toxin in a biological specimen.", "preferredTerm": "Clostridium difficile Toxin Measurement", "submissionValue": "CDFTXN", "synonyms": ["Clostridium difficile Toxin"]}, {"conceptId": "C101016", "definition": "A measurement of transferrin with a reduced number of carbohydrate moieties in a biological specimen.", "preferredTerm": "Carbohydrate-Deficient Transferrin Measurement", "submissionValue": "CDT", "synonyms": ["Carbohydrate-Deficient Transferrin"]}, {"conceptId": "C125943", "definition": "A relative measurement (ratio or percentage) of the carbohydrate-deficient transferrin to total transferrin in a biological specimen.", "preferredTerm": "Carbohydrate-Deficient Transferrin to Transferrin Ratio Measurement", "submissionValue": "CDTTFRN", "synonyms": ["Carb-Deficient Transferrin/Transferrin"]}, {"conceptId": "C81983", "definition": "A measurement of the carcinoembryonic antigen in a biological specimen.", "preferredTerm": "Carcinoembryonic Antigen Measurement", "submissionValue": "CEA", "synonyms": ["Carcinoembryonic Antigen"]}, {"conceptId": "C96592", "definition": "A measurement of the circulating endothelial cells in a biological specimen.", "preferredTerm": "Circulating Endothelial Cell Count", "submissionValue": "CEC", "synonyms": ["Circulating Endothelial Cells"]}, {"conceptId": "C111234", "definition": "A relative measurement (ratio or percentage) of the immature hematopoietic cells to total cells in a biological specimen.", "preferredTerm": "Immature Cell to Total Cell Ratio Measurement", "submissionValue": "CEIMCE", "synonyms": ["Immature Cells/Total Cells"]}, {"conceptId": "C48938", "definition": "A measurement of the total cells in a biological specimen.", "preferredTerm": "Cell Count", "submissionValue": "CELLS", "synonyms": ["Cells"]}, {"conceptId": "C96672", "definition": "A measurement of the total immature cells in a blood specimen.", "preferredTerm": "Immature Cell Count", "submissionValue": "CELLSIM", "synonyms": ["Immature Cells"]}, {"conceptId": "C111153", "definition": "A measurement of the degree, quality or condition of cells in a biological specimen.", "preferredTerm": "Cellularity Measurement", "submissionValue": "CELLULAR", "synonyms": ["Cellularity", "Cellularity Grade"]}, {"conceptId": "C17768", "definition": "An examination or assessment of the form and structure of cells.", "preferredTerm": "Cellular Morphology", "submissionValue": "CEMORPH", "synonyms": ["Cell Morphology"]}, {"conceptId": "C111154", "definition": "A measurement of centromere B antibodies in a biological specimen.", "preferredTerm": "Centromere B Antibody Measurement", "submissionValue": "CENTROAB", "synonyms": ["Centromere B Antibodies"]}, {"conceptId": "C120632", "definition": "A measurement of the cholesteryl ester transfer protein in a biological specimen.", "preferredTerm": "Cholesteryl Ester Transfer Protein Measurement", "submissionValue": "CETP", "synonyms": ["Cholesteryl Ester Transfer Protein"]}, {"conceptId": "C103380", "definition": "A measurement of the biological activity of cholesteryl ester transfer protein in a biological specimen.", "preferredTerm": "Cholesteryl Ester Transfer Protein Activity Measurement", "submissionValue": "CETPA", "synonyms": ["Cholesteryl Ester Transfer Protein Act"]}, {"conceptId": "C122108", "definition": "A measurement of the chromogranin A in a biological specimen.", "preferredTerm": "Chromogranin A Measurement", "submissionValue": "CGA", "synonyms": ["Chromogranin A"]}, {"conceptId": "C161374", "definition": "A measurement of choriogonadotropin, which has been adjusted for maternal body weight, in a biological specimen.", "preferredTerm": "Choriogonadotropin Adjusted for Maternal Weight Measurement", "submissionValue": "CGADJMW", "synonyms": ["Choriogonadotropin Adj for Maternal Wt", "Choriogonadotropin Adjusted for Maternal Weight"]}, {"conceptId": "C111165", "definition": "A measurement of the cyclic guanosine 3,5-monophosphate in a biological specimen.", "preferredTerm": "Cyclic Guanosine Monophosphate Measurement", "submissionValue": "CGMP", "synonyms": ["Cyclic Guanosine Monophosphate"]}, {"conceptId": "C147317", "definition": "A measurement of the complement required to lyse 100 percent of red blood cells in a biological specimen.", "preferredTerm": "Complement CH100 Measurement", "submissionValue": "CH100", "synonyms": ["CH100", "Complement CH100"]}, {"conceptId": "C100423", "definition": "A measurement of the complement required to lyse 50 percent of red blood cells in a biological specimen.", "preferredTerm": "CH50 Measurement", "submissionValue": "CH50", "synonyms": ["CH50", "Complement CH50"]}, {"conceptId": "C139067", "definition": "A direct measurement of the concentration of hemoglobin within individual erythrocytes in a biological specimen, reported as a mean.", "preferredTerm": "Corpuscular Hemoglobin Concentration Mean", "submissionValue": "CHCM", "synonyms": ["Corpuscular HGB Concentration Mean"]}, {"conceptId": "C138970", "definition": "An indirect measurement of the average concentration of hemoglobin per reticulocyte in a biological specimen, calculated as the ratio of hemoglobin to hematocrit.", "preferredTerm": "Reticulocyte Corpuscular Hemoglobin Concentration Mean", "submissionValue": "CHCMR", "synonyms": ["Ret. Corpuscular HGB Concentration Mean", "Reticulocyte Corpuscular Hemoglobin Concentration Mean"]}, {"conceptId": "C139066", "definition": "A measurement of the mean erythrocyte hemoglobin content within an individual erythrocyte, calculated as the product of cell volume and cell hemoglobin concentration.", "preferredTerm": "Corpuscular Hemoglobin Content", "submissionValue": "CHCNT", "synonyms": ["CH", "Cellular Hemoglobin Content", "Corpuscular Hemoglobin Content"]}, {"conceptId": "C139068", "definition": "A measurement of the standard deviation of hemoglobin concentrations in erythrocytes in a biological specimen, calculated as the standard deviation of hemoglobin content divided by the mean hemoglobin content.", "preferredTerm": "Corpuscular Hemoglobin Concentration Distribution Width", "submissionValue": "CHDW", "synonyms": ["Corpuscular HGB Conc Distribution Width", "Corpuscular Hemoglobin Concentration Distribution Width"]}, {"conceptId": "C139069", "definition": "A measurement of the standard deviation of hemoglobin concentrations in reticulocytes in a biological specimen, calculated as the standard deviation of hemoglobin content divided by the mean hemoglobin content.", "preferredTerm": "Reticulocyte Corpuscular Hemoglobin Distribution Width", "submissionValue": "CHDWR", "synonyms": ["Ret Corpuscular HGB Conc Distr Width", "Reticulocyte Corpuscular Hemoglobin Distribution Width"]}, {"conceptId": "C135404", "definition": "A measurement of the Chikungunya virus antibody in a biological specimen.", "preferredTerm": "Chikungunya Virus Antibody Measurement", "submissionValue": "CHKAB", "synonyms": ["Chikungunya Virus Antibody"]}, {"conceptId": "C120633", "definition": "A measurement of the chylomicrons in a biological specimen.", "preferredTerm": "Chylomicrons Measurement", "submissionValue": "CHLMCRN", "synonyms": ["Chylomicrons"]}, {"conceptId": "C105586", "definition": "A measurement of the cholesterol in a biological specimen.", "preferredTerm": "Cholesterol Measurement", "submissionValue": "CHOL", "synonyms": ["Cholesterol", "Total Cholesterol"]}, {"conceptId": "C80171", "definition": "A relative measurement (ratio or percentage) of total cholesterol to high-density lipoprotein cholesterol (HDL-C) in a biological specimen.", "preferredTerm": "Cholesterol to HDL-Cholesterol Ratio Measurement", "submissionValue": "CHOLHDL", "synonyms": ["Cholesterol/HDL-Cholesterol"]}, {"conceptId": "C92289", "definition": "A measurement of the cholinesterase in a biological specimen.", "preferredTerm": "Cholinesterase Measurement", "submissionValue": "CHOLINES", "synonyms": ["Cholinesterase"]}, {"conceptId": "C156514", "definition": "A measurement of the 4-beta-hydroxycholesterol in a biological specimen.", "preferredTerm": "4-Beta-Hydroxycholesterol Measurement", "submissionValue": "CHOLOH4B", "synonyms": ["4-Beta-Hydroxycholesterol"]}, {"conceptId": "C147318", "definition": "A measurement of the chromatin antibodies in a biological specimen.", "preferredTerm": "Chromatin Antibody Measurement", "submissionValue": "CHRMTNAB", "synonyms": ["Chromatin Antibodies"]}, {"conceptId": "C111159", "definition": "A measurement of the total chymotrypsin in a biological specimen.", "preferredTerm": "Chymotrypsin Measurement", "submissionValue": "CHYTRYP", "synonyms": ["Chymotrypsin"]}, {"conceptId": "C127611", "definition": "A measurement of the circulating immune complexes in a biological specimen.", "preferredTerm": "Circulating Immune Complex Measurement", "submissionValue": "CIC", "synonyms": ["Circulating Immune Complexes"]}, {"conceptId": "C122109", "definition": "A measurement of the citrulline in a biological specimen.", "preferredTerm": "Citrulline Measurement", "submissionValue": "CIT", "synonyms": ["Citrulline"]}, {"conceptId": "C122110", "definition": "A relative measurement (ratio or percentage) of the citrate to creatinine in a biological specimen.", "preferredTerm": "Citrate to Creatinine Ratio Measurement", "submissionValue": "CITCREAT", "synonyms": ["Citrate/Creatinine", "Citric Acid/Creatinine"]}, {"conceptId": "C92248", "definition": "A measurement of the citrate in a biological specimen.", "preferredTerm": "Citrate Measurement", "submissionValue": "CITRATE", "synonyms": ["Citrate", "Citric Acid"]}, {"conceptId": "C64489", "definition": "A measurement of the total creatine kinase in a biological specimen.", "preferredTerm": "Creatine Kinase Measurement", "submissionValue": "CK", "synonyms": ["CPK", "Creatine Kinase"]}, {"conceptId": "C64490", "definition": "A measurement of the homozygous B-type creatine kinase in a biological specimen.", "preferredTerm": "Creatine Kinase BB Measurement", "submissionValue": "CKBB", "synonyms": ["Creatine Kinase BB"]}, {"conceptId": "C79466", "definition": "A relative measurement (ratio or percentage) of the BB-type creatine kinase to total creatine kinase in a biological specimen.", "preferredTerm": "Creatine Kinase BB to Total Creatine Kinase Ratio Measurement", "submissionValue": "CKBBCK", "synonyms": ["Creatine Kinase BB/Total Creatine Kinase"]}, {"conceptId": "C64491", "definition": "A measurement of the heterozygous MB-type creatine kinase in a biological specimen.", "preferredTerm": "Creatine Kinase MB Measurement", "submissionValue": "CKMB", "synonyms": ["Creatine Kinase MB"]}, {"conceptId": "C79441", "definition": "A relative measurement (ratio or percentage) of the MB-type creatine kinase to total creatine kinase in a biological specimen.", "preferredTerm": "Creatine Kinase MB to Total Creatine Kinase Ratio Measurement", "submissionValue": "CKMBCK", "synonyms": ["Creatine Kinase MB/Total Creatine Kinase"]}, {"conceptId": "C64494", "definition": "A measurement of the homozygous M-type creatine kinase in a biological specimen.", "preferredTerm": "Creatine Kinase MM Measurement", "submissionValue": "CKMM", "synonyms": ["Creatine Kinase MM"]}, {"conceptId": "C79442", "definition": "A relative measurement (ratio or percentage) of the MM-type creatine kinase to total creatine kinase in a biological specimen.", "preferredTerm": "Creatine Kinase MM to Total Creatine Kinase Ratio Measurement", "submissionValue": "CKMMCK", "synonyms": ["Creatine Kinase MM/Total Creatine Kinase"]}, {"conceptId": "C147319", "definition": "A relative measurement (ratio or percentage) of the macromolecular type 1 creatine kinase to total creatine kinase in a biological specimen.", "preferredTerm": "Macromolecular Type 1 Creatine Kinase to Total Creatine Kinase Ratio Measurement", "submissionValue": "CKMT1CK", "synonyms": ["CK, Macromolecular Type 1/Total CK", "Creatine Kinase, Macromolecular Type 1/Total Creatine Kinase"]}, {"conceptId": "C147320", "definition": "A relative measurement (ratio or percentage) of the macromolecular type 2 creatine kinase to total creatine kinase in a biological specimen.", "preferredTerm": "Macromolecular Type 2 Creatine Kinase to Total Creatine Kinase Ratio Measurement", "submissionValue": "CKMT2CK", "synonyms": ["CK, Macromolecular Type 2/Total CK", "Creatine Kinase, Macromolecular Type 2/Total Creatine Kinase"]}, {"conceptId": "C64495", "definition": "A measurement of the chloride in a biological specimen.", "preferredTerm": "Chloride Measurement", "submissionValue": "CL", "synonyms": ["Chloride"]}, {"conceptId": "C96594", "definition": "A measurement of the transparency of a biological specimen.", "preferredTerm": "Clarity Measurement", "submissionValue": "CLARITY", "synonyms": ["Clarity"]}, {"conceptId": "C106509", "definition": "A measurement of the volume of serum or plasma that would be cleared of chloride by excretion of urine for a specified unit of time (e.g. one minute).", "preferredTerm": "Chloride Clearance Measurement", "submissionValue": "CLCLR", "synonyms": ["Chloride Clearance"]}, {"conceptId": "C79440", "definition": "A relative measurement (ratio or percentage) of the chloride to creatinine in a biological specimen.", "preferredTerm": "Chloride to Creatinine Ratio Measurement", "submissionValue": "CLCREAT", "synonyms": ["Chloride/Creatinine"]}, {"conceptId": "C74848", "definition": "A measurement of the calcitonin hormone in a biological specimen.", "preferredTerm": "Calcitonin Measurement", "submissionValue": "CLCTONN", "synonyms": ["Calcitonin"]}, {"conceptId": "C74849", "definition": "A measurement of the calcitriol hormone in a biological specimen.", "preferredTerm": "Calcitriol Measurement", "submissionValue": "CLCTRIOL", "synonyms": ["Calcitriol"]}, {"conceptId": "C135405", "definition": "A relative measurement (ratio or percentage) of the columnar epithelial cells to non-squamous epithelial cells in a biological specimen.", "preferredTerm": "Columnar Epithelial Cells to Non-Squamous Epithelial Cells Ratio Measurement", "submissionValue": "CLEPNSQE", "synonyms": ["Columnar Epi Cells/Non-Squam Epi Cells"]}, {"conceptId": "C150816", "definition": "A measurement of the amount of chloride being excreted in a biological specimen over a defined period of time (e.g. one hour).", "preferredTerm": "Chloride Excretion Rate", "submissionValue": "CLEXR", "synonyms": ["Chloride Excretion Rate"]}, {"conceptId": "C139082", "definition": "A measurement of the clonazepam present in a biological specimen.", "preferredTerm": "Clonazepam Measurement", "submissionValue": "CLNZPM", "synonyms": ["Clonazepam"]}, {"conceptId": "C75371", "definition": "A measurement of the chlordiazepoxide present in a biological specimen.", "preferredTerm": "Chlordiazepoxide Measurement", "submissionValue": "CLRDZPXD", "synonyms": ["Chlordiazepoxide"]}, {"conceptId": "C139077", "definition": "A measurement of the clorazepate present in a biological specimen.", "preferredTerm": "Clorazepate Measurement", "submissionValue": "CLRZPT", "synonyms": ["Clorazepate"]}, {"conceptId": "C102261", "definition": "A measurement of the clue cells in a biological specimen.", "preferredTerm": "Clue Cell Count", "submissionValue": "CLUECE", "synonyms": ["Clue Cells"]}, {"conceptId": "C139084", "definition": "A measurement of the carbon monoxide in a biological specimen.", "preferredTerm": "Carbon Monoxide Measurement", "submissionValue": "CMONOX", "synonyms": ["Carbon Monoxide"]}, {"conceptId": "C96596", "definition": "A measurement of the cytomegalovirus IgG antibody in a biological specimen.", "preferredTerm": "Cytomegalovirus IgG Antibody Measurement", "submissionValue": "CMVIGGAB", "synonyms": ["Cytomegalovirus IgG Antibody"]}, {"conceptId": "C96597", "definition": "A measurement of the cytomegalovirus IgM antibody in a biological specimen.", "preferredTerm": "Cytomegalovirus IgM Antibody Measurement", "submissionValue": "CMVIGMAB", "synonyms": ["Cytomegalovirus IgM Antibody"]}, {"conceptId": "C122111", "definition": "A measurement of the centromere IgG antibody in a biological specimen.", "preferredTerm": "Centromere IgG Antibody Measurement", "submissionValue": "CNTIGGAB", "synonyms": ["Centromere IgG Antibody", "Centromere Protein B"]}, {"conceptId": "C64545", "definition": "A measurement of the carbon dioxide gas in a biological specimen.", "preferredTerm": "Carbon Dioxide Measurement", "submissionValue": "CO2", "synonyms": ["Carbon Dioxide"]}, {"conceptId": "C112239", "definition": "A measurement of the efficiency of coagulation of a biological specimen. This is calculated by a mathematical formula that takes into account the R value, K value, angle and maximum amplitude of clot formation.", "preferredTerm": "Coagulation Index Measurement", "submissionValue": "COAGIDX", "synonyms": ["CI", "Coagulation Index"]}, {"conceptId": "C156510", "definition": "A measurement of the cocaethylene present in a biological specimen.", "preferredTerm": "Cocaethylene Measurement", "submissionValue": "COCAETH", "synonyms": ["Cocaethylene", "Cocaine Ethyl"]}, {"conceptId": "C74690", "definition": "A measurement of the cocaine present in a biological specimen.", "preferredTerm": "Cocaine Measurement", "submissionValue": "COCAINE", "synonyms": ["Cocaine"]}, {"conceptId": "C142274", "definition": "A measurement of the cocaine, benzoylecgonine, and/or ecgonine in a biological specimen.", "preferredTerm": "Cocaine, Benzoylecgonine, and/or Ecgonine Measurement", "submissionValue": "COCBNZEC", "synonyms": ["Cocaine Benzoylecgonine Ecgonine"]}, {"conceptId": "C111160", "definition": "A measurement of the coccidioides antibody in a biological specimen.", "preferredTerm": "Coccidioides Antibody Measurement", "submissionValue": "COCCAB", "synonyms": ["Coccidioides Antibody"]}, {"conceptId": "C74877", "definition": "A measurement of the codeine present in a biological specimen.", "preferredTerm": "Codeine Measurement", "submissionValue": "CODEINE", "synonyms": ["Codeine"]}, {"conceptId": "C103383", "definition": "A measurement of the collagen type IV in a biological specimen.", "preferredTerm": "Collagen Type IV Measurement", "submissionValue": "COL4", "synonyms": ["Collagen Type IV"]}, {"conceptId": "C64546", "definition": "A measurement of the color of a biological specimen.", "preferredTerm": "Color Assessment", "submissionValue": "COLOR", "synonyms": ["Color"]}, {"conceptId": "C111145", "definition": "A measurement of the cartilage oligomeric matrix protein in a biological specimen.", "preferredTerm": "Cartilage Oligomeric Matrix Protein Measurement", "submissionValue": "COMP", "synonyms": ["Cartilage Oligomeric Matrix Protein"]}, {"conceptId": "C102282", "definition": "A measurement of the urine conductivity which is a non-linear function of the electrolyte concentration in the urine.", "preferredTerm": "Urine Conductivity", "submissionValue": "CONDUCTU", "synonyms": ["Urine Conductivity"]}, {"conceptId": "C95110", "definition": "A description about the firmness or make-up of an entity.", "preferredTerm": "Consistency", "submissionValue": "CONSIST", "synonyms": ["Consistency"]}, {"conceptId": "C127612", "definition": "A measurement of the copeptin in a biological specimen.", "preferredTerm": "Copeptin Measurement", "submissionValue": "COPEP", "synonyms": ["Copeptin"]}, {"conceptId": "C111161", "definition": "A measurement of copper in a biological specimen.", "preferredTerm": "Copper Measurement", "submissionValue": "COPPER", "synonyms": ["Copper", "Cu"]}, {"conceptId": "C147321", "definition": "A measurement of the ubiquinone 10 in a biological specimen.", "preferredTerm": "Ubiquinone 10 Measurement", "submissionValue": "COQ10", "synonyms": ["Coenzyme Q10", "Ubiquinone 10"]}, {"conceptId": "C106512", "definition": "A relative measurement (ratio or percentage) of the cortisol to creatinine present in a sample.", "preferredTerm": "Cortisol to Creatinine Ratio Measurement", "submissionValue": "CORCREAT", "synonyms": ["Cortisol/Creatinine"]}, {"conceptId": "C88113", "definition": "A measurement of the free, unbound cortisol in a biological specimen.", "preferredTerm": "Free Cortisol Measurement", "submissionValue": "CORTFR", "synonyms": ["Cortisol, Free"]}, {"conceptId": "C74781", "definition": "A measurement of the cortisol in a biological specimen.", "preferredTerm": "Cortisol Measurement", "submissionValue": "CORTISOL", "synonyms": ["Cortisol", "Total Cortisol"]}, {"conceptId": "C92249", "definition": "A measurement of the cotinine in a biological specimen.", "preferredTerm": "Cotinine Measurement", "submissionValue": "COTININE", "synonyms": ["Cotinine"]}, {"conceptId": "C150837", "definition": "A relative measurement (ratio or percentage) of the C-peptide to creatinine in a biological specimen.", "preferredTerm": "C-peptide to Creatinine Ratio Measurement", "submissionValue": "CPEPCRT", "synonyms": ["C-peptide/Creatinine"]}, {"conceptId": "C74736", "definition": "A measurement of the C (connecting) peptide of insulin in a biological specimen.", "preferredTerm": "C-peptide Measurement", "submissionValue": "CPEPTIDE", "synonyms": ["C-peptide"]}, {"conceptId": "C92432", "definition": "A measurement of the Chlamydia pneumoniae IgA antibody in a biological specimen.", "preferredTerm": "Chlamydia pneumoniae IgA Antibody Measurement", "submissionValue": "CPNIGAAB", "synonyms": ["Chlamydia pneumoniae IgA Antibody"]}, {"conceptId": "C92433", "definition": "A measurement of the Chlamydia pneumoniae IgM in a biological specimen.", "preferredTerm": "Chlamydia pneumoniae IgM Antibody Measurement", "submissionValue": "CPNIGMAB", "synonyms": ["Chlamydia pneumoniae IgM Antibody"]}, {"conceptId": "C147322", "definition": "A measurement of the carbamazepine in a biological specimen.", "preferredTerm": "Carbamazepine Measurement", "submissionValue": "CRBMZPN", "synonyms": ["Carbamazepine"]}, {"conceptId": "C122112", "definition": "A measurement of the cardiolipin IgA antibody in a biological specimen.", "preferredTerm": "Cardiolipin IgA Antibody Measurement", "submissionValue": "CRDIGAAB", "synonyms": ["Cardiolipin IgA Antibody"]}, {"conceptId": "C111144", "definition": "A measurement of the cardiolipin IgG antibody in a biological specimen.", "preferredTerm": "Cardiolipin IgG Antibody Measurement", "submissionValue": "CRDIGGAB", "synonyms": ["Anti-Cardiolipin IgG Antibody", "Cardiolipin IgG Antibody"]}, {"conceptId": "C103363", "definition": "A measurement of the cardiolipin IgM antibodies in a biological specimen.", "preferredTerm": "Cardiolipin IgM Antibody Measurement", "submissionValue": "CRDIGMAB", "synonyms": ["Cardiolipin IgM Antibody"]}, {"conceptId": "C64547", "definition": "A measurement of the creatinine in a biological specimen.", "preferredTerm": "Creatinine Measurement", "submissionValue": "CREAT", "synonyms": ["Creatinine"]}, {"conceptId": "C25747", "definition": "A measurement of the volume of serum or plasma that would be cleared of creatinine by excretion of urine for a specified unit of time (e.g. one minute).", "preferredTerm": "Creatinine Clearance", "submissionValue": "CREATCLR", "synonyms": ["Creatinine Clearance"]}, {"conceptId": "C150817", "definition": "A measurement of the amount of creatinine being excreted in a biological specimen over a defined amount of time (e.g. one hour).", "preferredTerm": "Creatinine Excretion Rate", "submissionValue": "CREATEXR", "synonyms": ["Creatinine Excretion Rate"]}, {"conceptId": "C74703", "definition": "A measurement of the Burr cells (erythrocytes characterized by the presence of multiple small, sharp projections evenly distributed across the cell surface) in a biological specimen.", "preferredTerm": "Crenated Cell Measurement", "submissionValue": "CRENCE", "synonyms": ["Crenated Cells", "Echinocytes"]}, {"conceptId": "C74851", "definition": "A measurement of the corticotropin releasing hormone in a biological specimen.", "preferredTerm": "Corticotropin Releasing Hormone Measurement", "submissionValue": "CRH", "synonyms": ["Corticotropin Releasing Factor", "Corticotropin Releasing Hormone"]}, {"conceptId": "C100432", "definition": "A measurement of ceruloplasmin in a biological specimen.", "preferredTerm": "Ceruloplasmin Measurement", "submissionValue": "CRLPLSMN", "synonyms": ["Caeruloplasmin", "Ceruloplasmin"]}, {"conceptId": "C147323", "definition": "A measurement of the total carnitine esters in a biological specimen.", "preferredTerm": "Carnitine Ester Measurement", "submissionValue": "CRNTESTR", "synonyms": ["Carnitine Esters"]}, {"conceptId": "C64548", "definition": "A measurement of the C reactive protein in a biological specimen.", "preferredTerm": "C-Reactive Protein Measurement", "submissionValue": "CRP", "synonyms": ["C Reactive Protein"]}, {"conceptId": "C147324", "definition": "A measurement of the volume of serum or plasma that would be cleared of creatinine by excretion of urine for a specified unit of time (e.g. one minute), adjusted for body surface area.", "preferredTerm": "Creatinine Clearance Adjusted for BSA", "submissionValue": "CRTCLRBS", "synonyms": ["Creatinine Clearance Adjusted for BSA"]}, {"conceptId": "C150847", "definition": "An estimate of the volume of serum or plasma that would be cleared of creatinine by excretion of urine for a specified unit of time (e.g. one minute).", "preferredTerm": "Estimated Creatinine Clearance", "submissionValue": "CRTCLRE", "synonyms": ["Creatinine Clearance, Estimated"]}, {"conceptId": "C106511", "definition": "A relative measurement (ratio or percentage) of the corticosterone to creatinine present in a sample.", "preferredTerm": "Corticosterone to Creatinine Ratio Measurement", "submissionValue": "CRTCREAT", "synonyms": ["Corticosterone/Creatinine"]}, {"conceptId": "C79434", "definition": "A measurement of corticosterone in a biological specimen.", "preferredTerm": "Corticosterone Measurement", "submissionValue": "CRTRONE", "synonyms": ["Corticosterone"]}, {"conceptId": "C147325", "definition": "A relative measurement (ratio or percentage) of the volume of cryoglobulin to total serum volume in a biological specimen.", "preferredTerm": "Cryoglobulin Volume to Serum Volume Ratio Measurement", "submissionValue": "CRYGLBSR", "synonyms": ["Cryoglobulin Volume/Serum Volume"]}, {"conceptId": "C147326", "definition": "A measurement of the cryofibrinogen in a biological specimen.", "preferredTerm": "Cryofibrinogen Measurement", "submissionValue": "CRYOFBRN", "synonyms": ["Cryofibrinogen"]}, {"conceptId": "C111164", "definition": "A measurement of cryoglobulin in a biological specimen.", "preferredTerm": "Cryoglobulin Measurement", "submissionValue": "CRYOGLBN", "synonyms": ["Cryoglobulin"]}, {"conceptId": "C74673", "definition": "A statement that indicates crystals were looked for in a biological specimen.", "preferredTerm": "Crystal Present Or Absent", "submissionValue": "CRYSTALS", "synonyms": ["Crystals"]}, {"conceptId": "C120634", "definition": "A measurement of the total cathepsin antibody in a biological specimen.", "preferredTerm": "Cathepsin Antibody Measurement", "submissionValue": "CSAB", "synonyms": ["Cathepsin Antibody"]}, {"conceptId": "C74762", "definition": "A measurement of the bacterial casts present in a biological specimen.", "preferredTerm": "Bacterial Cast Measurement", "submissionValue": "CSBACT", "synonyms": ["Bacterial Casts"]}, {"conceptId": "C96588", "definition": "A measurement of the broad casts in a biological specimen.", "preferredTerm": "Broad Casts Measurement", "submissionValue": "CSBROAD", "synonyms": ["Broad Casts"]}, {"conceptId": "C74764", "definition": "A measurement of the cellular (white blood cell, red blood cell, epithelial and bacterial) casts present in a biological specimen.", "preferredTerm": "Cellular Cast Measurement", "submissionValue": "CSCELL", "synonyms": ["Cellular Casts"]}, {"conceptId": "C150838", "definition": "A measurement of cylindroid casts (casts with a tapering end) in a biological specimen.", "preferredTerm": "Cylindroid Cast Measurement", "submissionValue": "CSCYL", "synonyms": ["Cylindroid Casts", "Cylindroid Pseudocasts"]}, {"conceptId": "C74779", "definition": "A measurement of the epithelial cell casts present in a biological specimen.", "preferredTerm": "Epithelial-Cast Measurement", "submissionValue": "CSEPI", "synonyms": ["Epithelial Casts"]}, {"conceptId": "C112220", "definition": "A measurement of the 846 epitope present on the chondroitin sulfate chains of aggrecan in a biological specimen.", "preferredTerm": "Aggrecan Chondroitin Sulfate Epitope 846 Measurement", "submissionValue": "CSEPI846", "synonyms": ["846-Epitope", "Aggrecan Chondroitin Sulfate Epitope 846", "CS846", "Chondroitin Sulfate Epitope 846", "Chondroitin Sulfate Proteoglycan 1 Epitope 846"]}, {"conceptId": "C74766", "definition": "A measurement of the fatty casts present in a biological specimen.", "preferredTerm": "Fatty Cast Measurement", "submissionValue": "CSFAT", "synonyms": ["Fatty Casts"]}, {"conceptId": "C154735", "definition": "A relative measurement (ratio) of the IgG to albumin in cerebrospinal fluid to the IgG to albumin in serum.", "preferredTerm": "IgG Index", "submissionValue": "CSFIGIDX", "synonyms": ["CSF IgG Index", "CSF Index", "IgG Index"]}, {"conceptId": "C74768", "definition": "A measurement of the granular (coarse and fine) casts present in a biological specimen.", "preferredTerm": "Granular Cast Measurement", "submissionValue": "CSGRAN", "synonyms": ["Granular Casts"]}, {"conceptId": "C74765", "definition": "A measurement of the coarse granular casts present in a biological specimen.", "preferredTerm": "Coarse Granular Cast Measurement", "submissionValue": "CSGRANC", "synonyms": ["Granular Coarse Casts"]}, {"conceptId": "C74769", "definition": "A measurement of the fine granular casts present in a biological specimen.", "preferredTerm": "Granular Fine Cast Measurement", "submissionValue": "CSGRANF", "synonyms": ["Granular Fine Casts"]}, {"conceptId": "C74770", "definition": "A measurement of the hyaline casts present in a biological specimen.", "preferredTerm": "Hyaline Cast Measurement", "submissionValue": "CSHYAL", "synonyms": ["Hyaline Casts"]}, {"conceptId": "C74771", "definition": "A measurement of the mixed (the cast contains a mixture of cell types) casts present in a biological specimen.", "preferredTerm": "Mixed Cast Count", "submissionValue": "CSMIX", "synonyms": ["Mixed Casts"]}, {"conceptId": "C74772", "definition": "A measurement of the red blood cell casts present in a biological specimen.", "preferredTerm": "Red Blood Cell Cast Measurement", "submissionValue": "CSRBC", "synonyms": ["Erythrocyte Casts", "RBC Casts"]}, {"conceptId": "C74776", "definition": "A measurement of the unclassifiable casts present in a biological specimen.", "preferredTerm": "Unclassified Cast Measurement", "submissionValue": "CSUNCLA", "synonyms": ["Unclassified Casts"]}, {"conceptId": "C74777", "definition": "A measurement of the waxy casts present in a biological specimen.", "preferredTerm": "Waxy Cell Cast Measurement", "submissionValue": "CSWAX", "synonyms": ["Waxy Casts"]}, {"conceptId": "C74778", "definition": "A measurement of the white blood cell casts present in a biological specimen.", "preferredTerm": "White Blood Cell Cast Measurement", "submissionValue": "CSWBC", "synonyms": ["WBC Casts"]}, {"conceptId": "C116194", "definition": "A measurement of the cholera toxin B subunit IgG antibody in a biological specimen.", "preferredTerm": "Cholera Toxin B Subunit IgG Antibody Measurement", "submissionValue": "CTBIGGAB", "synonyms": ["Cholera Toxin B Subunit IgG Antibody"]}, {"conceptId": "C96593", "definition": "A measurement of the circulating tumor cells in a biological specimen.", "preferredTerm": "Circulating Tumor Cell Count", "submissionValue": "CTC", "synonyms": ["Circulating Tumor Cells"]}, {"conceptId": "C147327", "definition": "A measurement of the citalopram present in a biological specimen.", "preferredTerm": "Citalopram Measurement", "submissionValue": "CTLPRM", "synonyms": ["Citalopram"]}, {"conceptId": "C80160", "definition": "A measurement of the total complement in a biological specimen.", "preferredTerm": "Complement Measurement", "submissionValue": "CTOT", "synonyms": ["Complement Total"]}, {"conceptId": "C100464", "definition": "A measurement of the Chlamydia trachomatis IgA antibody in a biological specimen.", "preferredTerm": "Chlamydia trachomatis IgA Antibody Measurement", "submissionValue": "CTRIGAAB", "synonyms": ["Chlamydia trachomatis IgA Antibody"]}, {"conceptId": "C100466", "definition": "A measurement of the Chlamydia trachomatis IgG antibody in a biological specimen.", "preferredTerm": "Chlamydia trachomatis IgG Antibody Measurement", "submissionValue": "CTRIGGAB", "synonyms": ["Chlamydia trachomatis IgG Antibody"]}, {"conceptId": "C100465", "definition": "A measurement of the Chlamydia trachomatis IgM antibody in a biological specimen.", "preferredTerm": "Chlamydia trachomatis IgM Antibody Measurement", "submissionValue": "CTRIGMAB", "synonyms": ["Chlamydia trachomatis IgM Antibody"]}, {"conceptId": "C103382", "definition": "A measurement of the Clostridium tetani IgG antibody in a biological specimen.", "preferredTerm": "Clostridium tetani IgG Antibody Measurement", "submissionValue": "CTTIGGAB", "synonyms": ["Clostridium tetani IgG Antibody"]}, {"conceptId": "C82038", "definition": "A measurement of the type I collagen cross-linked C-telopeptides in a biological specimen.", "preferredTerm": "Type I Collagen C-Telopeptide Measurement", "submissionValue": "CTXI", "synonyms": ["Type I Collagen C-Telopeptides", "Type I Collagen X-linked C-telopeptide"]}, {"conceptId": "C127613", "definition": "A relative measurement (ratio or percentage) of the type I collagen cross-linked C-telopeptides to creatinine in a biological specimen.", "preferredTerm": "Type I Collagen C-Telopeptide to Creatinine Ratio Measurement", "submissionValue": "CTXICRT", "synonyms": ["Type I Collagen C-Telopeptides/Creat", "Type I Collagen X-Linked C-Telopeptides/Creatinine"]}, {"conceptId": "C135406", "definition": "A measurement of the Clostridium tetani toxoid IgG antibody in a biological specimen.", "preferredTerm": "Clostridium tetani Toxoid IgG Antibody Measurement", "submissionValue": "CTXIGGAB", "synonyms": ["Clostridium tetani Toxoid IgG Antibody"]}, {"conceptId": "C82040", "definition": "A measurement of the type II collagen cross-linked C-telopeptides in a biological specimen.", "preferredTerm": "Type II Collagen C-Telopeptide Measurement", "submissionValue": "CTXII", "synonyms": ["Type II Collagen C-Telopeptides", "Type II Collagen X-Linked C-Telopeptides"]}, {"conceptId": "C122113", "definition": "A relative measurement (ratio or percentage) of the type II collagen cross-linked C-telopeptides to creatinine in a biological specimen.", "preferredTerm": "Type II Collagen C-Telopeptides to Creatinine Ratio Measurement", "submissionValue": "CTXIICRT", "synonyms": ["Type II Collagen C-Telopeptides/Creat", "Type II Collagen X-Linked C-Telopeptides/Creatinine"]}, {"conceptId": "C161361", "definition": "A measurement of the chemokine (C-X3-C motif) ligand 1 in a biological specimen.", "preferredTerm": "Chemokine (C-X3-C Motif) Ligand 1 Measurement", "submissionValue": "CX3CL1", "synonyms": ["Chemokine (C-X3-C motif) Ligand 1", "Fractalkine", "Neurotactin"]}, {"conceptId": "C128952", "definition": "A measurement of the CXCL1, chemokine (C-X-C motif) ligand 1, in a biological specimen.", "preferredTerm": "Chemokine (C-X-C Motif) Ligand 1 Measurement", "submissionValue": "CXCL1", "synonyms": ["Chemokine (C-X-C Motif) Ligand 1", "GRO Alpha", "GRO/KC", "Melanoma Growth Stimulating Activity, Alpha"]}, {"conceptId": "C112238", "definition": "A measurement of the CXCL10, chemokine (C-X-C motif) ligand 10, in a biological specimen.", "preferredTerm": "Chemokine (C-X-C Motif) Ligand 10 Measurement", "submissionValue": "CXCL10", "synonyms": ["Chemokine (C-X-C Motif) Ligand 10", "IP-10", "Interferon Gamma-induced Protein 10", "Small-inducible Cytokine B10"]}, {"conceptId": "C161360", "definition": "A measurement of the chemokine (C-X-C motif) ligand 11 in a biological specimen.", "preferredTerm": "Chemokine (C-X-C Motif) Ligand 11 Measurement", "submissionValue": "CXCL11", "synonyms": ["Chemokine (C-X-C Motif) Ligand 11", "I-TAC", "IFN-inducible T Cell Alpha Chemoattractant", "ITAC"]}, {"conceptId": "C147328", "definition": "A measurement of the CXCL13, chemokine (C-X-C motif) ligand 13, in a biological specimen.", "preferredTerm": "Chemokine (C-X-C Motif) Ligand 13 Measurement", "submissionValue": "CXCL13", "synonyms": ["B Lymphocyte Chemoattractant", "Chemokine (C-X-C Motif) Ligand 13"]}, {"conceptId": "C147329", "definition": "A measurement of the CXCL3, chemokine (C-X-C motif) ligand 3, in a biological specimen.", "preferredTerm": "Chemokine (C-X-C Motif) Ligand 3 Measurement", "submissionValue": "CXCL3", "synonyms": ["Chemokine (C-X-C Motif) Ligand 3", "GRO Gamma", "MIP2 Beta", "MIP2B", "Macrophage Inflammatory Protein 2-Beta"]}, {"conceptId": "C147330", "definition": "A measurement of the CXCL4, chemokine (C-X-C motif) ligand 4, in a biological specimen.", "preferredTerm": "Chemokine (C-X-C Motif) Ligand 4 Measurement", "submissionValue": "CXCL4", "synonyms": ["Chemokine (C-X-C Motif) Ligand 4", "Oncostatin A", "PLF4", "Platelet Factor 4"]}, {"conceptId": "C130159", "definition": "A measurement of the CXCL6, chemokine (C-X-C motif) ligand 6, in a biological specimen.", "preferredTerm": "Chemokine (C-X-C Motif) Ligand 6 Measurement", "submissionValue": "CXCL6", "synonyms": ["Chemokine (C-X-C Motif) Ligand 6", "GCP2", "Granulocyte Chemotactic Protein 2"]}, {"conceptId": "C100431", "definition": "A measurement of the CXCR3, chemokine (C-X-C motif) receptor 3, in a biological specimen.", "preferredTerm": "Chemokine Receptor CXCR3 Measurement", "submissionValue": "CXCR3", "synonyms": ["CD183", "CXCR3", "Chemokine (C-X-C Motif) Receptor 3", "GPR9"]}, {"conceptId": "C105590", "definition": "A measurement of the ammonium biurate crystals present in a biological specimen.", "preferredTerm": "Ammonium Biurate Crystals Measurement", "submissionValue": "CYAMMBIU", "synonyms": ["Acid Ammonium Urate Crystals", "Ammonium Biurate Crystals", "Ammonium Urate Crystals"]}, {"conceptId": "C74759", "definition": "A measurement of the ammonium oxalate crystals present in a urine specimen.", "preferredTerm": "Urine Ammonium Oxalate Crystal Measurement", "submissionValue": "CYAMMOX", "synonyms": ["Ammonium Oxalate Crystals"]}, {"conceptId": "C74665", "definition": "A measurement of the amorphous (Note: phosphate or urate, depending on pH) crystals present in a biological specimen.", "preferredTerm": "Amorphous Crystal Measurement", "submissionValue": "CYAMORPH", "synonyms": ["Amorphous Crystals"]}, {"conceptId": "C92243", "definition": "A measurement of the amorphous phosphate crystals in a biological specimen.", "preferredTerm": "Amorphous Phosphate Crystals Measurement", "submissionValue": "CYAMPPH", "synonyms": ["Amorphous Phosphate Crystals"]}, {"conceptId": "C92244", "definition": "A measurement of the amorphous urate crystals in a biological specimen.", "preferredTerm": "Amorphous Urate Crystals Measurement", "submissionValue": "CYAMPURT", "synonyms": ["Amorphous Urate Crystals"]}, {"conceptId": "C74668", "definition": "A measurement of the bilirubin crystals present in a biological specimen.", "preferredTerm": "Bilirubin Crystal Measurement", "submissionValue": "CYBILI", "synonyms": ["Bilirubin Crystals"]}, {"conceptId": "C74669", "definition": "A measurement of the calcium carbonate crystals present in a biological specimen.", "preferredTerm": "Calcium Carbonate Crystal Measurement", "submissionValue": "CYCACAR", "synonyms": ["Calcium Carbonate Crystals"]}, {"conceptId": "C74670", "definition": "A measurement of the calcium oxalate crystals present in a biological specimen.", "preferredTerm": "Calcium Oxalate Crystal Measurement", "submissionValue": "CYCAOXA", "synonyms": ["Calcium Oxalate Crystals"]}, {"conceptId": "C74671", "definition": "A measurement of the calcium phosphate crystals present in a biological specimen.", "preferredTerm": "Calcium Phosphate Crystal Measurement", "submissionValue": "CYCAPHOS", "synonyms": ["Calcium Phosphate Crystals"]}, {"conceptId": "C124340", "definition": "A measurement of the calcium sulfate crystals present in a biological specimen.", "preferredTerm": "Calcium Sulfate Crystals Measurement", "submissionValue": "CYCASULF", "synonyms": ["Calcium Sulfate Crystals"]}, {"conceptId": "C74672", "definition": "A measurement of the cholesterol crystals present in a biological specimen.", "preferredTerm": "Cholesterol Crystal Measurement", "submissionValue": "CYCHOL", "synonyms": ["Cholesterol Crystals"]}, {"conceptId": "C74674", "definition": "A measurement of the cystine crystals present in a biological specimen.", "preferredTerm": "Cystine Crystal Measurement", "submissionValue": "CYCYSTIN", "synonyms": ["Cystine Crystals"]}, {"conceptId": "C135407", "definition": "A measurement of dicalcium phosphate crystals in a biological specimen.", "preferredTerm": "Dicalcium Phosphate Crystals Measurement", "submissionValue": "CYDCPHOS", "synonyms": ["Dicalcium Phosphate Crystals"]}, {"conceptId": "C156533", "definition": "A measurement of the drug crystals in a biological specimen.", "preferredTerm": "Drug Crystal Measurement", "submissionValue": "CYDRUG", "synonyms": ["Drug Crystals"]}, {"conceptId": "C130160", "definition": "A measurement of the cytokeratin 18 fragment in a biological specimen.", "preferredTerm": "Cytokeratin 18 Fragment Measurement", "submissionValue": "CYFRA18", "synonyms": ["Cytokeratin 18 Fragment"]}, {"conceptId": "C106514", "definition": "A measurement of the cytokeratin 19 fragment 21-1 in a biological specimen.", "preferredTerm": "Cytokeratin 19 Fragment 21-1 Measurement", "submissionValue": "CYFRA211", "synonyms": ["CYFRA21-1", "Cytokeratin 19 Fragment 21-1"]}, {"conceptId": "C112288", "definition": "A measurement of hemoglobin C crystals in a biological specimen.", "preferredTerm": "Hemoglobin C Crystals Measurement", "submissionValue": "CYHGBC", "synonyms": ["Hemoglobin C Crystals"]}, {"conceptId": "C74754", "definition": "A measurement of the hippuric acid crystals present in a biological specimen.", "preferredTerm": "Hippuric Acid Crystal Measurement", "submissionValue": "CYHIPPAC", "synonyms": ["Hippurate Crystals", "Hippuric Acid Crystals"]}, {"conceptId": "C74680", "definition": "A measurement of the leucine crystals present in a biological specimen.", "preferredTerm": "Leucine Crystal Measurement", "submissionValue": "CYLEUC", "synonyms": ["Leucine Crystals"]}, {"conceptId": "C74681", "definition": "A measurement of the monosodium urate crystals present in a biological specimen.", "preferredTerm": "Monosodium Urate Crystal Measurement", "submissionValue": "CYMSU", "synonyms": ["Monosodium Urate Crystals"]}, {"conceptId": "C161355", "definition": "A measurement of the cytochrome P450 2C9 enzyme in a biological specimen.", "preferredTerm": "Cytochrome P450 2C9 Measurement", "submissionValue": "CYP2C9", "synonyms": ["Cytochrome P450 2C9"]}, {"conceptId": "C161356", "definition": "A measurement of the cytochrome P450 2C9 enzyme activity in a biological specimen.", "preferredTerm": "Cytochrome P450 2C9 Activity Measurement", "submissionValue": "CYP2C9A", "synonyms": ["Cytochrome P450 2C9 Activity"]}, {"conceptId": "C106513", "definition": "A relative measurement (ratio or percentage) of the cystatin C to creatinine present in a sample.", "preferredTerm": "Cystatin C to Creatinine Ratio Measurement", "submissionValue": "CYSCREAT", "synonyms": ["Cystatin C/Creatinine"]}, {"conceptId": "C81951", "definition": "A measurement of the starch crystals in a biological specimen.", "preferredTerm": "Starch Crystal Measurement", "submissionValue": "CYSTARCH", "synonyms": ["Starch Crystals"]}, {"conceptId": "C92290", "definition": "A measurement of the cystatin C in a biological specimen.", "preferredTerm": "Cystatin C Measurement", "submissionValue": "CYSTATC", "synonyms": ["Cystatin C"]}, {"conceptId": "C147331", "definition": "A measurement of the cystathionine in a biological specimen.", "preferredTerm": "Cystathionine Measurement", "submissionValue": "CYSTHION", "synonyms": ["Cystathionine"]}, {"conceptId": "C105441", "definition": "A measurement of the cystine in a biological specimen.", "preferredTerm": "Cystine Measurement", "submissionValue": "CYSTINE", "synonyms": ["Cystine"]}, {"conceptId": "C74755", "definition": "A measurement of the sulfa crystals present in a biological specimen.", "preferredTerm": "Sulfa Crystal Measurement", "submissionValue": "CYSULFA", "synonyms": ["Sulfa Crystals", "Sulfonamide Crystals"]}, {"conceptId": "C74756", "definition": "A measurement of the triple phosphate crystals present in a biological specimen.", "preferredTerm": "Triple Phosphate Crystal Measurement", "submissionValue": "CYTRPHOS", "synonyms": ["Ammonium Magnesium Phosphate Crystals", "Struvite Crystals", "Triple Phosphate Crystals"]}, {"conceptId": "C74683", "definition": "A measurement of the tyrosine crystals present in a biological specimen.", "preferredTerm": "Tyrosine Crystal Measurement", "submissionValue": "CYTYRO", "synonyms": ["Tyrosine Crystals"]}, {"conceptId": "C74757", "definition": "A measurement of the unclassifiable crystals present in a biological specimen.", "preferredTerm": "Unclassified Crystal Measurement", "submissionValue": "CYUNCLA", "synonyms": ["Unclassified Crystals"]}, {"conceptId": "C74684", "definition": "A measurement of the uric acid crystals (including acid urate and urate crystals) present in a biological specimen.", "preferredTerm": "Uric Acid Crystal Measurement", "submissionValue": "CYURIAC", "synonyms": ["Acid Urate Crystals", "Uric Acid Crystals"]}, {"conceptId": "C156537", "definition": "A measurement of the delta aminolevulinic acid in a biological specimen.", "preferredTerm": "Delta Aminolevulinate Measurement", "submissionValue": "DALA", "synonyms": ["5-Aminolevulinic Acid", "5ALA", "Delta Aminolevulinate", "Delta Aminolevulinic Acid", "dALA"]}, {"conceptId": "C156538", "definition": "A relative measurement (ratio or percentage) of the delta aminolevulinate to creatinine in a biological specimen.", "preferredTerm": "Delta Aminolevulinate to Creatinine Ratio Measurement", "submissionValue": "DALACRT", "synonyms": ["Delta Aminolevulinate/Creatinine"]}, {"conceptId": "C156536", "definition": "A measurement of the decanoylcarnitine in a biological specimen.", "preferredTerm": "Decanoylcarnitine Measurement", "submissionValue": "DCCARNIT", "synonyms": ["C10", "Decanoylcarnitine"]}, {"conceptId": "C82621", "definition": "A measurement of the d-dimers in a biological specimen.", "preferredTerm": "D-Dimer Measurement", "submissionValue": "DDIMER", "synonyms": ["D-Dimer"]}, {"conceptId": "C154769", "definition": "A measurement of the double stranded DNA IgG antibody in a biological specimen.", "preferredTerm": "Anti-Double Stranded DNA IgG Measurement", "submissionValue": "DDNAIGAB", "synonyms": ["Anti-Double Stranded DNA IgG"]}, {"conceptId": "C45781", "definition": "A measurement of the compactness of a biological specimen expressed in mass per unit volume.", "preferredTerm": "Density", "submissionValue": "DENSITY", "synonyms": ["Density"]}, {"conceptId": "C135408", "definition": "A measurement of the deoxyribonucleic acid fragmentation within the nucleated cells of a biological specimen.", "preferredTerm": "DNA Fragmentation Index", "submissionValue": "DFI", "synonyms": ["DNA Fragmentation Index"]}, {"conceptId": "C111190", "definition": "A measurement of the degenerated leukocytes (leukocytes that show deterioration in form or function) in a biological specimen.", "preferredTerm": "Degenerated Leukocyte Count", "submissionValue": "DGNWBC", "synonyms": ["Degenerated Leukocytes", "Degenerated WBC", "Degenerated White Blood Cells"]}, {"conceptId": "C74852", "definition": "A measurement of the dehydroepiandrosterone hormone in a biological specimen.", "preferredTerm": "Dehydroepiandrosterone Measurement", "submissionValue": "DHEA", "synonyms": ["Dehydroepiandrosterone", "Dehydroisoandrosterone"]}, {"conceptId": "C96629", "definition": "A measurement of the sulfated Dehydroepiandrosterone in a biological specimen.", "preferredTerm": "Sulfated DHEA Measurement", "submissionValue": "DHEAS", "synonyms": ["DHEA Sulfate", "DHEA-S", "Dehydroepiandrosterone Sulfate", "sDHEA"]}, {"conceptId": "C101017", "definition": "A measurement of the catecholamine metabolite, 3,4-Dihydroxyphenylglycol in a biological specimen.", "preferredTerm": "3,4-Dihydroxyphenylglycol Measurement", "submissionValue": "DHPG", "synonyms": ["3,4-Dihydroxyphenylglycol", "3.4 Dihydroxyphenylglycol"]}, {"conceptId": "C74853", "definition": "A measurement of the dihydrotestosterone hormone in a biological specimen.", "preferredTerm": "Dihydrotestosterone Measurement", "submissionValue": "DHT", "synonyms": ["Androstanalone", "Dihydrotestosterone"]}, {"conceptId": "C74878", "definition": "A measurement of the dihydrocodeine present in a biological specimen.", "preferredTerm": "Dihydrocodeine Measurement", "submissionValue": "DIHYDCDN", "synonyms": ["Dihydrocodeine"]}, {"conceptId": "C135409", "definition": "A measurement of a targeted deoxyribonucleic acid (DNA) in a biological specimen.", "preferredTerm": "Deoxyribonucleic Acid Measurement", "submissionValue": "DNA", "synonyms": ["Deoxyribonucleic Acid"]}, {"conceptId": "C81973", "definition": "A measurement of the anti-DNA antibodies in a biological specimen.", "preferredTerm": "Anti-DNA Antibody Measurement", "submissionValue": "DNAAB", "synonyms": ["Anti-DNA Antibodies", "Anti-ds-DNA Antibodies"]}, {"conceptId": "C100463", "definition": "A measurement of Dnase-B antibody in a biological specimen.", "preferredTerm": "DNase-B Antibody Measurement", "submissionValue": "DNASEBAB", "synonyms": ["Anti-Dnase B", "DNase-B Antibody"]}, {"conceptId": "C147332", "definition": "A measurement of the dengue virus antibody in a biological specimen.", "preferredTerm": "Dengue Virus Antibody Measurement", "submissionValue": "DNVAB", "synonyms": ["Dengue Virus Antibody"]}, {"conceptId": "C74610", "definition": "A measurement of the Dohle bodies (blue-gray, basophilic, leukocyte inclusions located in the peripheral cytoplasm of neutrophils) in a biological specimen.", "preferredTerm": "Dohle Body Measurement", "submissionValue": "DOHLE", "synonyms": ["Dohle Bodies"]}, {"conceptId": "C103345", "definition": "A measurement of the 3,4-dihydroxyphenylacetic acid in a biological specimen.", "preferredTerm": "3,4-Dihydroxyphenylacetic Acid Measurement", "submissionValue": "DOPAC", "synonyms": ["3,4-Dihydroxyphenylacetic Acid"]}, {"conceptId": "C74854", "definition": "A measurement of the dopamine hormone in a biological specimen.", "preferredTerm": "Dopamine Measurement", "submissionValue": "DOPAMINE", "synonyms": ["Dopamine"]}, {"conceptId": "C79443", "definition": "A measurement of the deoxypyridinoline in a biological specimen.", "preferredTerm": "Deoxypyridinoline Measurement", "submissionValue": "DPD", "synonyms": ["Deoxypyridinoline"]}, {"conceptId": "C79444", "definition": "A relative measurement (ratio or percentage) of the deoxypyridinoline to creatinine in a biological specimen.", "preferredTerm": "Deoxypyridinoline to Creatinine Ratio Measurement", "submissionValue": "DPDCREAT", "synonyms": ["Deoxypyridinoline/Creatinine"]}, {"conceptId": "C103387", "definition": "A measurement of the biological activity of dipeptidyl peptidase-4 in a biological specimen.", "preferredTerm": "Dipeptidyl Peptidase-4 Activity Measurement", "submissionValue": "DPPIVA", "synonyms": ["DPPIV Activity", "Dipeptidyl Peptidase-4 Activity"]}, {"conceptId": "C103388", "definition": "A measurement of the Diphtheria IgG antibodies in a biological specimen.", "preferredTerm": "Diphtheria IgG Antibody Measurement", "submissionValue": "DPTIGGAB", "synonyms": ["Diphtheria IgG Antibody"]}, {"conceptId": "C78139", "definition": "An indication of the presence or absence of recreational drugs or drugs of abuse in a biological specimen.", "preferredTerm": "Drug Test", "submissionValue": "DRUGSCR", "synonyms": ["Drug Screen"]}, {"conceptId": "C161373", "definition": "A measurement to confirm the presence of Lupus anticoagulants, calculated as [(Screen dRVVT - Confirm dRVVT)/Screen dRVVT]x100.", "preferredTerm": "dRVVT Screen to Confirm Percent Difference", "submissionValue": "DRVTSCPD", "synonyms": ["dRVVT Screen to Confirm Pct Difference", "dRVVT Screen to Confirm Percent Difference"]}, {"conceptId": "C96696", "definition": "A measurement of the time it takes a plasma sample to clot after adding dilute Russell's viper venom.", "preferredTerm": "Dilute Russell's Viper Venom Time Measurement", "submissionValue": "DRVVT", "synonyms": ["Dilute Russell's Viper Venom Time", "Lupus Anticoagulant Test"]}, {"conceptId": "C103386", "definition": "A relative measurement of the dilute Russell's viper venom time in a subject sample to a control sample.", "preferredTerm": "Dilute Russell's Viper Venom Time to Control Ratio Measurement", "submissionValue": "DRVVTRT", "synonyms": ["Dilute Russell's Viper Venom Time Ratio", "Lupus Anticoagulant Ratio"]}, {"conceptId": "C122114", "definition": "A measurement of the desmoglein 1 antibody in a biological specimen.", "preferredTerm": "Desmoglein 1 Antibody Measurement", "submissionValue": "DSG1AB", "synonyms": ["Desmoglein 1 Antibody"]}, {"conceptId": "C122115", "definition": "A measurement of the desmoglein 3 antibody in a biological specimen.", "preferredTerm": "Desmoglein 3 Antibody Measurement", "submissionValue": "DSG3AB", "synonyms": ["Desmoglein 3 Antibody"]}, {"conceptId": "C147333", "definition": "A measurement of the desvenlafaxine present in a biological specimen.", "preferredTerm": "Desvenlafaxine Measurement", "submissionValue": "DSVLFXN", "synonyms": ["Desvenlafaxine", "O-Desmethylvenlafaxine"]}, {"conceptId": "C100441", "definition": "A measurement of the volume of serum or plasma that would be cleared of Diethylenetriamine pentaacetate (DTPA) by excretion of urine for a specified unit of time (e.g. one minute).", "preferredTerm": "Diethylene Triamine Pentaacetic Acid Clearance", "submissionValue": "DTPACLR", "synonyms": ["DTPA Clearance"]}, {"conceptId": "C75372", "definition": "A measurement of the diazepam present in a biological specimen.", "preferredTerm": "Diazepam Measurement", "submissionValue": "DZPM", "synonyms": ["Diazepam"]}, {"conceptId": "C142275", "definition": "A computed estimate of the blood glucose based on the value of the glycated hemoglobin", "preferredTerm": "Estimated Average Glucose", "submissionValue": "EAGLUC", "synonyms": ["Glucose, Estimated Average"]}, {"conceptId": "C96600", "definition": "A measurement of the Epstein-Barr capsid IgG antibody in a biological specimen.", "preferredTerm": "Epstein-Barr Capsid IgG Antibody Measurement", "submissionValue": "EBCIGGAB", "synonyms": ["Epstein-Barr Capsid IgG Antibody"]}, {"conceptId": "C96601", "definition": "A measurement of the Epstein-Barr capsid IgM antibody in a biological specimen.", "preferredTerm": "Epstein-Barr Capsid IgM Antibody Measurement", "submissionValue": "EBCIGMAB", "synonyms": ["Epstein-Barr Capsid IgM Antibody"]}, {"conceptId": "C96602", "definition": "A measurement of the Epstein-Barr early antigen in a biological specimen.", "preferredTerm": "Epstein-Barr Early Antigen Measurement", "submissionValue": "EBEAG", "synonyms": ["Epstein-Barr Early Antigen"]}, {"conceptId": "C122116", "definition": "A measurement of the Epstein-Barr early diffuse antigen IgG antibody in a biological specimen.", "preferredTerm": "Epstein-Barr Early D Antigen IgG Antibody Measurement", "submissionValue": "EBEDIGAB", "synonyms": ["Epstein-Barr Early D Antigen IgG Ab"]}, {"conceptId": "C106518", "definition": "A measurement of the Epstein-Barr nuclear antigen 1 IgG antibody in a biological specimen.", "preferredTerm": "Epstein-Barr Nuclear Antigen 1 IgG Ab Measurement", "submissionValue": "EBN1IGAB", "synonyms": ["Epstein-Barr Nuclear Antigen 1 IgG Ab"]}, {"conceptId": "C96603", "definition": "A measurement of the Epstein-Barr nuclear antibody in a biological specimen.", "preferredTerm": "Epstein-Barr Nuclear Antibody Measurement", "submissionValue": "EBNAB", "synonyms": ["Epstein-Barr Nuclear Antibody", "Epstein-Barr Nuclear Antigen Antibody"]}, {"conceptId": "C96604", "definition": "A measurement of the Epstein-Barr nuclear antigen in a biological specimen.", "preferredTerm": "Epstein-Barr Nuclear Antigen Measurement", "submissionValue": "EBNAG", "synonyms": ["Epstein-Barr Nuclear Antigen"]}, {"conceptId": "C135410", "definition": "A measurement of the Ebola virus IgM antibodies in a biological specimen.", "preferredTerm": "Ebola Virus IgM Antibody Measurement", "submissionValue": "EBOIGMAB", "synonyms": ["Ebola Virus IgM Antibody"]}, {"conceptId": "C106519", "definition": "An assessment of Epstein-Barr virus infection based on a panel of EBV antigen antibody tests.", "preferredTerm": "Epstein-Barr Virus Profile Interpretation", "submissionValue": "EBVINTP", "synonyms": ["EBV Profile Interpretation", "Epstein-Barr Virus Antibody Profile", "Epstein-Barr Virus Panel", "Epstein-Barr Virus Profile Interpretation"]}, {"conceptId": "C96598", "definition": "A measurement of the eccentrocytes (erythrocytes in which the hemoglobin is localized to a particular portion of the cell, noticeable as localized staining) in a biological specimen.", "preferredTerm": "Eccentrocyte Count", "submissionValue": "ECCENTCY", "synonyms": ["Eccentrocytes"]}, {"conceptId": "C100422", "definition": "A measurement of the activity of thrombin inhibitors in a biological specimen based on the generation of meizothrombin.", "preferredTerm": "Ecarin Clotting Time Measurement", "submissionValue": "ECT", "synonyms": ["Ecarin Clotting Time"]}, {"conceptId": "C147334", "definition": "A measurement of the endomysial IgA antibody in a biological specimen.", "preferredTerm": "Endomysial IgA Antibody Measurement", "submissionValue": "EDMIGAAB", "synonyms": ["Endomysium IgA Antibody"]}, {"conceptId": "C100440", "definition": "A measurement of the volume of serum or plasma that would be cleared of Ethylenediamine tetraacetic acid (EDTA) by excretion of urine for a specified unit of time (e.g. one minute).", "preferredTerm": "EDTA Clearance", "submissionValue": "EDTACLR", "synonyms": ["EDTA Clearance"]}, {"conceptId": "C82009", "definition": "A measurement of the epidermal growth factor in a biological specimen.", "preferredTerm": "Epidermal Growth Factor Measurement", "submissionValue": "EGF", "synonyms": ["Epidermal Growth Factor"]}, {"conceptId": "C112273", "definition": "A measurement of the cells with positive expression of EGFR in a biological specimen.", "preferredTerm": "Epidermal Growth Factor Receptor Measurement", "submissionValue": "EGFR", "synonyms": ["ERBB1", "Epidermal Growth Factor Receptor", "HER1"]}, {"conceptId": "C82028", "definition": "A measurement of the pancreatic elastase 1 in a biological specimen.", "preferredTerm": "Pancreatic Elastase Measurement", "submissionValue": "ELA1", "synonyms": ["Pancreatic Elastase 1"]}, {"conceptId": "C82029", "definition": "A measurement of the polymorphonuclear pancreatic elastase 1 in a biological specimen.", "preferredTerm": "Polymorphonuclear Pancreatic Elastase Measurement", "submissionValue": "ELA1PMN", "synonyms": ["Pancreatic Elastase 1, Polymorphonuclear"]}, {"conceptId": "C82026", "definition": "A measurement of the neutrophil elastase in a biological specimen.", "preferredTerm": "Neutrophil Elastase Measurement", "submissionValue": "ELA2", "synonyms": ["Neutrophil Elastase"]}, {"conceptId": "C82027", "definition": "A measurement of the polymorphonuclear neutrophil elastase in a biological specimen.", "preferredTerm": "Polymorphonuclear Neutrophil Elastase Measurement", "submissionValue": "ELA2PMN", "synonyms": ["Neutrophil Elastase, Polymorphonuclear"]}, {"conceptId": "C64549", "definition": "A measurement of the elliptocytes (elliptically shaped cell with blunt ends and a long axis twice the length of its short axis) in a biological specimen.", "preferredTerm": "Elliptocyte Count", "submissionValue": "ELLIPCY", "synonyms": ["Elliptocytes"]}, {"conceptId": "C82010", "definition": "A measurement of the epithelial neutrophil-activating peptide in a biological specimen.", "preferredTerm": "Epithelial Neutrophil-Activating Peptide 78 Measurement", "submissionValue": "ENA78", "synonyms": ["Epith Neutrophil-Activating Peptide 78"]}, {"conceptId": "C92270", "definition": "A measurement of the extractable nuclear antigen antibody in a biological specimen.", "preferredTerm": "Extractable Nuclear Antigen Antibody Measurement", "submissionValue": "ENAAB", "synonyms": ["Anti-ENA", "Extractable Nuclear Antigen Antibody"]}, {"conceptId": "C82008", "definition": "A measurement of the endothelin-1 in a biological specimen.", "preferredTerm": "Endothelin-1 Measurement", "submissionValue": "ENDOTH1", "synonyms": ["Endothelin-1"]}, {"conceptId": "C82011", "definition": "A measurement of the extracellular newly identified RAGE (receptor for advanced glycation end products) binding protein in a biological specimen.", "preferredTerm": "Extracell Newly Ident RAGE Bind Protein Measurement", "submissionValue": "ENRAGE", "synonyms": ["Extracell Newly Ident RAGE Bind Protein", "S100 Calcium Binding Protein A12"]}, {"conceptId": "C64550", "definition": "A measurement of the eosinophils in a biological specimen.", "preferredTerm": "Eosinophil Count", "submissionValue": "EOS", "synonyms": ["Eosinophils"]}, {"conceptId": "C114216", "definition": "A measurement of the banded eosinophils in a biological specimen.", "preferredTerm": "Eosinophil Band Form Count", "submissionValue": "EOSB", "synonyms": ["Eosinophils Band Form"]}, {"conceptId": "C114217", "definition": "A relative measurement (ratio or percentage) of the banded eosinophils to leukocytes in a biological specimen.", "preferredTerm": "Eosinophil Band Form to Leukocyte Ratio", "submissionValue": "EOSBLE", "synonyms": ["Eosinophils Band Form/Leukocytes"]}, {"conceptId": "C98720", "definition": "A relative measurement (ratio or percentage) of the eosinophils to total cells in a biological specimen (for example a bone marrow specimen).", "preferredTerm": "Eosinophils to Total Cell Ratio Measurement", "submissionValue": "EOSCE", "synonyms": ["Eosinophils/Total Cells"]}, {"conceptId": "C96673", "definition": "A measurement of the immature eosinophils in a biological specimen.", "preferredTerm": "Immature Eosinophil Count", "submissionValue": "EOSIM", "synonyms": ["Immature Eosinophils"]}, {"conceptId": "C96674", "definition": "A relative measurement (ratio or percentage) of immature eosinophils to total leukocytes in a biological specimen.", "preferredTerm": "Immature Eosinophil to Leukocyte Ratio Measurement", "submissionValue": "EOSIMLE", "synonyms": ["Immature Eosinophils/Leukocytes"]}, {"conceptId": "C64604", "definition": "A relative measurement (ratio or percentage) of the eosinophils to leukocytes in a biological specimen.", "preferredTerm": "Eosinophil to Leukocyte Ratio", "submissionValue": "EOSLE", "synonyms": ["Eosinophils/Leukocytes"]}, {"conceptId": "C84819", "definition": "A measurement of the eosinphilic metamyelocytes in a biological specimen.", "preferredTerm": "Eosinophilic Metamyelocyte Count", "submissionValue": "EOSMM", "synonyms": ["Eosinophilic Metamyelocytes"]}, {"conceptId": "C84821", "definition": "A measurement of the eosinophilic myelocytes in a biological specimen.", "preferredTerm": "Eosinophilic Myelocyte Count", "submissionValue": "EOSMYL", "synonyms": ["Eosinophilic Myelocytes"]}, {"conceptId": "C135411", "definition": "A relative measurement (ratio or percentage) of the eosinophils to non-squamous epithelial cells in a biological specimen.", "preferredTerm": "Eosinophils to Non-Squamous Epithelial Cells Ratio Measurement", "submissionValue": "EOSNSQE", "synonyms": ["Eosinophils/Non-Squam Epi Cells"]}, {"conceptId": "C150840", "definition": "A relative measurement (ratio or percentage) of eosinophils to nucleated cells in a biological specimen.", "preferredTerm": "Eosinophils to Nucleated Cells Ratio Measurement", "submissionValue": "EOSNUCCE", "synonyms": ["Eosinophils/Nucleated Cells"]}, {"conceptId": "C135412", "definition": "A measurement of the segmented eosinophils in a biological specimen.", "preferredTerm": "Segmented Eosinophil Count", "submissionValue": "EOSSG", "synonyms": ["Eosinophils, Segmented"]}, {"conceptId": "C81952", "definition": "A measurement of the eotaxin-1 in a biological specimen.", "preferredTerm": "Eotaxin-1 Measurement", "submissionValue": "EOTAXIN1", "synonyms": ["Chemokine Ligand 11", "Eotaxin-1"]}, {"conceptId": "C81953", "definition": "A measurement of the eotaxin-2 in a biological specimen.", "preferredTerm": "Eotaxin-2 Measurement", "submissionValue": "EOTAXIN2", "synonyms": ["Chemokine Ligand 24", "Eotaxin-2"]}, {"conceptId": "C81954", "definition": "A measurement of the eotaxin-3 in a biological specimen.", "preferredTerm": "Eotaxin-3 Measurement", "submissionValue": "EOTAXIN3", "synonyms": ["CCL26", "Chemokine (C-C Motif) Ligand 26", "Chemokine Ligand 26", "Eotaxin-3"]}, {"conceptId": "C64605", "definition": "A measurement of the epithelial cells in a biological specimen.", "preferredTerm": "Epithelial Cell Count", "submissionValue": "EPIC", "synonyms": ["Epithelial Cells"]}, {"conceptId": "C130161", "definition": "A relative measurement (ratio or percentage) of the epithelial cells to total cells in a biological specimen.", "preferredTerm": "Epithelial Cells to Total Cells Ratio Measurement", "submissionValue": "EPICCE", "synonyms": ["Epithelial Cells/Total Cells"]}, {"conceptId": "C79445", "definition": "A measurement of the epinephrine hormone in a biological specimen.", "preferredTerm": "Epinephrine Measurement", "submissionValue": "EPIN", "synonyms": ["Adrenaline", "Epinephrine"]}, {"conceptId": "C135413", "definition": "A measurement of the non-squamous epithelial cells in a biological specimen.", "preferredTerm": "Non-Squamous Epithelial Cell Count", "submissionValue": "EPINSQCE", "synonyms": ["Non-Squamous Epithelial Cells"]}, {"conceptId": "C135414", "definition": "A relative measurement (ratio or percentage) of the epithelial cells to non-squamous epithelial cells in a biological specimen.", "preferredTerm": "Epithelial Cells to Non-Squamous Epithelial Cells Ratio Measurement", "submissionValue": "EPINSQE", "synonyms": ["Epi Cells/Non-Squam Epi Cells"]}, {"conceptId": "C74698", "definition": "A measurement of the round epithelial cells present in a biological specimen.", "preferredTerm": "Round Epithelial Cell Count", "submissionValue": "EPIROCE", "synonyms": ["Round Epithelial Cells"]}, {"conceptId": "C132366", "definition": "A relative measurement (ratio or percentage) of the squamous epithelial cells to total cells in a biological specimen.", "preferredTerm": "Squamous Epithelial Cells to Total Cells Ratio Measurement", "submissionValue": "EPISCECE", "synonyms": ["Squamous Epithelial Cells/Total Cells"]}, {"conceptId": "C74773", "definition": "A measurement of the squamous epithelial cells present in a biological specimen.", "preferredTerm": "Squamous Epithelial Cell Count", "submissionValue": "EPISQCE", "synonyms": ["Squamous Epithelial Cells"]}, {"conceptId": "C74774", "definition": "A measurement of the squamous transitional epithelial cells present in a biological specimen.", "preferredTerm": "Squamous Transitional Epithelial Cell Count", "submissionValue": "EPISQTCE", "synonyms": ["Squamous Transitional Epithelial Cells"]}, {"conceptId": "C92251", "definition": "A measurement of the transitional epithelial cells present in a biological specimen.", "preferredTerm": "Transitional Epithelial Cells Measurement", "submissionValue": "EPITCE", "synonyms": ["Transitional Epithelial Cells"]}, {"conceptId": "C74775", "definition": "A measurement of the tubular epithelial cells present in a biological specimen.", "preferredTerm": "Tubular Epithelial Cell Count", "submissionValue": "EPITUCE", "synonyms": ["Renal Tubular Epithelial Cells", "Tubular Epithelial Cells"]}, {"conceptId": "C74855", "definition": "A measurement of the erythropoietin hormone in a biological specimen.", "preferredTerm": "Erythropoietin Measurement", "submissionValue": "EPO", "synonyms": ["Erythropoietin", "Hematopoietin"]}, {"conceptId": "C154719", "definition": "A relative measurement (ratio or percentage) of the erythroid cells to total cells in a biological specimen.", "preferredTerm": "Erythroid Cells to Total Cells Ratio Measurement", "submissionValue": "ERCECE", "synonyms": ["Erythroid Cells/Total Cells"]}, {"conceptId": "C135415", "definition": "A relative measurement (ratio) of the sum of erythroid maturation phase cells (pool) to the sum of erythroid proliferative phase cells (pool) in a biological specimen.", "preferredTerm": "Erythroid Maturation Index", "submissionValue": "ERCEMIDX", "synonyms": ["Erythroid Maturation Index"]}, {"conceptId": "C135416", "definition": "A measurement of the erythroid maturation phase cells (polychromatic rubricytes, normochromic rubricytes, and metarubricytes) in a biological specimen.", "preferredTerm": "Erythroid Maturation Pool Count", "submissionValue": "ERCEMPOL", "synonyms": ["Erythroid Maturation Pool"]}, {"conceptId": "C154720", "definition": "A relative measurement (ratio or percentage) of the erythroid cells to total nucleated cells in a biological specimen.", "preferredTerm": "Erythroid Cells to Nucleated Cells Ratio Measurement", "submissionValue": "ERCENC", "synonyms": ["Erythroid Cells/Nucleated Cells"]}, {"conceptId": "C135417", "definition": "A relative measurement (ratio) of the sum of erythroid proliferative phase cells (pool) to the sum of erythroid maturation phase cells (pool) in a biological specimen.", "preferredTerm": "Erythroid Proliferation Index", "submissionValue": "ERCEPIDX", "synonyms": ["Erythroid Proliferation Index"]}, {"conceptId": "C135418", "definition": "A measurement of the erythroid proliferative phase cells (rubriblasts, prorubricytes, and basophilic rubricytes) in a biological specimen.", "preferredTerm": "Erythroid Proliferation Pool Count", "submissionValue": "ERCEPPOL", "synonyms": ["Erythroid Proliferation Pool"]}, {"conceptId": "C154736", "definition": "A measurement of total E-selectin in a biological specimen.", "preferredTerm": "E-selectin Measurement", "submissionValue": "ESELECT", "synonyms": ["E-Selectin"]}, {"conceptId": "C119273", "definition": "A measurement of the soluble E-Selectin activity in a biological specimen.", "preferredTerm": "Soluble E-Selectin Measurement", "submissionValue": "ESELS", "synonyms": ["Soluble E-Selectin", "sE-selectin"]}, {"conceptId": "C74611", "definition": "The distance (e.g. millimeters) that red blood cells settle in unclotted blood over a specified unit of time (e.g. one hour).", "preferredTerm": "Erythrocyte Sedimentation Rate Measurement", "submissionValue": "ESR", "synonyms": ["Biernacki Reaction", "Erythrocyte Sedimentation Rate"]}, {"conceptId": "C150842", "definition": "A measurement of the unbound estradiol in a biological specimen.", "preferredTerm": "Free Estradiol Measurement", "submissionValue": "ESTFR", "synonyms": ["Estradiol, Free"]}, {"conceptId": "C150843", "definition": "A relative measurement (ratio or percentage) of unbound estradiol to total estradiol in a biological specimen.", "preferredTerm": "Free Estradiol to Estradiol Ratio Measurement", "submissionValue": "ESTFREST", "synonyms": ["Estradiol, Free/Estradiol"]}, {"conceptId": "C112274", "definition": "A measurement of estrogen receptor protein in a biological specimen.", "preferredTerm": "Estrogen Receptor Measurement", "submissionValue": "ESTRCPT", "synonyms": ["ER", "ESR", "Estrogen Receptor", "Oestrogen Receptor"]}, {"conceptId": "C74782", "definition": "A measurement of the estradiol in a biological specimen.", "preferredTerm": "Estradiol Measurement", "submissionValue": "ESTRDIOL", "synonyms": ["Estradiol", "Oestradiol"]}, {"conceptId": "C74856", "definition": "A measurement of the estriol hormone in a biological specimen.", "preferredTerm": "Estriol Measurement", "submissionValue": "ESTRIOL", "s