{"_links": {"parentPackage": {"href": "/mdr/ct/packages/sendct-2019-06-28", "title": "SEND Controlled Terminology Package 38 Effective 2019-06-28", "type": "Terminology"}, "priorVersion": {"href": "/mdr/ct/packages/sendct-2019-03-29/codelists/C77808", "title": "CDISC SEND Laboratory Animal Species Terminology", "type": "Code List"}, "rootItem": {"href": "/mdr/root/ct/sendct/codelists/C77808", "title": "Version-agnostic anchor resource for codelist C77808", "type": "Root Value Domain"}, "self": {"href": "/mdr/ct/packages/sendct-2019-06-28/codelists/C77808", "title": "CDISC SEND Laboratory Animal Species Terminology", "type": "Code List"}}, "conceptId": "C77808", "definition": "Terminology related to the common name for an animal used as the test system in a study (e.g., dog, monkey, mouse, rabbit, rat).", "extensible": "true", "name": "Species", "preferredTerm": "CDISC SEND Laboratory Animal Species Terminology", "submissionValue": "SPECIES", "synonyms": ["Species"], "terms": [{"conceptId": "C14192", "definition": "The domesticated ungulates, Bos primigenius taurus and Bos primigenius indicus.", "preferredTerm": "Cow", "submissionValue": "BOVINE", "synonyms": ["Cattle"]}, {"conceptId": "C14191", "definition": "The domestic cat, Felis catus. (NCI)", "preferredTerm": "Cat", "submissionValue": "CAT", "synonyms": ["Felis domesticus", "Felis silvestris catus"]}, {"conceptId": "C14193", "definition": "The common domestic fowl, Gallus gallus. (NCI)", "preferredTerm": "Chicken", "submissionValue": "CHICKEN", "synonyms": ["Domestic Chicken", "Gallus domesticus", "Gallus gallus domesticus"]}, {"conceptId": "C14297", "definition": "The anthropoid ape, Pan troglodytes.", "preferredTerm": "Chimpanzee", "submissionValue": "CHIMPANZEE"}, {"conceptId": "C91815", "definition": "A member of the Chinchillidae family of crepuscular rodents.", "preferredTerm": "Chinchilla", "submissionValue": "CHINCHILLA"}, {"conceptId": "C14201", "definition": "The domestic dog, Canis familiaris. (NCI)", "preferredTerm": "Dog", "submissionValue": "DOG", "synonyms": ["Canis canis", "Canis domesticus", "Canis lupus familiaris"]}, {"conceptId": "C77097", "definition": "The European polecat, Mustela putorius.", "preferredTerm": "Mustela putorius", "submissionValue": "FERRET"}, {"conceptId": "C14207", "definition": "Any jawed or jawless organisms in the phylum Chordata including the jawless fish, armored fish, cartilaginous fish, ray-finned fish and lobe-finned fish.", "preferredTerm": "Fish", "submissionValue": "FISH"}, {"conceptId": "C14265", "definition": "An amphibian in the order Anura, which includes the toads. (NCI)", "preferredTerm": "Frog", "submissionValue": "FROG"}, {"conceptId": "C77807", "definition": "Any of the small mammals belonging to the Gerbillinae subfamily.", "preferredTerm": "Gerbil", "submissionValue": "GERBIL"}, {"conceptId": "C14210", "definition": "Any one of several species in the genus Capra, most commonly Capra hircus.", "preferredTerm": "Goat", "submissionValue": "GOAT"}, {"conceptId": "C14211", "definition": "The domesticated guinea pig, Cavia porcellus. (NCI)", "preferredTerm": "Guinea Pig", "submissionValue": "GUINEA PIG"}, {"conceptId": "C14212", "definition": "Any member of the subfamily cricetinae and the genuses Mesocricetus, Phodopus, Cricetus, Cricetulus, Allocricetulus, Cansumys and Tscherskia.", "preferredTerm": "Hamster", "submissionValue": "HAMSTER"}, {"conceptId": "C14222", "definition": "The domestic horse, Equus caballus. (NCI)", "preferredTerm": "Horse", "submissionValue": "HORSE"}, {"conceptId": "C91816", "definition": "A genus of rodent in the family muridae.", "preferredTerm": "Mastomys", "submissionValue": "MASTOMYS"}, {"conceptId": "C14243", "definition": "Any haplorhine primate not belonging to the family Tarsiidae, Hylobatidae, Pongidae, or Hominidae; this does not correspond to any taxon. This group is divided into Old World monkeys (Cercopithecidae) and New World monkeys (Callitrichidae and Cebidae).", "preferredTerm": "Monkey", "submissionValue": "MONKEY"}, {"conceptId": "C14238", "definition": "Any of numerous species of small rodents belonging to the genus Mus and various related genera of the family Muridae. (NCI)", "preferredTerm": "Mouse", "submissionValue": "MOUSE"}, {"conceptId": "C160991", "definition": "A pig belonging to the species Sus scrofa.", "preferredTerm": "Sus scrofa", "submissionValue": "PIG", "synonyms": ["Swine"]}, {"conceptId": "C91812", "definition": "A member of the Columbidae family of birds, most commonly referring to the species Columba livia.", "preferredTerm": "Pigeon", "submissionValue": "PIGEON"}, {"conceptId": "C91813", "definition": "A member of the Phasianidae family of pheasants that includes several genera, including Cotumix, Anurophasis, Perdicula and Ophrysia.", "preferredTerm": "Quail", "submissionValue": "QUAIL"}, {"conceptId": "C14264", "definition": "Various members of the family Leporidae, especially those of the genus Sylvilagus. (NCI)", "preferredTerm": "Rabbit", "submissionValue": "RABBIT"}, {"conceptId": "C160998", "definition": "Any of numerous species of rodents belonging to the genus Rattus and/or various related genera of the family Muridae.", "preferredTerm": "Rat", "submissionValue": "RAT"}, {"conceptId": "C14273", "definition": "Any one of several species in the genus Ovis, most commonly Ovis aries.", "preferredTerm": "Sheep", "submissionValue": "SHEEP"}]}