{"_links": {"parentPackage": {"href": "/mdr/ct/packages/sendct-2019-06-28", "title": "SEND Controlled Terminology Package 38 Effective 2019-06-28", "type": "Terminology"}, "priorVersion": {"href": "/mdr/ct/packages/sendct-2019-03-29/codelists/C89976", "title": "CDISC SEND Organ Measurement Test Name Terminology", "type": "Code List"}, "rootItem": {"href": "/mdr/root/ct/sendct/codelists/C89976", "title": "Version-agnostic anchor resource for codelist C89976", "type": "Root Value Domain"}, "self": {"href": "/mdr/ct/packages/sendct-2019-06-28/codelists/C89976", "title": "CDISC SEND Organ Measurement Test Name Terminology", "type": "Code List"}}, "conceptId": "C89976", "definition": "Terminology for the test names concerned with the measurement of organs.", "extensible": "true", "name": "Organ Measurement Test Name", "preferredTerm": "CDISC SEND Organ Measurement Test Name Terminology", "submissionValue": "OMTEST", "synonyms": ["Organ Measurement Test Name"], "terms": [{"conceptId": "C25334", "definition": "The linear extent in space from one end of something to the other end, or the extent of something from beginning to end. (NCI)", "preferredTerm": "Length", "submissionValue": "Length", "synonyms": ["Length"]}, {"conceptId": "C90426", "definition": "A numeric comparison of the weight of an organ to body weight.", "preferredTerm": "Organ to Body Weight Ratio", "submissionValue": "Organ to Body Weight Ratio", "synonyms": ["Organ to Body Weight Ratio"]}, {"conceptId": "C90427", "definition": "A numeric comparison of the weight of an organ to the weight of the brain.", "preferredTerm": "Organ to Brain Weight Ratio", "submissionValue": "Organ to Brain Weight Ratio", "synonyms": ["Organ to Brain Weight Ratio"]}, {"conceptId": "C90428", "definition": "A numeric comparison of the weight of an organ to the weight of the heart.", "preferredTerm": "Organ to Heart Weight Ratio", "submissionValue": "Organ to Heart Weight Ratio", "synonyms": ["Organ to Heart Weight Ratio"]}, {"conceptId": "C41145", "definition": "The dimension between two surfaces of an object, usually the smallest dimension as opposed to the width or the length.", "preferredTerm": "Thickness", "submissionValue": "Thickness", "synonyms": ["Thickness"]}, {"conceptId": "C120721", "definition": "The mean number in a group of values that represent the thickness of an object.", "preferredTerm": "Mean Thickness", "submissionValue": "Thickness, Mean", "synonyms": ["Thickness, Mean"]}, {"conceptId": "C25208", "definition": "The vertical force exerted by a mass as a result of gravity. (NCI)", "preferredTerm": "Weight", "submissionValue": "Weight", "synonyms": ["Weight"]}]}