{"_links": {"parentPackage": {"href": "/mdr/ct/packages/sdtmct-2021-06-25", "title": "SDTM Controlled Terminology Package 46 Effective 2021-06-25", "type": "Terminology"}, "rootItem": {"href": "/mdr/root/ct/sdtmct/codelists/C101833", "title": "Version-agnostic anchor resource for codelist C101833", "type": "Root Value Domain"}, "self": {"href": "/mdr/ct/packages/sdtmct-2021-06-25/codelists/C101833", "title": "CDISC SDTM Findings About Test Name Terminology", "type": "Code List"}}, "conceptId": "C101833", "definition": "Terminology relevant to the test names that describe findings about an event or intervention.", "extensible": "true", "name": "Findings About Test Name", "preferredTerm": "CDISC SDTM Findings About Test Name Terminology", "submissionValue": "FATEST", "synonyms": ["Findings About Test Name"], "terms": [{"conceptId": "C117037", "definition": "Action taken with respect to a device in a study, which may or may not be the device under study.", "preferredTerm": "Action Taken with Device", "submissionValue": "Action Taken With Device", "synonyms": ["Action Taken With Device"]}, {"conceptId": "C163412", "definition": "Action taken with respect to a subject in a study.", "preferredTerm": "Action Taken With Subject", "submissionValue": "Action Taken With Subject", "synonyms": ["Action Taken With Subject"]}, {"conceptId": "C118936", "definition": "Categorization of the type of acute myocardial infarction.", "preferredTerm": "Acute Myocardial Infarction Type", "submissionValue": "Acute Myocardial Infarction Type", "synonyms": ["Acute Myocardial Infarction Type"]}, {"conceptId": "C124438", "definition": "The age at which the first episode occurred.", "preferredTerm": "Age at First Episode", "submissionValue": "Age At First Episode", "synonyms": ["Age At First Episode"]}, {"conceptId": "C124439", "definition": "The age at which the first hospitalization event occurred.", "preferredTerm": "Age at First Hospitalization", "submissionValue": "Age At First Hospitalization", "synonyms": ["Age At First Hospitalization"]}, {"conceptId": "C124440", "definition": "The age at which the first treatment for the condition occurred.", "preferredTerm": "Age at First Treatment", "submissionValue": "Age At First Treatment", "synonyms": ["Age At First Treatment"]}, {"conceptId": "C139175", "definition": "The age at which the full-time use of a pre-specified object first occurred.", "preferredTerm": "Age at Full-Time Use", "submissionValue": "Age at Full-Time Use", "synonyms": ["Age at Full-Time Use"]}, {"conceptId": "C174273", "definition": "The age at which illness-specific symptoms first began.", "preferredTerm": "Age Symptom Started", "submissionValue": "Age Symptoms Started", "synonyms": ["Age Symptoms Started"]}, {"conceptId": "C172476", "definition": "A measurement of the number of calories expended.", "preferredTerm": "Calories Burned", "submissionValue": "Calories Burned", "synonyms": ["Calories Burned"]}, {"conceptId": "C124442", "definition": "An indication as to whether the subject was admitted to a healthcare clinic.", "preferredTerm": "Clinic Stay Indicator", "submissionValue": "Clinic Stay Indicator", "synonyms": ["Clinic Stay Indicator"]}, {"conceptId": "C119229", "definition": "The method by which the coronary artery thrombosis event is determined or diagnosed.", "preferredTerm": "Coronary Artery Thrombosis Method of Identification", "submissionValue": "Coronary Artery Thrombosis Method Ident", "synonyms": ["Coronary Artery Thrombosis Method Ident"]}, {"conceptId": "C94596", "definition": "The total amount that a subject is exposed to over time.", "preferredTerm": "Cumulative Exposure", "submissionValue": "Cumulative Exposure", "synonyms": ["Cumulative Exposure"]}, {"conceptId": "C117883", "definition": "A description of the diagnostic criteria that the subject fulfilled in order to establish a medical diagnosis.", "preferredTerm": "Which Diagnostic Criteria Met", "submissionValue": "Diagnostic Criteria Met", "synonyms": ["Diagnostic Criteria Met"]}, {"conceptId": "C25285", "definition": "The length of a straight line passing through the center of a circle or sphere and connecting two points on the circumference. (NCI)", "preferredTerm": "Diameter", "submissionValue": "Diameter", "synonyms": ["Diameter"]}, {"conceptId": "C177934", "definition": "The diameter of the lesion that has been determined to be the primary lesion.", "preferredTerm": "Diameter of Primary Lesion", "submissionValue": "Diameter of Primary Lesion", "synonyms": ["Diameter of Primary Lesion"]}, {"conceptId": "C172463", "definition": "A determination of the total added sugars in a nutritional product or meal, or a portion thereof.", "preferredTerm": "Dietary Added Sugar Measurement", "submissionValue": "Dietary Added Sugar", "synonyms": ["Dietary Added Sugar"]}, {"conceptId": "C172464", "definition": "A determination of the total dietary calories in a nutritional product or meal, or a portion thereof.", "preferredTerm": "Dietary Calories Measurement", "submissionValue": "Dietary Calories", "synonyms": ["Dietary Calories"]}, {"conceptId": "C172471", "definition": "A determination of the total monounsaturated fat in a nutritional product or meal, or a portion thereof.", "preferredTerm": "Dietary Monounsaturated Fat Measurement", "submissionValue": "Dietary Fat, Monounsaturated", "synonyms": ["Dietary Fat, Monounsaturated"]}, {"conceptId": "C172472", "definition": "A determination of the total polyunsaturated fat in a nutritional product or meal, or a portion thereof.", "preferredTerm": "Dietary Polyunsaturated Fat Measurement", "submissionValue": "Dietary Fat, Polyunsaturated", "synonyms": ["Dietary Fat, Polyunsaturated"]}, {"conceptId": "C172470", "definition": "A determination of the total saturated fat in a nutritional product or meal, or a portion thereof.", "preferredTerm": "Dietary Saturated Fat Measurement", "submissionValue": "Dietary Fat, Saturated", "synonyms": ["Dietary Fat, Saturated"]}, {"conceptId": "C172460", "definition": "A determination of the total fat in a nutritional product or meal, or a portion thereof.", "preferredTerm": "Total Dietary Fat Measurement", "submissionValue": "Dietary Fat, Total", "synonyms": ["Dietary Fat, Total"]}, {"conceptId": "C172469", "definition": "A determination of the total fiber in a nutritional product or meal, or a portion thereof.", "preferredTerm": "Dietary Fiber Measurement", "submissionValue": "Dietary Fiber", "synonyms": ["Dietary Fiber"]}, {"conceptId": "C172465", "definition": "A determination of the total fruit in a nutritional product or meal, or a portion thereof.", "preferredTerm": "Dietary Fruit Measurement", "submissionValue": "Dietary Fruit", "synonyms": ["Dietary Fruit"]}, {"conceptId": "C172467", "definition": "A determination of the total grain in a nutritional product or meal, or a portion thereof.", "preferredTerm": "Dietary Grain Measurement", "submissionValue": "Dietary Grain", "synonyms": ["Dietary Grain"]}, {"conceptId": "C172462", "definition": "A determination of the total magnesium in a nutritional product or meal, or a portion thereof.", "preferredTerm": "Dietary Magnesium Measurement", "submissionValue": "Dietary Magnesium", "synonyms": ["Dietary Magnesium"]}, {"conceptId": "C172468", "definition": "A determination of the total meat in a nutritional product or meal, or a portion thereof.", "preferredTerm": "Dietary Meat Measurement", "submissionValue": "Dietary Meat", "synonyms": ["Dietary Meat"]}, {"conceptId": "C172459", "definition": "A determination of the total protein in a nutritional product or meal, or a portion thereof.", "preferredTerm": "Dietary Protein Measurement", "submissionValue": "Dietary Protein", "synonyms": ["Dietary Protein"]}, {"conceptId": "C172461", "definition": "A determination of the total carbohydrate in a nutritional product or meal, or a portion thereof.", "preferredTerm": "Total Dietary Carbohydrate Measurement", "submissionValue": "Dietary Total Carbohydrate", "synonyms": ["Dietary Total Carbohydrate"]}, {"conceptId": "C172466", "definition": "A determination of the total vegetables in a nutritional product or meal, or a portion thereof.", "preferredTerm": "Dietary Vegetable Measurement", "submissionValue": "Dietary Vegetable", "synonyms": ["Dietary Vegetable"]}, {"conceptId": "C78721", "definition": "The quantity of a product that has been dispensed. (NCI)", "preferredTerm": "Dispensed Amount", "submissionValue": "Dispensed Amount", "synonyms": ["Dispensed Amount"]}, {"conceptId": "C25167", "definition": "The actual or calculated span between two points (real or virtual).", "preferredTerm": "Distance", "submissionValue": "Distance", "synonyms": ["Distance"]}, {"conceptId": "C102626", "definition": "The state or condition of not responding to a pharmacological agent.", "preferredTerm": "Drug Resistance Status", "submissionValue": "Drug Resistance Status", "synonyms": ["Drug Resistance Status"]}, {"conceptId": "C119230", "definition": "An indication as to whether the event meets the criteria for being a clinical endpoint.", "preferredTerm": "Endpoint Event Indicator", "submissionValue": "Endpoint Event Indicator", "synonyms": ["Endpoint Event Indicator"]}, {"conceptId": "C174282", "definition": "An approximate determination of the weight of the entity.", "preferredTerm": "Estimated Weight", "submissionValue": "Estimated Weight", "synonyms": ["Estimated Entity Weight", "Estimated Weight"]}, {"conceptId": "C25515", "definition": "The number of times an event occurs within a given time period.", "preferredTerm": "Temporal Frequency", "submissionValue": "Event Frequency", "synonyms": ["Event Frequency"]}, {"conceptId": "C119237", "definition": "An indication of whether a Type 1 and Type 2 myocardial infarction is excluded as a diagnosis.", "preferredTerm": "Exclusion of Type 1 and Type 2 Myocardial Infarction Diagnosis Indicator", "submissionValue": "Exclusion of Type 1 and Type 2 MI", "synonyms": ["Exclusion of Type 1 and Type 2 MI"]}, {"conceptId": "C172474", "definition": "A determination or assessment of the extent to which an individual adheres to a fitness program.", "preferredTerm": "Exercise Compliance", "submissionValue": "Exercise Compliance", "synonyms": ["Exercise Compliance"]}, {"conceptId": "C172475", "definition": "The length of time an individual spends exercising.", "preferredTerm": "Exercise Duration", "submissionValue": "Exercise Duration", "synonyms": ["Exercise Duration"]}, {"conceptId": "C172473", "definition": "A determination or assessment of the degree or magnitude of an individual's exertion during physical activity.", "preferredTerm": "Exercise Intensity", "submissionValue": "Exercise Intensity", "synonyms": ["Exercise Intensity"]}, {"conceptId": "C157443", "definition": "A description of the relative amount of tissue, blood vessel, or organ that has been removed.", "preferredTerm": "Extent of Resection", "submissionValue": "Extent of Resection", "synonyms": ["Extent of Resection"]}, {"conceptId": "C119231", "definition": "Categorization of the type of healthcare encounter.", "preferredTerm": "Healthcare Encounter Type", "submissionValue": "Healthcare Encounter Type", "synonyms": ["Healthcare Encounter Type"]}, {"conceptId": "C119232", "definition": "Categorization of the type(s) of new and/or worsening laboratory findings of heart failure present at the time of patient presentation.", "preferredTerm": "Lab Findings of New or Worsening Heart Failure", "submissionValue": "Heart Failure New/Worsening Lab Findings", "synonyms": ["Heart Failure New/Worsening Lab Findings"]}, {"conceptId": "C119233", "definition": "Categorization of the type(s) of new and/or worsening physical exam findings of heart failure present at the time of patient presentation.", "preferredTerm": "Physical Examination Findings of New or Worsening Heart Failure", "submissionValue": "Heart Failure New/Worsening PE Findings", "synonyms": ["Heart Failure New/Worsening PE Findings"]}, {"conceptId": "C119234", "definition": "Categorization of the type(s) of new and/or intensified treatment administered for heart failure management.", "preferredTerm": "Heart Failure Therapy Intensification Type", "submissionValue": "Heart Failure Therapy, Intensification", "synonyms": ["Heart Failure Therapy, Intensification"]}, {"conceptId": "C174279", "definition": "An indication as to whether the ileocecal junction was removed.", "preferredTerm": "Ileocecal Junction Removed Indicator", "submissionValue": "Ileocecal Junction Removed Indicator", "synonyms": ["Ileocecal Junction Removed Indicator"]}, {"conceptId": "C119235", "definition": "An indicator as to whether the subject has symptoms of ischemic discomfort.", "preferredTerm": "Ischemic Discomfort Indicator", "submissionValue": "Ischemic Discomfort Indicator", "synonyms": ["Ischemic Discomfort Indicator"]}, {"conceptId": "C119236", "definition": "Categorization of the type of objective evidence of new or worsening ischemia.", "preferredTerm": "Ischemic Evidence Type", "submissionValue": "Ischemic Evidence Type", "synonyms": ["Ischemic Evidence Type"]}, {"conceptId": "C174278", "definition": "A measurement of the total length of the removed tissue, blood vessel, or organ.", "preferredTerm": "Length of Resection", "submissionValue": "Length of Resection", "synonyms": ["Length of Resection"]}, {"conceptId": "C117884", "definition": "The anatomical location of the beginning or early stages of a disease.", "preferredTerm": "Location of Disease Onset", "submissionValue": "Localization of Onset", "synonyms": ["Localization of Onset"]}, {"conceptId": "C96684", "definition": "The longest possible length of a straight line passing through the center of a circular or spheroid object that connects two points on the circumference.", "preferredTerm": "Longest Diameter", "submissionValue": "Longest Diameter", "synonyms": ["Longest Diameter"]}, {"conceptId": "C35461", "definition": "A description of the series of events, including signs and symptoms, that define the course of a chronic disease over time.", "preferredTerm": "Clinical Course of Disease", "submissionValue": "Longitudinal Course", "synonyms": ["Longitudinal Course"]}, {"conceptId": "C124437", "definition": "The agent, stimulus, activity, or event that causes stress with an acute frequency, which has the highest level of severity.", "preferredTerm": "Most Severe Acute Stressor", "submissionValue": "Most Severe Acute Stressor", "synonyms": ["Most Severe Acute Stressor"]}, {"conceptId": "C124441", "definition": "The agent, stimulus, activity, or event that causes stress with a chronic frequency, which has the highest level of severity.", "preferredTerm": "Most Severe Chronic Stressor", "submissionValue": "Most Severe Chronic Stressor", "synonyms": ["Most Severe Chronic Stressor"]}, {"conceptId": "C119238", "definition": "A description of the new or worsening symptoms related to a clinical event.", "preferredTerm": "New or Worsening Symptom", "submissionValue": "New or Worsening Symptoms", "synonyms": ["New or Worsening Symptoms"]}, {"conceptId": "C123443", "definition": "A description of the clinical change to the subject after a non-invasive imaging procedure.", "preferredTerm": "Clinical Change by Non-Invasive Imaging Procedure", "submissionValue": "Non-Invasive Imaging Change", "synonyms": ["Non-Invasive Imaging Change"]}, {"conceptId": "C174280", "definition": "The number of devices inserted into an individual.", "preferredTerm": "Number of Devices Inserted", "submissionValue": "Number of Devices Inserted", "synonyms": ["Number of Devices Inserted"]}, {"conceptId": "C124281", "definition": "The total number of episodes that have occurred for the condition.", "preferredTerm": "Number of Episodes", "submissionValue": "Number of Episodes", "synonyms": ["Number of Episodes"]}, {"conceptId": "C130057", "definition": "The total number of events that have occurred.", "preferredTerm": "Number of Events", "submissionValue": "Number of Events", "synonyms": ["Number of Events"]}, {"conceptId": "C124443", "definition": "The total number of hospitalization events that have occurred for the condition.", "preferredTerm": "Number of Hospitalizations", "submissionValue": "Number Of Hospitalizations", "synonyms": ["Number Of Hospitalizations"]}, {"conceptId": "C172478", "definition": "The number of laps completed around a course or circuit.", "preferredTerm": "Number of Laps Completed", "submissionValue": "Number of Laps Completed", "synonyms": ["Number of Laps Completed"]}, {"conceptId": "C174277", "definition": "The number of lesions observed.", "preferredTerm": "Number of Lesions", "submissionValue": "Number of Lesions", "synonyms": ["Number of Lesions"]}, {"conceptId": "C124328", "definition": "The number of times an event, which is classified as mild, occurred.", "preferredTerm": "Number of Mild Episodes", "submissionValue": "Number of Mild Episodes", "synonyms": ["Number of Mild Episodes"]}, {"conceptId": "C124329", "definition": "The number of times an event, which is classified as moderate, occurred.", "preferredTerm": "Number of Moderate Episodes", "submissionValue": "Number of Moderate Episodes", "synonyms": ["Number of Moderate Episodes"]}, {"conceptId": "C174275", "definition": "The number of objects observed.", "preferredTerm": "Number of Objects", "submissionValue": "Number of Objects", "synonyms": ["Number of Objects"]}, {"conceptId": "C174228", "definition": "The number of procedures performed on or in an individual.", "preferredTerm": "Number of Procedures Performed", "submissionValue": "Number of Procedures Performed", "synonyms": ["Number of Procedures Performed"]}, {"conceptId": "C124330", "definition": "The number of times an event, which is classified as severe, occurred.", "preferredTerm": "Number of Severe Episodes", "submissionValue": "Number of Severe Episodes", "synonyms": ["Number of Severe Episodes"]}, {"conceptId": "C172479", "definition": "The number of footsteps taken by an individual.", "preferredTerm": "Number of Steps Taken", "submissionValue": "Number of Steps Taken", "synonyms": ["Number of Steps Taken"]}, {"conceptId": "C174274", "definition": "The number of anatomical strictures observed.", "preferredTerm": "Number of Strictures", "submissionValue": "Number of Strictures", "synonyms": ["Number of Stricture"]}, {"conceptId": "C127786", "definition": "An indication as to whether something has happened, such as an event or incident.", "preferredTerm": "Occurrence Indicator", "submissionValue": "Occurrence Indicator", "synonyms": ["Occurrence Indicator"]}, {"conceptId": "C117885", "definition": "A categorization of the number of lesions present in the Central Nervous System at the time of diagnosis of a specific disease.", "preferredTerm": "Focality of Disease Onset", "submissionValue": "Onset Unifocal or Multifocal", "synonyms": ["Onset Unifocal or Multifocal"]}, {"conceptId": "C154860", "definition": "An indication as to whether the primary site of cancer is known.", "preferredTerm": "Cancer Primary Site Known Indicator", "submissionValue": "Origin of Cancer Known Ind", "synonyms": ["Origin of Cancer Known Ind", "Origin of Cancer Known Indicator"]}, {"conceptId": "C119239", "definition": "Categorization of the type of acute PCI angiographic complication resulting in acute myocardial ischemia.", "preferredTerm": "Acute Myocardial Infarction From PCI Complication Type", "submissionValue": "PCI Acute Angiographic Complication", "synonyms": ["PCI Acute Angiographic Complication"]}, {"conceptId": "C163413", "definition": "The factor that causes or triggers the onset of an occurrence.", "preferredTerm": "Precipitating Factor", "submissionValue": "Precipitating Factor", "synonyms": ["Precipitating Factor"]}, {"conceptId": "C170562", "definition": "The quantity of a product that has been made ready for use.", "preferredTerm": "Prepared Amount", "submissionValue": "Prepared Amount", "synonyms": ["Prepared Amount"]}, {"conceptId": "C179451", "definition": "The anatomical location of the primary tumor site of disease.", "preferredTerm": "Primary Tumor Site", "submissionValue": "Primary Site of Tumor Origin", "synonyms": ["Primary Site of Tumor Origin"]}, {"conceptId": "C119240", "definition": "An indication as to whether the procedure is considered successful.", "preferredTerm": "Procedure Success Indicator", "submissionValue": "Procedure Success Indicator", "synonyms": ["Procedure Success Indicator"]}, {"conceptId": "C101230", "definition": "The degree of urgency in which a medical procedure must be performed.", "preferredTerm": "Triage Status", "submissionValue": "Procedure Urgency Status Type", "synonyms": ["Procedure Urgency Status Type"]}, {"conceptId": "C170617", "definition": "The effect or consequence of an event or condition on an individual's sense of well-being and ability to enjoy life.", "preferredTerm": "Quality of Life Impact", "submissionValue": "QOL Impact", "synonyms": ["QOL Impact", "Quality of Life Impact"]}, {"conceptId": "C163414", "definition": "The relationship of an event to a device, which may or may not be a device under study.", "preferredTerm": "Relationship to Device", "submissionValue": "Relationship to Device", "synonyms": ["Relationship to Device"]}, {"conceptId": "C170563", "definition": "The quantity of a product that remains after dosing, consumption, or use.", "preferredTerm": "Remaining Amount", "submissionValue": "Remaining Amount", "synonyms": ["Remaining Amount"]}, {"conceptId": "C154861", "definition": "An indication as to whether the tumor has been resected.", "preferredTerm": "Tumor Resected Indicator", "submissionValue": "Resected Tumor Ind", "synonyms": ["Resected Tumor Ind", "Resected Tumor Indicator"]}, {"conceptId": "C78722", "definition": "The quantity of a product that has been returned. (NCI)", "preferredTerm": "Returned Amount", "submissionValue": "Returned Amount", "synonyms": ["Returned Amount"]}, {"conceptId": "C25676", "definition": "The degree of something undesirable.", "preferredTerm": "Severity", "submissionValue": "Severity/Intensity", "synonyms": ["Severity/Intensity"]}, {"conceptId": "C174281", "definition": "The signs and/or symptoms that result in the discontinuation of treatment or intervention.", "preferredTerm": "Sign or Symptom Leading to Discontinuation", "submissionValue": "Sign/Symptom Leading to Discontinuation", "synonyms": ["Sign/Symptom Leading to Discontinuation"]}, {"conceptId": "C41146", "definition": "A scalar measure of the rate of movement of the object expressed as the distance traveled divided by the elapsed time.", "preferredTerm": "Speed", "submissionValue": "Speed", "synonyms": ["Speed"]}, {"conceptId": "C123424", "definition": "Categorization of the timing of coronary stent thrombosis occurrence per the classification schema described by the Academic Research Consortium (ARC).", "preferredTerm": "Academic Research Council Coronary Stent Thrombosis Timing", "submissionValue": "Stent Thrombosis, Coronary, ARC Timing", "synonyms": ["Stent Thrombosis, Coronary, ARC Timing"]}, {"conceptId": "C119579", "definition": "Categorization of the type of stroke.", "preferredTerm": "Stroke Type", "submissionValue": "Stroke Type", "synonyms": ["Stroke Type"]}, {"conceptId": "C119241", "definition": "An indication as to whether the subject had symptoms related to the clinical event.", "preferredTerm": "Symptom Indicator", "submissionValue": "Symptom Indicator", "synonyms": ["Symptom Indicator"]}, {"conceptId": "C119242", "definition": "The date time of the onset of symptoms of the clinical event.", "preferredTerm": "Symptom Onset Date", "submissionValue": "Symptom Onset Date", "synonyms": ["Symptom Onset Date"]}, {"conceptId": "C127787", "definition": "A measurement of the total number of entities.", "preferredTerm": "Total Number", "submissionValue": "Total Number", "synonyms": ["Total Number"]}, {"conceptId": "C172477", "definition": "The total amount of time during which an event, operation or activity has been interrupted or stopped.", "preferredTerm": "Total Time Paused", "submissionValue": "Total Time Paused", "synonyms": ["Total Time Paused"]}, {"conceptId": "C172480", "definition": "The total amount of time during which an individual was actively engaged in physical activity.", "preferredTerm": "Total Time Physically Active", "submissionValue": "Total Time Physically Active", "synonyms": ["Total Time Physically Active"]}, {"conceptId": "C82528", "definition": "A standardized categorical classification of the severity of an event or finding.", "preferredTerm": "Toxicity Grade", "submissionValue": "Toxicity Grade", "synonyms": ["Toxicity Grade"]}, {"conceptId": "C124444", "definition": "The surroundings or environment within which the subject receives therapeutic treatment for the condition.", "preferredTerm": "Treatment Setting", "submissionValue": "Treatment Setting", "synonyms": ["Treatment Setting"]}, {"conceptId": "C174276", "definition": "The type of object observed.", "preferredTerm": "Type of Object", "submissionValue": "Type of Object", "synonyms": ["Type of Object"]}, {"conceptId": "C119243", "definition": "An indication as to whether vessel occlusion, in the native or bypass graft, occurred within 48 hours after the coronary artery bypass graft procedure.", "preferredTerm": "Vessel Occlusion 48 Hours after CABG Indicator", "submissionValue": "Vessel Occlusion After CABG 48 Ind", "synonyms": ["Vessel Occlusion After CABG 48 Ind"]}, {"conceptId": "C74720", "definition": "A measurement of the volume of a biological specimen.", "preferredTerm": "Volume Measurement", "submissionValue": "Volume", "synonyms": ["Volume"]}]}