{"_links": {"parentPackage": {"href": "/mdr/ct/packages/sdtmct-2021-06-25", "title": "SDTM Controlled Terminology Package 46 Effective 2021-06-25", "type": "Terminology"}, "rootItem": {"href": "/mdr/root/ct/sdtmct/codelists/C103481", "title": "Version-agnostic anchor resource for codelist C103481", "type": "Root Value Domain"}, "self": {"href": "/mdr/ct/packages/sdtmct-2021-06-25/codelists/C103481", "title": "CDISC Questionnaire PHQ-9 Test Code Terminology", "type": "Code List"}}, "conceptId": "C103481", "definition": "Patient Health Questionnaire - 9 test code.", "extensible": "false", "name": "Patient Health Questionnaire - 9 Item Questionnaire Test Code", "preferredTerm": "CDISC Questionnaire PHQ-9 Test Code Terminology", "submissionValue": "PHQ01TC", "synonyms": ["Patient Health Questionnaire - 9 Item Questionnaire Test Code"], "terms": [{"conceptId": "C103705", "definition": "Patient Health Questionnaire - 9 - Little interest or pleasure in doing things.", "preferredTerm": "PHQ-9 - Little Interest or Pleasure in Doing Things", "submissionValue": "PHQ0101", "synonyms": ["PHQ01-Little Interest/Pleasure in Things"]}, {"conceptId": "C103706", "definition": "Patient Health Questionnaire - 9 - Feeling down, depressed, or hopeless.", "preferredTerm": "PHQ-9 - Feeling Down, Depressed, or Hopeless", "submissionValue": "PHQ0102", "synonyms": ["PHQ01-Feeling Down Depressed or Hopeless"]}, {"conceptId": "C103707", "definition": "Patient Health Questionnaire - 9 - Trouble falling or staying asleep, or sleeping too much.", "preferredTerm": "PHQ-9 - Trouble Falling or Staying Asleep, or Sleeping Too Much", "submissionValue": "PHQ0103", "synonyms": ["PHQ01-Trouble Falling or Staying Asleep"]}, {"conceptId": "C103708", "definition": "Patient Health Questionnaire - 9 - Feeling tired or having little energy.", "preferredTerm": "PHQ-9 - Feeling Tired or Having Little Energy", "submissionValue": "PHQ0104", "synonyms": ["PHQ01-Feeling Tired or Little Energy"]}, {"conceptId": "C103709", "definition": "Patient Health Questionnaire - 9 - Poor appetite or overeating.", "preferredTerm": "PHQ-9 - Poor Appetite or Overeating", "submissionValue": "PHQ0105", "synonyms": ["PHQ01-Poor Appetite or Overeating"]}, {"conceptId": "C103710", "definition": "Patient Health Questionnaire - 9 - Feeling bad about yourself - or that you are a failure or have let yourself or your family down.", "preferredTerm": "PHQ-9 - Feeling Bad About Yourself", "submissionValue": "PHQ0106", "synonyms": ["PHQ01-Feeling Bad About Yourself"]}, {"conceptId": "C103711", "definition": "Patient Health Questionnaire - 9 - Trouble concentrating on things, such as reading the newspaper or watching television.", "preferredTerm": "PHQ-9 - Trouble Concentrating on Things", "submissionValue": "PHQ0107", "synonyms": ["PHQ01-Trouble Concentrating on Things"]}, {"conceptId": "C103712", "definition": "Patient Health Questionnaire - 9 - Moving or speaking so slowly that other people could have noticed? Or the opposite - being so fidgety or restless that you have been moving around a lot more than usual.", "preferredTerm": "PHQ-9 - Moving or Speaking Slowly or the Opposite being Fidgety or Restless", "submissionValue": "PHQ0108", "synonyms": ["PHQ01-Moving Slowly or Fidgety/Restless"]}, {"conceptId": "C103713", "definition": "Patient Health Questionnaire - 9 - Thoughts that you would be better off dead or of hurting yourself in some way.", "preferredTerm": "PHQ-9 - Thoughts That You Would be Better Off Dead", "submissionValue": "PHQ0109", "synonyms": ["PHQ01-Thoughts You Be Better Off Dead"]}, {"conceptId": "C103714", "definition": "Patient Health Questionnaire - 9 - If you checked off any problems, how difficult have these problems made it for you to do your work, take care of things at home, or get along with other people?", "preferredTerm": "PHQ-9 - How Difficult have Problems Made it for You to Work, Take Care of Things, or Get Along with Other People", "submissionValue": "PHQ0110", "synonyms": ["PHQ01-Difficult to Work/Take Care Things"]}, {"conceptId": "C113887", "definition": "Patient Health Questionnaire - 9 - Total score.", "preferredTerm": "PHQ-9 - Total Score", "submissionValue": "PHQ0111", "synonyms": ["PHQ01-Total Score"]}]}