{"_links": {"parentPackage": {"href": "/mdr/ct/packages/sdtmct-2021-06-25", "title": "SDTM Controlled Terminology Package 46 Effective 2021-06-25", "type": "Terminology"}, "rootItem": {"href": "/mdr/root/ct/sdtmct/codelists/C112437", "title": "Version-agnostic anchor resource for codelist C112437", "type": "Root Value Domain"}, "self": {"href": "/mdr/ct/packages/sdtmct-2021-06-25/codelists/C112437", "title": "CDISC Clinical Classification DS Test Code Terminology", "type": "Code List"}}, "conceptId": "C112437", "definition": "Disease Steps test code.", "extensible": "false", "name": "Disease Steps Clinical Classification Test Code", "preferredTerm": "CDISC Clinical Classification DS Test Code Terminology", "submissionValue": "DS01TC", "synonyms": ["Disease Steps Clinical Classification Test Code"], "terms": [{"conceptId": "C112549", "definition": "Disease Steps - Methods: For Disease Steps, classification of a patient is determined by history and neurologic examination as well as course of MS.", "preferredTerm": "DS - Disease Steps Classification", "submissionValue": "DS0101", "synonyms": ["DS01-Disease Steps Classification"]}]}