{"_links": {"parentPackage": {"href": "/mdr/ct/packages/sdtmct-2021-06-25", "title": "SDTM Controlled Terminology Package 46 Effective 2021-06-25", "type": "Terminology"}, "rootItem": {"href": "/mdr/root/ct/sdtmct/codelists/C115408", "title": "Version-agnostic anchor resource for codelist C115408", "type": "Root Value Domain"}, "self": {"href": "/mdr/ct/packages/sdtmct-2021-06-25/codelists/C115408", "title": "CDISC Questionnaire SWLS Test Code Terminology", "type": "Code List"}}, "conceptId": "C115408", "definition": "Satisfaction With Life Scale test code.", "extensible": "false", "name": "Satisfaction With Life Scale Questionnaire Test Code", "preferredTerm": "CDISC Questionnaire SWLS Test Code Terminology", "submissionValue": "SWLS01TC", "synonyms": ["Satisfaction With Life Scale Questionnaire Test Code"], "terms": [{"conceptId": "C115895", "definition": "Satisfaction With Life Scale - In most ways my life is close to ideal.", "preferredTerm": "SWLS - My Life is Close to Ideal", "submissionValue": "SWLS0101", "synonyms": ["SWLS01-My Life is Close to Ideal"]}, {"conceptId": "C115896", "definition": "Satisfaction With Life Scale - The conditions of my life are excellent.", "preferredTerm": "SWLS - Life Conditions are Excellent", "submissionValue": "SWLS0102", "synonyms": ["SWLS01-My Life Conditions are Excellent"]}, {"conceptId": "C115897", "definition": "Satisfaction With Life Scale - I am satisfied with my life.", "preferredTerm": "SWLS - Satisfied with My Life", "submissionValue": "SWLS0103", "synonyms": ["SWLS01-I Am Satisfied with My Life"]}, {"conceptId": "C115898", "definition": "Satisfaction With Life Scale - So far I have gotten the important things I want in life.", "preferredTerm": "SWLS - Have Gotten Important Things", "submissionValue": "SWLS0104", "synonyms": ["SWLS01-Have Gotten Important Things"]}, {"conceptId": "C115899", "definition": "Satisfaction With Life Scale - If I could live my life over, I would change almost nothing.", "preferredTerm": "SWLS - Live Life Over Change Nothing", "submissionValue": "SWLS0105", "synonyms": ["SWLS01-Live Life Over Change Nothing"]}]}