{"_links": {"parentPackage": {"href": "/mdr/ct/packages/sdtmct-2021-06-25", "title": "SDTM Controlled Terminology Package 46 Effective 2021-06-25", "type": "Terminology"}, "rootItem": {"href": "/mdr/root/ct/sdtmct/codelists/C124305", "title": "Version-agnostic anchor resource for codelist C124305", "type": "Root Value Domain"}, "self": {"href": "/mdr/ct/packages/sdtmct-2021-06-25/codelists/C124305", "title": "CDISC SDTM Subject Status Test Code Terminology", "type": "Code List"}}, "conceptId": "C124305", "definition": "Terminology relevant to test code for subject characteristics that are evaluated periodically to determine if they have changed.", "extensible": "true", "name": "Subject Status Test Code", "preferredTerm": "CDISC SDTM Subject Status Test Code Terminology", "submissionValue": "SSTESTCD", "synonyms": ["Subject Status Test Code"], "terms": [{"conceptId": "C25717", "definition": "The state or condition of being living or deceased; also includes the case where the vital status is unknown.", "preferredTerm": "Vital Status", "submissionValue": "SURVSTAT", "synonyms": ["Survival Status"]}]}