{"_links": {"parentPackage": {"href": "/mdr/ct/packages/sdtmct-2021-06-25", "title": "SDTM Controlled Terminology Package 46 Effective 2021-06-25", "type": "Terminology"}, "rootItem": {"href": "/mdr/root/ct/sdtmct/codelists/C129941", "title": "Version-agnostic anchor resource for codelist C129941", "type": "Root Value Domain"}, "self": {"href": "/mdr/ct/packages/sdtmct-2021-06-25/codelists/C129941", "title": "CDISC SDTM Urinary System Test Name Terminology", "type": "Code List"}}, "conceptId": "C129941", "definition": "A terminology codelist to describe the test name for examinations of the urinary system.", "extensible": "true", "name": "Urinary System Test Name", "preferredTerm": "CDISC SDTM Urinary System Test Name Terminology", "submissionValue": "URNSTS", "synonyms": ["Urinary System Test Name"], "terms": [{"conceptId": "C94866", "definition": "The volume of blood per unit time passing through a specified location, such as a point in a blood vessel or an entire organ.", "preferredTerm": "Blood Flow Rate", "submissionValue": "Blood Flow Rate", "synonyms": ["Blood Flow Rate"]}, {"conceptId": "C64546", "definition": "A measurement of the color of a biological specimen.", "preferredTerm": "Color Assessment", "submissionValue": "Color", "synonyms": ["Color"]}, {"conceptId": "C135522", "definition": "The condition of the donated organ or tissue. (NCI)", "preferredTerm": "Graft Status", "submissionValue": "Graft Status", "synonyms": ["Graft Status"]}, {"conceptId": "C179823", "definition": "An indication as to whether hematoma has occurred.", "preferredTerm": "Hematoma Indicator", "submissionValue": "Hematoma Indicator", "synonyms": ["Hematoma Indicator"]}, {"conceptId": "C25334", "definition": "The linear extent in space from one end of something to the other end, or the extent of something from beginning to end. (NCI)", "preferredTerm": "Length", "submissionValue": "Length", "synonyms": ["Length"]}, {"conceptId": "C130195", "definition": "A measurement of the total number of renal arteries.", "preferredTerm": "Number of Renal Arteries", "submissionValue": "Number of Renal Arteries", "synonyms": ["Number of Renal Arteries"]}, {"conceptId": "C130196", "definition": "A measurement of the total number of renal veins.", "preferredTerm": "Number of Renal Veins", "submissionValue": "Number of Renal Veins", "synonyms": ["Number of Renal Veins"]}, {"conceptId": "C179824", "definition": "An indication as to whether surgical damage has occurred.", "preferredTerm": "Surgical Damage Indicator", "submissionValue": "Surgical Damage Indicator", "synonyms": ["Surgical Damage Indicator"]}]}