{"_links": {"parentPackage": {"href": "/mdr/ct/packages/sdtmct-2021-06-25", "title": "SDTM Controlled Terminology Package 46 Effective 2021-06-25", "type": "Terminology"}, "rootItem": {"href": "/mdr/root/ct/sdtmct/codelists/C130275", "title": "Version-agnostic anchor resource for codelist C130275", "type": "Root Value Domain"}, "self": {"href": "/mdr/ct/packages/sdtmct-2021-06-25/codelists/C130275", "title": "CDISC Questionnaire WHODAS 2.0 12-item Version Interviewer-administered Test Code Terminology", "type": "Code List"}}, "conceptId": "C130275", "definition": "World Health Organization Disability Assessment Schedule 2.0 - 12-Item Interviewer test code.", "extensible": "false", "name": "World Health Organization Disability Assessment Schedule 2.0 - 12-Item Interviewer Questionnaire Test Code", "preferredTerm": "CDISC Questionnaire WHODAS 2.0 12-item Version Interviewer-administered Test Code Terminology", "submissionValue": "WD1TC", "synonyms": ["World Health Organization Disability Assessment Schedule 2.0 - 12-Item Interviewer Questionnaire Test Code"], "terms": [{"conceptId": "C130899", "definition": "World Health Organization Disability Assessment Schedule 2.0 - 12-Item Interviewer - Record sex as observed.", "preferredTerm": "WHODAS 2.0 12-item Version Interviewer-administered - Observed Sex", "submissionValue": "WD1A1", "synonyms": ["WD1-Sex as Observed"]}, {"conceptId": "C130900", "definition": "World Health Organization Disability Assessment Schedule 2.0 - 12-Item Interviewer - How old are you now?", "preferredTerm": "WHODAS 2.0 12-item Version Interviewer-administered - How Old Are You Now", "submissionValue": "WD1A2", "synonyms": ["WD1-How Old Are You Now"]}, {"conceptId": "C130901", "definition": "World Health Organization Disability Assessment Schedule 2.0 - 12-Item Interviewer - How many years in all did you spend studying in school, college or university?", "preferredTerm": "WHODAS 2.0 12-item Version Interviewer-administered - Years Studying in School or College", "submissionValue": "WD1A3", "synonyms": ["WD1-Years Studying in School/College"]}, {"conceptId": "C130902", "definition": "World Health Organization Disability Assessment Schedule 2.0 - 12-Item Interviewer - What is your current marital status?", "preferredTerm": "WHODAS 2.0 12-item Version Interviewer-administered - Current Marital Status", "submissionValue": "WD1A4", "synonyms": ["WD1-Current Marital Status"]}, {"conceptId": "C130903", "definition": "World Health Organization Disability Assessment Schedule 2.0 - 12-Item Interviewer - Which describes your main work status best?", "preferredTerm": "WHODAS 2.0 12-item Version Interviewer-administered - Describes Main Work Status Best", "submissionValue": "WD1A5", "synonyms": ["WD1-Describes Main Work Status Best"]}, {"conceptId": "C130898", "definition": "World Health Organization Disability Assessment Schedule 2.0 - 12-Item Interviewer - Living situation at time of interview.", "preferredTerm": "WHODAS 2.0 12-item Version Interviewer-administered - Living Situation at Interview", "submissionValue": "WD1F5", "synonyms": ["WD1-Living Situation at Interview"]}, {"conceptId": "C130916", "definition": "World Health Organization Disability Assessment Schedule 2.0 - 12-Item Interviewer - Overall, in the past 30 days, how many days were these difficulties present?", "preferredTerm": "WHODAS 2.0 12-item Version Interviewer-administered - How Many Days Difficulties Present", "submissionValue": "WD1H1", "synonyms": ["WD1-How Many Days Difficulties Present"]}, {"conceptId": "C130917", "definition": "World Health Organization Disability Assessment Schedule 2.0 - 12-Item Interviewer - In the past 30 days, for how many days were you totally unable to carry out your usual activities or work because of any health condition?", "preferredTerm": "WHODAS 2.0 12-item Version Interviewer-administered - Days Unable to Carry Out Activities", "submissionValue": "WD1H2", "synonyms": ["WD1-Days Unable to Carry Out Activities"]}, {"conceptId": "C130918", "definition": "World Health Organization Disability Assessment Schedule 2.0 - 12-Item Interviewer - In the past 30 days, not counting the days that you were totally unable, for how many days did you cut back or reduce your usual activities or work because of any health condition?", "preferredTerm": "WHODAS 2.0 12-item Version Interviewer-administered - How Many Days Reduce Activities", "submissionValue": "WD1H3", "synonyms": ["WD1-How Many Days Reduce Activities"]}, {"conceptId": "C130904", "definition": "World Health Organization Disability Assessment Schedule 2.0 - 12-Item Interviewer - In the past 30 days, how much difficulty did you have in: Standing for long periods such as 30 minutes?", "preferredTerm": "WHODAS 2.0 12-item Version Interviewer-administered - Standing for Long Periods", "submissionValue": "WD1S1", "synonyms": ["WD1-Standing for Long Periods"]}, {"conceptId": "C130913", "definition": "World Health Organization Disability Assessment Schedule 2.0 - 12-Item Interviewer - In the past 30 days, how much difficulty did you have in: Dealing with people you do not know?", "preferredTerm": "WHODAS 2.0 12-item Version Interviewer-administered - Dealing With People You Do Not Know", "submissionValue": "WD1S10", "synonyms": ["WD1-Dealing With People You Do Not Know"]}, {"conceptId": "C130914", "definition": "World Health Organization Disability Assessment Schedule 2.0 - 12-Item Interviewer - In the past 30 days, how much difficulty did you have in: Maintaining a friendship?", "preferredTerm": "WHODAS 2.0 12-item Version Interviewer-administered - Maintaining a Friendship", "submissionValue": "WD1S11", "synonyms": ["WD1-Maintaining a Friendship"]}, {"conceptId": "C130915", "definition": "World Health Organization Disability Assessment Schedule 2.0 - 12-Item Interviewer - In the past 30 days, how much difficulty did you have in: Your day-to-day work/school?", "preferredTerm": "WHODAS 2.0 12-item Version Interviewer-administered - Your Day-to-Day Work or School", "submissionValue": "WD1S12", "synonyms": ["WD1-Your Day-to-Day Work/School"]}, {"conceptId": "C130905", "definition": "World Health Organization Disability Assessment Schedule 2.0 - 12-Item Interviewer - In the past 30 days, how much difficulty did you have in: Taking care of your household responsibilities?", "preferredTerm": "WHODAS 2.0 12-item Version Interviewer-administered - Care of Household Responsibilities", "submissionValue": "WD1S2", "synonyms": ["WD1-Care of Household Responsibilities"]}, {"conceptId": "C130906", "definition": "World Health Organization Disability Assessment Schedule 2.0 - 12-Item Interviewer - In the past 30 days, how much difficulty did you have in: Learning a new task, for example, learning how to get to a new place?", "preferredTerm": "WHODAS 2.0 12-item Version Interviewer-administered - Learning a New Task", "submissionValue": "WD1S3", "synonyms": ["WD1-Learning a New Task"]}, {"conceptId": "C130907", "definition": "World Health Organization Disability Assessment Schedule 2.0 - 12-Item Interviewer - In the past 30 days, how much difficulty did you have in: How much of a problem did you have joining in community activities (for example, festivities, religious or other activities) in the same way as anyone else can?", "preferredTerm": "WHODAS 2.0 12-item Version Interviewer-administered - Problem Joining Community Activities", "submissionValue": "WD1S4", "synonyms": ["WD1-Problem Joining Community Activities"]}, {"conceptId": "C130908", "definition": "World Health Organization Disability Assessment Schedule 2.0 - 12-Item Interviewer - In the past 30 days, how much difficulty did you have in: How much have you been emotionally affected by your health problems?", "preferredTerm": "WHODAS 2.0 12-item Version Interviewer-administered - Emotionally Affected by Health", "submissionValue": "WD1S5", "synonyms": ["WD1-Emotionally Affected by Health"]}, {"conceptId": "C130909", "definition": "World Health Organization Disability Assessment Schedule 2.0 - 12-Item Interviewer - In the past 30 days, how much difficulty did you have in: Concentrating on doing something for ten minutes?", "preferredTerm": "WHODAS 2.0 12-item Version Interviewer-administered - Concentrating for Ten Minutes", "submissionValue": "WD1S6", "synonyms": ["WD1-Concentrating for Ten Minutes"]}, {"conceptId": "C130910", "definition": "World Health Organization Disability Assessment Schedule 2.0 - 12-Item Interviewer - In the past 30 days, how much difficulty did you have in: Walking a long distance such as a kilometre [or equivalent]?", "preferredTerm": "WHODAS 2.0 12-item Version Interviewer-administered - Walking a Long Distance", "submissionValue": "WD1S7", "synonyms": ["WD1-Walking a Long Distance"]}, {"conceptId": "C130911", "definition": "World Health Organization Disability Assessment Schedule 2.0 - 12-Item Interviewer - In the past 30 days, how much difficulty did you have in: Washing your whole body?", "preferredTerm": "WHODAS 2.0 12-item Version Interviewer-administered - Washing Your Whole Body", "submissionValue": "WD1S8", "synonyms": ["WD1-Washing Your Whole Body"]}, {"conceptId": "C130912", "definition": "World Health Organization Disability Assessment Schedule 2.0 - 12-Item Interviewer - In the past 30 days, how much difficulty did you have in: Getting dressed?", "preferredTerm": "WHODAS 2.0 12-item Version Interviewer-administered - Getting Dressed", "submissionValue": "WD1S9", "synonyms": ["WD1-Getting Dressed"]}]}