{"_links": {"parentPackage": {"href": "/mdr/ct/packages/sdtmct-2021-06-25", "title": "SDTM Controlled Terminology Package 46 Effective 2021-06-25", "type": "Terminology"}, "rootItem": {"href": "/mdr/root/ct/sdtmct/codelists/C132317", "title": "Version-agnostic anchor resource for codelist C132317", "type": "Root Value Domain"}, "self": {"href": "/mdr/ct/packages/sdtmct-2021-06-25/codelists/C132317", "title": "CDISC SDTM Genetic Region of Interest Type Terminology", "type": "Code List"}}, "conceptId": "C132317", "definition": "Terminology relevant to the classification of the genetic region under study.", "extensible": "true", "name": "Genetic Region of Interest Type", "preferredTerm": "CDISC SDTM Genetic Region of Interest Type Terminology", "submissionValue": "GENRTYP", "synonyms": ["Genetic Region of Interest Type"], "terms": [{"conceptId": "C16612", "definition": "A functional unit of heredity which occupies a specific position on a particular chromosome and serves as the template for a product that contributes to a phenotype or a biological function. (NCI)", "preferredTerm": "Gene", "submissionValue": "GENE"}, {"conceptId": "C13338", "definition": "A variety of simple 2-5 base pair repeats (e.g., T-A repeats, variable number of tandem repeats (VNTRs), etc.) present within most chromosomes. (NCI)", "preferredTerm": "Microsatellite Repeat", "submissionValue": "MICROSATELLITE"}]}