{"_links": {"parentPackage": {"href": "/mdr/ct/packages/sdtmct-2021-06-25", "title": "SDTM Controlled Terminology Package 46 Effective 2021-06-25", "type": "Terminology"}, "rootItem": {"href": "/mdr/root/ct/sdtmct/codelists/C135677", "title": "Version-agnostic anchor resource for codelist C135677", "type": "Root Value Domain"}, "self": {"href": "/mdr/ct/packages/sdtmct-2021-06-25/codelists/C135677", "title": "CDISC Clinical Classification PASI Test Name Terminology", "type": "Code List"}}, "conceptId": "C135677", "definition": "Psoriasis Area and Severity Index test name.", "extensible": "false", "name": "Psoriasis Area and Severity Index Clinical Classification Test Name", "preferredTerm": "CDISC Clinical Classification PASI Test Name Terminology", "submissionValue": "PASI01TN", "synonyms": ["Psoriasis Area and Severity Index Clinical Classification Test Name"], "terms": [{"conceptId": "C135750", "definition": "Psoriasis Area and Severity Index - Head (H): Area score.", "preferredTerm": "PASI - Head (H): Area Score", "submissionValue": "PASI01-Head (H): Area Score", "synonyms": ["PASI01-Head (H): Area Score"]}, {"conceptId": "C135748", "definition": "Psoriasis Area and Severity Index - Head (H): Desquamation (D).", "preferredTerm": "PASI - Head (H): Desquamation (D)", "submissionValue": "PASI01-Head (H): Desquamation (D)", "synonyms": ["PASI01-Head (H): Desquamation (D)"]}, {"conceptId": "C135746", "definition": "Psoriasis Area and Severity Index - Head (H): Erythema (E).", "preferredTerm": "PASI - Head (H): Erythema (E)", "submissionValue": "PASI01-Head (H): Erythema (E)", "synonyms": ["PASI01-Head (H): Erythema (E)"]}, {"conceptId": "C135747", "definition": "Psoriasis Area and Severity Index - Head (H): Infiltration (I).", "preferredTerm": "PASI - Head (H): Infiltration (I)", "submissionValue": "PASI01-Head (H): Infiltration (I)", "synonyms": ["PASI01-Head (H): Infiltration (I)"]}, {"conceptId": "C135749", "definition": "Psoriasis Area and Severity Index - Head (H): Sum = E + I + D.", "preferredTerm": "PASI - Head (H): Sum = E+I+D", "submissionValue": "PASI01-Head (H): Sum = E+I+D", "synonyms": ["PASI01-Head (H): Sum = E+I+D"]}, {"conceptId": "C135751", "definition": "Psoriasis Area and Severity Index - Head (H): Sum x area.", "preferredTerm": "PASI - Head (H): Sum X Area", "submissionValue": "PASI01-Head (H): Sum X Area", "synonyms": ["PASI01-Head (H): Sum X Area"]}, {"conceptId": "C135752", "definition": "Psoriasis Area and Severity Index - Head (H): Sum x area x 0.1.", "preferredTerm": "PASI - Head (H): Sum X Area X 0.1", "submissionValue": "PASI01-Head (H): Sum X Area X 0.1", "synonyms": ["PASI01-Head (H): Sum X Area X 0.1"]}, {"conceptId": "C135771", "definition": "Psoriasis Area and Severity Index - Lower Extremities (L): Area score.", "preferredTerm": "PASI - Lower Extremities (L): Area Score", "submissionValue": "PASI01-Low Extrem (L): Area Score", "synonyms": ["PASI01-Low Extrem (L): Area Score"]}, {"conceptId": "C135769", "definition": "Psoriasis Area and Severity Index - Lower Extremities (L): Desquamation (D).", "preferredTerm": "PASI - Lower Extremities (L): Desquamation (D)", "submissionValue": "PASI01-Low Extrem (L): Desquamation (D)", "synonyms": ["PASI01-Low Extrem (L): Desquamation (D)"]}, {"conceptId": "C135767", "definition": "Psoriasis Area and Severity Index - Lower Extremities (L): Erythema (E).", "preferredTerm": "PASI - Lower Extremities (L): Erythema (E)", "submissionValue": "PASI01-Low Extrem (L): Erythema (E)", "synonyms": ["PASI01-Low Extrem (L): Erythema (E)"]}, {"conceptId": "C135768", "definition": "Psoriasis Area and Severity Index - Lower Extremities (L): Infiltration (I).", "preferredTerm": "PASI - Lower Extremities (L): Infiltration (I)", "submissionValue": "PASI01-Low Extrem (L): Infiltration (I)", "synonyms": ["PASI01-Low Extrem (L): Infiltration (I)"]}, {"conceptId": "C135770", "definition": "Psoriasis Area and Severity Index - Lower Extremities (L): Sum = E + I + D.", "preferredTerm": "PASI - Lower Extremities (L): Sum = E+I+D", "submissionValue": "PASI01-Low Extrem (L): Sum = E+I+D", "synonyms": ["PASI01-Low Extrem (L): Sum = E+I+D"]}, {"conceptId": "C135772", "definition": "Psoriasis Area and Severity Index - Lower Extremities (L): Sum x area.", "preferredTerm": "PASI - Lower Extremities (L): Sum X Area", "submissionValue": "PASI01-Low Extrem (L): Sum X Area", "synonyms": ["PASI01-Low Extrem (L): Sum X Area"]}, {"conceptId": "C135773", "definition": "Psoriasis Area and Severity Index - Lower Extremities (L): Sum x area x 0.4.", "preferredTerm": "PASI - Lower Extremities (L): Sum X Area X 0.4", "submissionValue": "PASI01-Low Extrem (L): Sum X Area X 0.4", "synonyms": ["PASI01-Low Extrem (L): Sum X Area X 0.4"]}, {"conceptId": "C135774", "definition": "Psoriasis Area and Severity Index - Total sum.", "preferredTerm": "PASI - Total Sum", "submissionValue": "PASI01-Total Sum", "synonyms": ["PASI01-Total Sum"]}, {"conceptId": "C135757", "definition": "Psoriasis Area and Severity Index - Trunk (T): Area score.", "preferredTerm": "PASI - Trunk (T): Area Score", "submissionValue": "PASI01-Trunk (T): Area Score", "synonyms": ["PASI01-Trunk (T): Area Score"]}, {"conceptId": "C135755", "definition": "Psoriasis Area and Severity Index - Trunk (T): Desquamation (D).", "preferredTerm": "PASI - Trunk (T): Desquamation (D)", "submissionValue": "PASI01-Trunk (T): Desquamation (D)", "synonyms": ["PASI01-Trunk (T): Desquamation (D)"]}, {"conceptId": "C135753", "definition": "Psoriasis Area and Severity Index - Trunk (T): Erythema (E).", "preferredTerm": "PASI - Trunk (T): Erythema (E)", "submissionValue": "PASI01-Trunk (T): Erythema (E)", "synonyms": ["PASI01-Trunk (T): Erythema (E)"]}, {"conceptId": "C135754", "definition": "Psoriasis Area and Severity Index - Trunk (T): Infiltration (I).", "preferredTerm": "PASI - Trunk (T): Infiltration (I)", "submissionValue": "PASI01-Trunk (T): Infiltration (I)", "synonyms": ["PASI01-Trunk (T): Infiltration (I)"]}, {"conceptId": "C135756", "definition": "Psoriasis Area and Severity Index - Trunk (T): Sum = E + I + D.", "preferredTerm": "PASI - Trunk (T): Sum = E+I+D", "submissionValue": "PASI01-Trunk (T): Sum = E+I+D", "synonyms": ["PASI01-Trunk (T): Sum = E+I+D"]}, {"conceptId": "C135758", "definition": "Psoriasis Area and Severity Index - Trunk (T): Sum x area.", "preferredTerm": "PASI - Trunk (T): Sum X Area", "submissionValue": "PASI01-Trunk (T): Sum X Area", "synonyms": ["PASI01-Trunk (T): Sum X Area"]}, {"conceptId": "C135759", "definition": "Psoriasis Area and Severity Index - Trunk (T): Sum x area x 0.3.", "preferredTerm": "PASI - Trunk (T): Sum X Area X 0.3", "submissionValue": "PASI01-Trunk (T): Sum X Area X 0.3", "synonyms": ["PASI01-Trunk (T): Sum X Area X 0.3"]}, {"conceptId": "C135764", "definition": "Psoriasis Area and Severity Index - Upper Extremities (U): Area score.", "preferredTerm": "PASI - Upper Extremities (U): Area Score", "submissionValue": "PASI01-Up Extrem (U): Area Score", "synonyms": ["PASI01-Up Extrem (U): Area Score"]}, {"conceptId": "C135762", "definition": "Psoriasis Area and Severity Index - Upper Extremities (U): Desquamation (D).", "preferredTerm": "PASI - Upper Extremities (U): Desquamation (D)", "submissionValue": "PASI01-Up Extrem (U): Desquamation (D)", "synonyms": ["PASI01-Up Extrem (U): Desquamation (D)"]}, {"conceptId": "C135760", "definition": "Psoriasis Area and Severity Index - Upper Extremities (U): Erythema (E).", "preferredTerm": "PASI - Upper Extremities (U): Erythema (E)", "submissionValue": "PASI01-Up Extrem (U): Erythema (E)", "synonyms": ["PASI01-Up Extrem (U): Erythema (E)"]}, {"conceptId": "C135761", "definition": "Psoriasis Area and Severity Index - Upper Extremities (U): Infiltration (I).", "preferredTerm": "PASI - Upper Extremities (U): Infiltration (I)", "submissionValue": "PASI01-Up Extrem (U): Infiltration (I)", "synonyms": ["PASI01-Up Extrem (U): Infiltration (I)"]}, {"conceptId": "C135763", "definition": "Psoriasis Area and Severity Index - Upper Extremities (U): Sum = E + I + D.", "preferredTerm": "PASI - Upper Extremities (U): Sum = E+I+D", "submissionValue": "PASI01-Up Extrem (U): Sum = E+I+D", "synonyms": ["PASI01-Up Extrem (U): Sum = E+I+D"]}, {"conceptId": "C135765", "definition": "Psoriasis Area and Severity Index - Upper Extremities (U): Sum x area.", "preferredTerm": "PASI - Upper Extremities (U): Sum X Area", "submissionValue": "PASI01-Up Extrem (U): Sum X Area", "synonyms": ["PASI01-Up Extrem (U): Sum X Area"]}, {"conceptId": "C135766", "definition": "Psoriasis Area and Severity Index - Upper Extremities (U): Sum x area x 0.2.", "preferredTerm": "PASI - Upper Extremities (U): Sum X Area X 0.2", "submissionValue": "PASI01-Up Extrem (U): Sum X Area X 0.2", "synonyms": ["PASI01-Up Extrem (U): Sum X Area X 0.2"]}]}