{"_links": {"parentPackage": {"href": "/mdr/ct/packages/sdtmct-2021-06-25", "title": "SDTM Controlled Terminology Package 46 Effective 2021-06-25", "type": "Terminology"}, "rootItem": {"href": "/mdr/root/ct/sdtmct/codelists/C138214", "title": "Version-agnostic anchor resource for codelist C138214", "type": "Root Value Domain"}, "self": {"href": "/mdr/ct/packages/sdtmct-2021-06-25/codelists/C138214", "title": "CDISC Clinical Classification LPSS Test Name Terminology", "type": "Code List"}}, "conceptId": "C138214", "definition": "Lansky Play-Performance Status Scale test name.", "extensible": "false", "name": "Lansky Play-Performance Status Scale Clinical Classification Test Name", "preferredTerm": "CDISC Clinical Classification LPSS Test Name Terminology", "submissionValue": "LPPSS1TN", "synonyms": ["Lansky Play-Performance Status Scale Clinical Classification Test Name"], "terms": [{"conceptId": "C138364", "definition": "Lansky Play-Performance Status Scale - Lansky play-performance status.", "preferredTerm": "LPSS - Lansky Play-Performance Status", "submissionValue": "LPPSS1-Lansky Play-Performance Status", "synonyms": ["LPPSS1-Lansky Play-Performance Status"]}]}