{"_links": {"parentPackage": {"href": "/mdr/ct/packages/sdtmct-2021-06-25", "title": "SDTM Controlled Terminology Package 46 Effective 2021-06-25", "type": "Terminology"}, "rootItem": {"href": "/mdr/root/ct/sdtmct/codelists/C138241", "title": "Version-agnostic anchor resource for codelist C138241", "type": "Root Value Domain"}, "self": {"href": "/mdr/ct/packages/sdtmct-2021-06-25/codelists/C138241", "title": "CDISC Questionnaire PedsQL Neuromuscular Module Acute Version 3.0 Young Adult Report Test Code Terminology", "type": "Code List"}}, "conceptId": "C138241", "definition": "Pediatric Quality of Life Neuromuscular Module Acute Version 3 Young Adult test code.", "extensible": "false", "name": "Pediatric Quality of Life Neuromuscular Module Acute Version 3 Young Adult Questionnaire Test Code", "preferredTerm": "CDISC Questionnaire PedsQL Neuromuscular Module Acute Version 3.0 Young Adult Report Test Code Terminology", "submissionValue": "PQL10TC", "synonyms": ["Pediatric Quality of Life Neuromuscular Module Acute Version 3 Young Adult Questionnaire Test Code"], "terms": [{"conceptId": "C138640", "definition": "Pediatric Quality of Life Neuromuscular Module Acute Version 3 Young Adult - In the past 7 days, how much of a problem has this been for you: It is hard to breathe.", "preferredTerm": "PedsQL Neuromuscular Module Acute Version 3.0 Young Adult Report - Hard to Breathe", "submissionValue": "PQL1001", "synonyms": ["PQL10-Hard to Breathe"]}, {"conceptId": "C138641", "definition": "Pediatric Quality of Life Neuromuscular Module Acute Version 3 Young Adult - In the past 7 days, how much of a problem has this been for you: I get sick easily.", "preferredTerm": "PedsQL Neuromuscular Module Acute Version 3.0 Young Adult Report - Get Sick Easily", "submissionValue": "PQL1002", "synonyms": ["PQL10-Get Sick Easily"]}, {"conceptId": "C138642", "definition": "Pediatric Quality of Life Neuromuscular Module Acute Version 3 Young Adult - In the past 7 days, how much of a problem has this been for you: I get sores and/or rashes.", "preferredTerm": "PedsQL Neuromuscular Module Acute Version 3.0 Young Adult Report - Get Sores and/or Rashes", "submissionValue": "PQL1003", "synonyms": ["PQL10-Get Sores and/or Rashes"]}, {"conceptId": "C138643", "definition": "Pediatric Quality of Life Neuromuscular Module Acute Version 3 Young Adult - In the past 7 days, how much of a problem has this been for you: My legs hurt.", "preferredTerm": "PedsQL Neuromuscular Module Acute Version 3.0 Young Adult Report - Legs Hurt", "submissionValue": "PQL1004", "synonyms": ["PQL10-Legs Hurt"]}, {"conceptId": "C138644", "definition": "Pediatric Quality of Life Neuromuscular Module Acute Version 3 Young Adult - In the past 7 days, how much of a problem has this been for you: I feel tired.", "preferredTerm": "PedsQL Neuromuscular Module Acute Version 3.0 Young Adult Report - Feel Tired", "submissionValue": "PQL1005", "synonyms": ["PQL10-Feel Tired"]}, {"conceptId": "C138645", "definition": "Pediatric Quality of Life Neuromuscular Module Acute Version 3 Young Adult - In the past 7 days, how much of a problem has this been for you: My back feels stiff.", "preferredTerm": "PedsQL Neuromuscular Module Acute Version 3.0 Young Adult Report - Back Feels Stiff", "submissionValue": "PQL1006", "synonyms": ["PQL10-Back Feels Stiff"]}, {"conceptId": "C138646", "definition": "Pediatric Quality of Life Neuromuscular Module Acute Version 3 Young Adult - In the past 7 days, how much of a problem has this been for you: I wake up tired.", "preferredTerm": "PedsQL Neuromuscular Module Acute Version 3.0 Young Adult Report - Wake Up Tired", "submissionValue": "PQL1007", "synonyms": ["PQL10-Wake Up Tired"]}, {"conceptId": "C138647", "definition": "Pediatric Quality of Life Neuromuscular Module Acute Version 3 Young Adult - In the past 7 days, how much of a problem has this been for you: My hands are weak.", "preferredTerm": "PedsQL Neuromuscular Module Acute Version 3.0 Young Adult Report - Hands Are Weak", "submissionValue": "PQL1008", "synonyms": ["PQL10-Hands Are Weak"]}, {"conceptId": "C138648", "definition": "Pediatric Quality of Life Neuromuscular Module Acute Version 3 Young Adult - In the past 7 days, how much of a problem has this been for you: It is hard to use the bathroom.", "preferredTerm": "PedsQL Neuromuscular Module Acute Version 3.0 Young Adult Report - Hard to Use Bathroom", "submissionValue": "PQL1009", "synonyms": ["PQL10-Hard to Use Bathroom"]}, {"conceptId": "C138649", "definition": "Pediatric Quality of Life Neuromuscular Module Acute Version 3 Young Adult - In the past 7 days, how much of a problem has this been for you: It is hard to gain or lose weight when I want to.", "preferredTerm": "PedsQL Neuromuscular Module Acute Version 3.0 Young Adult Report - Hard to Gain or Lose Weight", "submissionValue": "PQL1010", "synonyms": ["PQL10-Hard to Gain/Lose Weight"]}, {"conceptId": "C138650", "definition": "Pediatric Quality of Life Neuromuscular Module Acute Version 3 Young Adult - In the past 7 days, how much of a problem has this been for you: It is hard to use my hands.", "preferredTerm": "PedsQL Neuromuscular Module Acute Version 3.0 Young Adult Report - Hard to Use Hands", "submissionValue": "PQL1011", "synonyms": ["PQL10-Hard to Use Hands"]}, {"conceptId": "C138651", "definition": "Pediatric Quality of Life Neuromuscular Module Acute Version 3 Young Adult - In the past 7 days, how much of a problem has this been for you: It is hard to swallow food.", "preferredTerm": "PedsQL Neuromuscular Module Acute Version 3.0 Young Adult Report - Hard to Swallow Food", "submissionValue": "PQL1012", "synonyms": ["PQL10-Hard to Swallow Food"]}, {"conceptId": "C138652", "definition": "Pediatric Quality of Life Neuromuscular Module Acute Version 3 Young Adult - In the past 7 days, how much of a problem has this been for you: It takes me a long time to bathe or shower.", "preferredTerm": "PedsQL Neuromuscular Module Acute Version 3.0 Young Adult Report - Long Time to Bathe or Shower", "submissionValue": "PQL1013", "synonyms": ["PQL10-Long Time to Bathe/Shower"]}, {"conceptId": "C138653", "definition": "Pediatric Quality of Life Neuromuscular Module Acute Version 3 Young Adult - In the past 7 days, how much of a problem has this been for you: I get hurt accidentally.", "preferredTerm": "PedsQL Neuromuscular Module Acute Version 3.0 Young Adult Report - Get Hurt Accidentally", "submissionValue": "PQL1014", "synonyms": ["PQL10-Get Hurt Accidentally"]}, {"conceptId": "C138654", "definition": "Pediatric Quality of Life Neuromuscular Module Acute Version 3 Young Adult - In the past 7 days, how much of a problem has this been for you: I take a long time to eat.", "preferredTerm": "PedsQL Neuromuscular Module Acute Version 3.0 Young Adult Report - Take Long Time to Eat", "submissionValue": "PQL1015", "synonyms": ["PQL10-Take Long Time to Eat"]}, {"conceptId": "C138655", "definition": "Pediatric Quality of Life Neuromuscular Module Acute Version 3 Young Adult - In the past 7 days, how much of a problem has this been for you: It is hard to turn myself during the night.", "preferredTerm": "PedsQL Neuromuscular Module Acute Version 3.0 Young Adult Report - Hard to Turn During Night", "submissionValue": "PQL1016", "synonyms": ["PQL10-Hard to Turn During Night"]}, {"conceptId": "C138656", "definition": "Pediatric Quality of Life Neuromuscular Module Acute Version 3 Young Adult - In the past 7 days, how much of a problem has this been for you: It is hard for me to go places with my equipment.", "preferredTerm": "PedsQL Neuromuscular Module Acute Version 3.0 Young Adult Report - Hard to Go Places With Equipment", "submissionValue": "PQL1017", "synonyms": ["PQL10-Hard to Go Places With Equipment"]}, {"conceptId": "C138657", "definition": "Pediatric Quality of Life Neuromuscular Module Acute Version 3 Young Adult - In the past 7 days, how much of a problem has this been for you: It is hard for me to tell the doctors and nurses how I feel.", "preferredTerm": "PedsQL Neuromuscular Module Acute Version 3.0 Young Adult Report - Hard Tell Doctors and Nurses How Feel", "submissionValue": "PQL1018", "synonyms": ["PQL10-Hard Tell Doctors/Nurses How Feel"]}, {"conceptId": "C138658", "definition": "Pediatric Quality of Life Neuromuscular Module Acute Version 3 Young Adult - In the past 7 days, how much of a problem has this been for you: It is hard for me to ask the doctors and nurses questions.", "preferredTerm": "PedsQL Neuromuscular Module Acute Version 3.0 Young Adult Report - Hard Ask Doctors and Nurses Questions", "submissionValue": "PQL1019", "synonyms": ["PQL10-Hard Ask Doctors/Nurses Questions"]}, {"conceptId": "C138659", "definition": "Pediatric Quality of Life Neuromuscular Module Acute Version 3 Young Adult - In the past 7 days, how much of a problem has this been for you: It is hard for me to explain my illness to other people.", "preferredTerm": "PedsQL Neuromuscular Module Acute Version 3.0 Young Adult Report - Hard Explain Illness to People", "submissionValue": "PQL1020", "synonyms": ["PQL10-Hard Explain Illness to People"]}, {"conceptId": "C138660", "definition": "Pediatric Quality of Life Neuromuscular Module Acute Version 3 Young Adult - In the past 7 days, how much of a problem has this been for you: It is hard for my family to plan activities like vacations.", "preferredTerm": "PedsQL Neuromuscular Module Acute Version 3.0 Young Adult Report - Hard for Family to Plan Activities", "submissionValue": "PQL1021", "synonyms": ["PQL10-Hard for Family to Plan Activities"]}, {"conceptId": "C138661", "definition": "Pediatric Quality of Life Neuromuscular Module Acute Version 3 Young Adult - In the past 7 days, how much of a problem has this been for you: It is hard for my family to get enough rest.", "preferredTerm": "PedsQL Neuromuscular Module Acute Version 3.0 Young Adult Report - Hard for Family to Rest", "submissionValue": "PQL1022", "synonyms": ["PQL10-Hard for Family to Rest"]}, {"conceptId": "C138662", "definition": "Pediatric Quality of Life Neuromuscular Module Acute Version 3 Young Adult - In the past 7 days, how much of a problem has this been for you: I think money is a problem in our family.", "preferredTerm": "PedsQL Neuromuscular Module Acute Version 3.0 Young Adult Report - Money Problem in Our Family", "submissionValue": "PQL1023", "synonyms": ["PQL10-Money Problem in Our Family"]}, {"conceptId": "C138663", "definition": "Pediatric Quality of Life Neuromuscular Module Acute Version 3 Young Adult - In the past 7 days, how much of a problem has this been for you: I think my family has a lot of problems.", "preferredTerm": "PedsQL Neuromuscular Module Acute Version 3.0 Young Adult Report - Family Has Lot of Problems", "submissionValue": "PQL1024", "synonyms": ["PQL10-Family Has Lot of Problems"]}, {"conceptId": "C138664", "definition": "Pediatric Quality of Life Neuromuscular Module Acute Version 3 Young Adult - In the past 7 days, how much of a problem has this been for you: I do not have the equipment I need.", "preferredTerm": "PedsQL Neuromuscular Module Acute Version 3.0 Young Adult Report - Do Not Have Equipment Need", "submissionValue": "PQL1025", "synonyms": ["PQL10-Do Not Have Equipment Need"]}]}