{"_links": {"parentPackage": {"href": "/mdr/ct/packages/sdtmct-2021-06-25", "title": "SDTM Controlled Terminology Package 46 Effective 2021-06-25", "type": "Terminology"}, "rootItem": {"href": "/mdr/root/ct/sdtmct/codelists/C138225", "title": "Version-agnostic anchor resource for codelist C138225", "type": "Root Value Domain"}, "self": {"href": "/mdr/ct/packages/sdtmct-2021-06-25/codelists/C138225", "title": "CDISC Questionnaire FLSI Test Code Terminology", "type": "Code List"}}, "conceptId": "C138225", "definition": "Functional Assessment of Cancer Therapy-Lung Symptom Index test code.", "extensible": "false", "name": "Functional Assessment of Cancer Therapy-Lung Symptom Index Questionnaire Test Code", "preferredTerm": "CDISC Questionnaire FLSI Test Code Terminology", "submissionValue": "FAC043TC", "synonyms": ["Functional Assessment of Cancer Therapy-Lung Symptom Index Questionnaire Test Code"], "terms": [{"conceptId": "C138459", "definition": "Functional Assessment of Cancer Therapy-Lung Symptom Index - I have been short of breath.", "preferredTerm": "FLSI - I Have Been Short of Breath", "submissionValue": "FAC04301", "synonyms": ["FAC043-I Have Been Short of Breath"]}, {"conceptId": "C138460", "definition": "Functional Assessment of Cancer Therapy-Lung Symptom Index - I have a lack of energy.", "preferredTerm": "FLSI - I Have a Lack of Energy", "submissionValue": "FAC04302", "synonyms": ["FAC043-I Have a Lack of Energy"]}, {"conceptId": "C138461", "definition": "Functional Assessment of Cancer Therapy-Lung Symptom Index - I have pain.", "preferredTerm": "FLSI - I Have Pain", "submissionValue": "FAC04303", "synonyms": ["FAC043-I Have Pain"]}, {"conceptId": "C138462", "definition": "Functional Assessment of Cancer Therapy-Lung Symptom Index - I am losing weight.", "preferredTerm": "FLSI - I Am Losing Weight", "submissionValue": "FAC04304", "synonyms": ["FAC043-I Am Losing Weight"]}, {"conceptId": "C138463", "definition": "Functional Assessment of Cancer Therapy-Lung Symptom Index - I have been coughing.", "preferredTerm": "FLSI - I Have Been Coughing", "submissionValue": "FAC04305", "synonyms": ["FAC043-I Have Been Coughing"]}, {"conceptId": "C138464", "definition": "Functional Assessment of Cancer Therapy-Lung Symptom Index - I have certain parts of my body where I experience pain.", "preferredTerm": "FLSI - Certain Parts of Body Have Pain", "submissionValue": "FAC04306", "synonyms": ["FAC043-Certain Parts of Body Have Pain"]}]}