{"_links": {"parentPackage": {"href": "/mdr/ct/packages/sdtmct-2021-06-25", "title": "SDTM Controlled Terminology Package 46 Effective 2021-06-25", "type": "Terminology"}, "rootItem": {"href": "/mdr/root/ct/sdtmct/codelists/C139018", "title": "Version-agnostic anchor resource for codelist C139018", "type": "Root Value Domain"}, "self": {"href": "/mdr/ct/packages/sdtmct-2021-06-25/codelists/C139018", "title": "CDISC SDTM Duchenne Muscular Dystrophy Findings About Test Code Terminology", "type": "Code List"}}, "conceptId": "C139018", "definition": "Terminology relevant to the test codes that describe findings about a Duchenne muscular dystrophy event or intervention.", "extensible": "true", "name": "Duchenne Muscular Dystrophy Findings About Test Code", "preferredTerm": "CDISC SDTM Duchenne Muscular Dystrophy Findings About Test Code Terminology", "submissionValue": "DMFATSCD", "synonyms": ["Duchenne Muscular Dystrophy Findings About Test Code"], "terms": [{"conceptId": "C139175", "definition": "The age at which the full-time use of a pre-specified object first occurred.", "preferredTerm": "Age at Full-Time Use", "submissionValue": "AGEFTUSE", "synonyms": ["Age at Full-Time Use"]}]}