{"_links": {"parentPackage": {"href": "/mdr/ct/packages/sdtmct-2021-06-25", "title": "SDTM Controlled Terminology Package 46 Effective 2021-06-25", "type": "Terminology"}, "rootItem": {"href": "/mdr/root/ct/sdtmct/codelists/C141668", "title": "Version-agnostic anchor resource for codelist C141668", "type": "Root Value Domain"}, "self": {"href": "/mdr/ct/packages/sdtmct-2021-06-25/codelists/C141668", "title": "CDISC Questionnaire IPAQ Long Last 7 Days Telephone Format Version Test Name Terminology", "type": "Code List"}}, "conceptId": "C141668", "definition": "International Physical Activity Questionnaire (November 2002) Long Last 7 Days Telephone Format test name.", "extensible": "false", "name": "International Physical Activity Questionnaire (November 2002) Long Last 7 Days Telephone Format Questionnaire Test Name", "preferredTerm": "CDISC Questionnaire IPAQ Long Last 7 Days Telephone Format Version Test Name Terminology", "submissionValue": "IPAQ02TN", "synonyms": ["International Physical Activity Questionnaire (November 2002) Long Last 7 Days Telephone Format Questionnaire Test Name"], "terms": [{"conceptId": "C141801", "definition": "International Physical Activity Questionnaire (November 2002) - Long Last 7 Days Telephone Format - How much time did you usually spend on one of those days to bicycle from place to place?: Hours and minutes per day.", "preferredTerm": "IPAQ Long Last 7 Days Telephone Format Version - Bicycle Hr and Min per Day", "submissionValue": "IPA02-Bicycle Hr & Min per Day", "synonyms": ["IPA02-Bicycle Hr & Min per Day"]}, {"conceptId": "C141803", "definition": "International Physical Activity Questionnaire (November 2002) - Long Last 7 Days Telephone Format - What is the total amount of time you spent bicycling over the last 7 days to travel from place to place?: Hours and minutes per week.", "preferredTerm": "IPAQ Long Last 7 Days Telephone Format Version - Bicycling Hr and Min per Week", "submissionValue": "IPA02-Bicycling Hr & Min per Week", "synonyms": ["IPA02-Bicycling Hr & Min per Week"]}, {"conceptId": "C141779", "definition": "International Physical Activity Questionnaire (November 2002) - Long Last 7 Days Telephone Format - Do you currently have a job or do any unpaid work outside your home?", "preferredTerm": "IPAQ Long Last 7 Days Telephone Format Version - Currently Have Job or Unpaid Work", "submissionValue": "IPA02-Currently Have Job or Unpaid Work", "synonyms": ["IPA02-Currently Have Job or Unpaid Work"]}, {"conceptId": "C141800", "definition": "International Physical Activity Questionnaire (November 2002) - Long Last 7 Days Telephone Format - During the last 7 days, on how many days did you bicycle to go from place to place?", "preferredTerm": "IPAQ Long Last 7 Days Telephone Format Version - Days Bicycle Place to Place", "submissionValue": "IPA02-Days Bicycle Place to Place", "synonyms": ["IPA02-Days Bicycle Place to Place"]}, {"conceptId": "C141785", "definition": "International Physical Activity Questionnaire (November 2002) - Long Last 7 Days Telephone Format - During the last 7 days, on how many days did you do moderate physical activities as part of your work?", "preferredTerm": "IPAQ Long Last 7 Days Telephone Format Version - Days Moderate as Part of Work", "submissionValue": "IPA02-Days Moderate as Part of Work", "synonyms": ["IPA02-Days Moderate as Part of Work"]}, {"conceptId": "C141815", "definition": "International Physical Activity Questionnaire (November 2002) - Long Last 7 Days Telephone Format - During the last 7 days, on how many days did you do moderate activities in the garden or yard?", "preferredTerm": "IPAQ Long Last 7 Days Telephone Format Version - Days Moderate in the Garden/Yard", "submissionValue": "IPA02-Days Moderate in the Garden/Yard", "synonyms": ["IPA02-Days Moderate in the Garden/Yard"]}, {"conceptId": "C141835", "definition": "International Physical Activity Questionnaire (November 2002) - Long Last 7 Days Telephone Format - During the last 7 days, on how many days did you do moderate physical activities in your leisure time?", "preferredTerm": "IPAQ Long Last 7 Days Telephone Format Version - Days Moderate in Your Leisure Time", "submissionValue": "IPA02-Days Moderate in Your Leisure Time", "synonyms": ["IPA02-Days Moderate in Your Leisure Time"]}, {"conceptId": "C141820", "definition": "International Physical Activity Questionnaire (November 2002) - Long Last 7 Days Telephone Format - During the last 7 days, on how many days did you do moderate activities inside your home?", "preferredTerm": "IPAQ Long Last 7 Days Telephone Format Version - Days Moderate Inside Your Home", "submissionValue": "IPA02-Days Moderate Inside Your Home", "synonyms": ["IPA02-Days Moderate Inside Your Home"]}, {"conceptId": "C141795", "definition": "International Physical Activity Questionnaire (November 2002) - Long Last 7 Days Telephone Format - During the last 7 days, on how many days did you travel in a motor vehicle like a train, bus, car or tram?", "preferredTerm": "IPAQ Long Last 7 Days Telephone Format Version - Days Travel in a Motor Vehicle", "submissionValue": "IPA02-Days Travel in a Motor Vehicle", "synonyms": ["IPA02-Days Travel in a Motor Vehicle"]}, {"conceptId": "C141780", "definition": "International Physical Activity Questionnaire (November 2002) - Long Last 7 Days Telephone Format - During the last 7 days, on how many days did you do vigorous physical activities as part of your work?", "preferredTerm": "IPAQ Long Last 7 Days Telephone Format Version - Days Vigorous as Part of Work", "submissionValue": "IPA02-Days Vigorous as Part of Work", "synonyms": ["IPA02-Days Vigorous as Part of Work"]}, {"conceptId": "C141810", "definition": "International Physical Activity Questionnaire (November 2002) - Long Last 7 Days Telephone Format - During the last 7 days, on how many days did you do vigorous physical activities in the garden or yard?", "preferredTerm": "IPAQ Long Last 7 Days Telephone Format Version - Days Vigorous in the Garden/Yard", "submissionValue": "IPA02-Days Vigorous in the Garden/Yard", "synonyms": ["IPA02-Days Vigorous in the Garden/Yard"]}, {"conceptId": "C141830", "definition": "International Physical Activity Questionnaire (November 2002) - Long Last 7 Days Telephone Format - During the last 7 days, on how many days did you do vigorous physical activities in your leisure time?", "preferredTerm": "IPAQ Long Last 7 Days Telephone Format Version - Days Vigorous in Your Leisure Time", "submissionValue": "IPA02-Days Vigorous in Your Leisure Time", "synonyms": ["IPA02-Days Vigorous in Your Leisure Time"]}, {"conceptId": "C141790", "definition": "International Physical Activity Questionnaire (November 2002) - Long Last 7 Days Telephone Format - During the last 7 days, on how many days did you walk as part of your work?", "preferredTerm": "IPAQ Long Last 7 Days Telephone Format Version - Days Walk as Part of Your Work", "submissionValue": "IPA02-Days Walk as Part of Your Work", "synonyms": ["IPA02-Days Walk as Part of Your Work"]}, {"conceptId": "C141825", "definition": "International Physical Activity Questionnaire (November 2002) - Long Last 7 Days Telephone Format - Not counting any walking you have already mentioned, during the last 7 days, on how many days did you walk for at least 10 minutes at a time in your leisure time?", "preferredTerm": "IPAQ Long Last 7 Days Telephone Format Version - Days Walk in Your Leisure Time", "submissionValue": "IPA02-Days Walk in Your Leisure Time", "synonyms": ["IPA02-Days Walk in Your Leisure Time"]}, {"conceptId": "C141805", "definition": "International Physical Activity Questionnaire (November 2002) - Long Last 7 Days Telephone Format - During the last 7 days, on how many days did you walk to go from place to place?", "preferredTerm": "IPAQ Long Last 7 Days Telephone Format Version - Days Walk Place to Place", "submissionValue": "IPA02-Days Walk Place to Place", "synonyms": ["IPA02-Days Walk Place to Place"]}, {"conceptId": "C141816", "definition": "International Physical Activity Questionnaire (November 2002) - Long Last 7 Days Telephone Format - How much time did you usually spend on one of those days doing moderate physical activities in the garden or yard?: Hours and minutes per day.", "preferredTerm": "IPAQ Long Last 7 Days Telephone Format Version - Moderate Garden Hr and Min per Day", "submissionValue": "IPA02-Moderate Garden Hr & Min per Day", "synonyms": ["IPA02-Moderate Garden Hr & Min per Day"]}, {"conceptId": "C141818", "definition": "International Physical Activity Questionnaire (November 2002) - Long Last 7 Days Telephone Format - What is the total amount of time you spent over the last 7 days doing moderate physical activities in the garden or yard?: Hours and minutes per week.", "preferredTerm": "IPAQ Long Last 7 Days Telephone Format Version - Moderate Garden Hr and Min per Week", "submissionValue": "IPA02-Moderate Garden Hr & Min per Week", "synonyms": ["IPA02-Moderate Garden Hr & Min per Week"]}, {"conceptId": "C141821", "definition": "International Physical Activity Questionnaire (November 2002) - Long Last 7 Days Telephone Format - How much time did you usually spend on one of those days doing moderate physical activities inside your home?: Hours and minutes per day.", "preferredTerm": "IPAQ Long Last 7 Days Telephone Format Version - Moderate Home Hr and Min per Day", "submissionValue": "IPA02-Moderate Home Hr & Min per Day", "synonyms": ["IPA02-Moderate Home Hr & Min per Day"]}, {"conceptId": "C141823", "definition": "International Physical Activity Questionnaire (November 2002) - Long Last 7 Days Telephone Format - What is the total amount of time you spent over the last 7 days doing moderate physical activities inside your home?: Hours and minutes per week.", "preferredTerm": "IPAQ Long Last 7 Days Telephone Format Version - Moderate Home Hr and Min per Week", "submissionValue": "IPA02-Moderate Home Hr & Min per Week", "synonyms": ["IPA02-Moderate Home Hr & Min per Week"]}, {"conceptId": "C141836", "definition": "International Physical Activity Questionnaire (November 2002) - Long Last 7 Days Telephone Format - How much time did you usually spend on one of those days doing moderate physical activities in your leisure time?: Hours and minutes per day.", "preferredTerm": "IPAQ Long Last 7 Days Telephone Format Version - Moderate Leisure Hr and Min per Day", "submissionValue": "IPA02-Moderate Leisure Hr & Min per Day", "synonyms": ["IPA02-Moderate Leisure Hr & Min per Day"]}, {"conceptId": "C141838", "definition": "International Physical Activity Questionnaire (November 2002) - Long Last 7 Days Telephone Format - What is the total amount of time you spent over the last 7 days doing moderate physical activities in your leisure time?: Hours and minutes per week.", "preferredTerm": "IPAQ Long Last 7 Days Telephone Format Version - Moderate Leisure Hr and Min per Week", "submissionValue": "IPA02-Moderate Leisure Hr & Min per Week", "synonyms": ["IPA02-Moderate Leisure Hr & Min per Week"]}, {"conceptId": "C141786", "definition": "International Physical Activity Questionnaire (November 2002) - Long Last 7 Days Telephone Format - How much time did you usually spend on one of those days doing moderate physical activities as part of your work?: Hours and minutes per day.", "preferredTerm": "IPAQ Long Last 7 Days Telephone Format Version - Moderate Work Hr and Min per Day", "submissionValue": "IPA02-Moderate Work Hr & Min per Day", "synonyms": ["IPA02-Moderate Work Hr & Min per Day"]}, {"conceptId": "C141788", "definition": "International Physical Activity Questionnaire (November 2002) - Long Last 7 Days Telephone Format - What is the total amount of time you spent over the last 7 days doing moderate physical activities as part of your work?: Hours and minutes per week.", "preferredTerm": "IPAQ Long Last 7 Days Telephone Format Version - Moderate Work Hr and Min per Week", "submissionValue": "IPA02-Moderate Work Hr & Min per Week", "synonyms": ["IPA02-Moderate Work Hr & Min per Week"]}, {"conceptId": "C141846", "definition": "International Physical Activity Questionnaire (November 2002) - Long Last 7 Days Telephone Format - How much time in total did you spend sitting on Saturday?: Hours and minutes on Saturday.", "preferredTerm": "IPAQ Long Last 7 Days Telephone Format Version - Sitting Hr and Min on Saturday", "submissionValue": "IPA02-Sitting Hr & Min on Saturday", "synonyms": ["IPA02-Sitting Hr & Min on Saturday"]}, {"conceptId": "C141842", "definition": "International Physical Activity Questionnaire (November 2002) - Long Last 7 Days Telephone Format - How much time in total did you spend sitting on Wednesday?: Hours and minutes on Wednesday.", "preferredTerm": "IPAQ Long Last 7 Days Telephone Format Version - Sitting Hr and Min on Wednesday", "submissionValue": "IPA02-Sitting Hr & Min on Wednesday", "synonyms": ["IPA02-Sitting Hr & Min on Wednesday"]}, {"conceptId": "C141840", "definition": "International Physical Activity Questionnaire (November 2002) - Long Last 7 Days Telephone Format - During the last 7 days, how much time did you usually spend sitting on a weekday?: Hours and minutes per day.", "preferredTerm": "IPAQ Long Last 7 Days Telephone Format Version - Sitting Weekday Hr and Min per Day", "submissionValue": "IPA02-Sitting Weekday Hr & Min per Day", "synonyms": ["IPA02-Sitting Weekday Hr & Min per Day"]}, {"conceptId": "C141844", "definition": "International Physical Activity Questionnaire (November 2002) - Long Last 7 Days Telephone Format - During the last 7 days, how much time did you usually spend sitting on a weekend day?: Hours and minutes per day.", "preferredTerm": "IPAQ Long Last 7 Days Telephone Format Version - Sitting Weekend Hr and Min per Day", "submissionValue": "IPA02-Sitting Weekend Hr & Min per Day", "synonyms": ["IPA02-Sitting Weekend Hr & Min per Day"]}, {"conceptId": "C141796", "definition": "International Physical Activity Questionnaire (November 2002) - Long Last 7 Days Telephone Format - How much time did you usually spend on one of those days traveling in a car, bus, train or other kind of motor vehicle?: Hours and minutes per day.", "preferredTerm": "IPAQ Long Last 7 Days Telephone Format Version - Traveling Hr and Min per Day", "submissionValue": "IPA02-Traveling Hr & Min per Day", "synonyms": ["IPA02-Traveling Hr & Min per Day"]}, {"conceptId": "C141798", "definition": "International Physical Activity Questionnaire (November 2002) - Long Last 7 Days Telephone Format - What is the total amount of time you spent over the last 7 days traveling in a motor vehicle?: Hours and minutes per week.", "preferredTerm": "IPAQ Long Last 7 Days Telephone Format Version - Traveling Hr and Min per Week", "submissionValue": "IPA02-Traveling Hr & Min per Week", "synonyms": ["IPA02-Traveling Hr & Min per Week"]}, {"conceptId": "C141811", "definition": "International Physical Activity Questionnaire (November 2002) - Long Last 7 Days Telephone Format - How much time did you usually spend on one of those days doing vigorous physical activities in the garden or yard?: Hours and minutes per day.", "preferredTerm": "IPAQ Long Last 7 Days Telephone Format Version - Vigorous Garden Hr and Min per Day", "submissionValue": "IPA02-Vigorous Garden Hr & Min per Day", "synonyms": ["IPA02-Vigorous Garden Hr & Min per Day"]}, {"conceptId": "C141813", "definition": "International Physical Activity Questionnaire (November 2002) - Long Last 7 Days Telephone Format - What is the total amount of time you spent over the last 7 days doing vigorous physical activities in the garden or yard?: Hours and minutes per week.", "preferredTerm": "IPAQ Long Last 7 Days Telephone Format Version - Vigorous Garden Hr and Min per Week", "submissionValue": "IPA02-Vigorous Garden Hr & Min per Week", "synonyms": ["IPA02-Vigorous Garden Hr & Min per Week"]}, {"conceptId": "C141831", "definition": "International Physical Activity Questionnaire (November 2002) - Long Last 7 Days Telephone Format - How much time did you usually spend on one of those days doing vigorous physical activities in your leisure time?: Hours and minutes per day.", "preferredTerm": "IPAQ Long Last 7 Days Telephone Format Version - Vigorous Leisure Hr and Min per Day", "submissionValue": "IPA02-Vigorous Leisure Hr & Min per Day", "synonyms": ["IPA02-Vigorous Leisure Hr & Min per Day"]}, {"conceptId": "C141833", "definition": "International Physical Activity Questionnaire (November 2002) - Long Last 7 Days Telephone Format - What is the total amount of time you spent over the last 7 days doing vigorous physical activities in your leisure time?: Hours and minutes per week.", "preferredTerm": "IPAQ Long Last 7 Days Telephone Format Version - Vigorous Leisure Hr and Min per Week", "submissionValue": "IPA02-Vigorous Leisure Hr & Min per Week", "synonyms": ["IPA02-Vigorous Leisure Hr & Min per Week"]}, {"conceptId": "C141781", "definition": "International Physical Activity Questionnaire (November 2002) - Long Last 7 Days Telephone Format - How much time did you usually spend on one of those days doing vigorous physical activities as part of your work?: Hours and minutes per day.", "preferredTerm": "IPAQ Long Last 7 Days Telephone Format Version - Vigorous Work Hr and Min per Day", "submissionValue": "IPA02-Vigorous Work Hr & Min per Day", "synonyms": ["IPA02-Vigorous Work Hr & Min per Day"]}, {"conceptId": "C141783", "definition": "International Physical Activity Questionnaire (November 2002) - Long Last 7 Days Telephone Format - What is the total amount of time you spent over the last 7 days doing vigorous physical activities as part of your work?: Hours and minutes per week.", "preferredTerm": "IPAQ Long Last 7 Days Telephone Format Version - Vigorous Work Hr and Min per Week", "submissionValue": "IPA02-Vigorous Work Hr & Min per Week", "synonyms": ["IPA02-Vigorous Work Hr & Min per Week"]}, {"conceptId": "C141826", "definition": "International Physical Activity Questionnaire (November 2002) - Long Last 7 Days Telephone Format - How much time did you usually spend on one of those days walking in your leisure time?: Hours and minutes per day.", "preferredTerm": "IPAQ Long Last 7 Days Telephone Format Version - Walking Leisure Hr and Min per Day", "submissionValue": "IPA02-Walking Leisure Hr & Min per Day", "synonyms": ["IPA02-Walking Leisure Hr & Min per Day"]}, {"conceptId": "C141828", "definition": "International Physical Activity Questionnaire (November 2002) - Long Last 7 Days Telephone Format - What is the total amount of time you spent over the last 7 days walking in your leisure time?: Hours and minutes per week.", "preferredTerm": "IPAQ Long Last 7 Days Telephone Format Version - Walking Leisure Hr and Min per Week", "submissionValue": "IPA02-Walking Leisure Hr & Min per Week", "synonyms": ["IPA02-Walking Leisure Hr & Min per Week"]}, {"conceptId": "C141806", "definition": "International Physical Activity Questionnaire (November 2002) - Long Last 7 Days Telephone Format - How much time did you usually spend on one of those days walking from place to place?: Hours and minutes per day.", "preferredTerm": "IPAQ Long Last 7 Days Telephone Format Version - Walking Place Hr and Min per Day", "submissionValue": "IPA02-Walking Place Hr & Min per Day", "synonyms": ["IPA02-Walking Place Hr & Min per Day"]}, {"conceptId": "C141808", "definition": "International Physical Activity Questionnaire (November 2002) - Long Last 7 Days Telephone Format - What is the total amount of time you spent over the last 7 days walking from place to place?: Hours and minutes per week.", "preferredTerm": "IPAQ Long Last 7 Days Telephone Format Version - Walking Place Hr and Min per Week", "submissionValue": "IPA02-Walking Place Hr & Min per Week", "synonyms": ["IPA02-Walking Place Hr & Min per Week"]}, {"conceptId": "C141791", "definition": "International Physical Activity Questionnaire (November 2002) - Long Last 7 Days Telephone Format - How much time did you usually spend on one of those days walking as part of your work?: Hours and minutes per day.", "preferredTerm": "IPAQ Long Last 7 Days Telephone Format Version - Walking Work Hr and Min per Day", "submissionValue": "IPA02-Walking Work Hr & Min per Day", "synonyms": ["IPA02-Walking Work Hr & Min per Day"]}, {"conceptId": "C141793", "definition": "International Physical Activity Questionnaire (November 2002) - Long Last 7 Days Telephone Format - What is the total amount of time you spent walking over the last 7 days as part of your work?: Hours and minutes per week.", "preferredTerm": "IPAQ Long Last 7 Days Telephone Format Version - Walking Work Hr and Min per Week", "submissionValue": "IPA02-Walking Work Hr & Min per Week", "synonyms": ["IPA02-Walking Work Hr & Min per Week"]}]}