{"_links": {"parentPackage": {"href": "/mdr/ct/packages/sdtmct-2021-06-25", "title": "SDTM Controlled Terminology Package 46 Effective 2021-06-25", "type": "Terminology"}, "rootItem": {"href": "/mdr/root/ct/sdtmct/codelists/C147546", "title": "Version-agnostic anchor resource for codelist C147546", "type": "Root Value Domain"}, "self": {"href": "/mdr/ct/packages/sdtmct-2021-06-25/codelists/C147546", "title": "CDISC Questionnaire Peds-FACIT-F Test Code Terminology", "type": "Code List"}}, "conceptId": "C147546", "definition": "Pediatric Functional Assessment of Chronic Illness Therapy-Fatigue test code.", "extensible": "false", "name": "Pediatric Functional Assessment of Chronic Illness Therapy-Fatigue Questionnaire Test Code", "preferredTerm": "CDISC Questionnaire Peds-FACIT-F Test Code Terminology", "submissionValue": "FAC099TC", "synonyms": ["Pediatric Functional Assessment of Chronic Illness Therapy-Fatigue Questionnaire Test Code"], "terms": [{"conceptId": "C147686", "definition": "Pediatric Functional Assessment of Chronic Illness Therapy-Fatigue - I feel tired.", "preferredTerm": "Peds-FACIT-F - I Feel Tired", "submissionValue": "FAC09901", "synonyms": ["FAC099-I Feel Tired"]}, {"conceptId": "C147687", "definition": "Pediatric Functional Assessment of Chronic Illness Therapy-Fatigue - I have energy (or strength).", "preferredTerm": "Peds-FACIT-F - I Have Energy", "submissionValue": "FAC09902", "synonyms": ["FAC099-I Have Energy"]}, {"conceptId": "C147688", "definition": "Pediatric Functional Assessment of Chronic Illness Therapy-Fatigue - I could do my usual things at home.", "preferredTerm": "Peds-FACIT-F - Could Do My Usual Things at Home", "submissionValue": "FAC09903", "synonyms": ["FAC099-Could Do My Usual Things at Home"]}, {"conceptId": "C147689", "definition": "Pediatric Functional Assessment of Chronic Illness Therapy-Fatigue - I had trouble starting things because I was too tired.", "preferredTerm": "Peds-FACIT-F - Trouble Starting Things", "submissionValue": "FAC09904", "synonyms": ["FAC099-Trouble Starting Things"]}, {"conceptId": "C147690", "definition": "Pediatric Functional Assessment of Chronic Illness Therapy-Fatigue - I had trouble finishing things because I was too tired.", "preferredTerm": "Peds-FACIT-F - Trouble Finishing Things", "submissionValue": "FAC09905", "synonyms": ["FAC099-Trouble Finishing Things"]}, {"conceptId": "C147691", "definition": "Pediatric Functional Assessment of Chronic Illness Therapy-Fatigue - I needed to sleep during the day.", "preferredTerm": "Peds-FACIT-F - I Needed to Sleep During the Day", "submissionValue": "FAC09906", "synonyms": ["FAC099-I Needed to Sleep During the Day"]}, {"conceptId": "C147692", "definition": "Pediatric Functional Assessment of Chronic Illness Therapy-Fatigue - I got upset by being too tired to do things I wanted to do.", "preferredTerm": "Peds-FACIT-F - Upset by Being Too Tired", "submissionValue": "FAC09907", "synonyms": ["FAC099-Upset by Being Too Tired"]}, {"conceptId": "C147693", "definition": "Pediatric Functional Assessment of Chronic Illness Therapy-Fatigue - Being tired made it hard for me to play or go out with my friends as much as I'd like.", "preferredTerm": "Peds-FACIT-F - Hard for Me to Play With Friends", "submissionValue": "FAC09908", "synonyms": ["FAC099-Hard for Me to Play With Friends"]}, {"conceptId": "C147694", "definition": "Pediatric Functional Assessment of Chronic Illness Therapy-Fatigue - I needed help doing my usual things at home.", "preferredTerm": "Peds-FACIT-F - Needed Help Doing Usual Things", "submissionValue": "FAC09909", "synonyms": ["FAC099-Needed Help Doing Usual Things"]}, {"conceptId": "C147695", "definition": "Pediatric Functional Assessment of Chronic Illness Therapy-Fatigue - I feel weak.", "preferredTerm": "Peds-FACIT-F - I Feel Weak", "submissionValue": "FAC09910", "synonyms": ["FAC099-I Feel Weak"]}, {"conceptId": "C147696", "definition": "Pediatric Functional Assessment of Chronic Illness Therapy-Fatigue - I was too tired to eat.", "preferredTerm": "Peds-FACIT-F - I Was Too Tired to Eat", "submissionValue": "FAC09911", "synonyms": ["FAC099-I Was Too Tired to Eat"]}, {"conceptId": "C147697", "definition": "Pediatric Functional Assessment of Chronic Illness Therapy-Fatigue - Being tired made me sad.", "preferredTerm": "Peds-FACIT-F - Being Tired Made Me Sad", "submissionValue": "FAC09912", "synonyms": ["FAC099-Being Tired Made Me Sad"]}, {"conceptId": "C147698", "definition": "Pediatric Functional Assessment of Chronic Illness Therapy-Fatigue - Being tired made me mad (angry).", "preferredTerm": "Peds-FACIT-F - Being Tired Made Me Mad", "submissionValue": "FAC09913", "synonyms": ["FAC099-Being Tired Made Me Mad"]}]}