{"_links": {"parentPackage": {"href": "/mdr/ct/packages/sdtmct-2021-06-25", "title": "SDTM Controlled Terminology Package 46 Effective 2021-06-25", "type": "Terminology"}, "rootItem": {"href": "/mdr/root/ct/sdtmct/codelists/C150784", "title": "Version-agnostic anchor resource for codelist C150784", "type": "Root Value Domain"}, "self": {"href": "/mdr/ct/packages/sdtmct-2021-06-25/codelists/C150784", "title": "CDISC Questionnaire FKSI-DRS Version 4 Test Code Terminology", "type": "Code List"}}, "conceptId": "C150784", "definition": "Functional Assessment of Cancer Therapy-Kidney Symptom Index-Disease-Related Symptoms Version 4 test code.", "extensible": "false", "name": "Functional Assessment of Cancer Therapy-Kidney Symptom Index-Disease-Related Symptoms Version 4 Questionnaire Test Code", "preferredTerm": "CDISC Questionnaire FKSI-DRS Version 4 Test Code Terminology", "submissionValue": "FAC041TC", "synonyms": ["Functional Assessment of Cancer Therapy-Kidney Symptom Index-Disease-Related Symptoms Version 4 Questionnaire Test Code"], "terms": [{"conceptId": "C151271", "definition": "Functional Assessment of Cancer Therapy-Kidney Symptom Index-Disease-Related Symptoms Version 4 - I have a lack of energy.", "preferredTerm": "FKSI-DRS Version 4 - I Have a Lack of Energy", "submissionValue": "FAC04101", "synonyms": ["FAC041-I Have a Lack of Energy"]}, {"conceptId": "C151272", "definition": "Functional Assessment of Cancer Therapy-Kidney Symptom Index-Disease-Related Symptoms Version 4 - I have pain.", "preferredTerm": "FKSI-DRS Version 4 - I Have Pain", "submissionValue": "FAC04102", "synonyms": ["FAC041-I Have Pain"]}, {"conceptId": "C151273", "definition": "Functional Assessment of Cancer Therapy-Kidney Symptom Index-Disease-Related Symptoms Version 4 - I am losing weight.", "preferredTerm": "FKSI-DRS Version 4 - I Am Losing Weight", "submissionValue": "FAC04103", "synonyms": ["FAC041-I Am Losing Weight"]}, {"conceptId": "C151274", "definition": "Functional Assessment of Cancer Therapy-Kidney Symptom Index-Disease-Related Symptoms Version 4 - I have bone pain.", "preferredTerm": "FKSI-DRS Version 4 - I Have Bone Pain", "submissionValue": "FAC04104", "synonyms": ["FAC041-I Have Bone Pain"]}, {"conceptId": "C151275", "definition": "Functional Assessment of Cancer Therapy-Kidney Symptom Index-Disease-Related Symptoms Version 4 - I feel fatigued.", "preferredTerm": "FKSI-DRS Version 4 - I Feel Fatigued", "submissionValue": "FAC04105", "synonyms": ["FAC041-I Feel Fatigued"]}, {"conceptId": "C151276", "definition": "Functional Assessment of Cancer Therapy-Kidney Symptom Index-Disease-Related Symptoms Version 4 - I have been short of breath.", "preferredTerm": "FKSI-DRS Version 4 - I Have Been Short of Breath", "submissionValue": "FAC04106", "synonyms": ["FAC041-I Have Been Short of Breath"]}, {"conceptId": "C151277", "definition": "Functional Assessment of Cancer Therapy-Kidney Symptom Index-Disease-Related Symptoms Version 4 - I have been coughing.", "preferredTerm": "FKSI-DRS Version 4 - I Have Been Coughing", "submissionValue": "FAC04107", "synonyms": ["FAC041-I Have Been Coughing"]}, {"conceptId": "C151278", "definition": "Functional Assessment of Cancer Therapy-Kidney Symptom Index-Disease-Related Symptoms Version 4 - I am bothered by fevers (episodes of high body temperature).", "preferredTerm": "FKSI-DRS Version 4 - I Am Bothered by Fevers", "submissionValue": "FAC04108", "synonyms": ["FAC041-I Am Bothered by Fevers"]}, {"conceptId": "C151279", "definition": "Functional Assessment of Cancer Therapy-Kidney Symptom Index-Disease-Related Symptoms Version 4 - I have had blood in my urine.", "preferredTerm": "FKSI-DRS Version 4 - I Have Had Blood in My Urine", "submissionValue": "FAC04109", "synonyms": ["FAC041-I Have Had Blood in My Urine"]}]}