{"_links": {"parentPackage": {"href": "/mdr/ct/packages/sdtmct-2021-06-25", "title": "SDTM Controlled Terminology Package 46 Effective 2021-06-25", "type": "Terminology"}, "rootItem": {"href": "/mdr/root/ct/sdtmct/codelists/C154688", "title": "Version-agnostic anchor resource for codelist C154688", "type": "Root Value Domain"}, "self": {"href": "/mdr/ct/packages/sdtmct-2021-06-25/codelists/C154688", "title": "CDISC SDTM Lung Cancer Findings About Test Name Terminology", "type": "Code List"}}, "conceptId": "C154688", "definition": "Terminology relevant to the test names that describe findings about a lung cancer event or intervention.", "extensible": "true", "name": "Lung Cancer Findings About Test Name", "preferredTerm": "CDISC SDTM Lung Cancer Findings About Test Name Terminology", "submissionValue": "LUFATS", "synonyms": ["Lung Cancer Findings About Test Name"], "terms": [{"conceptId": "C154860", "definition": "An indication as to whether the primary site of cancer is known.", "preferredTerm": "Cancer Primary Site Known Indicator", "submissionValue": "Origin of Cancer Known Ind", "synonyms": ["Origin of Cancer Known Ind", "Origin of Cancer Known Indicator"]}, {"conceptId": "C154861", "definition": "An indication as to whether the tumor has been resected.", "preferredTerm": "Tumor Resected Indicator", "submissionValue": "Resected Tumor Ind", "synonyms": ["Resected Tumor Ind", "Resected Tumor Indicator"]}]}