{"_links": {"parentPackage": {"href": "/mdr/ct/packages/sdtmct-2021-06-25", "title": "SDTM Controlled Terminology Package 46 Effective 2021-06-25", "type": "Terminology"}, "rootItem": {"href": "/mdr/root/ct/sdtmct/codelists/C161623", "title": "Version-agnostic anchor resource for codelist C161623", "type": "Root Value Domain"}, "self": {"href": "/mdr/ct/packages/sdtmct-2021-06-25/codelists/C161623", "title": "CDISC Clinical Classification AVPU Test Code Terminology", "type": "Code List"}}, "conceptId": "C161623", "definition": "Alert Verbal Painful Unresponsive Scale test code.", "extensible": "false", "name": "Alert Verbal Painful Unresponsive Scale Clinical Classification Test Code", "preferredTerm": "CDISC Clinical Classification AVPU Test Code Terminology", "submissionValue": "AVPU01TC", "synonyms": ["Alert Verbal Painful Unresponsive Scale Clinical Classification Test Code"], "terms": [{"conceptId": "C161740", "definition": "Alert Verbal Painful Unresponsive Scale - Responsivenesss.", "preferredTerm": "AVPU - Responsiveness", "submissionValue": "AVPU0101", "synonyms": ["AVPU01-Responsiveness"]}]}