{"_links": {"parentPackage": {"href": "/mdr/ct/packages/sdtmct-2021-06-25", "title": "SDTM Controlled Terminology Package 46 Effective 2021-06-25", "type": "Terminology"}, "rootItem": {"href": "/mdr/root/ct/sdtmct/codelists/C163388", "title": "Version-agnostic anchor resource for codelist C163388", "type": "Root Value Domain"}, "self": {"href": "/mdr/ct/packages/sdtmct-2021-06-25/codelists/C163388", "title": "CDISC Questionnaire GAD-7 Version 2 Test Name Terminology", "type": "Code List"}}, "conceptId": "C163388", "definition": "Generalized Anxiety Disorder - 7 Version 2 test name.", "extensible": "false", "name": "Generalized Anxiety Disorder - 7 Version 2 Questionnaire Test Name", "preferredTerm": "CDISC Questionnaire GAD-7 Version 2 Test Name Terminology", "submissionValue": "GAD02TN", "synonyms": ["Generalized Anxiety Disorder - 7 Version 2 Questionnaire Test Name"], "terms": [{"conceptId": "C163837", "definition": "Generalized Anxiety Disorder - 7 Version 2 - Becoming easily annoyed or irritable.", "preferredTerm": "GAD-7 Version 2 - Becoming Easily Annoyed or Irritable", "submissionValue": "GAD02-Becoming Easily Annoyed/Irritable", "synonyms": ["GAD02-Becoming Easily Annoyed/Irritable"]}, {"conceptId": "C163836", "definition": "Generalized Anxiety Disorder - 7 Version 2 - Being so restless that it is hard to sit still.", "preferredTerm": "GAD-7 Version 2 - Being Restless Hard to Sit Still", "submissionValue": "GAD02-Being Restless Hard to Sit Still", "synonyms": ["GAD02-Being Restless Hard to Sit Still"]}, {"conceptId": "C163838", "definition": "Generalized Anxiety Disorder - 7 Version 2 - Feeling afraid as if something awful might happen.", "preferredTerm": "GAD-7 Version 2 - Feel Afraid If Something Awful Happen", "submissionValue": "GAD02-Feel Afraid/Something Awful Happen", "synonyms": ["GAD02-Feel Afraid/Something Awful Happen"]}, {"conceptId": "C163832", "definition": "Generalized Anxiety Disorder - 7 Version 2 - Feeling nervous, anxious or on edge.", "preferredTerm": "GAD-7 Version 2 - Feeling Nervous Anxious or On Edge", "submissionValue": "GAD02-Feeling Nervous Anxious or On Edge", "synonyms": ["GAD02-Feeling Nervous Anxious or On Edge"]}, {"conceptId": "C163833", "definition": "Generalized Anxiety Disorder - 7 Version 2 - Not being able to stop or control worrying.", "preferredTerm": "GAD-7 Version 2 - Not Able to Stop or Control Worrying", "submissionValue": "GAD02-Not Able to Stop/Control Worrying", "synonyms": ["GAD02-Not Able to Stop/Control Worrying"]}, {"conceptId": "C163839", "definition": "Generalized Anxiety Disorder - 7 Version 2 - Total score.", "preferredTerm": "GAD-7 Version 2 - Total Score", "submissionValue": "GAD02-Total Score", "synonyms": ["GAD02-Total Score"]}, {"conceptId": "C163835", "definition": "Generalized Anxiety Disorder - 7 Version 2 - Trouble relaxing.", "preferredTerm": "GAD-7 Version 2 - Trouble Relaxing", "submissionValue": "GAD02-Trouble Relaxing", "synonyms": ["GAD02-Trouble Relaxing"]}, {"conceptId": "C163834", "definition": "Generalized Anxiety Disorder - 7 Version 2 - Worrying too much about different things.", "preferredTerm": "GAD-7 Version 2 - Worrying Too Much About Things", "submissionValue": "GAD02-Worrying Too Much About Things", "synonyms": ["GAD02-Worrying Too Much About Things"]}]}