{"_links": {"parentPackage": {"href": "/mdr/ct/packages/sdtmct-2021-06-25", "title": "SDTM Controlled Terminology Package 46 Effective 2021-06-25", "type": "Terminology"}, "rootItem": {"href": "/mdr/root/ct/sdtmct/codelists/C163386", "title": "Version-agnostic anchor resource for codelist C163386", "type": "Root Value Domain"}, "self": {"href": "/mdr/ct/packages/sdtmct-2021-06-25/codelists/C163386", "title": "CDISC Questionnaire ANSD Version 1.0 Test Name Terminology", "type": "Code List"}}, "conceptId": "C163386", "definition": "Asthma Nighttime Symptom Diary v1.0 test name.", "extensible": "false", "name": "Asthma Nighttime Symptom Diary v1.0 Questionnaire Test Name", "preferredTerm": "CDISC Questionnaire ANSD Version 1.0 Test Name Terminology", "submissionValue": "ANSD01TN", "synonyms": ["Asthma Nighttime Symptom Diary v1.0 Questionnaire Test Name"], "terms": [{"conceptId": "C163825", "definition": "Asthma Nighttime Symptom Diary v1.0 - Please rate your difficulty breathing at its worst since you went to bed last night.", "preferredTerm": "ANSD Version 1.0 - Rate Breathing at Its Worst", "submissionValue": "ANSD01-Rate Breathing at Its Worst", "synonyms": ["ANSD01-Rate Breathing at Its Worst"]}, {"conceptId": "C163829", "definition": "Asthma Nighttime Symptom Diary v1.0 - Please rate your chest pain at its worst since you went to bed last night.", "preferredTerm": "ANSD Version 1.0 - Rate Chest Pain at Its Worst", "submissionValue": "ANSD01-Rate Chest Pain at Its Worst", "synonyms": ["ANSD01-Rate Chest Pain at Its Worst"]}, {"conceptId": "C163828", "definition": "Asthma Nighttime Symptom Diary v1.0 - Please rate your chest tightness at its worst since you went to bed last night.", "preferredTerm": "ANSD Version 1.0 - Rate Chest Tightness at Its Worst", "submissionValue": "ANSD01-Rate Chest Tightness at Its Worst", "synonyms": ["ANSD01-Rate Chest Tightness at Its Worst"]}, {"conceptId": "C163830", "definition": "Asthma Nighttime Symptom Diary v1.0 - Please rate your cough at its worst since you went to bed last night.", "preferredTerm": "ANSD Version 1.0 - Rate Cough at Its Worst", "submissionValue": "ANSD01-Rate Cough at Its Worst", "synonyms": ["ANSD01-Rate Cough at Its Worst"]}, {"conceptId": "C163827", "definition": "Asthma Nighttime Symptom Diary v1.0 - Please rate your shortness of breath at its worst since you went to bed last night.", "preferredTerm": "ANSD Version 1.0 - Rate Shortness of Breath at Worst", "submissionValue": "ANSD01-Rate Shortness of Breath at Worst", "synonyms": ["ANSD01-Rate Shortness of Breath at Worst"]}, {"conceptId": "C163826", "definition": "Asthma Nighttime Symptom Diary v1.0 - Please rate your wheezing at its worst since you went to bed last night.", "preferredTerm": "ANSD Version 1.0 - Rate Wheezing at Its Worst", "submissionValue": "ANSD01-Rate Wheezing at Its Worst", "synonyms": ["ANSD01-Rate Wheezing at Its Worst"]}, {"conceptId": "C163831", "definition": "Asthma Nighttime Symptom Diary v1.0 - Total score.", "preferredTerm": "ANSD Version 1.0 - Total Score", "submissionValue": "ANSD01-Total Score", "synonyms": ["ANSD01-Total Score"]}]}