{"_links": {"parentPackage": {"href": "/mdr/ct/packages/sdtmct-2021-06-25", "title": "SDTM Controlled Terminology Package 46 Effective 2021-06-25", "type": "Terminology"}, "rootItem": {"href": "/mdr/root/ct/sdtmct/codelists/C177910", "title": "Version-agnostic anchor resource for codelist C177910", "type": "Root Value Domain"}, "self": {"href": "/mdr/ct/packages/sdtmct-2021-06-25/codelists/C177910", "title": "CDISC SDTM Result Scale Response Terminology", "type": "Code List"}}, "conceptId": "C177910", "definition": "Terminology relevant to the values that classifies the scale of the original result value with respect to whether the result is, for example, ordinal, nominal, quantitative, or narrative.", "extensible": "true", "name": "Result Scale Response", "preferredTerm": "CDISC SDTM Result Scale Response Terminology", "submissionValue": "RSLSCLRS", "synonyms": ["Result Scale Response"], "terms": [{"conceptId": "C80446", "definition": "A textual description of the particulars of an act, occurrence, or course of events.", "preferredTerm": "Narrative", "submissionValue": "NARRATIVE", "synonyms": ["Nar"]}, {"conceptId": "C47798", "definition": "A scale or classification with no inherent order to the values, which uses named categories or labels.", "preferredTerm": "Nominal Scale", "submissionValue": "NOMINAL", "synonyms": ["Nom"]}, {"conceptId": "C47797", "definition": "A scale that uses an ordered set of values where the difference between successive designations may not be constant.", "preferredTerm": "Ordinal Scale", "submissionValue": "ORDINAL", "synonyms": ["Ord"]}, {"conceptId": "C70766", "definition": "A numeric measure of a physical attribute of an entity or substance.", "preferredTerm": "Quantitative Concept", "submissionValue": "QUANTITATIVE", "synonyms": ["Qn"]}]}