{"_links": {"parentPackage": {"href": "/mdr/ct/packages/sdtmct-2021-06-25", "title": "SDTM Controlled Terminology Package 46 Effective 2021-06-25", "type": "Terminology"}, "rootItem": {"href": "/mdr/root/ct/sdtmct/codelists/C179943", "title": "Version-agnostic anchor resource for codelist C179943", "type": "Root Value Domain"}, "self": {"href": "/mdr/ct/packages/sdtmct-2021-06-25/codelists/C179943", "title": "CDISC Clinical Classification Eastern Cooperative Oncology Group Performance Status ECOG101 Original Response Terminology", "type": "Code List"}}, "conceptId": "C179943", "definition": "Eastern Cooperative Oncology Group Performance Status original result for ECOG101 test and test code.", "extensible": "false", "name": "Eastern Cooperative Oncology Group Performance Status Clinical Classification ORRES for ECOG101 TN/TC", "preferredTerm": "CDISC Clinical Classification Eastern Cooperative Oncology Group Performance Status ECOG101 Original Response Terminology", "submissionValue": "ECOG101OR", "synonyms": ["Eastern Cooperative Oncology Group Performance Status Clinical Classification ORRES for ECOG101 TN/TC"], "terms": [{"conceptId": "C180251", "definition": "Eastern Cooperative Oncology Group Performance Status original result for ECOG101-Ambulatory and capable of all selfcare but unable to carry out any work activities. Up and about more than 50% of waking hours.", "preferredTerm": "Eastern Cooperative Oncology Group Performance Status ECOG101 Original Result - Ambulatory And Capable Of All Selfcare But Unable To Carry Out Any Work Activities. Up And About More Than 50% Of Waking Hours", "submissionValue": "Ambulatory and capable of all selfcare but unable to carry out any work activities. Up and about more than 50% of waking hours", "synonyms": ["ECOG101-Ambulatory and capable of all selfcare but unable to carry out any work activities. Up and about more than 50% of waking hours"]}, {"conceptId": "C180252", "definition": "Eastern Cooperative Oncology Group Performance Status original result for ECOG101-Capable of only limited selfcare, confined to bed or chair more than 50% of waking hours.", "preferredTerm": "Eastern Cooperative Oncology Group Performance Status ECOG101 Original Result - Capable Of Only Limited Selfcare, Confined To Bed Or Chair More Than 50% Of Waking Hours", "submissionValue": "Capable of only limited selfcare, confined to bed or chair more than 50% of waking hours", "synonyms": ["ECOG101-Capable of only limited selfcare, confined to bed or chair more than 50% of waking hours"]}, {"conceptId": "C180253", "definition": "Eastern Cooperative Oncology Group Performance Status original result for ECOG101-Completely disabled. Cannot carry on any selfcare. Totally confined to bed or chair.", "preferredTerm": "Eastern Cooperative Oncology Group Performance Status ECOG101 Original Result - Completely Disabled. Cannot Carry On Any Selfcare. Totally Confined To Bed Or Chair", "submissionValue": "Completely disabled. Cannot carry on any selfcare. Totally confined to bed or chair", "synonyms": ["ECOG101-Completely disabled. Cannot carry on any selfcare. Totally confined to bed or chair"]}, {"conceptId": "C180254", "definition": "Eastern Cooperative Oncology Group Performance Status original result for ECOG101-Dead.", "preferredTerm": "Eastern Cooperative Oncology Group Performance Status ECOG101 Original Result - Dead", "submissionValue": "Dead", "synonyms": ["ECOG101-Dead"]}, {"conceptId": "C180249", "definition": "Eastern Cooperative Oncology Group Performance Status original result for ECOG101-Fully active, able to carry on all pre-disease performance without restriction.", "preferredTerm": "Eastern Cooperative Oncology Group Performance Status ECOG101 Original Result - Fully Active, Able To Carry On All Pre-Disease Performance Without Restriction", "submissionValue": "Fully active, able to carry on all pre-disease performance without restriction", "synonyms": ["ECOG101-Fully active, able to carry on all pre-disease performance without restriction"]}, {"conceptId": "C180250", "definition": "Eastern Cooperative Oncology Group Performance Status original result for ECOG101-Restricted in physically strenuous activity but ambulatory and able to carry out work of a light or sedentary nature, e.g., light house work, office work.", "preferredTerm": "Eastern Cooperative Oncology Group Performance Status ECOG101 Original Result - Restricted In Physically Strenuous Activity But Ambulatory And Able To Carry Out Work Of A Light Or Sedentary Nature, E.G., Light House Work, Office Work", "submissionValue": "Restricted in physically strenuous activity but ambulatory and able to carry out work of a light or sedentary nature, e.g., light house work, office work", "synonyms": ["ECOG101-Restricted in physically strenuous activity but ambulatory and able to carry out work of a light or sedentary nature, e.g., light house work, office work"]}]}