{"_links": {"parentPackage": {"href": "/mdr/ct/packages/sdtmct-2021-06-25", "title": "SDTM Controlled Terminology Package 46 Effective 2021-06-25", "type": "Terminology"}, "rootItem": {"href": "/mdr/root/ct/sdtmct/codelists/C179944", "title": "Version-agnostic anchor resource for codelist C179944", "type": "Root Value Domain"}, "self": {"href": "/mdr/ct/packages/sdtmct-2021-06-25/codelists/C179944", "title": "CDISC Clinical Classification Eastern Cooperative Oncology Group Performance Status ECOG101 Standardized Character Response Terminology", "type": "Code List"}}, "conceptId": "C179944", "definition": "Eastern Cooperative Oncology Group Performance Status standardized character result for ECOG101 test and test code.", "extensible": "false", "name": "Eastern Cooperative Oncology Group Performance Status Clinical Classification STRESC for ECOG101 TN/TC", "preferredTerm": "CDISC Clinical Classification Eastern Cooperative Oncology Group Performance Status ECOG101 Standardized Character Response Terminology", "submissionValue": "ECOG101STR", "synonyms": ["Eastern Cooperative Oncology Group Performance Status Clinical Classification STRESC for ECOG101 TN/TC"], "terms": [{"conceptId": "C180255", "definition": "Eastern Cooperative Oncology Group Performance Status standardized character result for ECOG101-Fully active, able to carry on all pre-disease performance without restriction.", "preferredTerm": "Eastern Cooperative Oncology Group Performance Status ECOG101 Standardized Character Result 0", "submissionValue": "0", "synonyms": ["ECOG101-0"]}, {"conceptId": "C180256", "definition": "Eastern Cooperative Oncology Group Performance Status standardized character result for ECOG101-Restricted in physically strenuous activity but ambulatory and able to carry out work of a light or sedentary nature, e.g., light house work, office work.", "preferredTerm": "Eastern Cooperative Oncology Group Performance Status ECOG101 Standardized Character Result 1", "submissionValue": "1", "synonyms": ["ECOG101-1"]}, {"conceptId": "C180257", "definition": "Eastern Cooperative Oncology Group Performance Status standardized character result for ECOG101-Ambulatory and capable of all selfcare but unable to carry out any work activities. Up and about more than 50% of waking hours times.", "preferredTerm": "Eastern Cooperative Oncology Group Performance Status ECOG101 Standardized Character Result 2", "submissionValue": "2", "synonyms": ["ECOG101-2"]}, {"conceptId": "C180258", "definition": "Eastern Cooperative Oncology Group Performance Status standardized character result for ECOG101-Capable of only limited selfcare, confined to bed or chair more than 50% of waking hours.", "preferredTerm": "Eastern Cooperative Oncology Group Performance Status ECOG101 Standardized Character Result 3", "submissionValue": "3", "synonyms": ["ECOG101-3"]}, {"conceptId": "C180259", "definition": "Eastern Cooperative Oncology Group Performance Status standardized character result for ECOG101-Completely disabled. Cannot carry on any selfcare. Totally confined to bed or chair.", "preferredTerm": "Eastern Cooperative Oncology Group Performance Status ECOG101 Standardized Character Result 4", "submissionValue": "4", "synonyms": ["ECOG101-4"]}, {"conceptId": "C180260", "definition": "Eastern Cooperative Oncology Group Performance Status standardized character result for ECOG101-Dead.", "preferredTerm": "Eastern Cooperative Oncology Group Performance Status ECOG101 Standardized Character Result 5", "submissionValue": "5", "synonyms": ["ECOG101-5"]}]}