{"_links": {"parentPackage": {"href": "/mdr/ct/packages/sdtmct-2021-06-25", "title": "SDTM Controlled Terminology Package 46 Effective 2021-06-25", "type": "Terminology"}, "rootItem": {"href": "/mdr/root/ct/sdtmct/codelists/C179951", "title": "Version-agnostic anchor resource for codelist C179951", "type": "Root Value Domain"}, "self": {"href": "/mdr/ct/packages/sdtmct-2021-06-25/codelists/C179951", "title": "CDISC Questionnaire Combat Exposure Scale CES0102 Standardized Character Response Terminology", "type": "Code List"}}, "conceptId": "C179951", "definition": "Combat Exposure Scale standardized character result for CES0102 test and test code.", "extensible": "false", "name": "Combat Exposure Scale Questionnaire STRESC for CES0102 TN/TC", "preferredTerm": "CDISC Questionnaire Combat Exposure Scale CES0102 Standardized Character Response Terminology", "submissionValue": "CES0102STR", "synonyms": ["Combat Exposure Scale Questionnaire STRESC for CES0102 TN/TC"], "terms": [{"conceptId": "C180291", "definition": "Combat Exposure Scale standardized character result for CES0102-Never.", "preferredTerm": "Combat Exposure Scale CES0102 Standardized Character Result 1", "submissionValue": "1", "synonyms": ["CES0102-1"]}, {"conceptId": "C180292", "definition": "Combat Exposure Scale standardized character result for CES0102-<1 month.", "preferredTerm": "Combat Exposure Scale CES0102 Standardized Character Result 2", "submissionValue": "2", "synonyms": ["CES0102-2"]}, {"conceptId": "C180293", "definition": "Combat Exposure Scale standardized character result for CES0102-1-3 months.", "preferredTerm": "Combat Exposure Scale CES0102 Standardized Character Result 3", "submissionValue": "3", "synonyms": ["CES0102-3"]}, {"conceptId": "C180294", "definition": "Combat Exposure Scale standardized character result for CES0102-4-6 months.", "preferredTerm": "Combat Exposure Scale CES0102 Standardized Character Result 4", "submissionValue": "4", "synonyms": ["CES0102-4"]}, {"conceptId": "C180295", "definition": "Combat Exposure Scale standardized character result for CES0102-7+ months.", "preferredTerm": "Combat Exposure Scale CES0102 Standardized Character Result 5", "submissionValue": "5", "synonyms": ["CES0102-5"]}]}