{"_links": {"parentPackage": {"href": "/mdr/ct/packages/sdtmct-2021-06-25", "title": "SDTM Controlled Terminology Package 46 Effective 2021-06-25", "type": "Terminology"}, "rootItem": {"href": "/mdr/root/ct/sdtmct/codelists/C66785", "title": "Version-agnostic anchor resource for codelist C66785", "type": "Root Value Domain"}, "self": {"href": "/mdr/ct/packages/sdtmct-2021-06-25/codelists/C66785", "title": "CDISC SDTM Control Type Terminology", "type": "Code List"}}, "conceptId": "C66785", "definition": "A terminology codelist relevant to a comparator against which the study treatment is evaluated.", "extensible": "true", "name": "Control Type Response", "preferredTerm": "CDISC SDTM Control Type Terminology", "submissionValue": "TCNTRL", "synonyms": ["Control Type Response"], "terms": [{"conceptId": "C49649", "definition": "A type of control, which has a demonstrated effect, administered as a comparator to subjects in a clinical trial. [From ICH E10]", "preferredTerm": "Active Control", "submissionValue": "ACTIVE", "synonyms": ["Active Control"]}, {"conceptId": "C120841", "definition": "A type of control using different doses or regimens of the same treatment across the treatment arms.", "preferredTerm": "Dose Response Control", "submissionValue": "DOSE RESPONSE"}, {"conceptId": "C41132", "definition": "No person or thing, nobody, not any. (NCI)", "preferredTerm": "None", "submissionValue": "NONE"}, {"conceptId": "C49648", "definition": "An inactive, identical-appearing drug or treatment that does not contain the test product.", "preferredTerm": "Placebo Control", "submissionValue": "PLACEBO", "synonyms": ["Placebo", "Placebo Control"]}]}