{"_links": {"parentPackage": {"href": "/mdr/ct/packages/sdtmct-2017-09-29", "title": "SDTM Controlled Terminology Package 31 Effective 2017-09-29", "type": "Terminology"}, "priorVersion": {"href": "/mdr/ct/packages/sdtmct-2017-06-30/codelists/C100133", "title": "CDISC Questionnaire BPRS-A Test Name Terminology", "type": "Code List"}, "rootItem": {"href": "/mdr/root/ct/sdtmct/codelists/C100133", "title": "Version-agnostic anchor resource for codelist C100133", "type": "Root Value Domain"}, "self": {"href": "/mdr/ct/packages/sdtmct-2017-09-29/codelists/C100133", "title": "CDISC Questionnaire BPRS-A Test Name Terminology", "type": "Code List"}}, "conceptId": "C100133", "definition": "The Brief Psychiatric Rating Scale-A test name.", "extensible": "false", "name": "Brief Psychiatric Rating Scale-A Questionnaire Test Name", "preferredTerm": "CDISC Questionnaire BPRS-A Test Name Terminology", "submissionValue": "BPR01TN", "synonyms": ["Brief Psychiatric Rating Scale-A Questionnaire Test Name"], "terms": [{"conceptId": "C100373", "definition": "Brief Psychiatric Rating Scale-A - Anxiety.", "preferredTerm": "BPRS-A - Anxiety", "submissionValue": "BPR01-Anxiety", "synonyms": ["BPR01-Anxiety"]}, {"conceptId": "C100387", "definition": "Brief Psychiatric Rating Scale-A - Blunted Affect.", "preferredTerm": "BPRS-A - Blunted Affect", "submissionValue": "BPR01-Blunted Affect", "synonyms": ["BPR01-Blunted Affect"]}, {"conceptId": "C100375", "definition": "Brief Psychiatric Rating Scale-A - Conceptual Disorganization.", "preferredTerm": "BPRS-A - Conceptual Disorganization", "submissionValue": "BPR01-Conceptual Disorganization", "synonyms": ["BPR01-Conceptual Disorganization"]}, {"conceptId": "C100380", "definition": "Brief Psychiatric Rating Scale-A - Depressive Mood.", "preferredTerm": "BPRS-A - Depressive Mood", "submissionValue": "BPR01-Depressive Mood", "synonyms": ["BPR01-Depressive Mood"]}, {"conceptId": "C100389", "definition": "Brief Psychiatric Rating Scale-A - Disorientation.", "preferredTerm": "BPRS-A - Disorientation", "submissionValue": "BPR01-Disorientation", "synonyms": ["BPR01-Disorientation"]}, {"conceptId": "C100374", "definition": "Brief Psychiatric Rating Scale-A - Emotional Withdrawal.", "preferredTerm": "BPRS-A - Emotional Withdrawal", "submissionValue": "BPR01-Emotional Withdrawal", "synonyms": ["BPR01-Emotional Withdrawal"]}, {"conceptId": "C100388", "definition": "Brief Psychiatric Rating Scale-A - Excitement.", "preferredTerm": "BPRS-A - Excitement", "submissionValue": "BPR01-Excitement", "synonyms": ["BPR01-Excitement"]}, {"conceptId": "C100379", "definition": "Brief Psychiatric Rating Scale-A - Grandiosity.", "preferredTerm": "BPRS-A - Grandiosity", "submissionValue": "BPR01-Grandiosity", "synonyms": ["BPR01-Grandiosity"]}, {"conceptId": "C100376", "definition": "Brief Psychiatric Rating Scale-A - Guilt Feelings.", "preferredTerm": "BPRS-A - Guilt Feelings", "submissionValue": "BPR01-Guilt Feelings", "synonyms": ["BPR01-Guilt Feelings"]}, {"conceptId": "C100383", "definition": "Brief Psychiatric Rating Scale-A - Hallucinatory Behavior.", "preferredTerm": "BPRS-A - Hallucinatory Behavior", "submissionValue": "BPR01-Hallucinatory Behavior", "synonyms": ["BPR01-Hallucinatory Behavior"]}, {"conceptId": "C100381", "definition": "Brief Psychiatric Rating Scale-A - Hostility.", "preferredTerm": "BPRS-A - Hostility", "submissionValue": "BPR01-Hostility", "synonyms": ["BPR01-Hostility"]}, {"conceptId": "C100378", "definition": "Brief Psychiatric Rating Scale-A - Mannerisms and Posturing.", "preferredTerm": "BPRS-A - Mannerisms and Posturing", "submissionValue": "BPR01-Mannerisms and Posturing", "synonyms": ["BPR01-Mannerisms and Posturing"]}, {"conceptId": "C100384", "definition": "Brief Psychiatric Rating Scale-A - Motor Retardation.", "preferredTerm": "BPRS-A - Motor Retardation", "submissionValue": "BPR01-Motor Retardation", "synonyms": ["BPR01-Motor Retardation"]}, {"conceptId": "C100372", "definition": "Brief Psychiatric Rating Scale-A - Somatic Concern.", "preferredTerm": "BPRS-A - Somatic Concern", "submissionValue": "BPR01-Somatic Concern", "synonyms": ["BPR01-Somatic Concern"]}, {"conceptId": "C100382", "definition": "Brief Psychiatric Rating Scale-A - Suspiciousness.", "preferredTerm": "BPRS-A - Suspiciousness", "submissionValue": "BPR01-Suspiciousness", "synonyms": ["BPR01-Suspiciousness"]}, {"conceptId": "C100377", "definition": "Brief Psychiatric Rating Scale-A - Tension.", "preferredTerm": "BPRS-A - Tension", "submissionValue": "BPR01-Tension", "synonyms": ["BPR01-Tension"]}, {"conceptId": "C100385", "definition": "Brief Psychiatric Rating Scale-A - Uncooperativeness.", "preferredTerm": "BPRS-A - Uncooperativeness", "submissionValue": "BPR01-Uncooperativeness", "synonyms": ["BPR01-Uncooperativeness"]}, {"conceptId": "C100386", "definition": "Brief Psychiatric Rating Scale-A - Unusual Thought Content.", "preferredTerm": "BPRS-A - Unusual Thought Content", "submissionValue": "BPR01-Unusual Thought Content", "synonyms": ["BPR01-Unusual Thought Content"]}]}