{"_links": {"parentPackage": {"href": "/mdr/ct/packages/sdtmct-2017-09-29", "title": "SDTM Controlled Terminology Package 31 Effective 2017-09-29", "type": "Terminology"}, "priorVersion": {"href": "/mdr/ct/packages/sdtmct-2017-06-30/codelists/C101843", "title": "CDISC SDTM Coronary Artery Disease Presentation Terminology", "type": "Code List"}, "rootItem": {"href": "/mdr/root/ct/sdtmct/codelists/C101843", "title": "Version-agnostic anchor resource for codelist C101843", "type": "Root Value Domain"}, "self": {"href": "/mdr/ct/packages/sdtmct-2017-09-29/codelists/C101843", "title": "CDISC SDTM Coronary Artery Disease Presentation Terminology", "type": "Code List"}}, "conceptId": "C101843", "definition": "A terminology codelist associated with coronary artery disease presentation.", "extensible": "false", "name": "Coronary Artery Disease Presentation", "preferredTerm": "CDISC SDTM Coronary Artery Disease Presentation Terminology", "submissionValue": "CADPRSN", "synonyms": ["Coronary Artery Disease Presentation"], "terms": [{"conceptId": "C80383", "definition": "A myocardial infarction that does not produce elevation in the ST segments of the ECG.", "preferredTerm": "Non-ST Elevation Myocardial Infarction by ECG Finding", "submissionValue": "NON-ST ELEVATION MYOCARDIAL INFARCTION", "synonyms": ["NON-STEMI", "NSTEMI"]}, {"conceptId": "C101888", "definition": "A myocardial infarction that produces elevation in the ST segments of the ECG.", "preferredTerm": "ST Elevation Myocardial Infarction by ECG Finding", "submissionValue": "ST ELEVATION MYOCARDIAL INFARCTION", "synonyms": ["STEMI"]}, {"conceptId": "C66914", "definition": "Angina pectoris which has not recently changed in frequency, duration or intensity. Stable angina pectoris is relieved by rest or administration of oral, sublingual or transdermal antianginal medications.", "preferredTerm": "Stable Angina", "submissionValue": "STABLE ANGINA"}, {"conceptId": "C66911", "definition": "Angina pectoris (or equivalent type of ischemic discomfort) which has recently changed in frequency, duration, intensity, or occurs at rest.", "preferredTerm": "Unstable Angina", "submissionValue": "UNSTABLE ANGINA"}, {"conceptId": "C66915", "definition": "A variant form of angina pectoris caused by coronary artery vasospasm, usually occurring spontaneously and frequently associated with ST segment elevation.", "preferredTerm": "Variant Angina", "submissionValue": "VARIANT ANGINA"}]}