{"_links": {"parentPackage": {"href": "/mdr/ct/packages/sdtmct-2017-09-29", "title": "SDTM Controlled Terminology Package 31 Effective 2017-09-29", "type": "Terminology"}, "priorVersion": {"href": "/mdr/ct/packages/sdtmct-2017-06-30/codelists/C101846", "title": "CDISC SDTM Cardiovascular Test Name Terminology", "type": "Code List"}, "rootItem": {"href": "/mdr/root/ct/sdtmct/codelists/C101846", "title": "Version-agnostic anchor resource for codelist C101846", "type": "Root Value Domain"}, "self": {"href": "/mdr/ct/packages/sdtmct-2017-09-29/codelists/C101846", "title": "CDISC SDTM Cardiovascular Test Name Terminology", "type": "Code List"}}, "conceptId": "C101846", "definition": "A terminology codelist to describe the test name for a physiological examination of the cardiovascular system.", "extensible": "true", "name": "Cardiovascular Test Name", "preferredTerm": "CDISC SDTM Cardiovascular Test Name Terminology", "submissionValue": "CVTEST", "synonyms": ["Cardiovascular Test Name"], "terms": [{"conceptId": "C139038", "definition": "An indication as to whether there is the presence of one or more aneurysms.", "preferredTerm": "Aneurysm Indicator", "submissionValue": "Aneurysm Indicator", "synonyms": ["Aneurysm Indicator"]}, {"conceptId": "C139042", "definition": "The longitudinal displacement of a cardiac valve annulus toward the apex of the heart.", "preferredTerm": "Annular Plane Systolic Excursion", "submissionValue": "Annular Plane Systolic Excursion", "synonyms": ["Annular Plane Systolic Excursion"]}, {"conceptId": "C139045", "definition": "The peak velocity of the annular motion during ventricular systole.", "preferredTerm": "Annular S' Velocity", "submissionValue": "Annular S' Velocity", "synonyms": ["Annular S' Velocity"]}, {"conceptId": "C127535", "definition": "The peak velocity of the annular motion during late ventricular diastole (the active filling of the ventricle).", "preferredTerm": "Annular a' Velocity", "submissionValue": "Annular a' Velocity", "synonyms": ["Annular a' Velocity"]}, {"conceptId": "C127536", "definition": "The peak velocity of the annular motion during early ventricular diastole (the passive filling of the ventricle).", "preferredTerm": "Annular e' Velocity", "submissionValue": "Annular e' Velocity", "synonyms": ["Annular e' Velocity"]}, {"conceptId": "C122038", "definition": "The augmentation pressure divided by the aortic pulse pressure (aortic systolic minus aortic diastolic pressure) multiplied by 100, expressed as a percentage.", "preferredTerm": "Aortic Augmentation Index", "submissionValue": "Aortic Augmentation Index", "synonyms": ["Aortic Augmentation Index"]}, {"conceptId": "C122083", "definition": "The aortic augmentation index normalized to a heart rate of 75 beats per minute.", "preferredTerm": "Aortic Augmentation Index at 75bpm", "submissionValue": "Aortic Augmentation Index at 75bpm", "synonyms": ["Aortic Augmentation Index at 75bpm"]}, {"conceptId": "C122084", "definition": "The difference between the second pressure peak in the aortic wave, secondary to the pressure wave reflection from the sites of peripheral arterial impedance mismatch (P2) and the first pressure peak in the aortic wave form, secondary to ventricular ejection (P1).", "preferredTerm": "Aortic Augmentation Pressure", "submissionValue": "Aortic Augmentation Pressure", "synonyms": ["Aortic Augmentation Pressure"]}, {"conceptId": "C122085", "definition": "The first pressure peak in the aortic wave form secondary to ventricular ejection.", "preferredTerm": "Augmentation Pressure Point P1", "submissionValue": "Aortic Augmentation Pressure Peak P1", "synonyms": ["Aortic Augmentation Pressure Peak P1"]}, {"conceptId": "C122086", "definition": "The second pressure peak in the aortic waveform secondary to pressure wave reflection from the periphery.", "preferredTerm": "Augmentation Pressure Point P2", "submissionValue": "Aortic Augmentation Pressure Peak P2", "synonyms": ["Aortic Augmentation Pressure Peak P2"]}, {"conceptId": "C139033", "definition": "An indication as to whether there is coarctation of the aorta.", "preferredTerm": "Aortic Coarctation Indicator", "submissionValue": "Aortic Coarctation Indicator", "synonyms": ["Aortic Coarctation Indicator"]}, {"conceptId": "C139037", "definition": "The assessment of the severity of aortic coarctation.", "preferredTerm": "Aortic Coarctation Severity", "submissionValue": "Aortic Coarctation Severity", "synonyms": ["Aortic Coarctation Severity"]}, {"conceptId": "C139035", "definition": "The assessment of the severity of ductal aortic coarctation.", "preferredTerm": "Aortic Juxta-ductal Coarctation Severity", "submissionValue": "Aortic Ductal Coarctation Severity", "synonyms": ["Aortic Ductal Coarctation Severity", "Aortic Juxta-ductal Coarctation Severity"]}, {"conceptId": "C139036", "definition": "The assessment of the severity of postductal aortic coarctation.", "preferredTerm": "Aortic Postductal Coarctation Severity", "submissionValue": "Aortic Postductal Coarctation Severity", "synonyms": ["Aortic Postductal Coarctation Severity"]}, {"conceptId": "C139034", "definition": "The assessment of the severity of preductal aortic coarctation.", "preferredTerm": "Aortic Preductal Coarctation Severity", "submissionValue": "Aortic Preductal Coarctation Severity", "synonyms": ["Aortic Preductal Coarctation Severity"]}, {"conceptId": "C127539", "definition": "A relative measurement (ratio) of the aortic regurgitant jet width to left ventricular outflow tract (LVOT) diameter.", "preferredTerm": "Aortic Regurgitant Jet Width to Left Ventricular Outflow Tract Diameter Ratio", "submissionValue": "Aortic Regur Jet Width LVOT Diam Rt", "synonyms": ["Aortic Regur Jet Width LVOT Diam Rt", "Aortic Regurgitant Jet Width to Left Ventricular Outflow Tract Diameter Ratio"]}, {"conceptId": "C127540", "definition": "A measurement of the volume of retrograde blood flow across the orifice of the aortic valve expressed as a percentage of the anterograde flow volume.", "preferredTerm": "Aortic Valve Regurgitant Fraction", "submissionValue": "Aortic Valve Regurgitant Fraction", "synonyms": ["Aortic Valve Regurgitant Fraction"]}, {"conceptId": "C127541", "definition": "The measured width of the regurgitant jet of blood into the left ventricular outflow tract.", "preferredTerm": "Aortic Valve Regurgitant Jet Width", "submissionValue": "Aortic Valve Regurgitant Jet Width", "synonyms": ["Aortic Valve Regurgitant Jet Width"]}, {"conceptId": "C127542", "definition": "A measurement of the volume of retrograde blood flow across the orifice of the aortic valve.", "preferredTerm": "Aortic Valve Regurgitant Volume", "submissionValue": "Aortic Valve Regurgitant Volume", "synonyms": ["Aortic Valve Regurgitant Volume"]}, {"conceptId": "C127543", "definition": "The area of the vena contracta of the aortic valve.", "preferredTerm": "Aortic Valve Vena Contracta Area", "submissionValue": "Aortic Valve Vena Contracta Area", "synonyms": ["Aortic Valve Vena Contracta Area"]}, {"conceptId": "C127544", "definition": "The width of the vena contracta of the aortic valve.", "preferredTerm": "Aortic Valve Vena Contracta Width", "submissionValue": "Aortic Valve Vena Contracta Width", "synonyms": ["Aortic Valve Vena Contracta Width"]}, {"conceptId": "C127537", "definition": "The 2-dimensional surface enclosed within a boundary of a cardiovascular structure and measured at end ventricular diastole.", "preferredTerm": "Area at End Ventricular Diastole", "submissionValue": "Area, End Ventricular Diastole", "synonyms": ["Area, End Ventricular Diastole"]}, {"conceptId": "C127538", "definition": "The 2-dimensional surface enclosed within a boundary of a cardiovascular structure and measured at end ventricular systole.", "preferredTerm": "Area at End Ventricular Systole", "submissionValue": "Area, End Ventricular Systole", "synonyms": ["Area, End Ventricular Systole"]}, {"conceptId": "C94866", "definition": "The volume of blood per unit time passing through a specified location, such as a point in a blood vessel or an entire organ.", "preferredTerm": "Blood Flow Rate", "submissionValue": "Blood Flow Rate", "synonyms": ["Blood Flow Rate"]}, {"conceptId": "C119245", "definition": "The measure of an individual's cardiac output divided by the individual's body surface area (CI= CO/BSA).", "preferredTerm": "Cardiac Index", "submissionValue": "Cardiac Index", "synonyms": ["Cardiac Index"]}, {"conceptId": "C139063", "definition": "An indication as to whether there is a hypertrophied cardiac muscle.", "preferredTerm": "Heart Chamber Hypertrophy Indicator", "submissionValue": "Cardiac Muscle Hypertrophy Indicator", "synonyms": ["Cardiac Muscle Hypertrophy Indicator"]}, {"conceptId": "C119246", "definition": "The total volume of blood pumped by the heart over a set period of time, conventionally one minute; it is calculated as heart rate times stroke volume (CO= HR x SV).", "preferredTerm": "Cardiac Output", "submissionValue": "Cardiac Output", "synonyms": ["Cardiac Output"]}, {"conceptId": "C127563", "definition": "The trajectory of the retrograde blood flow from a cardiac valve.", "preferredTerm": "Cardiac Valve Regurgitant Jet Direction", "submissionValue": "Cardiac Valve Regur Jet Direction", "synonyms": ["Cardiac Valve Regur Jet Direction", "Cardiac Valve Regurgitation Jet Direction"]}, {"conceptId": "C139056", "definition": "An estimation as to the cause of the pathology responsible for the cardiac valve regurgitation.", "preferredTerm": "Cardiac Valvular Regurgitation Likely Etiology", "submissionValue": "Cardiac Valvular Regur Likely Etiology", "synonyms": ["Cardiac Valvular Regur Likely Etiology", "Cardiac Valvular Regurgitation Likely Etiology"]}, {"conceptId": "C139055", "definition": "An indication as to whether a specific cardiac valve is regurgitant.", "preferredTerm": "Cardiac Valvular Regurgitation Indicator", "submissionValue": "Cardiac Valvular Regurgitation Indicator", "synonyms": ["Cardiac Valvular Regurgitation Indicator"]}, {"conceptId": "C102244", "definition": "The qualitative measurement of the severity of cardiac valvular regurgitation.", "preferredTerm": "Cardiac Valvular Regurgitation Severity", "submissionValue": "Cardiac Valvular Regurgitation Severity", "synonyms": ["Cardiac Valvular Regurgitation Severity"]}, {"conceptId": "C102245", "definition": "The qualitative measurement of the severity of cardiac valvular stenosis.", "preferredTerm": "Cardiac Valvular Stenosis Severity", "submissionValue": "Cardiac Valvular Stenosis Severity", "synonyms": ["Cardiac Valvular Stenosis Severity"]}, {"conceptId": "C127564", "definition": "The assessment of the movement of the cardiac muscle, either as a whole or at one or more specific anatomical locations.", "preferredTerm": "Cardiac Wall Motion Type", "submissionValue": "Cardiac Wall Motion Type", "synonyms": ["Cardiac Wall Motion Type"]}, {"conceptId": "C127562", "definition": "An indication as to whether there is prolapsing of a cardiac valve chordae tendinae.", "preferredTerm": "Chordae Tendineae Prolapse Indicator", "submissionValue": "Chordae Tendineae Prolapse Indicator", "synonyms": ["Chordae Tendineae Prolapse Indicator"]}, {"conceptId": "C100086", "definition": "The pattern of the epicardial vessels supplying the posterolateral and posterior descending coronary arteries.", "preferredTerm": "Coronary Artery Dominance", "submissionValue": "Coronary Artery Dominance", "synonyms": ["Coronary Artery Dominance"]}, {"conceptId": "C119331", "definition": "An indication as to whether there is a new acute reduction in coronary flow (TIMI grade 0-1) in the absence of dissection, thrombus, spasm, or high-grade residual stenosis at the original PCI lesion site.", "preferredTerm": "Coronary No Reflow at PCI Site Indicator", "submissionValue": "Coronary Artery No Reflow Indicator", "synonyms": ["Coronary Artery No Reflow Indicator"]}, {"conceptId": "C127545", "definition": "The cross sectional diameter of a cardiovascular structure measured at end ventricular diastole.", "preferredTerm": "Cross-sectional Diameter at End Ventricular Diastole", "submissionValue": "Cross-sec Diameter, EVD", "synonyms": ["Cross-sec Diameter, EVD", "Cross-sectional Diameter, End Ventricular Diastole"]}, {"conceptId": "C127546", "definition": "The cross sectional diameter of a cardiovascular structure measured at end ventricular systole.", "preferredTerm": "Cross-sectional Diameter at End Ventricular Systole", "submissionValue": "Cross-sec Diameter, EVS", "synonyms": ["Cross-sec Diameter, EVS", "Cross-sectional Diameter, End Ventricular Systole"]}, {"conceptId": "C127547", "definition": "The cross sectional diameter of a cardiovascular structure measured at mid ventricular systole.", "preferredTerm": "Cross-sectional Diameter at Mid Ventricular Systole", "submissionValue": "Cross-sec Diameter, MVS", "synonyms": ["Cross-sec Diameter, MVS", "Cross-sectional Diameter, Mid Ventricular Systole"]}, {"conceptId": "C127595", "definition": "The cross-sectional thickness of a cardiovascular structure measured at end ventricular diastole.", "preferredTerm": "Cross-sectional Thickness at End Ventricular Diastole", "submissionValue": "Cross-sec Thickness, EVD", "synonyms": ["Cross-sec Thickness, EVD", "Cross-sectional Thickness, End Ventricular Diastole"]}, {"conceptId": "C127596", "definition": "The cross-sectional thickness of a cardiovascular structure measured at end ventricular systole.", "preferredTerm": "Cross-sectional Thickness at End Ventricular Systole", "submissionValue": "Cross-sec Thickness, EVS", "synonyms": ["Cross-sec Thickness, EVS", "Cross-sectional Thickness, End Ventricular Systole"]}, {"conceptId": "C139032", "definition": "A measurement of a structure taken along the plane that is perpendicular to the long axis.", "preferredTerm": "Cross-sectional Diameter", "submissionValue": "Cross-sectional Diameter", "synonyms": ["Cross-sectional Diameter"]}, {"conceptId": "C127548", "definition": "An indication as to whether there is doming of a cardiac valve cusp.", "preferredTerm": "Cusp Doming Indicator", "submissionValue": "Cusp Doming Indicator", "synonyms": ["Cusp Doming Indicator"]}, {"conceptId": "C127549", "definition": "The assessment of the severity of doming of a cardiac valve cusp.", "preferredTerm": "Cusp Doming Severity", "submissionValue": "Cusp Doming Severity", "synonyms": ["Cusp Doming Severity"]}, {"conceptId": "C127550", "definition": "An indication as to whether there is a flailing cardiac valve cusp.", "preferredTerm": "Cusp Flail Indicator", "submissionValue": "Cusp Flail Indicator", "synonyms": ["Cusp Flail Indicator"]}, {"conceptId": "C127551", "definition": "The assessment of the severity of a flailing cardiac valve cusp.", "preferredTerm": "Cusp Flail Severity", "submissionValue": "Cusp Flail Severity", "synonyms": ["Cusp Flail Severity"]}, {"conceptId": "C127552", "definition": "The time point during the cardiac cycle when the flail of one or more cardiac valve cusps occurs.", "preferredTerm": "Cusp Flail Timing", "submissionValue": "Cusp Flail Timing", "synonyms": ["Cusp Flail Timing"]}, {"conceptId": "C127553", "definition": "An indication as to whether there is a prolapsing cardiac valve cusp.", "preferredTerm": "Cusp Prolapse Indicator", "submissionValue": "Cusp Prolapse Indicator", "synonyms": ["Cusp Prolapse Indicator"]}, {"conceptId": "C127554", "definition": "The assessment of the severity of a prolapsing cardiac valve cusp.", "preferredTerm": "Cusp Prolapse Severity", "submissionValue": "Cusp Prolapse Severity", "synonyms": ["Cusp Prolapse Severity"]}, {"conceptId": "C127555", "definition": "The time point during the cardiac cycle when the prolapse of one or more cardiac valve cusps occurs.", "preferredTerm": "Cusp Prolapse Timing", "submissionValue": "Cusp Prolapse Timing", "synonyms": ["Cusp Prolapse Timing"]}, {"conceptId": "C127556", "definition": "An indication as to whether there is restricted motion of a cardiac valve cusp.", "preferredTerm": "Cusp Restricted Motion Indicator", "submissionValue": "Cusp Restricted Motion Indicator", "synonyms": ["Cusp Restricted Motion Indicator"]}, {"conceptId": "C127557", "definition": "The assessment of the severity of restricted motion of a cardiac valve cusp.", "preferredTerm": "Cusp Restricted Motion Severity", "submissionValue": "Cusp Restricted Motion Severity", "synonyms": ["Cusp Restricted Motion Severity"]}, {"conceptId": "C127558", "definition": "An indication as to whether there is tethering of a cardiac valve cusp.", "preferredTerm": "Cusp Tethering Indicator", "submissionValue": "Cusp Tethering Indicator", "synonyms": ["Cusp Tethering Indicator"]}, {"conceptId": "C127559", "definition": "The assessment of the severity of tethering of a cardiac valve cusp.", "preferredTerm": "Cusp Tethering Severity", "submissionValue": "Cusp Tethering Severity", "synonyms": ["Cusp Tethering Severity"]}, {"conceptId": "C127560", "definition": "An indication as to whether there is a thickened cardiac valve cusp.", "preferredTerm": "Cusp Thickening Indicator", "submissionValue": "Cusp Thickening Indicator", "synonyms": ["Cusp Thickening Indicator"]}, {"conceptId": "C127561", "definition": "The assessment of the severity of a thickening cardiac cusp.", "preferredTerm": "Cusp Thickening Severity", "submissionValue": "Cusp Thickening Severity", "synonyms": ["Cusp Thickening Severity"]}, {"conceptId": "C139041", "definition": "The type of aortic dissection present as defined by the DeBakey Classification System (DeBakey ME, Henly WS, Cooley DA, Morris GC Jr, Crawford ES, Beall AC Jr. Surgical management of dissecting aneurysms of the aorta. J Thorac Cardiovasc Surg. 1965 Jan;49:130-49).", "preferredTerm": "DeBakey Aortic Dissection Classification", "submissionValue": "DeBakey AoD Classification", "synonyms": ["DeBakey AoD Classification", "DeBakey Aortic Dissection Classification"]}, {"conceptId": "C25333", "definition": "The extent downward or inward; the perpendicular measurement from the surface downward to determine deepness. (NCI)", "preferredTerm": "Depth", "submissionValue": "Depth", "synonyms": ["Depth"]}, {"conceptId": "C139039", "definition": "An indication as to whether there is the presence of blood vessel dissection.", "preferredTerm": "Dissection Indicator", "submissionValue": "Dissection Indicator", "synonyms": ["Dissection Indicator"]}, {"conceptId": "C139057", "definition": "An indication as to whether an eccentric regurgitant jet direction is present.", "preferredTerm": "Eccentric Regurgitant Jet Indicator", "submissionValue": "Eccentric Regurgitant Jet Indicator", "synonyms": ["Eccentric Regurgitant Jet Indicator"]}, {"conceptId": "C127565", "definition": "A measurement of the effective regurgitant orifice area of the valve.", "preferredTerm": "Effective Regurgitant Orifice Area", "submissionValue": "Effective Regurgitant Orifice Area", "synonyms": ["Effective Regurgitant Orifice Area"]}, {"conceptId": "C122088", "definition": "The magnitude of the ejection wave that occurs when blood is ejected into the aorta by the left ventricle.", "preferredTerm": "Ejection Wave Amplitude", "submissionValue": "Ejection Wave Amplitude", "synonyms": ["Ejection Wave Amplitude"]}, {"conceptId": "C139062", "definition": "An indication as to whether there is an enlarged heart chamber.", "preferredTerm": "Heart Chamber Enlargement Indicator", "submissionValue": "Heart Chamber Enlargement Indicator", "synonyms": ["Heart Chamber Enlargement Indicator"]}, {"conceptId": "C135372", "definition": "The volume of blood remaining in a heart chamber at end ventricular diastole.", "preferredTerm": "Heart Chamber Volume at End Ventricular Diastole", "submissionValue": "Heart Chamber Volume, EVD", "synonyms": ["Heart Chamber Volume, EVD", "Heart Chamber Volume, End Ventricular Diastole"]}, {"conceptId": "C135373", "definition": "The volume of blood remaining in a heart chamber at end ventricular systole.", "preferredTerm": "Heart Chamber Volume at End Ventricular Systole", "submissionValue": "Heart Chamber Volume, EVS", "synonyms": ["Heart Chamber Volume, EVS", "Heart Chamber Volume, End Ventricular Systole"]}, {"conceptId": "C116148", "definition": "An indication as to whether there is re-narrowing of a stent implanted at a lesion site to treat a prior stenosis, to a diameter stenosis of greater than 50% within the stent.", "preferredTerm": "In-Stent Restenosis Indicator", "submissionValue": "In-Stent Restenosis Indicator", "synonyms": ["In-Stent Restenosis Indicator"]}, {"conceptId": "C130055", "definition": "An indication as to whether inferior vena cava collapse occurred with sniff.", "preferredTerm": "Inferior Vena Cava Collapse Due to Sniff Test Indicator", "submissionValue": "Inferior Vena Cava Collapse Sniff Ind", "synonyms": ["Inferior Vena Cava Collapse Indicator", "Inferior Vena Cava Collapse Sniff Ind"]}, {"conceptId": "C41255", "definition": "An act or process of elucidation; explication, or explanation of the meaning of the event or thing via the assignment of objects from the domain to the constants of a formal language, truth-values to the proposition symbols, truth-functions to the connectives, other functions to the function symbols, and extensions to the predicates, if any. The assignments are result of human logic application and are not native to the symbols of the formal language.", "preferredTerm": "Interpretation", "submissionValue": "Interpretation", "synonyms": ["Interpretation"]}, {"conceptId": "C80494", "definition": "The percentage of myocardial tissue which exhibits characteristics of inadequate blood flow (ischemia).", "preferredTerm": "Ischemic Myocardium Percentage", "submissionValue": "Ischemic Myocardium Percentage", "synonyms": ["Ischemic Myocardium Percentage"]}, {"conceptId": "C127568", "definition": "A measurement of the maximum velocity of blood flow measured in the left ventricular outflow tract during left ventricular systole.", "preferredTerm": "Left Ventricular Outflow Tract Peak Velocity", "submissionValue": "LVOT Peak Velocity", "synonyms": ["LVOT Peak Velocity", "Left Ventricular Outflow Tract Peak Velocity"]}, {"conceptId": "C127569", "definition": "The integral of all of the instantaneous flow velocities within the left ventricular outflow tract during left ventricular systole.", "preferredTerm": "Left Ventricular Outflow Tract Velocity Time Integral", "submissionValue": "LVOT Velocity Time Integral", "synonyms": ["LVOT Velocity Time Integral", "Left Ventricular Outflow Tract Velocity Time Integral"]}, {"conceptId": "C127566", "definition": "The largest cross sectional diameter of a vascular structure measured at end ventricular diastole.", "preferredTerm": "Largest Cross-sectional Diameter at End Ventricular Diastole", "submissionValue": "Largest Cross-sec Diameter, EVD", "synonyms": ["Largest Cross-sec Diameter, EVD", "Largest Cross-sectional Diameter, End Ventricular Diastole"]}, {"conceptId": "C127567", "definition": "The assessment of the largest cross-sectional thickness of a tissue.", "preferredTerm": "Largest Cross-sectional Thickness", "submissionValue": "Largest Cross-sec Thickness", "synonyms": ["Largest Cross-sec Thickness", "Largest Cross-sectional Thickness"]}, {"conceptId": "C116146", "definition": "The difference between the mean minimum lumen diameter (MLD) assessed immediately after an index procedure and the MLD assessed at follow-up angiography.", "preferredTerm": "Late Lumen Loss Measurement", "submissionValue": "Late Lumen Loss", "synonyms": ["Late Lumen Loss"]}, {"conceptId": "C99524", "definition": "The percent or fraction of the left ventricular end diastolic volume ejected during systole that can be measured by visual estimation or calculation.", "preferredTerm": "Left Ventricular Ejection Fraction", "submissionValue": "Left Ventricular Ejection Fraction", "synonyms": ["Left Ventricular Ejection Fraction"]}, {"conceptId": "C135374", "definition": "A calculated estimation of the percent or fraction of the volume of blood ejected from the left ventricle during left ventricular systole, calculated as the left ventricular stroke volume divided by the left ventricular end diastolic volume.", "preferredTerm": "Calculated Left Ventricular Ejection Fraction", "submissionValue": "Left Ventricular Ejection Fraction, Cal", "synonyms": ["Left Ventricular Ejection Fraction, Cal", "Left Ventricular Ejection Fraction, Calculated"]}, {"conceptId": "C135375", "definition": "A visual estimation of the percent or fraction of the volume of blood ejected from the left ventricle during left ventricular systole.", "preferredTerm": "Estimated Left Ventricular Ejection Fraction", "submissionValue": "Left Ventricular Ejection Fraction, Est", "synonyms": ["Left Ventricular Ejection Fraction, Est", "Left Ventricular Ejection Fraction, Estimated"]}, {"conceptId": "C38020", "definition": "The reduction in the length of the end-diastolic diameter dimension that occurs between end-systole and end-diastole, expressed as a fraction of the end-diastolic dimension. Calculation of the left ventricular fractional shortening is per the following formula: [(end-diastolic dimension minus end-systolic dimension) divided by end-diastolic dimension] multiplied by 100.", "preferredTerm": "Left Ventricular Fractional Shortening", "submissionValue": "Left Ventricular Fractional Shortening", "synonyms": ["Left Ventricular Fractional Shortening"]}, {"conceptId": "C25334", "definition": "The linear extent in space from one end of something to the other end, or the extent of something from beginning to end. (NCI)", "preferredTerm": "Length", "submissionValue": "Length", "synonyms": ["Length"]}, {"conceptId": "C116147", "definition": "An indication as to whether there is re-narrowing of a lesion site following treatment of a prior stenosis, to a diameter stenosis of greater than 50% at the previously treated lesion site.", "preferredTerm": "Lesion Restenosis Indicator", "submissionValue": "Lesion Restenosis Indicator", "synonyms": ["Lesion Restenosis Indicator"]}, {"conceptId": "C127573", "definition": "The cross sectional diameter of a cardiovascular structure measured along its major axis at end ventricular diastole.", "preferredTerm": "Major Axis Cross-sectional Diameter at End Ventricular Diastole", "submissionValue": "Major Axis Cross-sec Diameter, EVD", "synonyms": ["Major Axis Cross-sec Diameter, EVD", "Major Axis Cross-sectional Diameter, End Ventricular Diastole"]}, {"conceptId": "C127574", "definition": "The cross sectional diameter of a cardiovascular structure measured along its major axis at end ventricular systole.", "preferredTerm": "Major Axis Cross-sectional Diameter at End Ventricular Systole", "submissionValue": "Major Axis Cross-sec Diameter, EVS", "synonyms": ["Major Axis Cross-sec Diameter, EVS", "Major Axis Cross-sectional Diameter, End Ventricular Systole"]}, {"conceptId": "C135377", "definition": "The cross sectional diameter of a tissue, organ, or structure measured along its major axis. (NCI)", "preferredTerm": "Major Axis Cross-sectional Diameter", "submissionValue": "Major Axis Cross-sec. Diameter", "synonyms": ["Major Axis Cross-sec. Diameter", "Major Axis Cross-sectional Diameter"]}, {"conceptId": "C139053", "definition": "The cross-sectional diameter of a cardiovascular structure measured along its major axis at mid ventricular systole.", "preferredTerm": "Major Axis Cross-sectional Diameter at Mid Ventricular Systole", "submissionValue": "Major Axis Cross-sec. Diameter, MVS", "synonyms": ["Major Axis Cross-sec. Diameter, MVS", "Major Axis Cross-sectional Diameter, Mid Ventricular Systole"]}, {"conceptId": "C139059", "definition": "The internal diameter of a cardiovascular structure measured along its major axis at end ventricular diastole.", "preferredTerm": "Major Axis Internal Diameter at End Ventricular Diastole", "submissionValue": "Major Axis Internal Diameter, EVD", "synonyms": ["Major Axis Internal Diameter, EVD", "Major Axis Internal Diameter, End Ventricular Diastole"]}, {"conceptId": "C139058", "definition": "The internal diameter of a cardiovascular structure measured along its major axis at end ventricular systole.", "preferredTerm": "Major Axis Internal Diameter at End Ventricular Systole", "submissionValue": "Major Axis Internal Diameter, EVS", "synonyms": ["Major Axis Internal Diameter, EVS", "Major Axis Internal Diameter, End Ventricular Systole"]}, {"conceptId": "C43246", "definition": "The amount of matter in an object.", "preferredTerm": "Mass", "submissionValue": "Mass", "synonyms": ["Mass"]}, {"conceptId": "C139048", "definition": "The quantitative measurement of the maximum separation between the parietal and visceral pericardia during diastole.", "preferredTerm": "Maximal Pericardial Effusion Width", "submissionValue": "Maximal Pericardial Effusion Width", "synonyms": ["Maximal Pericardial Effusion Width"]}, {"conceptId": "C127570", "definition": "A measurement of the mean velocity of blood across an area or tissue.", "preferredTerm": "Mean Blood Flow Velocity", "submissionValue": "Mean Blood Flow Velocity", "synonyms": ["Mean Blood Flow Velocity"]}, {"conceptId": "C135376", "definition": "The estimated average blood pressure. (NCI)", "preferredTerm": "Estimated Mean Blood Pressure", "submissionValue": "Mean Blood Pressure, Estimated", "synonyms": ["Mean Blood Pressure, Estimated"]}, {"conceptId": "C116143", "definition": "The mean of the inside diameters of the normal blood vessel segments.", "preferredTerm": "Mean Vessel Diameter", "submissionValue": "Mean Vessel Diameter", "synonyms": ["Mean Vessel Diameter"]}, {"conceptId": "C116144", "definition": "The minimum diameter of the inside of a blood vessel (lumen) derived quantitatively in a single view.", "preferredTerm": "Minimum Vessel Lumen Diameter", "submissionValue": "Minimum Vessel Lumen Diameter", "synonyms": ["Minimum Vessel Lumen Diameter"]}, {"conceptId": "C127575", "definition": "The cross sectional diameter of a cardiovascular structure measured along its minor axis at end ventricular diastole.", "preferredTerm": "Minor Axis Cross-sectional Diameter at End Ventricular Diastole", "submissionValue": "Minor Axis Cross-sec Diameter, EVD", "synonyms": ["Minor Axis Cross-sec Diameter, EVD", "Minor Axis Cross-sectional Diameter, End Ventricular Diastole"]}, {"conceptId": "C127576", "definition": "The cross sectional diameter of a cardiovascular structure measured along its minor axis at end ventricular systole.", "preferredTerm": "Minor Axis Cross-sectional Diameter at End Ventricular Systole", "submissionValue": "Minor Axis Cross-sec Diameter, EVS", "synonyms": ["Minor Axis Cross-sec Diameter, EVS", "Minor Axis Cross-sectional Diameter, End Ventricular Systole"]}, {"conceptId": "C135378", "definition": "The cross sectional diameter of a tissue, organ, or structure measured along its minor axis. (NCI)", "preferredTerm": "Minor Axis Cross-sectional Diameter", "submissionValue": "Minor Axis Cross-sec. Diameter", "synonyms": ["Minor Axis Cross-sec. Diameter", "Minor Axis Cross-sectional Diameter"]}, {"conceptId": "C139052", "definition": "The cross-sectional diameter of a cardiovascular structure measured along its minor axis at mid ventricular systole.", "preferredTerm": "Minor Axis Cross-sectional Diameter at Mid Ventricular Systole", "submissionValue": "Minor Axis Cross-sec. Diameter, MVS", "synonyms": ["Minor Axis Cross-sec. Diameter, MVS", "Minor Axis Cross-sectional Diameter, Mid Ventricular Systole"]}, {"conceptId": "C139061", "definition": "The internal diameter of a cardiovascular structure measured along its minor axis at end ventricular diastole.", "preferredTerm": "Minor Axis Internal Diameter at End Ventricular Diastole", "submissionValue": "Minor Axis Internal Diameter, EVD", "synonyms": ["Minor Axis Internal Diameter, EVD", "Minor Axis Internal Diameter, End Ventricular Diastole"]}, {"conceptId": "C139060", "definition": "The internal diameter of a cardiovascular structure measured along its minor axis at end ventricular systole.", "preferredTerm": "Minor Axis Internal Diameter at End Ventricular Systole", "submissionValue": "Minor Axis Internal Diameter, EVS", "synonyms": ["Minor Axis Internal Diameter, EVS", "Minor Axis Internal Diameter, End Ventricular Systole"]}, {"conceptId": "C127571", "definition": "The ratio of the peak early ventricular diastolic (E) transmitral velocity to the peak late ventricular diastolic (A) transmitral velocity.", "preferredTerm": "Mitral E/A Ratio", "submissionValue": "Mitral E/A Ratio", "synonyms": ["Mitral E/A Ratio"]}, {"conceptId": "C127572", "definition": "The ratio of the peak early ventricular diastolic (E) transmitral velocity to the peak early mitral annular motion velocity (e').", "preferredTerm": "Mitral E/e' Ratio", "submissionValue": "Mitral E/e' Ratio", "synonyms": ["Mitral E/e' Ratio"]}, {"conceptId": "C127577", "definition": "A relative measurement (ratio) of the mitral regurgitant jet area to left atrial area.", "preferredTerm": "Mitral Regurgitant Jet Area to Left Atrial Area Ratio", "submissionValue": "Mitral Regur Jet Area L Atrial Area Rt", "synonyms": ["Mitral Regur Jet Area L Atrial Area Rt", "Mitral Regurgitant Jet Area to Left Atrial Area Ratio"]}, {"conceptId": "C127578", "definition": "A measurement of the volume of retrograde blood flow across the orifice of the mitral valve expressed as a percentage of the anterograde flow volume.", "preferredTerm": "Mitral Valve Regurgitant Fraction", "submissionValue": "Mitral Valve Regurgitant Fraction", "synonyms": ["Mitral Valve Regurgitant Fraction"]}, {"conceptId": "C127579", "definition": "The measured area of the regurgitant jet of blood into the left atrium.", "preferredTerm": "Mitral Valve Regurgitant Jet Area", "submissionValue": "Mitral Valve Regurgitant Jet Area", "synonyms": ["Mitral Valve Regurgitant Jet Area"]}, {"conceptId": "C127580", "definition": "A measurement of the volume of retrograde blood flow across the orifice of the mitral valve.", "preferredTerm": "Mitral Valve Regurgitant Volume", "submissionValue": "Mitral Valve Regurgitant Volume", "synonyms": ["Mitral Valve Regurgitant Volume"]}, {"conceptId": "C127581", "definition": "The area of the vena contracta of the mitral valve.", "preferredTerm": "Mitral Valve Vena Contracta Area", "submissionValue": "Mitral Valve Vena Contracta Area", "synonyms": ["Mitral Valve Vena Contracta Area"]}, {"conceptId": "C127582", "definition": "The width of the vena contracta of the mitral valve.", "preferredTerm": "Mitral Valve Vena Contracta Width", "submissionValue": "Mitral Valve Vena Contracta Width", "synonyms": ["Mitral Valve Vena Contracta Width"]}, {"conceptId": "C139043", "definition": "A calculated result that uses the following base formula to quantify both systolic and diastolic ventricular function: MPI = (IVCT + IVRT)/VET, where IVCT is isovolumetric contraction time, IVRT is isovolumetric relaxation time, and VET is ventricular ejection time.", "preferredTerm": "Myocardial Performance Index", "submissionValue": "Myocardial Performance Index", "synonyms": ["Myocardial Performance Index"]}, {"conceptId": "C139050", "definition": "A description of what kind of intervention has been performed on a native cardiac valve.", "preferredTerm": "Native Cardiac Valve Intervention Type", "submissionValue": "Native Cardiac Valve Intervention Type", "synonyms": ["Native Cardiac Valve Intervention Type"]}, {"conceptId": "C139054", "definition": "A quantitative determination of the number of cusps composing a given cardiac valve.", "preferredTerm": "Number of Cardiac Valve Cusps", "submissionValue": "Number of Cusps", "synonyms": ["Number of Cusps"]}, {"conceptId": "C99996", "definition": "Number of major epicardial vessels with greater than or equal to 70% reduction in diameter or greater than or equal to 50% reduction in cross-sectional area.", "preferredTerm": "Number of Diseased Coronary Artery Vessels", "submissionValue": "Number of Diseased Coronary Vessels", "synonyms": ["Number of Diseased Coronary Vessels"]}, {"conceptId": "C139049", "definition": "A description of the type of cardiac device that is found in a subject.", "preferredTerm": "Observed Cardiac Device Type", "submissionValue": "Observed Cardiac Device", "synonyms": ["Observed Cardiac Device"]}, {"conceptId": "C127584", "definition": "The peak velocity of blood flow across a cardiac valve during late ventricular diastole (the active filling of the ventricle).", "preferredTerm": "Peak A Velocity", "submissionValue": "Peak A Velocity", "synonyms": ["Peak A Velocity"]}, {"conceptId": "C127583", "definition": "A measurement of the maximum velocity of blood across an area or tissue.", "preferredTerm": "Peak Blood Flow Velocity", "submissionValue": "Peak Blood Flow Velocity", "synonyms": ["Peak Blood Flow Velocity"]}, {"conceptId": "C127585", "definition": "The peak velocity of blood flow across a cardiac valve during early ventricular diastole (the passive filling of the ventricle).", "preferredTerm": "Peak E Velocity", "submissionValue": "Peak E Velocity", "synonyms": ["Peak E Velocity"]}, {"conceptId": "C139044", "definition": "The greatest rate of increase in peak pressure.", "preferredTerm": "Peak Pressure Rise Rate", "submissionValue": "Peak Pressure Rise Rate", "synonyms": ["Peak Pressure Rise Rate"]}, {"conceptId": "C116145", "definition": "The value calculated as 100 x (1 - MLD/RVD), using the mean quantitative values for minimum lumen diameter (MLD) and reference vessel diameter (RVD).", "preferredTerm": "Percent Diameter Stenosis Measurement", "submissionValue": "Percent Diameter Stenosis", "synonyms": ["Percent Diameter Stenosis"]}, {"conceptId": "C139046", "definition": "An indication as to whether there is effusion between the parietal and visceral pericardia.", "preferredTerm": "Pericardial Effusion Indicator", "submissionValue": "Pericardial Effusion Indicator", "synonyms": ["Pericardial Effusion Indicator"]}, {"conceptId": "C139047", "definition": "The qualitative description of the overall size of a pericardial effusion as assessed at the point of greatest separation between the parietal and visceral pericardia during diastole.", "preferredTerm": "Pericardial Effusion Size", "submissionValue": "Pericardial Effusion Size", "synonyms": ["Pericardial Effusion Size"]}, {"conceptId": "C139051", "definition": "A description of the type of artificial cardiac valve in use.", "preferredTerm": "Prosthetic Cardiac Valve Type", "submissionValue": "Prosthetic Cardiac Valve Type", "synonyms": ["Prosthetic Cardiac Valve Type"]}, {"conceptId": "C135379", "definition": "An indication as to whether pulmonary arterial hypertension is present.", "preferredTerm": "Pulmonary Arterial Hypertension Indicator", "submissionValue": "Pulmonary Arterial Hypertension Ind", "synonyms": ["Pulmonary Arterial Hypertension Ind", "Pulmonary Arterial Hypertension Indicator"]}, {"conceptId": "C127588", "definition": "A measurement of the volume of retrograde blood flow across the orifice of the pulmonic valve expressed as a percentage of the anterograde flow volume.", "preferredTerm": "Pulmonary Valve Regurgitant Fraction", "submissionValue": "Pulmonary Valve Regurgitant Fraction", "synonyms": ["Pulmonary Valve Regurgitant Fraction"]}, {"conceptId": "C127590", "definition": "A measurement of the volume of retrograde blood flow across the orifice of the pulmonic valve.", "preferredTerm": "Pulmonary Valve Regurgitant Volume", "submissionValue": "Pulmonary Valve Regurgitant Volume", "synonyms": ["Pulmonary Valve Regurgitant Volume"]}, {"conceptId": "C127591", "definition": "The area of the vena contracta of the pulmonic valve.", "preferredTerm": "Pulmonary Valve Vena Contracta Area", "submissionValue": "Pulmonary Valve Vena Contracta Area", "synonyms": ["Pulmonary Valve Vena Contracta Area"]}, {"conceptId": "C127592", "definition": "The width of the vena contracta of the pulmonic valve.", "preferredTerm": "Pulmonary Valve Vena Contracta Width", "submissionValue": "Pulmonary Valve Vena Contracta Width", "synonyms": ["Pulmonary Valve Vena Contracta Width"]}, {"conceptId": "C119247", "definition": "The resistance to blood flow through the pulmonary vasculature.", "preferredTerm": "Pulmonary Vascular Resistance", "submissionValue": "Pulmonary Vascular Resistance", "synonyms": ["Pulmonary Vascular Resistance"]}, {"conceptId": "C127587", "definition": "The determination of whether blood flow in the pulmonary veins is greater during ventricular systole or diastole.", "preferredTerm": "Pulmonary Vein Dominance", "submissionValue": "Pulmonary Vein Dominance", "synonyms": ["Pulmonary Vein Dominance"]}, {"conceptId": "C127586", "definition": "A relative measurement (ratio) of the pulmonic regurgitant jet width to right ventricular outflow tract (RVOT) diameter.", "preferredTerm": "Pulmonic Regurgitant Jet Width to Right Ventricular Outflow Tract Diameter Ratio", "submissionValue": "Pulmonic Regur Jet Width RVOT Diam Rt", "synonyms": ["Pulmonic Regur Jet Width RVOT Diam Rt", "Pulmonic Regurgitant Jet Width to Right Ventricular Outflow Tract Diameter Ratio"]}, {"conceptId": "C127589", "definition": "The measured width of the regurgitant jet of blood into the right ventricular outflow tract.", "preferredTerm": "Pulmonic Valve Regurgitant Jet Width", "submissionValue": "Pulmonic Valve Regurgitant Jet Width", "synonyms": ["Pulmonic Valve Regurgitant Jet Width"]}, {"conceptId": "C122087", "definition": "The distance traveled by the peak of the ventricular ejection pressure wave per unit of time.", "preferredTerm": "Pulse Wave Velocity", "submissionValue": "Pulse Wave Velocity", "synonyms": ["Pulse Wave Velocity"]}, {"conceptId": "C122089", "definition": "The reflected-to-forward pressure wave amplitude ratio. (Hashimoto J et al, J Hypertens. 2008 May;26(5):1017-24)", "preferredTerm": "Reflection Magnitude", "submissionValue": "Reflection Magnitude", "synonyms": ["Reflection Magnitude"]}, {"conceptId": "C122090", "definition": "The summation of the numerous waves being reflected by sites of impedance mismatch where central elastic arteries join more muscular arteries.", "preferredTerm": "Reflection Wave Amplitude", "submissionValue": "Reflection Wave Amplitude", "synonyms": ["Reflection Wave Amplitude"]}, {"conceptId": "C135380", "definition": "A calculated estimation of the percent or fraction of the volume of blood ejected from the right ventricle during right ventricular systole, calculated as the right ventricular stroke volume divided by the right ventricular end diastolic volume.", "preferredTerm": "Calculated Right Ventricular Ejection Fraction", "submissionValue": "Right Ventricular Ejection Fraction, Cal", "synonyms": ["Right Ventricular Ejection Fraction, Cal", "Right Ventricular Ejection Fraction, Calculated"]}, {"conceptId": "C135381", "definition": "null", "preferredTerm": "Estimated Right Ventricular Ejection Fraction", "submissionValue": "Right Ventricular Ejection Fraction, Est", "synonyms": ["Right Ventricular Ejection Fraction, Est", "Right Ventricular Ejection Fraction, Estimated"]}, {"conceptId": "C139040", "definition": "The type of aortic dissection present as defined by the Stanford Classification System (Daily PO, Trueblood HW, Stinson EB, Wuerflein RD, Shumway NE. Management of acute aortic dissections. Ann Thorac Surg. 1970 Sep;10(3):237-47).", "preferredTerm": "Stanford Aortic Dissection Classification", "submissionValue": "Stanford AoD Classification", "synonyms": ["Stanford AoD Classification", "Stanford Aortic Dissection Classification"]}, {"conceptId": "C94989", "definition": "The difference in the volumes of blood between the points of maximum dilation and maximum contraction. This is the end diastolic volume minus the end systolic volume.", "preferredTerm": "Stroke Volume", "submissionValue": "Stroke Volume", "synonyms": ["Stroke Volume"]}, {"conceptId": "C119248", "definition": "The resistance to blood flow through the systemic vasculature.", "preferredTerm": "Systemic Vascular Resistance", "submissionValue": "Systemic Vascular Resistance", "synonyms": ["Systemic Vascular Resistance", "Total Peripheral Resistance"]}, {"conceptId": "C127593", "definition": "An indication as to whether there is systolic anterior motion of a cardiac valve and its associated structures.", "preferredTerm": "Systolic Anterior Motion Indicator", "submissionValue": "Systolic Anterior Motion Indicator", "synonyms": ["SAM Indicator", "Systolic Anterior Motion Indicator"]}, {"conceptId": "C127594", "definition": "The assessment of the severity of the systolic anterior motion of a cardiac valve and its associated structures.", "preferredTerm": "Systolic Anterior Motion Severity", "submissionValue": "Systolic Anterior Motion Severity", "synonyms": ["SAM Severity", "Systolic Anterior Motion Severity"]}, {"conceptId": "C139031", "definition": "A quantitative estimate of the pressure in a given cardiovascular structure during ventricular systole.", "preferredTerm": "Estimated Systolic Blood Pressure", "submissionValue": "Systolic Pressure, Estimated", "synonyms": ["Systolic Pressure, Estimated"]}, {"conceptId": "C127597", "definition": "A relative measurement (ratio) of the tricuspid regurgitant jet area to the right atrial area.", "preferredTerm": "Tricuspid Regurgitant Jet Area to Right Atrial Area Ratio", "submissionValue": "Tricus Regur Jet Area R Atrial Area Rt", "synonyms": ["Tricus Regur Jet Area R Atrial Area Rt", "Tricuspid Regurgitant Jet Area to Right Atrial Area Ratio"]}, {"conceptId": "C127598", "definition": "A measurement of the volume of retrograde blood flow across the orifice of the tricuspid valve expressed as a percentage of the anterograde flow volume.", "preferredTerm": "Tricuspid Valve Regurgitant Fraction", "submissionValue": "Tricuspid Valve Regurgitant Fraction", "synonyms": ["Tricuspid Valve Regurgitant Fraction"]}, {"conceptId": "C127599", "definition": "The measured area of the regurgitant jet of blood into the right atrium.", "preferredTerm": "Tricuspid Valve Regurgitant Jet Area", "submissionValue": "Tricuspid Valve Regurgitant Jet Area", "synonyms": ["Tricuspid Valve Regurgitant Jet Area"]}, {"conceptId": "C127600", "definition": "A measurement of the volume of retrograde blood flow across the orifice of the tricuspid valve.", "preferredTerm": "Tricuspid Valve Regurgitant Volume", "submissionValue": "Tricuspid Valve Regurgitant Volume", "synonyms": ["Tricuspid Valve Regurgitant Volume"]}, {"conceptId": "C127601", "definition": "The area of the vena contracta of the tricuspid valve.", "preferredTerm": "Tricuspid Valve Vena Contracta Area", "submissionValue": "Tricuspid Valve Vena Contracta Area", "synonyms": ["Tricuspid Valve Vena Contracta Area"]}, {"conceptId": "C127602", "definition": "The width of the vena contracta of the tricuspid valve.", "preferredTerm": "Tricuspid Valve Vena Contracta Width", "submissionValue": "Tricuspid Valve Vena Contracta Width", "synonyms": ["Tricuspid Valve Vena Contracta Width"]}, {"conceptId": "C127603", "definition": "The integral of all of the forward flow velocities during the time of blood flow across or within a specified area.", "preferredTerm": "Blood Flow Velocity Time Integral", "submissionValue": "Velocity Time Integral, Blood Flow", "synonyms": ["Velocity Time Integral, Blood Flow"]}, {"conceptId": "C25208", "definition": "The vertical force exerted by a mass as a result of gravity. (NCI)", "preferredTerm": "Weight", "submissionValue": "Weight", "synonyms": ["Weight"]}, {"conceptId": "C25345", "definition": "The extent or measurement of something from side to side. (NCI)", "preferredTerm": "Width", "submissionValue": "Width", "synonyms": ["Width"]}]}