{"_links": {"parentPackage": {"href": "/mdr/ct/packages/sdtmct-2017-09-29", "title": "SDTM Controlled Terminology Package 31 Effective 2017-09-29", "type": "Terminology"}, "priorVersion": {"href": "/mdr/ct/packages/sdtmct-2017-06-30/codelists/C106663", "title": "CDISC Questionnaire GDS Test Code Terminology", "type": "Code List"}, "rootItem": {"href": "/mdr/root/ct/sdtmct/codelists/C106663", "title": "Version-agnostic anchor resource for codelist C106663", "type": "Root Value Domain"}, "self": {"href": "/mdr/ct/packages/sdtmct-2017-09-29/codelists/C106663", "title": "CDISC Questionnaire GDS Test Code Terminology", "type": "Code List"}}, "conceptId": "C106663", "definition": "Geriatric Depression Scale test code.", "extensible": "false", "name": "Geriatric Depression Scale Questionnaire Test Code", "preferredTerm": "CDISC Questionnaire GDS Test Code Terminology", "submissionValue": "GDS01TC", "synonyms": ["Geriatric Depression Scale Questionnaire Test Code"], "terms": [{"conceptId": "C106764", "definition": "Geriatric Depression Scale - Are you basically satisfied with your life?", "preferredTerm": "GDS - Basically Satisfied With Life", "submissionValue": "GDS0101", "synonyms": ["GDS01-Satisfied With Life"]}, {"conceptId": "C106765", "definition": "Geriatric Depression Scale - Have you dropped many of your activities and interests?", "preferredTerm": "GDS - Dropped Activities and Interests", "submissionValue": "GDS0102", "synonyms": ["GDS01-Dropped Activities and Interests"]}, {"conceptId": "C106766", "definition": "Geriatric Depression Scale - Do you feel that your life is empty?", "preferredTerm": "GDS - Feel Life Is Empty", "submissionValue": "GDS0103", "synonyms": ["GDS01-Life Is Empty"]}, {"conceptId": "C106767", "definition": "Geriatric Depression Scale - Do you often get bored?", "preferredTerm": "GDS - Often Get Bored", "submissionValue": "GDS0104", "synonyms": ["GDS01-Bored Often"]}, {"conceptId": "C106768", "definition": "Geriatric Depression Scale - Are you hopeful about the future?", "preferredTerm": "GDS - Hopeful About Future", "submissionValue": "GDS0105", "synonyms": ["GDS01-Hopeful About Future"]}, {"conceptId": "C106769", "definition": "Geriatric Depression Scale - Are you bothered by thoughts you can't get out of your head?", "preferredTerm": "GDS - Bothered by Thoughts", "submissionValue": "GDS0106", "synonyms": ["GDS01-Bothered by Thoughts"]}, {"conceptId": "C106770", "definition": "Geriatric Depression Scale - Are you in good spirits most of the time?", "preferredTerm": "GDS - Good Spirits Most of Time", "submissionValue": "GDS0107", "synonyms": ["GDS01-Good Spirits Most of Time"]}, {"conceptId": "C106771", "definition": "Geriatric Depression Scale - Are you afraid that something bad is going to happen to you?", "preferredTerm": "GDS - Afraid of Something Bad Happening", "submissionValue": "GDS0108", "synonyms": ["GDS01-Afraid of Something Bad Happening"]}, {"conceptId": "C106772", "definition": "Geriatric Depression Scale - Do you feel happy most of the time?", "preferredTerm": "GDS - Feel Happy Most of Time", "submissionValue": "GDS0109", "synonyms": ["GDS01-Feel Happy Most of Time"]}, {"conceptId": "C106773", "definition": "Geriatric Depression Scale - Do you often feel helpless?", "preferredTerm": "GDS - Often Feel Helpless", "submissionValue": "GDS0110", "synonyms": ["GDS01-Often Feel Helpless"]}, {"conceptId": "C106774", "definition": "Geriatric Depression Scale - Do you often get restless and fidgety?", "preferredTerm": "GDS - Get Restless and Fidgety", "submissionValue": "GDS0111", "synonyms": ["GDS01-Get Restless and Fidgety"]}, {"conceptId": "C106775", "definition": "Geriatric Depression Scale - Do you prefer to stay at home, rather than going out and doing new things?", "preferredTerm": "GDS - Prefer to Stay Home", "submissionValue": "GDS0112", "synonyms": ["GDS01-Prefer to Stay Home"]}, {"conceptId": "C106776", "definition": "Geriatric Depression Scale - Do you frequently worry about the future?", "preferredTerm": "GDS - Frequently Worry About Future", "submissionValue": "GDS0113", "synonyms": ["GDS01-Worry About Future"]}, {"conceptId": "C106777", "definition": "Geriatric Depression Scale - Do you feel you have more problems with memory than most?", "preferredTerm": "GDS - More Memory Problems Than Most", "submissionValue": "GDS0114", "synonyms": ["GDS01-Memory Problems"]}, {"conceptId": "C106778", "definition": "Geriatric Depression Scale - Do you think it is wonderful to be alive now?", "preferredTerm": "GDS - Think Wonderful to Be Alive", "submissionValue": "GDS0115", "synonyms": ["GDS01-Wonderful to Be Alive"]}, {"conceptId": "C106779", "definition": "Geriatric Depression Scale - Do you often feel downhearted and blue?", "preferredTerm": "GDS - Feel Downhearted and Blue", "submissionValue": "GDS0116", "synonyms": ["GDS01-Feel Downhearted and Blue"]}, {"conceptId": "C106780", "definition": "Geriatric Depression Scale - Do you feel pretty worthless the way you are now?", "preferredTerm": "GDS - Feel Worthless", "submissionValue": "GDS0117", "synonyms": ["GDS01-Feel Worthless"]}, {"conceptId": "C106781", "definition": "Geriatric Depression Scale - Do you worry a lot about the past?", "preferredTerm": "GDS - Worry About the Past", "submissionValue": "GDS0118", "synonyms": ["GDS01-Worry About the Past"]}, {"conceptId": "C106782", "definition": "Geriatric Depression Scale - Do you find life very exciting?", "preferredTerm": "GDS - Find Life Exciting", "submissionValue": "GDS0119", "synonyms": ["GDS01-Find Life Exciting"]}, {"conceptId": "C106783", "definition": "Geriatric Depression Scale - Is it hard for you to get started on new projects?", "preferredTerm": "GDS - Hard to Start New Projects", "submissionValue": "GDS0120", "synonyms": ["GDS01-Hard to Start New Projects"]}, {"conceptId": "C106784", "definition": "Geriatric Depression Scale - Do you feel full of energy?", "preferredTerm": "GDS - Feel Full of Energy", "submissionValue": "GDS0121", "synonyms": ["GDS01-Feel Full of Energy"]}, {"conceptId": "C106785", "definition": "Geriatric Depression Scale - Do you feel that your situation is hopeless?", "preferredTerm": "GDS - Feel Situation Is Hopeless", "submissionValue": "GDS0122", "synonyms": ["GDS01-Feel Hopeless"]}, {"conceptId": "C106786", "definition": "Geriatric Depression Scale - Do you think that most people are better off than you are?", "preferredTerm": "GDS - Think Most People Better Off Than You", "submissionValue": "GDS0123", "synonyms": ["GDS01-Most People Better Off Than You"]}, {"conceptId": "C106787", "definition": "Geriatric Depression Scale -Do you frequently get upset over little things?", "preferredTerm": "GDS - Often Upset Over Little Things", "submissionValue": "GDS0124", "synonyms": ["GDS01-Often Upset Over Little Things"]}, {"conceptId": "C106788", "definition": "Geriatric Depression Scale - Do you frequently feel like crying?", "preferredTerm": "GDS - Frequently Feel Like Crying", "submissionValue": "GDS0125", "synonyms": ["GDS01-Frequently Feel Like Crying"]}, {"conceptId": "C106789", "definition": "Geriatric Depression Scale - Do you have trouble concentrating?", "preferredTerm": "GDS - Have Trouble Concentrating", "submissionValue": "GDS0126", "synonyms": ["GDS01-Trouble Concentrating"]}, {"conceptId": "C106790", "definition": "Geriatric Depression Scale - Do you enjoy getting up in the morning?", "preferredTerm": "GDS - Enjoy Getting Up in the Morning", "submissionValue": "GDS0127", "synonyms": ["GDS01-Enjoy Getting Up in the Morning"]}, {"conceptId": "C106791", "definition": "Geriatric Depression Scale - Do you prefer to avoid social gatherings?", "preferredTerm": "GDS - Prefer to Avoid Social Gatherings", "submissionValue": "GDS0128", "synonyms": ["GDS01-Avoid Social Gatherings"]}, {"conceptId": "C106792", "definition": "Geriatric Depression Scale - Is it easy for you to make decisions?", "preferredTerm": "GDS - Easy to Make Decisions", "submissionValue": "GDS0129", "synonyms": ["GDS01-Easy to Make Decisions"]}, {"conceptId": "C106793", "definition": "Geriatric Depression Scale - Is your mind as clear as it used to be?", "preferredTerm": "GDS - Mind as Clear as It Used to Be", "submissionValue": "GDS0130", "synonyms": ["GDS01-Mind as Clear as It Used to Be"]}]}