{"_links": {"parentPackage": {"href": "/mdr/ct/packages/sdtmct-2017-09-29", "title": "SDTM Controlled Terminology Package 31 Effective 2017-09-29", "type": "Terminology"}, "priorVersion": {"href": "/mdr/ct/packages/sdtmct-2017-06-30/codelists/C106657", "title": "CDISC Questionnaire TDI Test Code Terminology", "type": "Code List"}, "rootItem": {"href": "/mdr/root/ct/sdtmct/codelists/C106657", "title": "Version-agnostic anchor resource for codelist C106657", "type": "Root Value Domain"}, "self": {"href": "/mdr/ct/packages/sdtmct-2017-09-29/codelists/C106657", "title": "CDISC Questionnaire TDI Test Code Terminology", "type": "Code List"}}, "conceptId": "C106657", "definition": "Transition Dyspnea Index test code.", "extensible": "false", "name": "Transition Dyspnea Index Questionnaire Test Code", "preferredTerm": "CDISC Questionnaire TDI Test Code Terminology", "submissionValue": "TDI01TC", "synonyms": ["Transition Dyspnea Index Questionnaire Test Code"], "terms": [{"conceptId": "C106704", "definition": "Transition Dyspnea Index - Change in functional impairment.", "preferredTerm": "TDI - Change in Functional Impairment", "submissionValue": "TDI0101", "synonyms": ["TDI01-Change in Functional Impairment"]}, {"conceptId": "C106705", "definition": "Transition Dyspnea Index - Change in magnitude of task.", "preferredTerm": "TDI - Change in Magnitude of Task", "submissionValue": "TDI0102", "synonyms": ["TDI01-Change in Magnitude of Task"]}, {"conceptId": "C106706", "definition": "Transition Dyspnea Index - Change in magnitude of effort.", "preferredTerm": "TDI - Change in Magnitude of Effort", "submissionValue": "TDI0103", "synonyms": ["TDI01-Change in Magnitude of Effort"]}]}