{"_links": {"parentPackage": {"href": "/mdr/ct/packages/sdtmct-2017-09-29", "title": "SDTM Controlled Terminology Package 31 Effective 2017-09-29", "type": "Terminology"}, "priorVersion": {"href": "/mdr/ct/packages/sdtmct-2017-06-30/codelists/C113851", "title": "CDISC Questionnaire Bladder Control Scale Test Name Terminology", "type": "Code List"}, "rootItem": {"href": "/mdr/root/ct/sdtmct/codelists/C113851", "title": "Version-agnostic anchor resource for codelist C113851", "type": "Root Value Domain"}, "self": {"href": "/mdr/ct/packages/sdtmct-2017-09-29/codelists/C113851", "title": "CDISC Questionnaire Bladder Control Scale Test Name Terminology", "type": "Code List"}}, "conceptId": "C113851", "definition": "Bladder Control Scale test name.", "extensible": "false", "name": "Bladder Control Scale Questionnaire Test Name", "preferredTerm": "CDISC Questionnaire Bladder Control Scale Test Name Terminology", "submissionValue": "BLCS01TN", "synonyms": ["Bladder Control Scale Questionnaire Test Name"], "terms": [{"conceptId": "C113954", "definition": "Bladder Control Scale - During the past 4 weeks, how often have you almost lost control of your bladder or had an accident?", "preferredTerm": "BLCS - Almost Lost Control of Your Bladder", "submissionValue": "BLCS01-Almost Lost Control of Bladder", "synonyms": ["BLCS01-Almost Lost Control of Bladder"]}, {"conceptId": "C113955", "definition": "Bladder Control Scale - During the past 4 weeks, how often have you altered your activities because of bladder problems?", "preferredTerm": "BLCS - Altered Activities Because Bladder Problems", "submissionValue": "BLCS01-Altered Activity Because Bladder", "synonyms": ["BLCS01-Altered Activity Because Bladder"]}, {"conceptId": "C113956", "definition": "Bladder Control Scale - During the past 4 weeks, how much have bladder problems restricted your overall lifestyle?", "preferredTerm": "BLCS - Bladder Problems Restrict Overall Lifestyle", "submissionValue": "BLCS01-Bladder Restricted Lifestyle", "synonyms": ["BLCS01-Bladder Restricted Lifestyle"]}, {"conceptId": "C113953", "definition": "Bladder Control Scale - During the past 4 weeks, how often have you lost control of your bladder or had an accident?", "preferredTerm": "BLCS - Lost Control of Your Bladder", "submissionValue": "BLCS01-Lost Control of Bladder", "synonyms": ["BLCS01-Lost Control of Bladder"]}]}