{"_links": {"parentPackage": {"href": "/mdr/ct/packages/sdtmct-2017-09-29", "title": "SDTM Controlled Terminology Package 31 Effective 2017-09-29", "type": "Terminology"}, "priorVersion": {"href": "/mdr/ct/packages/sdtmct-2017-06-30/codelists/C119079", "title": "CDISC Clinical Classification ARC STC Grade Test Name Terminology", "type": "Code List"}, "rootItem": {"href": "/mdr/root/ct/sdtmct/codelists/C119079", "title": "Version-agnostic anchor resource for codelist C119079", "type": "Root Value Domain"}, "self": {"href": "/mdr/ct/packages/sdtmct-2017-09-29/codelists/C119079", "title": "CDISC Clinical Classification ARC STC Grade Test Name Terminology", "type": "Code List"}}, "conceptId": "C119079", "definition": "Stent Thrombosis Coronary ARC Grade test name.", "extensible": "false", "name": "Stent Thrombosis Coronary ARC Grade Clinical Classification Test Name", "preferredTerm": "CDISC Clinical Classification ARC STC Grade Test Name Terminology", "submissionValue": "STCG01TN", "synonyms": ["Stent Thrombosis Coronary ARC Grade Clinical Classification Test Name"], "terms": [{"conceptId": "C119198", "definition": "Stent Thrombosis Coronary ARC Grade - A grading system to describe the coronary stent thrombosis per the classification schema described by the Academic Research Consortium.", "preferredTerm": "ARC STC Grade - Stent Thrombosis Coronary ARC Grade", "submissionValue": "STCG01-STC ARC Grade", "synonyms": ["STCG01-STC ARC Grade"]}]}