{"_links": {"parentPackage": {"href": "/mdr/ct/packages/sdtmct-2017-09-29", "title": "SDTM Controlled Terminology Package 31 Effective 2017-09-29", "type": "Terminology"}, "priorVersion": {"href": "/mdr/ct/packages/sdtmct-2017-06-30/codelists/C124688", "title": "CDISC Functional Test TMT Test Code Terminology", "type": "Code List"}, "rootItem": {"href": "/mdr/root/ct/sdtmct/codelists/C124688", "title": "Version-agnostic anchor resource for codelist C124688", "type": "Root Value Domain"}, "self": {"href": "/mdr/ct/packages/sdtmct-2017-09-29/codelists/C124688", "title": "CDISC Functional Test TMT Test Code Terminology", "type": "Code List"}}, "conceptId": "C124688", "definition": "Trail Making Test test code.", "extensible": "false", "name": "Trail Making Test Functional Test Test Code", "preferredTerm": "CDISC Functional Test TMT Test Code Terminology", "submissionValue": "TMT01TC", "synonyms": ["Trail Making Test Functional Test Test Code"], "terms": [{"conceptId": "C124780", "definition": "Trail Making Test - Time (in seconds) to complete Trails A.", "preferredTerm": "TMT - Time to Complete Trails A", "submissionValue": "TMT0101", "synonyms": ["TMT01-Time to Complete Trails A"]}, {"conceptId": "C124781", "definition": "Trail Making Test - Time (in seconds) to complete Trails B.", "preferredTerm": "TMT - Time to Complete Trails B", "submissionValue": "TMT0102", "synonyms": ["TMT01-Time to Complete Trails B"]}]}