{"_links": {"parentPackage": {"href": "/mdr/ct/packages/sdtmct-2017-09-29", "title": "SDTM Controlled Terminology Package 31 Effective 2017-09-29", "type": "Terminology"}, "priorVersion": {"href": "/mdr/ct/packages/sdtmct-2017-06-30/codelists/C128687", "title": "CDISC SDTM Microbiology Susceptibility Test Name Terminology", "type": "Code List"}, "rootItem": {"href": "/mdr/root/ct/sdtmct/codelists/C128687", "title": "Version-agnostic anchor resource for codelist C128687", "type": "Root Value Domain"}, "self": {"href": "/mdr/ct/packages/sdtmct-2017-09-29/codelists/C128687", "title": "CDISC SDTM Microbiology Susceptibility Test Name Terminology", "type": "Code List"}}, "conceptId": "C128687", "definition": "Terminology relevant to the test names that define microorganism responses to antimicrobial agents.", "extensible": "true", "name": "Microbiology Susceptibility Test Name", "preferredTerm": "CDISC SDTM Microbiology Susceptibility Test Name Terminology", "submissionValue": "MSTEST", "synonyms": ["Microbiology Susceptibility Test Name"], "terms": [{"conceptId": "C116255", "definition": "An indication of reduced or increased susceptibility of a microbial organism, or activity of a biological/biochemical reaction in response to the inhibitory concentration (IC50 and/or IC95) of a specific drug.", "preferredTerm": "Inhibitory Concentration Net Assessment Measurement", "submissionValue": "Inhibitory Concentration Net Assessment", "synonyms": ["Inhibitory Concentration Net Assessment"]}, {"conceptId": "C139114", "definition": "A fold change based on the concentration of a specific drug expected to produce 50 percent inhibition of population growth or replication of a microbial organism. (NCI)", "preferredTerm": "Microbial EC50 Fold Change from Baseline", "submissionValue": "Microbial EC50 Fold Change from Baseline", "synonyms": ["Microbial EC50 Fold Change from Baseline"]}, {"conceptId": "C139115", "definition": "A fold change based on the concentration of a specific drug expected to produce 50 percent inhibition of the population growth or replication of a microbial organism. It is a ratio calculated by the EC50 Subject Result divided by the EC50 Reference Control Result. (NCI)", "preferredTerm": "Microbial EC50 Fold Change from Reference", "submissionValue": "Microbial EC50 Fold Change from Ref", "synonyms": ["Microbial EC50 Fold Change from Ref", "Microbial EC50 Fold Change from Reference"]}, {"conceptId": "C139116", "definition": "A reference control sample response based on the concentration of a specific drug expected to produce 50 percent inhibition of the population growth or replication of a microbial organism. (NCI)", "preferredTerm": "Microbial EC50 Reference Control Result", "submissionValue": "Microbial EC50 Reference Control Result", "synonyms": ["Microbial EC50 Reference Control Result"]}, {"conceptId": "C139117", "definition": "A measurement of titer of a microbial organism that has been exposed to the concentration of a specific drug expected to produce 50 percent inhibition of the population growth or replication of a microbial organism. (NCI)", "preferredTerm": "Microbial EC50 Subject Result", "submissionValue": "Microbial EC50 Subject Result", "synonyms": ["Microbial EC50 Subject Result"]}, {"conceptId": "C139118", "definition": "A fold change based on the concentration of a specific drug expected to produce 50 percent inhibition on the enzymatic activity of a microbial organism. It is a ratio calculated by the current IC50 Subject Result divided by the IC50 Subject Result from the baseline visit.", "preferredTerm": "Microbial IC50 Fold Change from Baseline", "submissionValue": "Microbial IC50 Fold Change from Baseline", "synonyms": ["Microbial IC50 Fold Change from Baseline"]}, {"conceptId": "C139119", "definition": "A fold change based on the concentration of a specific drug expected to produce 50 percent inhibition on the enzymatic activity of a microbial organism. It is a ratio calculated by the IC50 Subject Result divided by the IC50 Reference Control Result.", "preferredTerm": "Microbial IC50 Fold Change from Reference", "submissionValue": "Microbial IC50 Fold Change from Ref", "synonyms": ["Microbial IC50 Fold Change from Ref", "Microbial IC50 Fold Change from Reference"]}, {"conceptId": "C139120", "definition": "A reference control sample response based on the concentration of a specific drug expected to produce 50 percent inhibition on the enzymatic activity of a microbial organism.", "preferredTerm": "Microbial IC50 Reference Control Result", "submissionValue": "Microbial IC50 Reference Control Result", "synonyms": ["Microbial IC50 Reference Control Result"]}, {"conceptId": "C139121", "definition": "A measurement of biological/biochemical reaction of a microbial organism that has been exposed to the concentration of a specific drug expected to produce 50 percent inhibition on the enzymatic activity of a microbial organism.", "preferredTerm": "Microbial IC50 Subject Result", "submissionValue": "Microbial IC50 Subject Result", "synonyms": ["Microbial IC50 Subject Result"]}, {"conceptId": "C139122", "definition": "A fold change based on the concentration of a specific drug expected to produce 95 percent inhibition on the enzymatic activity of a microbial organism. It is a ratio calculated by the current IC95 Subject Result divided by the IC95 Subject Result from the baseline visit.", "preferredTerm": "Microbial IC95 Fold Change from Baseline", "submissionValue": "Microbial IC95 Fold Change from Baseline", "synonyms": ["IC95 Fold Change from Baseline", "Microbial IC95 Fold Change from Baseline"]}, {"conceptId": "C139123", "definition": "A fold change based on the concentration of a specific drug expected to produce 95 percent inhibition on the enzymatic activity of a microbial organism. It is a ratio calculated by the IC95 Subject Result divided by the IC95 Reference Control Result.", "preferredTerm": "Microbial IC95 Fold Change from Ref", "submissionValue": "Microbial IC95 Fold Change from Ref", "synonyms": ["IC95 Fold Change from Reference", "Microbial IC95 Fold Change from Ref"]}, {"conceptId": "C139124", "definition": "A reference control sample response based on the concentration of a specific drug expected to produce 95 percent inhibition on the enzymatic activity of a microbial organism.", "preferredTerm": "Microbial IC95 Reference Control Result", "submissionValue": "Microbial IC95 Reference Control Result", "synonyms": ["IC95 Reference Control Result", "Microbial IC95 Reference Control Result"]}, {"conceptId": "C139125", "definition": "A measurement of biological/biochemical reaction of a microbial organism that has been exposed to the concentration of a specific drug expected to produce 95 percent inhibition on the enzymatic activity of a microbial organism.", "preferredTerm": "Microbial IC95 Subject Result", "submissionValue": "Microbial IC95 Subject Result", "synonyms": ["IC95 Subject Result", "Microbial IC95 Subject Result"]}, {"conceptId": "C85540", "definition": "A measurement of the response of the microbial organism to a controlled concentration of an antimicrobial agent.", "preferredTerm": "Microbial Susceptibility Test", "submissionValue": "Microbial Susceptibility", "synonyms": ["Microbial Susceptibility"]}, {"conceptId": "C128985", "definition": "A measurement that specifies the minimum concentration of the agent at which organism growth was inhibited.", "preferredTerm": "Minimum Inhibitory Concentration Test", "submissionValue": "Minimum Inhibitory Concentration", "synonyms": ["Minimum Inhibitory Concentration"]}]}