{"_links": {"parentPackage": {"href": "/mdr/ct/packages/sdtmct-2017-09-29", "title": "SDTM Controlled Terminology Package 31 Effective 2017-09-29", "type": "Terminology"}, "priorVersion": {"href": "/mdr/ct/packages/sdtmct-2017-06-30/codelists/C129090", "title": "CDISC Questionnaire NCCN-FACT FKSI-19 Version 2 Test Code Terminology", "type": "Code List"}, "rootItem": {"href": "/mdr/root/ct/sdtmct/codelists/C129090", "title": "Version-agnostic anchor resource for codelist C129090", "type": "Root Value Domain"}, "self": {"href": "/mdr/ct/packages/sdtmct-2017-09-29/codelists/C129090", "title": "CDISC Questionnaire NCCN-FACT FKSI-19 Version 2 Test Code Terminology", "type": "Code List"}}, "conceptId": "C129090", "definition": "National Comprehensive Cancer Network/Functional Assessment of Cancer Therapy-Kidney Symptom Index-19 Version 2 test code.", "extensible": "false", "name": "National Comprehensive Cancer Network/Functional Assessment of Cancer Therapy-Kidney Symptom Index-19 Version 2 Questionnaire Test Code", "preferredTerm": "CDISC Questionnaire NCCN-FACT FKSI-19 Version 2 Test Code Terminology", "submissionValue": "FAC042TC", "synonyms": ["National Comprehensive Cancer Network/Functional Assessment of Cancer Therapy-Kidney Symptom Index-19 Version 2 Questionnaire Test Code"], "terms": [{"conceptId": "C129151", "definition": "National Comprehensive Cancer Network/Functional Assessment of Cancer Therapy-Kidney Symptom Index-19 Version 2 - I have a lack of energy.", "preferredTerm": "NCCN-FACT FKSI-19 Version 2 - I Have a Lack of Energy", "submissionValue": "FAC04201", "synonyms": ["FAC042-I Have a Lack of Energy"]}, {"conceptId": "C129152", "definition": "National Comprehensive Cancer Network/Functional Assessment of Cancer Therapy-Kidney Symptom Index-19 Version 2 - I have pain.", "preferredTerm": "NCCN-FACT FKSI-19 Version 2 - I Have Pain", "submissionValue": "FAC04202", "synonyms": ["FAC042-I Have Pain"]}, {"conceptId": "C129153", "definition": "National Comprehensive Cancer Network/Functional Assessment of Cancer Therapy-Kidney Symptom Index-19 Version 2 - I am losing weight.", "preferredTerm": "NCCN-FACT FKSI-19 Version 2 - I Am Losing Weight", "submissionValue": "FAC04203", "synonyms": ["FAC042-I Am Losing Weight"]}, {"conceptId": "C129154", "definition": "National Comprehensive Cancer Network/Functional Assessment of Cancer Therapy-Kidney Symptom Index-19 Version 2 - I feel fatigued.", "preferredTerm": "NCCN-FACT FKSI-19 Version 2 - I Feel Fatigued", "submissionValue": "FAC04204", "synonyms": ["FAC042-I Feel Fatigued"]}, {"conceptId": "C129155", "definition": "National Comprehensive Cancer Network/Functional Assessment of Cancer Therapy-Kidney Symptom Index-19 Version 2 - I have been short of breath.", "preferredTerm": "NCCN-FACT FKSI-19 Version 2 - I Have Been Short of Breath", "submissionValue": "FAC04205", "synonyms": ["FAC042-I Have Been Short of Breath"]}, {"conceptId": "C129156", "definition": "National Comprehensive Cancer Network/Functional Assessment of Cancer Therapy-Kidney Symptom Index-19 Version 2 - I am bothered by fevers (episodes of high body temperature).", "preferredTerm": "NCCN-FACT FKSI-19 Version 2 - I Am Bothered by Fevers", "submissionValue": "FAC04206", "synonyms": ["FAC042-I Am Bothered by Fevers"]}, {"conceptId": "C129157", "definition": "National Comprehensive Cancer Network/Functional Assessment of Cancer Therapy-Kidney Symptom Index-19 Version 2 - I have bone pain.", "preferredTerm": "NCCN-FACT FKSI-19 Version 2 - I Have Bone Pain", "submissionValue": "FAC04207", "synonyms": ["FAC042-I Have Bone Pain"]}, {"conceptId": "C129158", "definition": "National Comprehensive Cancer Network/Functional Assessment of Cancer Therapy-Kidney Symptom Index-19 Version 2 - I have been coughing.", "preferredTerm": "NCCN-FACT FKSI-19 Version 2 - I Have Been Coughing", "submissionValue": "FAC04208", "synonyms": ["FAC042-I Have Been Coughing"]}, {"conceptId": "C129159", "definition": "National Comprehensive Cancer Network/Functional Assessment of Cancer Therapy-Kidney Symptom Index-19 Version 2 - I feel weak all over.", "preferredTerm": "NCCN-FACT FKSI-19 Version 2 - I Feel Weak All Over", "submissionValue": "FAC04209", "synonyms": ["FAC042-I Feel Weak All Over"]}, {"conceptId": "C129160", "definition": "National Comprehensive Cancer Network/Functional Assessment of Cancer Therapy-Kidney Symptom Index-19 Version 2 - I have had blood in my urine.", "preferredTerm": "NCCN-FACT FKSI-19 Version 2 - I Have Had Blood in My Urine", "submissionValue": "FAC04210", "synonyms": ["FAC042-I Have Had Blood in My Urine"]}, {"conceptId": "C129161", "definition": "National Comprehensive Cancer Network/Functional Assessment of Cancer Therapy-Kidney Symptom Index-19 Version 2 - I have a good appetite.", "preferredTerm": "NCCN-FACT FKSI-19 Version 2 - I Have a Good Appetite", "submissionValue": "FAC04211", "synonyms": ["FAC042-I Have a Good Appetite"]}, {"conceptId": "C129162", "definition": "National Comprehensive Cancer Network/Functional Assessment of Cancer Therapy-Kidney Symptom Index-19 Version 2 - I am sleeping well.", "preferredTerm": "NCCN-FACT FKSI-19 Version 2 - I Am Sleeping Well", "submissionValue": "FAC04212", "synonyms": ["FAC042-I Am Sleeping Well"]}, {"conceptId": "C129163", "definition": "National Comprehensive Cancer Network/Functional Assessment of Cancer Therapy-Kidney Symptom Index-19 Version 2 - I worry that my condition will get worse.", "preferredTerm": "NCCN-FACT FKSI-19 Version 2 - Worry My Condition Will Get Worse", "submissionValue": "FAC04213", "synonyms": ["FAC042-Worry My Condition Will Get Worse"]}, {"conceptId": "C129164", "definition": "National Comprehensive Cancer Network/Functional Assessment of Cancer Therapy-Kidney Symptom Index-19 Version 2 - I have nausea.", "preferredTerm": "NCCN-FACT FKSI-19 Version 2 - I Have Nausea", "submissionValue": "FAC04214", "synonyms": ["FAC042-I Have Nausea"]}, {"conceptId": "C129165", "definition": "National Comprehensive Cancer Network/Functional Assessment of Cancer Therapy-Kidney Symptom Index-19 Version 2 - I have diarrhea (diarrhoea).", "preferredTerm": "NCCN-FACT FKSI-19 Version 2 - I Have Diarrhea", "submissionValue": "FAC04215", "synonyms": ["FAC042-I Have Diarrhea"]}, {"conceptId": "C129166", "definition": "National Comprehensive Cancer Network/Functional Assessment of Cancer Therapy-Kidney Symptom Index-19 Version 2 - I am bothered by side effects of treatment.", "preferredTerm": "NCCN-FACT FKSI-19 Version 2 - Bothered by Treatment Side Effect", "submissionValue": "FAC04216", "synonyms": ["FAC042-Bothered by Treatment Side Effect"]}, {"conceptId": "C129167", "definition": "National Comprehensive Cancer Network/Functional Assessment of Cancer Therapy-Kidney Symptom Index-19 Version 2 - I am able to work (include work at home).", "preferredTerm": "NCCN-FACT FKSI-19 Version 2 - I Am Able to Work", "submissionValue": "FAC04217", "synonyms": ["FAC042-I Am Able to Work"]}, {"conceptId": "C129168", "definition": "National Comprehensive Cancer Network/Functional Assessment of Cancer Therapy-Kidney Symptom Index-19 Version 2 - I am able to enjoy life.", "preferredTerm": "NCCN-FACT FKSI-19 Version 2 - I Am Able to Enjoy Life", "submissionValue": "FAC04218", "synonyms": ["FAC042-I Am Able to Enjoy Life"]}, {"conceptId": "C129169", "definition": "National Comprehensive Cancer Network/Functional Assessment of Cancer Therapy-Kidney Symptom Index-19 Version 2 - I am content with the quality of my life right now.", "preferredTerm": "NCCN-FACT FKSI-19 Version 2 - Content With Quality of My Life", "submissionValue": "FAC04219", "synonyms": ["FAC042-Content With Quality of My Life"]}]}