{"_links": {"parentPackage": {"href": "/mdr/ct/packages/sdtmct-2017-09-29", "title": "SDTM Controlled Terminology Package 31 Effective 2017-09-29", "type": "Terminology"}, "priorVersion": {"href": "/mdr/ct/packages/sdtmct-2017-06-30/codelists/C129939", "title": "CDISC SDTM Diabetic Kidney Findings About Test Name Terminology", "type": "Code List"}, "rootItem": {"href": "/mdr/root/ct/sdtmct/codelists/C129939", "title": "Version-agnostic anchor resource for codelist C129939", "type": "Root Value Domain"}, "self": {"href": "/mdr/ct/packages/sdtmct-2017-09-29/codelists/C129939", "title": "CDISC SDTM Diabetic Kidney Findings About Test Name Terminology", "type": "Code List"}}, "conceptId": "C129939", "definition": "Terminology relevant to the test names that describe findings about a diabetic kidney disease event or intervention.", "extensible": "true", "name": "Diabetic Kidney Disease Findings About Test Name", "preferredTerm": "CDISC SDTM Diabetic Kidney Findings About Test Name Terminology", "submissionValue": "DKFATS", "synonyms": ["Diabetic Kidney Disease Findings About Test Name"], "terms": [{"conceptId": "C130057", "definition": "The total number of events that have occurred.", "preferredTerm": "Number of Events", "submissionValue": "Number of Events", "synonyms": ["Number of Events"]}]}