{"_links": {"parentPackage": {"href": "/mdr/ct/packages/sdtmct-2017-09-29", "title": "SDTM Controlled Terminology Package 31 Effective 2017-09-29", "type": "Terminology"}, "priorVersion": {"href": "/mdr/ct/packages/sdtmct-2017-06-30/codelists/C129942", "title": "CDISC SDTM Urinary System Test Code Terminology", "type": "Code List"}, "rootItem": {"href": "/mdr/root/ct/sdtmct/codelists/C129942", "title": "Version-agnostic anchor resource for codelist C129942", "type": "Root Value Domain"}, "self": {"href": "/mdr/ct/packages/sdtmct-2017-09-29/codelists/C129942", "title": "CDISC SDTM Urinary System Test Code Terminology", "type": "Code List"}}, "conceptId": "C129942", "definition": "A terminology codelist to describe the test code for examinations of the urinary system.", "extensible": "true", "name": "Urinary System Test Code", "preferredTerm": "CDISC SDTM Urinary System Test Code Terminology", "submissionValue": "URNSTSCD", "synonyms": ["Urinary System Test Code"], "terms": [{"conceptId": "C64546", "definition": "A measurement of the color of a biological specimen.", "preferredTerm": "Color Assessment", "submissionValue": "COLOR", "synonyms": ["Color"]}, {"conceptId": "C135522", "definition": "The condition of the donated organ or tissue. (NCI)", "preferredTerm": "Graft Status", "submissionValue": "GRFTSTAT", "synonyms": ["Graft Status"]}, {"conceptId": "C25334", "definition": "The linear extent in space from one end of something to the other end, or the extent of something from beginning to end. (NCI)", "preferredTerm": "Length", "submissionValue": "LENGTH", "synonyms": ["Length"]}, {"conceptId": "C130195", "definition": "A measurement of the total number of renal arteries.", "preferredTerm": "Number of Renal Arteries", "submissionValue": "RNLANUM", "synonyms": ["Number of Renal Arteries"]}, {"conceptId": "C130196", "definition": "A measurement of the total number of renal veins.", "preferredTerm": "Number of Renal Veins", "submissionValue": "RNLVNUM", "synonyms": ["Number of Renal Veins"]}]}