{"_links": {"parentPackage": {"href": "/mdr/ct/packages/sdtmct-2017-09-29", "title": "SDTM Controlled Terminology Package 31 Effective 2017-09-29", "type": "Terminology"}, "rootItem": {"href": "/mdr/root/ct/sdtmct/codelists/C138260", "title": "Version-agnostic anchor resource for codelist C138260", "type": "Root Value Domain"}, "self": {"href": "/mdr/ct/packages/sdtmct-2017-09-29/codelists/C138260", "title": "CDISC Questionnaire PedsQL Neuromuscular Module Version 3.0 Young Child Report Test Name Terminology", "type": "Code List"}}, "conceptId": "C138260", "definition": "Pediatric Quality of Life Neuromuscular Module Version 3 Young Child test name.", "extensible": "false", "name": "Pediatric Quality of Life Neuromuscular Module Version 3 Young Child Questionnaire Test Name", "preferredTerm": "CDISC Questionnaire PedsQL Neuromuscular Module Version 3.0 Young Child Report Test Name Terminology", "submissionValue": "PQL07TN", "synonyms": ["Pediatric Quality of Life Neuromuscular Module Version 3 Young Child Questionnaire Test Name"], "terms": [{"conceptId": "C138887", "definition": "Pediatric Quality of Life Neuromuscular Module Version 3 Young Child - Think about how you have been doing for the last few weeks. Please listen carefully to each sentence and tell me how much of a problem this is for you: My back feels stiff.", "preferredTerm": "PedsQL Neuromuscular Module Version 3.0 Young Child Report - Back Feels Stiff", "submissionValue": "PQL07-Back Feels Stiff", "synonyms": ["PQL07-Back Feels Stiff"]}, {"conceptId": "C138886", "definition": "Pediatric Quality of Life Neuromuscular Module Version 3 Young Child - Think about how you have been doing for the last few weeks. Please listen carefully to each sentence and tell me how much of a problem this is for you: I feel tired.", "preferredTerm": "PedsQL Neuromuscular Module Version 3.0 Young Child Report - Feel Tired", "submissionValue": "PQL07-Feel Tired", "synonyms": ["PQL07-Feel Tired"]}, {"conceptId": "C138895", "definition": "Pediatric Quality of Life Neuromuscular Module Version 3 Young Child - Think about how you have been doing for the last few weeks. Please listen carefully to each sentence and tell me how much of a problem this is for you: I get hurt accidentally.", "preferredTerm": "PedsQL Neuromuscular Module Version 3.0 Young Child Report - Get Hurt Accidentally", "submissionValue": "PQL07-Get Hurt Accidentally", "synonyms": ["PQL07-Get Hurt Accidentally"]}, {"conceptId": "C138883", "definition": "Pediatric Quality of Life Neuromuscular Module Version 3 Young Child - Think about how you have been doing for the last few weeks. Please listen carefully to each sentence and tell me how much of a problem this is for you: I get sick easily.", "preferredTerm": "PedsQL Neuromuscular Module Version 3.0 Young Child Report - Get Sick Easily", "submissionValue": "PQL07-Get Sick Easily", "synonyms": ["PQL07-Get Sick Easily"]}, {"conceptId": "C138884", "definition": "Pediatric Quality of Life Neuromuscular Module Version 3 Young Child - Think about how you have been doing for the last few weeks. Please listen carefully to each sentence and tell me how much of a problem this is for you: I get sores and/or rashes.", "preferredTerm": "PedsQL Neuromuscular Module Version 3.0 Young Child Report - Get Sores and/or Rashes", "submissionValue": "PQL07-Get Sores and/or Rashes", "synonyms": ["PQL07-Get Sores and/or Rashes"]}, {"conceptId": "C138889", "definition": "Pediatric Quality of Life Neuromuscular Module Version 3 Young Child - Think about how you have been doing for the last few weeks. Please listen carefully to each sentence and tell me how much of a problem this is for you: My hands are weak.", "preferredTerm": "PedsQL Neuromuscular Module Version 3.0 Young Child Report - Hands Are Weak", "submissionValue": "PQL07-Hands Are Weak", "synonyms": ["PQL07-Hands Are Weak"]}, {"conceptId": "C138882", "definition": "Pediatric Quality of Life Neuromuscular Module Version 3 Young Child - Think about how you have been doing for the last few weeks. Please listen carefully to each sentence and tell me how much of a problem this is for you: It is hard to breathe.", "preferredTerm": "PedsQL Neuromuscular Module Version 3.0 Young Child Report - Hard to Breathe", "submissionValue": "PQL07-Hard to Breathe", "synonyms": ["PQL07-Hard to Breathe"]}, {"conceptId": "C138891", "definition": "Pediatric Quality of Life Neuromuscular Module Version 3 Young Child - Think about how you have been doing for the last few weeks. Please listen carefully to each sentence and tell me how much of a problem this is for you: It is hard to gain or lose weight when I want to.", "preferredTerm": "PedsQL Neuromuscular Module Version 3.0 Young Child Report - Hard to Gain or Lose Weight", "submissionValue": "PQL07-Hard to Gain/Lose Weight", "synonyms": ["PQL07-Hard to Gain/Lose Weight"]}, {"conceptId": "C138898", "definition": "Pediatric Quality of Life Neuromuscular Module Version 3 Young Child - Think about how you have been doing for the last few weeks. Please listen carefully to each sentence and tell me how much of a problem this is for you: It is hard for me to go places with my equipment.", "preferredTerm": "PedsQL Neuromuscular Module Version 3.0 Young Child Report - Hard to Go Places With Equipment", "submissionValue": "PQL07-Hard to Go Places With Equipment", "synonyms": ["PQL07-Hard to Go Places With Equipment"]}, {"conceptId": "C138893", "definition": "Pediatric Quality of Life Neuromuscular Module Version 3 Young Child - Think about how you have been doing for the last few weeks. Please listen carefully to each sentence and tell me how much of a problem this is for you: It is hard to swallow food.", "preferredTerm": "PedsQL Neuromuscular Module Version 3.0 Young Child Report - Hard to Swallow Food", "submissionValue": "PQL07-Hard to Swallow Food", "synonyms": ["PQL07-Hard to Swallow Food"]}, {"conceptId": "C138897", "definition": "Pediatric Quality of Life Neuromuscular Module Version 3 Young Child - Think about how you have been doing for the last few weeks. Please listen carefully to each sentence and tell me how much of a problem this is for you: It is hard to turn myself during the night.", "preferredTerm": "PedsQL Neuromuscular Module Version 3.0 Young Child Report - Hard to Turn During Night", "submissionValue": "PQL07-Hard to Turn During Night", "synonyms": ["PQL07-Hard to Turn During Night"]}, {"conceptId": "C138890", "definition": "Pediatric Quality of Life Neuromuscular Module Version 3 Young Child - Think about how you have been doing for the last few weeks. Please listen carefully to each sentence and tell me how much of a problem this is for you: It is hard to use the bathroom.", "preferredTerm": "PedsQL Neuromuscular Module Version 3.0 Young Child Report - Hard to Use Bathroom", "submissionValue": "PQL07-Hard to Use Bathroom", "synonyms": ["PQL07-Hard to Use Bathroom"]}, {"conceptId": "C138892", "definition": "Pediatric Quality of Life Neuromuscular Module Version 3 Young Child - Think about how you have been doing for the last few weeks. Please listen carefully to each sentence and tell me how much of a problem this is for you: It is hard to use my hands.", "preferredTerm": "PedsQL Neuromuscular Module Version 3.0 Young Child Report - Hard to Use Hands", "submissionValue": "PQL07-Hard to Use Hands", "synonyms": ["PQL07-Hard to Use Hands"]}, {"conceptId": "C138885", "definition": "Pediatric Quality of Life Neuromuscular Module Version 3 Young Child - Think about how you have been doing for the last few weeks. Please listen carefully to each sentence and tell me how much of a problem this is for you: My legs hurt.", "preferredTerm": "PedsQL Neuromuscular Module Version 3.0 Young Child Report - Legs Hurt", "submissionValue": "PQL07-Legs Hurt", "synonyms": ["PQL07-Legs Hurt"]}, {"conceptId": "C138894", "definition": "Pediatric Quality of Life Neuromuscular Module Version 3 Young Child - Think about how you have been doing for the last few weeks. Please listen carefully to each sentence and tell me how much of a problem this is for you: It takes me a long time to bathe or shower.", "preferredTerm": "PedsQL Neuromuscular Module Version 3.0 Young Child Report - Long Time to Bathe or Shower", "submissionValue": "PQL07-Long Time to Bathe/Shower", "synonyms": ["PQL07-Long Time to Bathe/Shower"]}, {"conceptId": "C138896", "definition": "Pediatric Quality of Life Neuromuscular Module Version 3 Young Child - Think about how you have been doing for the last few weeks. Please listen carefully to each sentence and tell me how much of a problem this is for you: I take a long time to eat.", "preferredTerm": "PedsQL Neuromuscular Module Version 3.0 Young Child Report - Take Long Time to Eat", "submissionValue": "PQL07-Take Long Time to Eat", "synonyms": ["PQL07-Take Long Time to Eat"]}, {"conceptId": "C138888", "definition": "Pediatric Quality of Life Neuromuscular Module Version 3 Young Child - Think about how you have been doing for the last few weeks. Please listen carefully to each sentence and tell me how much of a problem this is for you: I wake up tired.", "preferredTerm": "PedsQL Neuromuscular Module Version 3.0 Young Child Report - Wake Up Tired", "submissionValue": "PQL07-Wake Up Tired", "synonyms": ["PQL07-Wake Up Tired"]}]}