{"_links": {"parentPackage": {"href": "/mdr/ct/packages/sdtmct-2017-09-29", "title": "SDTM Controlled Terminology Package 31 Effective 2017-09-29", "type": "Terminology"}, "rootItem": {"href": "/mdr/root/ct/sdtmct/codelists/C138221", "title": "Version-agnostic anchor resource for codelist C138221", "type": "Root Value Domain"}, "self": {"href": "/mdr/ct/packages/sdtmct-2017-09-29/codelists/C138221", "title": "CDISC Questionnaire FBRSI Test Code Terminology", "type": "Code List"}}, "conceptId": "C138221", "definition": "Functional Assessment of Cancer Therapy-Brain Symptom Index test code.", "extensible": "false", "name": "Functional Assessment of Cancer Therapy-Brain Symptom Index Questionnaire Test Code", "preferredTerm": "CDISC Questionnaire FBRSI Test Code Terminology", "submissionValue": "FAC029TC", "synonyms": ["Functional Assessment of Cancer Therapy-Brain Symptom Index Questionnaire Test Code"], "terms": [{"conceptId": "C138429", "definition": "Functional Assessment of Cancer Therapy-Brain Symptom Index - I get headaches.", "preferredTerm": "FBRSI - I Get Headaches", "submissionValue": "FAC02901", "synonyms": ["FAC029-I Get Headaches"]}, {"conceptId": "C138430", "definition": "Functional Assessment of Cancer Therapy-Brain Symptom Index - I have had seizures (convulsions).", "preferredTerm": "FBRSI - I Have Had Seizures", "submissionValue": "FAC02902", "synonyms": ["FAC029-I Have Had Seizures"]}, {"conceptId": "C138431", "definition": "Functional Assessment of Cancer Therapy-Brain Symptom Index - I have weakness in my arms or legs.", "preferredTerm": "FBRSI - Have Weakness in My Arms or Legs", "submissionValue": "FAC02903", "synonyms": ["FAC029-Have Weakness in My Arms or Legs"]}, {"conceptId": "C138432", "definition": "Functional Assessment of Cancer Therapy-Brain Symptom Index - I need help in caring for myself (bathing, dressing, eating, etc.).", "preferredTerm": "FBRSI - I Need Help in Caring for Myself", "submissionValue": "FAC02904", "synonyms": ["FAC029-I Need Help in Caring for Myself"]}, {"conceptId": "C138433", "definition": "Functional Assessment of Cancer Therapy-Brain Symptom Index - I have a lack of energy.", "preferredTerm": "FBRSI - I Have a Lack of Energy", "submissionValue": "FAC02905", "synonyms": ["FAC029-I Have a Lack of Energy"]}, {"conceptId": "C138434", "definition": "Functional Assessment of Cancer Therapy-Brain Symptom Index - I have difficulty expressing my thoughts.", "preferredTerm": "FBRSI - Difficulty Expressing My Thoughts", "submissionValue": "FAC02906", "synonyms": ["FAC029-Difficulty Expressing My Thoughts"]}, {"conceptId": "C138435", "definition": "Functional Assessment of Cancer Therapy-Brain Symptom Index - I have trouble with coordination.", "preferredTerm": "FBRSI - I Have Trouble With Coordination", "submissionValue": "FAC02907", "synonyms": ["FAC029-I Have Trouble With Coordination"]}, {"conceptId": "C138436", "definition": "Functional Assessment of Cancer Therapy-Brain Symptom Index - I get frustrated that I cannot do things I used to.", "preferredTerm": "FBRSI - Frustrated I Cannot Do Things", "submissionValue": "FAC02908", "synonyms": ["FAC029-Frustrated I Cannot Do Things"]}, {"conceptId": "C138437", "definition": "Functional Assessment of Cancer Therapy-Brain Symptom Index - I have nausea.", "preferredTerm": "FBRSI - I Have Nausea", "submissionValue": "FAC02909", "synonyms": ["FAC029-I Have Nausea"]}, {"conceptId": "C138438", "definition": "Functional Assessment of Cancer Therapy-Brain Symptom Index - I am able to find the right word(s) to say what I mean.", "preferredTerm": "FBRSI - Able to Find the Right Words", "submissionValue": "FAC02910", "synonyms": ["FAC029-Able to Find the Right Words"]}, {"conceptId": "C138439", "definition": "Functional Assessment of Cancer Therapy-Brain Symptom Index - I am losing hope in the fight against my illness.", "preferredTerm": "FBRSI - Losing Hope Against Illness", "submissionValue": "FAC02911", "synonyms": ["FAC029-Losing Hope Against Illness"]}, {"conceptId": "C138440", "definition": "Functional Assessment of Cancer Therapy-Brain Symptom Index - Because of my physical condition, I have trouble meeting the needs of my family.", "preferredTerm": "FBRSI - Trouble Meeting Needs of Family", "submissionValue": "FAC02912", "synonyms": ["FAC029-Trouble Meeting Needs of Family"]}, {"conceptId": "C138441", "definition": "Functional Assessment of Cancer Therapy-Brain Symptom Index - I worry that my condition will get worse.", "preferredTerm": "FBRSI - Worry My Condition Will Get Worse", "submissionValue": "FAC02913", "synonyms": ["FAC029-Worry My Condition Will Get Worse"]}, {"conceptId": "C138442", "definition": "Functional Assessment of Cancer Therapy-Brain Symptom Index - I am afraid of having a seizure (convulsion).", "preferredTerm": "FBRSI - I Am Afraid of Having a Seizure", "submissionValue": "FAC02914", "synonyms": ["FAC029-I Am Afraid of Having a Seizure"]}, {"conceptId": "C138443", "definition": "Functional Assessment of Cancer Therapy-Brain Symptom Index - I am able to enjoy life.", "preferredTerm": "FBRSI - I Am Able to Enjoy Life", "submissionValue": "FAC02915", "synonyms": ["FAC029-I Am Able to Enjoy Life"]}]}