{"_links": {"parentPackage": {"href": "/mdr/ct/packages/sdtmct-2017-09-29", "title": "SDTM Controlled Terminology Package 31 Effective 2017-09-29", "type": "Terminology"}, "priorVersion": {"href": "/mdr/ct/packages/sdtmct-2017-06-30/codelists/C66781", "title": "CDISC SDTM Age Unit Terminology", "type": "Code List"}, "rootItem": {"href": "/mdr/root/ct/sdtmct/codelists/C66781", "title": "Version-agnostic anchor resource for codelist C66781", "type": "Root Value Domain"}, "self": {"href": "/mdr/ct/packages/sdtmct-2017-09-29/codelists/C66781", "title": "CDISC SDTM Age Unit Terminology", "type": "Code List"}}, "conceptId": "C66781", "definition": "Those units of time that are routinely used to express the age of a subject.", "extensible": "false", "name": "Age Unit", "preferredTerm": "CDISC SDTM Age Unit Terminology", "submissionValue": "AGEU", "synonyms": ["Age Unit"], "terms": [{"conceptId": "C25301", "definition": "A unit of measurement of time equal to 24 hours.", "preferredTerm": "Day", "submissionValue": "DAYS"}, {"conceptId": "C25529", "definition": "A unit of measurement of time equal to 60 minutes.", "preferredTerm": "Hour", "submissionValue": "HOURS", "synonyms": ["Hours", "h", "hr"]}, {"conceptId": "C29846", "definition": "One of the 12 divisions of a year as determined by a calendar. It corresponds to the unit of time of approximately to one cycle of the moon's phases, about 30 days or 4 weeks. (NCI)", "preferredTerm": "Month", "submissionValue": "MONTHS", "synonyms": ["Month"]}, {"conceptId": "C29844", "definition": "Any period of seven consecutive days. (NCI)", "preferredTerm": "Week", "submissionValue": "WEEKS", "synonyms": ["Week"]}, {"conceptId": "C29848", "definition": "The period of time that it takes for Earth to make a complete revolution around the sun, approximately 365 days; a specific one year period. (NCI)", "preferredTerm": "Year", "submissionValue": "YEARS", "synonyms": ["Year"]}]}