{"_links": {"parentPackage": {"href": "/mdr/ct/packages/sdtmct-2017-09-29", "title": "SDTM Controlled Terminology Package 31 Effective 2017-09-29", "type": "Terminology"}, "priorVersion": {"href": "/mdr/ct/packages/sdtmct-2017-06-30/codelists/C66787", "title": "CDISC SDTM Diagnosis Group Terminology", "type": "Code List"}, "rootItem": {"href": "/mdr/root/ct/sdtmct/codelists/C66787", "title": "Version-agnostic anchor resource for codelist C66787", "type": "Root Value Domain"}, "self": {"href": "/mdr/ct/packages/sdtmct-2017-09-29/codelists/C66787", "title": "CDISC SDTM Diagnosis Group Terminology", "type": "Code List"}}, "conceptId": "C66787", "definition": "A terminology codelist relevant to a grouping of individuals on the basis of a shared procedure or disease, or lack therof.", "extensible": "true", "name": "Diagnosis Group Response", "preferredTerm": "CDISC SDTM Diagnosis Group Terminology", "submissionValue": "TDIGRP", "synonyms": ["Diagnosis Group Response"], "terms": [{"conceptId": "C49651", "definition": "An individual who is or becomes a participant in a research study and has no significant health-related issues. (NCI)", "preferredTerm": "Healthy Subject", "submissionValue": "HEALTHY SUBJECTS"}]}