{"_links": {"parentPackage": {"href": "/mdr/ct/packages/sdtmct-2017-09-29", "title": "SDTM Controlled Terminology Package 31 Effective 2017-09-29", "type": "Terminology"}, "priorVersion": {"href": "/mdr/ct/packages/sdtmct-2017-06-30/codelists/C66797", "title": "CDISC SDTM Category for Inclusion And Or Exclusion Terminology", "type": "Code List"}, "rootItem": {"href": "/mdr/root/ct/sdtmct/codelists/C66797", "title": "Version-agnostic anchor resource for codelist C66797", "type": "Root Value Domain"}, "self": {"href": "/mdr/ct/packages/sdtmct-2017-09-29/codelists/C66797", "title": "CDISC SDTM Category for Inclusion And Or Exclusion Terminology", "type": "Code List"}}, "conceptId": "C66797", "definition": "A collection of criteria on which subjects are evaluated and that must be met by all study subjects. (NCI)", "extensible": "false", "name": "Category for Inclusion/Exclusion", "preferredTerm": "CDISC SDTM Category for Inclusion And Or Exclusion Terminology", "submissionValue": "IECAT", "synonyms": ["Category for Inclusion/Exclusion"], "terms": [{"conceptId": "C25370", "definition": "List of characteristics in a protocol, any one of which may exclude a potential subject from participation in a study. (CDISC glossary)", "preferredTerm": "Exclusion Criteria", "submissionValue": "EXCLUSION"}, {"conceptId": "C25532", "definition": "The criteria in a protocol that prospective subjects must meet to be eligible for participation in a study. NOTE: Exclusion and inclusion criteria define the study population. See also exclusion criteria. (CDISC glossary)", "preferredTerm": "Inclusion Criteria", "submissionValue": "INCLUSION"}]}