{"_links": {"parentPackage": {"href": "/mdr/ct/packages/sdtmct-2017-09-29", "title": "SDTM Controlled Terminology Package 31 Effective 2017-09-29", "type": "Terminology"}, "priorVersion": {"href": "/mdr/ct/packages/sdtmct-2017-06-30/codelists/C96782", "title": "CDISC SDTM Tumor Response Assessment Test Code Terminology", "type": "Code List"}, "rootItem": {"href": "/mdr/root/ct/sdtmct/codelists/C96782", "title": "Version-agnostic anchor resource for codelist C96782", "type": "Root Value Domain"}, "self": {"href": "/mdr/ct/packages/sdtmct-2017-09-29/codelists/C96782", "title": "CDISC SDTM Tumor Response Assessment Test Code Terminology", "type": "Code List"}}, "conceptId": "C96782", "definition": "Terminology for oncology studies relevant to the test codes that describe an assessment of response to treatment or therapy within the disease response and clinical classification domain.", "extensible": "true", "name": "Oncology Response Assessment Test Code", "preferredTerm": "CDISC SDTM Tumor Response Assessment Test Code Terminology", "submissionValue": "ONCRTSCD", "synonyms": ["Oncology Response Assessment Test Code"], "terms": [{"conceptId": "C94536", "definition": "An assessment of the most clinically favorable overall response of the disease to the therapy.", "preferredTerm": "Best Overall Response", "submissionValue": "BESTRESP", "synonyms": ["Best Overall Response", "Best Response"]}, {"conceptId": "C135477", "definition": "An indication as to whether disease is present in the bone marrow.", "preferredTerm": "Bone Marrow Disease Involvement Indicator", "submissionValue": "BMIVLIND", "synonyms": ["Bone Marrow Involvement Indicator"]}, {"conceptId": "C132455", "definition": "An assessment of the bone response of the disease to the therapy.", "preferredTerm": "Bone Response", "submissionValue": "BONERESP", "synonyms": ["Bone Response"]}, {"conceptId": "C123619", "definition": "An assessment of the clinical response of the disease to the therapy.", "preferredTerm": "Clinical Response", "submissionValue": "CLINRESP", "synonyms": ["Clinical Response"]}, {"conceptId": "C135478", "definition": "An assessment of the clinical performance, measured by a rating or scale, as a condition of disease response to therapy. (NCI)", "preferredTerm": "Clinical Performance Status", "submissionValue": "CPRFSTAT", "synonyms": ["Clinical Performance Status"]}, {"conceptId": "C123620", "definition": "An assessment of the cytogenetic response of the disease to the therapy.", "preferredTerm": "Cytogenetic Response", "submissionValue": "CYTORESP", "synonyms": ["Cytogenetic Response"]}, {"conceptId": "C123621", "definition": "An indication as to whether disease recurrence occurred.", "preferredTerm": "Disease Recurrence Indicator", "submissionValue": "DRCRIND", "synonyms": ["Disease Recurrence Indicator"]}, {"conceptId": "C123622", "definition": "An assessment of the hematologic response of the disease to the therapy.", "preferredTerm": "Hematologic Response", "submissionValue": "HEMARESP", "synonyms": ["Hematologic Response"]}, {"conceptId": "C135479", "definition": "An assessment of the disease response to therapy within the liver.", "preferredTerm": "Disease Response in Liver", "submissionValue": "LIVRRESP", "synonyms": ["Liver Response"]}, {"conceptId": "C123623", "definition": "An assessment of the metabolic response of the disease to the therapy.", "preferredTerm": "Metabolic Response", "submissionValue": "METBRESP", "synonyms": ["Metabolic Response"]}, {"conceptId": "C132456", "definition": "An indication as to whether disease metastasis has occurred.", "preferredTerm": "Metastatic Disease Indicator", "submissionValue": "METSIND", "synonyms": ["Metastatic Indicator"]}, {"conceptId": "C123624", "definition": "An assessment of the molecular response of the disease to the therapy.", "preferredTerm": "Molecular Response", "submissionValue": "MOLRESP", "synonyms": ["Molecular Response"]}, {"conceptId": "C124433", "definition": "An assessment of the minimal residual disease response of the disease to the therapy.", "preferredTerm": "Minimal Residual Disease Response", "submissionValue": "MRDRESP", "synonyms": ["MRD Response", "Minimal Residual Disease Response"]}, {"conceptId": "C123625", "definition": "An assessment of the morphologic response of the disease to the therapy.", "preferredTerm": "Morphologic Response", "submissionValue": "MRPHRESP", "synonyms": ["Morphologic Response"]}, {"conceptId": "C103420", "definition": "An assessment of the equivocality of disease progression based on a newly identified lesion.", "preferredTerm": "New Lesion Progression", "submissionValue": "NEWLPROG", "synonyms": ["New Lesion Progression"]}, {"conceptId": "C135480", "definition": "An assessment of the response to the therapy of the non-target enhancing disease. (NCI)", "preferredTerm": "Non-Target Enhancing Lesion Response", "submissionValue": "NTERESP", "synonyms": ["Non-Target Enhancing Response"]}, {"conceptId": "C135481", "definition": "An assessment of the response to the therapy of the non-target non-enhancing disease. (NCI)", "preferredTerm": "Non-Target Non-Enhancing Lesion Response", "submissionValue": "NTNERESP", "synonyms": ["Non-Target Non-Enhancing Response"]}, {"conceptId": "C94535", "definition": "An assessment of the response of a non-target tumor(s) to the therapy.", "preferredTerm": "Response in Non-Target Lesion", "submissionValue": "NTRGRESP", "synonyms": ["Non-target Response"]}, {"conceptId": "C96613", "definition": "An assessment of the overall response of the disease to the therapy. (NCI)", "preferredTerm": "Overall Response", "submissionValue": "OVRLRESP", "synonyms": ["Overall Response"]}, {"conceptId": "C123626", "definition": "An assessment of the pathologic response of the disease to the therapy.", "preferredTerm": "Pathologic Response", "submissionValue": "PATHRESP", "synonyms": ["Pathologic Response"]}, {"conceptId": "C123627", "definition": "An assessment of the radiologic response of the disease to the therapy.", "preferredTerm": "Radiologic Response", "submissionValue": "RDIORESP", "synonyms": ["Radiologic Response"]}, {"conceptId": "C132457", "definition": "An assessment of the soft tissue response of the disease to the therapy.", "preferredTerm": "Soft Tissue Response", "submissionValue": "SFTSRESP", "synonyms": ["Soft Tissue Response"]}, {"conceptId": "C135482", "definition": "An assessment of the disease response to therapy within the spleen.", "preferredTerm": "Disease Response in Spleen", "submissionValue": "SPLNRESP", "synonyms": ["Spleen Response"]}, {"conceptId": "C135483", "definition": "An assessment of steroid usage as a condition of disease response to therapy. (NCI)", "preferredTerm": "Steroid Use Status", "submissionValue": "STRUSTAT", "synonyms": ["Steroid Use Status"]}, {"conceptId": "C124434", "definition": "A global deterioration of health status providing evidence of disease progression not covered by disease response criteria (eg. RECIST).", "preferredTerm": "Symptomatic Deterioration", "submissionValue": "SYMPTDTR", "synonyms": ["Symptomatic Deterioration"]}, {"conceptId": "C132458", "definition": "An assessment of disease response to therapy based on tumor marker measurement.", "preferredTerm": "Tumor Marker Response", "submissionValue": "TMRESP", "synonyms": ["Tumor Marker Response"]}, {"conceptId": "C94534", "definition": "An assessment of the response of a target tumor(s) to the therapy.", "preferredTerm": "Response in Target Lesion", "submissionValue": "TRGRESP", "synonyms": ["Target Response"]}]}