{"_links": {"parentPackage": {"href": "/mdr/ct/packages/sendct-2015-06-26", "title": "SEND Controlled Terminology Package 22 Effective 2015-06-26", "type": "Terminology"}, "priorVersion": {"href": "/mdr/ct/packages/sendct-2015-03-27/codelists/C66789", "title": "CDISC SDTM Not Done Terminology", "type": "Code List"}, "rootItem": {"href": "/mdr/root/ct/sendct/codelists/C66789", "title": "Version-agnostic anchor resource for codelist C66789", "type": "Root Value Domain"}, "self": {"href": "/mdr/ct/packages/sendct-2015-06-26/codelists/C66789", "title": "CDISC SDTM Not Done Terminology", "type": "Code List"}}, "conceptId": "C66789", "definition": "Indicates a task, process or examination that has either not been initiated or completed. (NCI)", "extensible": "false", "name": "Not Done", "preferredTerm": "CDISC SDTM Not Done Terminology", "submissionValue": "ND", "synonyms": ["Not Done"], "terms": [{"conceptId": "C49484", "definition": "Indicates a task, process or examination that has either not been initiated or completed. (NCI)", "preferredTerm": "Not Done", "submissionValue": "NOT DONE"}]}