{"_links": {"parentPackage": {"href": "/mdr/ct/packages/sendct-2015-06-26", "title": "SEND Controlled Terminology Package 22 Effective 2015-06-26", "type": "Terminology"}, "priorVersion": {"href": "/mdr/ct/packages/sendct-2015-03-27/codelists/C67154", "title": "CDISC SDTM Laboratory Test Name Terminology", "type": "Code List"}, "rootItem": {"href": "/mdr/root/ct/sendct/codelists/C67154", "title": "Version-agnostic anchor resource for codelist C67154", "type": "Root Value Domain"}, "self": {"href": "/mdr/ct/packages/sendct-2015-06-26/codelists/C67154", "title": "CDISC SDTM Laboratory Test Name Terminology", "type": "Code List"}}, "conceptId": "C67154", "definition": "Terminology used for laboratory test names of the CDISC Study Data Tabulation Model.", "extensible": "true", "name": "Laboratory Test Name", "preferredTerm": "CDISC SDTM Laboratory Test Name Terminology", "submissionValue": "LBTEST", "synonyms": ["Laboratory Test Name"], "terms": [{"conceptId": "C92267", "definition": "A measurement of the total active Vitamin D in a biological specimen.", "preferredTerm": "1, 25-Dihydroxyvitamin D Measurement", "submissionValue": "1, 25-Dihydroxyvitamin D", "synonyms": ["1, 25-Dihydroxyvitamin D", "Active Vitamin D"]}, {"conceptId": "C103344", "definition": "A measurement of the 11-dehydro-thromboxane B2 in a biological specimen.", "preferredTerm": "11-Dehydro-Thromboxane B2 Measurement", "submissionValue": "11-Dehydro-Thromboxane B2", "synonyms": ["11-Dehydro-Thromboxane B2"]}, {"conceptId": "C92268", "definition": "A measurement of the total inactive Vitamin D in a biological specimen.", "preferredTerm": "25-Hydroxyvitamin D Measurement", "submissionValue": "25-Hydroxyvitamin D", "synonyms": ["25-Hydroxyvitamin D", "Inactive Vitamin D"]}, {"conceptId": "C103345", "definition": "A measurement of the 3,4-dihydroxyphenylacetic acid in a biological specimen.", "preferredTerm": "3,4-Dihydroxyphenylacetic Acid Measurement", "submissionValue": "3,4-Dihydroxyphenylacetic Acid", "synonyms": ["3,4-Dihydroxyphenylacetic Acid"]}, {"conceptId": "C101017", "definition": "A measurement of the catecholamine metabolite, 3,4-Dihydroxyphenylglycol in a biological specimen.", "preferredTerm": "3,4-Dihydroxyphenylglycol Measurement", "submissionValue": "3,4-Dihydroxyphenylglycol", "synonyms": ["3,4-Dihydroxyphenylglycol", "3.4 Dihydroxyphenylglycol"]}, {"conceptId": "C75359", "definition": "A measurement of the 3,4-methylenedioxymethamphetamine (MDMA) in a biological specimen.", "preferredTerm": "3,4-Methylenedioxymethamphetamine Measurement", "submissionValue": "3,4-methylenedioxymethamphetamine", "synonyms": ["3,4-methylenedioxymethamphetamine", "Ecstasy"]}, {"conceptId": "C79437", "definition": "A measurement of the 5'-nucleotidase in a biological specimen.", "preferredTerm": "5 Prime Nucleotidase Measurement", "submissionValue": "5 Prime Nucleotidase", "synonyms": ["5 Prime Nucleotidase", "5'-Ribonucleotide Phosphohydrolase"]}, {"conceptId": "C112217", "definition": "A measurement of 5-hydroxyindoleacetic acid in a biological specimen.", "preferredTerm": "5-Hydroxyindoleacetic Acid Measurement", "submissionValue": "5-Hydroxyindoleacetic Acid", "synonyms": ["5-Hydroxyindoleacetic Acid"]}, {"conceptId": "C74876", "definition": "A measurement of the 6-monoacetylmorphine present in a biological specimen.", "preferredTerm": "6-Monoacetylmorphine Measurement", "submissionValue": "6-Monoacetylmorphine", "synonyms": ["6-Monoacetylmorphine"]}, {"conceptId": "C119291", "definition": "A relative measurement (ratio or percentage) of the prostaglandin F2 alpha isoform 8 to creatinine in a biological specimen.", "preferredTerm": "8-Iso-Prostaglandin F2 Alpha to Creatinine Ratio Measurement", "submissionValue": "8-Iso-PGF2alpha/Creatinine", "synonyms": ["8-Iso-PGF2alpha/Creatinine"]}, {"conceptId": "C119292", "definition": "A measurement of the prostaglandin F2 alpha isoform 8 in a biological specimen.", "preferredTerm": "8-Iso-Prostaglandin F2 Alpha Measurement", "submissionValue": "8-Iso-Prostaglandin F2 Alpha", "synonyms": ["8-Iso-Prostaglandin F2 Alpha"]}, {"conceptId": "C96565", "definition": "A relative measurement (ratio or percentage) of alpha fetoprotein L3 to total alpha fetoprotein in a biological specimen.", "preferredTerm": "Alpha Fetoprotein L3 to Total Alpha Fetoprotein Ratio Measurement", "submissionValue": "A Fetoprotein L3/A Fetoprotein", "synonyms": ["A Fetoprotein L3/A Fetoprotein"]}, {"conceptId": "C111123", "definition": "A measurement of the a proliferation-inducing ligand in a biological specimen.", "preferredTerm": "A Proliferation-Inducing Ligand Measurement", "submissionValue": "A Proliferation-Inducing Ligand", "synonyms": ["A Proliferation-Inducing Ligand", "CD256", "TNFSF13", "Tumor Necrosis Factor Ligand Superfamily Member 13"]}, {"conceptId": "C98705", "definition": "A measurement of the adenovirus viral load in a biological specimen.", "preferredTerm": "Adenovirus Viral Load Measurement", "submissionValue": "ADV Viral Load", "synonyms": ["ADV Viral Load"]}, {"conceptId": "C106498", "definition": "A relative measurement (ratio or percentage) of the alanine aminotransferase (ALT) to aspartate aminotransferase (AST) present in a sample.", "preferredTerm": "Alanine Aminotransferase to Aspartate Aminotransferase Ratio Measurement", "submissionValue": "ALT/AST", "synonyms": ["ALT/AST"]}, {"conceptId": "C111124", "definition": "A measurement of the abnormal cells in a biological specimen.", "preferredTerm": "Abnormal Cell Count", "submissionValue": "Abnormal Cells", "synonyms": ["Abnormal Cells"]}, {"conceptId": "C74699", "definition": "A measurement of the acanthocytes in a biological specimen.", "preferredTerm": "Acanthocyte Count", "submissionValue": "Acanthocytes", "synonyms": ["Acanthocytes"]}, {"conceptId": "C74633", "definition": "A relative measurement (ratio or percentage) of acanthocytes to all erythrocytes in a biological specimen.", "preferredTerm": "Acanthocyte to Erythrocyte Ratio Measurement", "submissionValue": "Acanthocytes/Erythrocytes", "synonyms": ["Acanthocytes/Erythrocytes"]}, {"conceptId": "C92247", "definition": "A measurement of the acetoacetic acid in a biological specimen.", "preferredTerm": "Acetoacetic Acid Measurement", "submissionValue": "Acetoacetic Acid", "synonyms": ["Acetoacetate", "Acetoacetic Acid"]}, {"conceptId": "C74838", "definition": "A measurement of the acetylcholine hormone in a biological specimen.", "preferredTerm": "Acetylcholine Measurement", "submissionValue": "Acetylcholine", "synonyms": ["Acetylcholine"]}, {"conceptId": "C96559", "definition": "A measurement of the acetylcholine receptor antibody in a biological specimen.", "preferredTerm": "Acetylcholine Receptor Antibody Measurement", "submissionValue": "Acetylcholine Receptor Antibody", "synonyms": ["Acetylcholine Receptor Antibody"]}, {"conceptId": "C96560", "definition": "A measurement of the acetylcholinesterase in a biological specimen.", "preferredTerm": "Acetylcholinesterase Measurement", "submissionValue": "Acetylcholinesterase", "synonyms": ["Acetylcholinesterase"]}, {"conceptId": "C80163", "definition": "A measurement of the acid phosphatase in a biological specimen.", "preferredTerm": "Acid Phosphatase Measurement", "submissionValue": "Acid Phosphatase", "synonyms": ["Acid Phosphatase"]}, {"conceptId": "C74912", "definition": "A measurement of the acid urate crystals present in a biological specimen.", "preferredTerm": "Acid Urate Crystal Measurement", "submissionValue": "Acid Urate Crystals", "synonyms": ["Acid Urate Crystals"]}, {"conceptId": "C103348", "definition": "A measurement of the inhibition of blood coagulation in response to anticoagulant therapies.", "preferredTerm": "Activated Coagulation Time", "submissionValue": "Activated Coagulation Time", "synonyms": ["Activated Clot Time", "Activated Clotting Time", "Coagulation Activated"]}, {"conceptId": "C98862", "definition": "A relative measurement (ratio or percentage) of the subject's partial thromboplastin time to a standard or control partial thromboplastin time.", "preferredTerm": "Activated PTT/Standard Ratio Measurement", "submissionValue": "Activated PTT/Standard", "synonyms": ["Activated PTT/Standard", "Activated PTT/Standard PTT", "Activated Partial Thromboplastin Time/Standard Thromboplastin Time"]}, {"conceptId": "C38462", "definition": "A measurement of the length of time that it takes for clotting to occur when reagents are added to a plasma specimen. The test is partial due to the absence of tissue factor (Factor III) from the reaction mixture.", "preferredTerm": "Partial Thromboplastin Time", "submissionValue": "Activated Partial Thromboplastin Time", "synonyms": ["Activated Partial Thromboplastin Time"]}, {"conceptId": "C100471", "definition": "A measurement of the resistance in the anticoagulation response to activated protein C in a biological specimen.", "preferredTerm": "Activated Protein C Resistance Measurement", "submissionValue": "Activated Protein C Resistance", "synonyms": ["Activated Protein C Resistance", "Factor V Leiden Screen"]}, {"conceptId": "C112219", "definition": "A measurement of active ghrelin in a biological specimen.", "preferredTerm": "Active Ghrelin Measurement", "submissionValue": "Active Ghrelin", "synonyms": ["Active Ghrelin", "Ghrelin"]}, {"conceptId": "C92286", "definition": "A measurement of the acyl coenzyme A oxidase in a biological specimen.", "preferredTerm": "Acyl Coenzyme A Oxidase Measurement", "submissionValue": "Acyl Coenzyme A Oxidase", "synonyms": ["Acyl CoA Oxidase", "Acyl Coenzyme A Oxidase", "Fatty Acyl Coenzyme A Oxidase"]}, {"conceptId": "C102257", "definition": "A measurement of the adenosine diphosphate in a biological specimen.", "preferredTerm": "Adenosine Diphosphate Measurement", "submissionValue": "Adenosine Diphosphate", "synonyms": ["Adenosine Diphosphate"]}, {"conceptId": "C111125", "definition": "A measurement of the adenovirus antibody in a biological specimen.", "preferredTerm": "Adenovirus Antibody Measurement", "submissionValue": "Adenovirus Antibody", "synonyms": ["Adenovirus Antibody"]}, {"conceptId": "C74839", "definition": "A measurement of the adiponectin hormone in a biological specimen.", "preferredTerm": "Adiponectin Measurement", "submissionValue": "Adiponectin", "synonyms": ["Adiponectin"]}, {"conceptId": "C74780", "definition": "A measurement of the adrenocorticotropic hormone in a biological specimen.", "preferredTerm": "Adrenocorticotropic Hormone Measurement", "submissionValue": "Adrenocorticotropic Hormone", "synonyms": ["Adrenocorticotropic Hormone"]}, {"conceptId": "C112220", "definition": "A measurement of the 846 epitope present on the chondroitin sulfate chains of aggrecan in a biological specimen.", "preferredTerm": "Aggrecan Chondroitin Sulfate Epitope 846 Measurement", "submissionValue": "Aggrecan Chondroitin Sulfate Epitope 846", "synonyms": ["846-Epitope", "Aggrecan Chondroitin Sulfate Epitope 846", "CS846", "Chondroitin Sulfate Epitope 846", "Chondroitin Sulfate Proteoglycan 1 Epitope 846"]}, {"conceptId": "C116200", "definition": "A measurement of the agranular neutrophils in a biological specimen.", "preferredTerm": "Agranular Neutrophils Measurement", "submissionValue": "Agranular Neutrophils", "synonyms": ["Agranular Neutrophils"]}, {"conceptId": "C122091", "definition": "A measurement of the alanine in a biological specimen.", "preferredTerm": "Alanine Measurement", "submissionValue": "Alanine", "synonyms": ["Alanine"]}, {"conceptId": "C100430", "definition": "A measurement of the alanine aminopeptidase in a biological specimen.", "preferredTerm": "Alanine Aminopeptidase Measurement", "submissionValue": "Alanine Aminopeptidase", "synonyms": ["Alanine Aminopeptidase"]}, {"conceptId": "C64433", "definition": "A measurement of the alanine aminotransferase in a biological specimen.", "preferredTerm": "Alanine Aminotransferase Measurement", "submissionValue": "Alanine Aminotransferase", "synonyms": ["Alanine Aminotransferase", "SGPT"]}, {"conceptId": "C64431", "definition": "A measurement of the albumin protein in a biological specimen.", "preferredTerm": "Albumin Measurement", "submissionValue": "Albumin", "synonyms": ["Albumin", "Microalbumin"]}, {"conceptId": "C117829", "definition": "A measurement of the amount of albumin being excreted in urine over a defined period of time (e.g. one hour).", "preferredTerm": "Albumin Urine Excretion Rate", "submissionValue": "Albumin Excretion Rate", "synonyms": ["Albumin Excretion Rate"]}, {"conceptId": "C74761", "definition": "A relative measurement (ratio or percentage) of the albumin to the creatinine in a biological specimen.", "preferredTerm": "Albumin To Creatinine Protein Ratio Measurement", "submissionValue": "Albumin/Creatinine", "synonyms": ["Albumin/Creatinine", "Microalbumin/Creatinine Ratio"]}, {"conceptId": "C74894", "definition": "The ratio of albumin to globulin in a biological specimen.", "preferredTerm": "Albumin to Globulin Ratio Measurement", "submissionValue": "Albumin/Globulin", "synonyms": ["Albumin/Globulin"]}, {"conceptId": "C103453", "definition": "A relative measurement (ratio or percentage) of the albumin to total protein in a biological specimen.", "preferredTerm": "Albumin to Total Protein Ratio Measurement", "submissionValue": "Albumin/Total Protein", "synonyms": ["Albumin/Total Protein"]}, {"conceptId": "C74731", "definition": "A measurement of the aldolase enzyme in a biological specimen.", "preferredTerm": "Aldolase Measurement", "submissionValue": "Aldolase", "synonyms": ["Aldolase"]}, {"conceptId": "C74841", "definition": "A measurement of the aldosterone hormone in a biological specimen.", "preferredTerm": "Aldosterone Measurement", "submissionValue": "Aldosterone", "synonyms": ["Aldosterone"]}, {"conceptId": "C64432", "definition": "A measurement of the alkaline phosphatase in a biological specimen.", "preferredTerm": "Alkaline Phosphatase Measurement", "submissionValue": "Alkaline Phosphatase", "synonyms": ["Alkaline Phosphatase"]}, {"conceptId": "C79438", "definition": "A relative measurement (ratio or percentage) of the alkaline phosphatase to creatinine in a biological specimen.", "preferredTerm": "Alkaline Phosphatase to Creatinine Ratio Measurement", "submissionValue": "Alkaline Phosphatase/Creatinine", "synonyms": ["Alkaline Phosphatase/Creatinine"]}, {"conceptId": "C74732", "definition": "A measurement of the alpha fetoprotein in a biological specimen.", "preferredTerm": "Alpha-fetoprotein Measurement", "submissionValue": "Alpha Fetoprotein", "synonyms": ["Alpha Fetoprotein"]}, {"conceptId": "C106499", "definition": "A measurement of the alpha fetoprotein activity in a biological specimen.", "preferredTerm": "Alpha Fetoprotein Activity Measurement", "submissionValue": "Alpha Fetoprotein Activity", "synonyms": ["Alpha Fetoprotein Activity"]}, {"conceptId": "C96562", "definition": "A measurement of the alpha fetoprotein L1 in a biological specimen.", "preferredTerm": "Alpha Fetoprotein L1 Measurement", "submissionValue": "Alpha Fetoprotein L1", "synonyms": ["Alpha Fetoprotein L1"]}, {"conceptId": "C96563", "definition": "A measurement of the alpha fetoprotein L2 in a biological specimen.", "preferredTerm": "Alpha Fetoprotein L2 Measurement", "submissionValue": "Alpha Fetoprotein L2", "synonyms": ["Alpha Fetoprotein L2"]}, {"conceptId": "C96564", "definition": "A measurement of the alpha fetoprotein L3 in a biological specimen.", "preferredTerm": "Alpha Fetoprotein L3 Measurement", "submissionValue": "Alpha Fetoprotein L3", "synonyms": ["Alpha Fetoprotein L3"]}, {"conceptId": "C79433", "definition": "A measurement of the alpha form of glutathione S-transferase in a biological specimen.", "preferredTerm": "Alpha Glutathione-S-Transferase Measurement", "submissionValue": "Alpha Glutathione-S-Transferase", "synonyms": ["Alpha Glutathione-S-Transferase"]}, {"conceptId": "C111126", "definition": "A measurement of the alpha-hydroxybutyrate dehydrogenase in a biological specimen.", "preferredTerm": "Alpha Hydroxybutyrate Dehydrogenase Measurement", "submissionValue": "Alpha Hydroxybutyrate Dehydrogenase", "synonyms": ["Alpha Hydroxybutyrate Dehydrogenase"]}, {"conceptId": "C103349", "definition": "A measurement of the alpha tocopherol in a biological specimen.", "preferredTerm": "Alpha Tocopherol Measurement", "submissionValue": "Alpha Tocopherol", "synonyms": ["Alpha Tocopherol"]}, {"conceptId": "C103350", "definition": "A relative measurement (ratio or percentage) of alpha-tocopherol to the total vitamin E in a biological specimen.", "preferredTerm": "Alpha Tocopherol to Vitamin E Ratio Measurement", "submissionValue": "Alpha Tocopherol/Vitamin E", "synonyms": ["Vitamin E Alpha Tocopherol"]}, {"conceptId": "C100429", "definition": "A measurement of the alpha-1 acid glycoprotein in a biological specimen.", "preferredTerm": "Alpha-1 Acid Glycoprotein Measurement", "submissionValue": "Alpha-1 Acid Glycoprotein", "synonyms": ["Alpha-1 Acid Glycoprotein"]}, {"conceptId": "C80167", "definition": "A measurement of the alpha-1 antitrypsin in a biological specimen.", "preferredTerm": "Alpha-1 Antitrypsin Measurement", "submissionValue": "Alpha-1 Antitrypsin", "synonyms": ["Alpha-1 Antitrypsin", "Serum Trypsin Inhibitor"]}, {"conceptId": "C92252", "definition": "A measurement of the proteins contributing to the alpha 1 fraction in a biological specimen.", "preferredTerm": "Alpha-1 Globulin Measurement", "submissionValue": "Alpha-1 Globulin", "synonyms": ["A1-Globulin", "Alpha-1 Globulin"]}, {"conceptId": "C92253", "definition": "A relative measurement (ratio or percentage) of alpha-1-fraction proteins to total proteins in a biological specimen.", "preferredTerm": "Alpha-1 Globulin to Total Protein Ratio Measurement", "submissionValue": "Alpha-1 Globulin/Total Protein", "synonyms": ["Alpha-1 Globulin/Total Protein"]}, {"conceptId": "C100461", "definition": "A measurement of the alpha-1 microglobulin in a biological specimen.", "preferredTerm": "Alpha-1 Microglobulin Measurement", "submissionValue": "Alpha-1 Microglobulin", "synonyms": ["Alpha-1 Microglobulin", "Protein HC"]}, {"conceptId": "C100462", "definition": "A relative measurement (ratio or percentage) of the alpha-1 microglobulin to creatinine in a biological specimen.", "preferredTerm": "Alpha-1 Microglobulin to Creatinine Ratio Measurement", "submissionValue": "Alpha-1 Microglobulin/Creatinine", "synonyms": ["Alpha-1 Microglobulin/Creatinine"]}, {"conceptId": "C103351", "definition": "A measurement of the alpha-2 antiplasmin in a biological specimen.", "preferredTerm": "Alpha-2 Antiplasmin Measurement", "submissionValue": "Alpha-2 Antiplasmin", "synonyms": ["Alpha-2 Antiplasmin", "Alpha-2 Plasmin Inhibitor"]}, {"conceptId": "C122094", "definition": "A measurement of the alpha-2 antiplasmin activity in a biological specimen.", "preferredTerm": "Alpha-2 Antiplasmin Activity Measurement", "submissionValue": "Alpha-2 Antiplasmin Activity", "synonyms": ["Alpha-2 Antiplasmin Activity"]}, {"conceptId": "C92254", "definition": "A measurement of the proteins contributing to the alpha 2 fraction in a biological specimen.", "preferredTerm": "Alpha-2 Globulin Measurement", "submissionValue": "Alpha-2 Globulin", "synonyms": ["A2-Globulin", "Alpha-2 Globulin"]}, {"conceptId": "C92255", "definition": "A relative measurement (ratio or percentage) of alpha-2-fraction proteins to total proteins in a biological specimen.", "preferredTerm": "Alpha-2 Globulin to Total Protein Ratio Measurement", "submissionValue": "Alpha-2 Globulin/Total Protein", "synonyms": ["Alpha-2 Globulin/Total Protein"]}, {"conceptId": "C80168", "definition": "A measurement of the alpha-2 macroglobulin in a biological specimen.", "preferredTerm": "Alpha-2 Macroglobulin Measurement", "submissionValue": "Alpha-2 Macroglobulin", "synonyms": ["Alpha-2 Macroglobulin"]}, {"conceptId": "C119278", "definition": "A measurement of the amount of Alpha Glutathione-S-Transferase being excreted in urine over a defined period of time (e.g. one hour).", "preferredTerm": "Alpha-GST Excretion Rate", "submissionValue": "Alpha-GST Excretion Rate", "synonyms": ["Alpha-GST Excretion Rate"]}, {"conceptId": "C111127", "definition": "A measurement of aluminum in a biological specimen.", "preferredTerm": "Aluminum Measurement", "submissionValue": "Aluminum", "synonyms": ["Al", "Aluminum"]}, {"conceptId": "C74799", "definition": "A measurement of the ammonia in a biological specimen.", "preferredTerm": "Ammonia Measurement", "submissionValue": "Ammonia", "synonyms": ["Ammonia", "NH3"]}, {"conceptId": "C105590", "definition": "A measurement of the ammonium biurate crystals present in a biological specimen.", "preferredTerm": "Ammonium Biurate Crystals Measurement", "submissionValue": "Ammonium Biurate Crystals", "synonyms": ["Acid Ammonium Urate Crystals", "Ammonium Biurate Crystals", "Ammonium Urate Crystals"]}, {"conceptId": "C74759", "definition": "A measurement of the ammonium oxalate crystals present in a urine specimen.", "preferredTerm": "Urine Ammonium Oxalate Crystal Measurement", "submissionValue": "Ammonium Oxalate Crystals", "synonyms": ["Ammonium Oxalate Crystals"]}, {"conceptId": "C74665", "definition": "A measurement of the amorphous (Note: phosphate or urate, depending on pH) crystals present in a biological specimen.", "preferredTerm": "Amorphous Crystal Measurement", "submissionValue": "Amorphous Crystals", "synonyms": ["Amorphous Crystals"]}, {"conceptId": "C92243", "definition": "A measurement of the amorphous phosphate crystals in a biological specimen.", "preferredTerm": "Amorphous Phosphate Crystals Measurement", "submissionValue": "Amorphous Phosphate Crystals", "synonyms": ["Amorphous Phosphate Crystals"]}, {"conceptId": "C74666", "definition": "A measurement of the amorphous sediment present in a biological specimen.", "preferredTerm": "Amorphous Sediment Measurement", "submissionValue": "Amorphous Sediment", "synonyms": ["Amorphous Debris", "Amorphous Sediment"]}, {"conceptId": "C92244", "definition": "A measurement of the amorphous urate crystals in a biological specimen.", "preferredTerm": "Amorphous Urate Crystals Measurement", "submissionValue": "Amorphous Urate Crystals", "synonyms": ["Amorphous Urate Crystals"]}, {"conceptId": "C74687", "definition": "A measurement of any amphetamine class drug present in a biological specimen.", "preferredTerm": "Amphetamine Drug Class Measurement", "submissionValue": "Amphetamine", "synonyms": ["Amphetamine"]}, {"conceptId": "C64434", "definition": "A measurement of the total enzyme amylase in a biological specimen.", "preferredTerm": "Amylase Measurement", "submissionValue": "Amylase", "synonyms": ["Amylase"]}, {"conceptId": "C98767", "definition": "A measurement of the pancreatic enzyme amylase in a biological specimen.", "preferredTerm": "Pancreatic Amylase Measurement", "submissionValue": "Amylase, Pancreatic", "synonyms": ["Amylase, Pancreatic"]}, {"conceptId": "C98780", "definition": "A measurement of the salivary enzyme amylase in a biological specimen.", "preferredTerm": "Salivary Amylase Measurement", "submissionValue": "Amylase, Salivary", "synonyms": ["Amylase, Salivary"]}, {"conceptId": "C119268", "definition": "A measurement of the amyloid alpha precursor protein present in a biological specimen.", "preferredTerm": "Amyloid Alpha Precursor Protein Measurement", "submissionValue": "Amyloid Alpha Precursor Protein", "synonyms": ["Amyloid Alpha Precursor Protein"]}, {"conceptId": "C103352", "definition": "A measurement of amyloid beta protein which is composed of peptides 1 to 38 in a biological specimen.", "preferredTerm": "Amyloid Beta 1-38 Measurement", "submissionValue": "Amyloid Beta 1-38", "synonyms": ["Amyloid Beta 1-38", "Amyloid Beta 38", "Amyloid Beta 38 Protein"]}, {"conceptId": "C103353", "definition": "A measurement of amyloid beta protein which is composed of peptides 1 to 40 in a biological specimen.", "preferredTerm": "Amyloid Beta 1-40 Measurement", "submissionValue": "Amyloid Beta 1-40", "synonyms": ["Amyloid Beta 1-40", "Amyloid Beta 40", "Amyloid Beta 40 Protein"]}, {"conceptId": "C84809", "definition": "A measurement of amyloid beta protein which is composed of peptides 1 to 42 in a biological specimen.", "preferredTerm": "Beta Amyloid 42 Measurement", "submissionValue": "Amyloid Beta 1-42", "synonyms": ["Amyloid Beta 1-42", "Amyloid Beta 42", "Amyloid Beta 42 Protein"]}, {"conceptId": "C105438", "definition": "A measurement of the amyloid beta precursor protein present in a biological specimen.", "preferredTerm": "Amyloid Beta Precursor Protein Measurement", "submissionValue": "Amyloid Beta Precursor Protein", "synonyms": ["Amyloid Beta Precursor", "Amyloid Beta Precursor Protein", "Amyloid Precursor Beta", "Amyloid Precursor Protein"]}, {"conceptId": "C81998", "definition": "A measurement of the total amyloid P in a biological specimen.", "preferredTerm": "Amyloid P Measurement", "submissionValue": "Amyloid P", "synonyms": ["Amyloid P"]}, {"conceptId": "C81999", "definition": "A measurement of the total amyloid beta in a biological specimen.", "preferredTerm": "Beta Amyloid Measurement", "submissionValue": "Amyloid, Beta", "synonyms": ["Amyloid, Beta", "Beta Amyloid"]}, {"conceptId": "C74842", "definition": "A measurement of the androstenediol metabolite in a biological specimen.", "preferredTerm": "Androstenediol Metabolite Measurement", "submissionValue": "Androstenediol", "synonyms": ["Androstenediol"]}, {"conceptId": "C74843", "definition": "A measurement of the androstenedione hormone in a biological specimen.", "preferredTerm": "Androstenedione Measurement", "submissionValue": "Androstenedione", "synonyms": ["4-Androstenedione", "Androstenedione"]}, {"conceptId": "C111128", "definition": "A measurement of angiopoietin 1 in a biological specimen.", "preferredTerm": "Angiopoietin 1 Measurement", "submissionValue": "Angiopoietin 1", "synonyms": ["Angiopoietin 1"]}, {"conceptId": "C80169", "definition": "A measurement of the angiotensin converting enzyme in a biological specimen.", "preferredTerm": "Angiotensin Converting Enzyme Measurement", "submissionValue": "Angiotensin Converting Enzyme", "synonyms": ["Angiotensin Converting Enzyme"]}, {"conceptId": "C74844", "definition": "A measurement of the angiotensin I hormone in a biological specimen.", "preferredTerm": "Angiotensin I Measurement", "submissionValue": "Angiotensin I", "synonyms": ["Angiotensin I"]}, {"conceptId": "C74845", "definition": "A measurement of the angiotensin II hormone in a biological specimen.", "preferredTerm": "Angiotensin II Measurement", "submissionValue": "Angiotensin II", "synonyms": ["Angiotensin II"]}, {"conceptId": "C74846", "definition": "A measurement of the angiotensinogen hormone in a biological specimen.", "preferredTerm": "Angiotensinogen Measurement", "submissionValue": "Angiotensinogen", "synonyms": ["Angiotensin Precursor", "Angiotensinogen"]}, {"conceptId": "C74685", "definition": "A computed estimate of the unmeasured anions (those other than the chloride and bicarbonate anions) in a biological specimen.", "preferredTerm": "Anion Gap Measurement", "submissionValue": "Anion Gap", "synonyms": ["Anion Gap"]}, {"conceptId": "C74797", "definition": "A measurement of the variability in the size of the red blood cells in a whole blood specimen.", "preferredTerm": "Anisocyte Measurement", "submissionValue": "Anisocytes", "synonyms": ["Anisocytes", "Anisocytosis"]}, {"conceptId": "C81973", "definition": "A measurement of the anti-DNA antibodies in a biological specimen.", "preferredTerm": "Anti-DNA Antibody Measurement", "submissionValue": "Anti-DNA Antibodies", "synonyms": ["Anti-DNA Antibodies", "Anti-ds-DNA Antibodies"]}, {"conceptId": "C74913", "definition": "A measurement of the anti-double stranded DNA antibody in a biological specimen.", "preferredTerm": "Anti-Double Stranded DNA Measurement", "submissionValue": "Anti-Double Stranded DNA", "synonyms": ["Anti-Double Stranded DNA"]}, {"conceptId": "C98706", "definition": "A measurement of the anti-activated Factor X in a biological specimen. This test is used to monitor low molecular weight or unfractionated heparin levels in a biological specimen.", "preferredTerm": "Anti-Factor Xa Activity Measurement", "submissionValue": "Anti-Factor Xa Activity", "synonyms": ["Anti-Factor Xa Activity"]}, {"conceptId": "C120625", "definition": "A measurement of the anti-Mullerian hormone in a biological specimen.", "preferredTerm": "Anti-Mullerian Hormone Measurement", "submissionValue": "Anti-Mullerian Hormone", "synonyms": ["Anti-Mullerian Hormone"]}, {"conceptId": "C120626", "definition": "A measurement of the anti-neutrophil cytoplasmic antibody in a biological specimen.", "preferredTerm": "Anti-Neutrophil Cytoplasmic Antibody Measurement", "submissionValue": "Anti-Neutrophil Cytoplasmic Antibody", "synonyms": ["Anti-Neutrophil Cytoplasmic Antibody"]}, {"conceptId": "C120627", "definition": "A measurement of the anti-nucleosome antibody in a biological specimen.", "preferredTerm": "Anti-Nucleosome Antibody Measurement", "submissionValue": "Anti-Nucleosome Antibody", "synonyms": ["Anti-Nucleosome Antibody"]}, {"conceptId": "C81976", "definition": "A measurement of the anti-Saccharomyces cerevisiae antibody in a biological specimen.", "preferredTerm": "Anti-Saccharomyces cerevisiae Antibody Measurement", "submissionValue": "Anti-Saccharomyces cerevisiae Antibody", "synonyms": ["Anti-Saccharomyces cerevisiae Antibody"]}, {"conceptId": "C92269", "definition": "A measurement of the anti-single stranded DNA IgG antibody in a biological specimen.", "preferredTerm": "Anti-Single Stranded DNA IgG Measurement", "submissionValue": "Anti-Single Stranded DNA IgG", "synonyms": ["Anti-Single Stranded DNA IgG"]}, {"conceptId": "C74691", "definition": "A measurement of any antidepressant class drug present in a biological specimen.", "preferredTerm": "Antidepressant Measurement", "submissionValue": "Antidepressants", "synonyms": ["Antidepressants"]}, {"conceptId": "C74847", "definition": "A measurement of the antidiuretic hormone in a biological specimen.", "preferredTerm": "Antidiuretic Hormone Measurement", "submissionValue": "Antidiuretic Hormone", "synonyms": ["Antidiuretic Hormone", "Vasopressin"]}, {"conceptId": "C81974", "definition": "A measurement of the antibody or complement-coated erythrocytes in a biological specimen in vivo.", "preferredTerm": "Direct Antiglobulin Test", "submissionValue": "Antiglobulin Test, Direct", "synonyms": ["Antiglobulin Test, Direct", "Direct Coombs Test"]}, {"conceptId": "C91372", "definition": "A test that uses Coombs' reagent to detect the presence of anti-erythrocyte antibodies in a biological specimen.", "preferredTerm": "Indirect Antiglobulin Test", "submissionValue": "Antiglobulin Test, Indirect", "synonyms": ["Antiglobulin Test, Indirect", "Indirect Coombs Test"]}, {"conceptId": "C81975", "definition": "A measurement of the antimitochondrial antibodies in a biological specimen.", "preferredTerm": "Antimitochondrial Antibody Measurement", "submissionValue": "Antimitochondrial Antibodies", "synonyms": ["Antimitochondrial Antibodies", "Mitochondrial Antibody"]}, {"conceptId": "C74916", "definition": "A measurement of the total antinuclear antibodies (antibodies that attack the body's own tissue) in a biological specimen.", "preferredTerm": "Antinuclear Antibody Measurement", "submissionValue": "Antinuclear Antibodies", "synonyms": ["Antinuclear Antibodies"]}, {"conceptId": "C122093", "definition": "A measurement of the antinuclear IgG antibody in a biological specimen.", "preferredTerm": "Antinuclear IgG Antibody Measurement", "submissionValue": "Antinuclear IgG Antibody", "synonyms": ["Antinuclear IgG Antibody"]}, {"conceptId": "C102258", "definition": "A measurement of the antiphospholipid antibodies in a biological specimen.", "preferredTerm": "Antiphospholipid Antibody Measurement", "submissionValue": "Antiphospholipid Antibodies", "synonyms": ["Antiphospholipid Antibodies"]}, {"conceptId": "C81958", "definition": "A measurement of the antithrombin activity in a biological specimen.", "preferredTerm": "Antithrombin Activity Measurement", "submissionValue": "Antithrombin", "synonyms": ["Antithrombin", "Antithrombin Activity", "Antithrombin III", "Antithrombin III Activity"]}, {"conceptId": "C81977", "definition": "A measurement of the antithrombin antigen in a biological specimen.", "preferredTerm": "Antithrombin Antigen Measurement", "submissionValue": "Antithrombin Antigen", "synonyms": ["Antithrombin Antigen", "Antithrombin III Antigen"]}, {"conceptId": "C74733", "definition": "A measurement of the apolipoprotein A1 in the high density lipoproteins of a biological specimen.", "preferredTerm": "Apolipoprotein A1 Measurement", "submissionValue": "Apolipoprotein A1", "synonyms": ["Apolipoprotein A1"]}, {"conceptId": "C103354", "definition": "A measurement of the apolipoprotein A4 in a biological specimen.", "preferredTerm": "Apolipoprotein A4 Measurement", "submissionValue": "Apolipoprotein A4", "synonyms": ["Apolipoprotein A4"]}, {"conceptId": "C103355", "definition": "A measurement of the apolipoprotein A5 in a biological specimen.", "preferredTerm": "Apolipoprotein A5 Measurement", "submissionValue": "Apolipoprotein A5", "synonyms": ["Apolipoprotein A5"]}, {"conceptId": "C82000", "definition": "A measurement of the apolipoprotein AII in a biological specimen.", "preferredTerm": "Apolipoprotein AII Measurement", "submissionValue": "Apolipoprotein AII", "synonyms": ["Apolipoprotein AII"]}, {"conceptId": "C74734", "definition": "A measurement of the apolipoprotein B in the low density lipoproteins of a biological specimen.", "preferredTerm": "Apolipoprotein B Measurement", "submissionValue": "Apolipoprotein B", "synonyms": ["Apolipoprotein B"]}, {"conceptId": "C103356", "definition": "A relative measurement (ratio or percentage) of the Apolipoprotein B to Apolipoprotein A1 in a biological specimen.", "preferredTerm": "Apolipoprotein B to Apolipoprotein A1 Ratio Measurement", "submissionValue": "Apolipoprotein B/Apolipoprotein A1", "synonyms": ["Apolipoprotein B/Apolipoprotein A1"]}, {"conceptId": "C120628", "definition": "A measurement of the apolipoprotein B100 in a biological specimen.", "preferredTerm": "Apolipoprotein B100 Measurement", "submissionValue": "Apolipoprotein B100", "synonyms": ["Apolipoprotein B100"]}, {"conceptId": "C120629", "definition": "A measurement of the apolipoprotein B48 in a biological specimen.", "preferredTerm": "Apolipoprotein B48 Measurement", "submissionValue": "Apolipoprotein B48", "synonyms": ["Apolipoprotein B48"]}, {"conceptId": "C100427", "definition": "A measurement of the apolipoprotein C2 in a biological specimen.", "preferredTerm": "Apolipoprotein C2 Measurement", "submissionValue": "Apolipoprotein C2", "synonyms": ["Apolipoprotein C2", "Apolipoprotein CII"]}, {"conceptId": "C120630", "definition": "A measurement of the apolipoprotein CI in a biological specimen.", "preferredTerm": "Apolipoprotein CI Measurement", "submissionValue": "Apolipoprotein CI", "synonyms": ["Apolipoprotein CI"]}, {"conceptId": "C82001", "definition": "A measurement of the apolipoprotein CIII in a biological specimen.", "preferredTerm": "Apolipoprotein CIII Measurement", "submissionValue": "Apolipoprotein CIII", "synonyms": ["Apolipoprotein CIII"]}, {"conceptId": "C82002", "definition": "A measurement of the apolipoprotein E in a biological specimen.", "preferredTerm": "Apolipoprotein E Measurement", "submissionValue": "Apolipoprotein E", "synonyms": ["Apolipoprotein E"]}, {"conceptId": "C92293", "definition": "A measurement of the apolipoprotein E4 in a biological specimen.", "preferredTerm": "Apolipoprotein E4 Measurement", "submissionValue": "Apolipoprotein E4", "synonyms": ["Apolipoprotein E4"]}, {"conceptId": "C82003", "definition": "A measurement of the apolipoprotein H in a biological specimen.", "preferredTerm": "Apolipoprotein H Measurement", "submissionValue": "Apolipoprotein H", "synonyms": ["Apolipoprotein H"]}, {"conceptId": "C100428", "definition": "A measurement of the apolipoprotein J in a biological specimen.", "preferredTerm": "Apolipoprotein J Measurement", "submissionValue": "Apolipoprotein J", "synonyms": ["Apolipoprotein J", "Clusterin"]}, {"conceptId": "C111130", "definition": "A relative measurement (ratio or percentage) of the apolipoprotein J to creatinine in a biological specimen.", "preferredTerm": "Apolipoprotein J to Creatinine Ratio Measurement", "submissionValue": "Apolipoprotein J/Creatinine", "synonyms": ["Apolipoprotein J/Creatinine", "Clusterin/Creatinine"]}, {"conceptId": "C102259", "definition": "A measurement of the arachidonic acid present in a biological specimen.", "preferredTerm": "Arachidonic Acid Measurement", "submissionValue": "Arachidonic Acid", "synonyms": ["Arachidonic Acid"]}, {"conceptId": "C122095", "definition": "A measurement of the arginine in a biological specimen.", "preferredTerm": "Arginine Measurement", "submissionValue": "Arginine", "synonyms": ["Arginine"]}, {"conceptId": "C122096", "definition": "A measurement of the asparagine in a biological specimen.", "preferredTerm": "Asparagine Measurement", "submissionValue": "Asparagine", "synonyms": ["Asparagine"]}, {"conceptId": "C64467", "definition": "A measurement of the aspartate aminotransferase in a biological specimen.", "preferredTerm": "Aspartate Aminotransferase Measurement", "submissionValue": "Aspartate Aminotransferase", "synonyms": ["Aspartate Aminotransferase", "SGOT"]}, {"conceptId": "C81978", "definition": "A measurement of the aspartate aminotransferase antigen in a biological specimen.", "preferredTerm": "Aspartate Aminotransferase Antigen Measurement", "submissionValue": "Aspartate Aminotransferase Antigen", "synonyms": ["Aspartate Aminotransferase Antigen", "SGOT Antigen"]}, {"conceptId": "C117830", "definition": "A relative measurement (ratio or percentage) of the aspartate aminotransferase to creatinine in a biological specimen.", "preferredTerm": "Aspartate Aminotransferase to Creatinine Ratio Measurement", "submissionValue": "Aspartate Aminotransferase/Creatinine", "synonyms": ["Aspartate Aminotransferase/Creatinine"]}, {"conceptId": "C122097", "definition": "A measurement of the aspartic acid in a biological specimen.", "preferredTerm": "Aspartic Acid Measurement", "submissionValue": "Aspartic Acid", "synonyms": ["Aspartate", "Aspartic Acid"]}, {"conceptId": "C74886", "definition": "A measurement of the atrial natriuretic peptide in a biological specimen.", "preferredTerm": "Atrial Natriuretic Peptide Measurement", "submissionValue": "Atrial Natriuretic Peptide", "synonyms": ["Atrial Natriuretic Peptide", "Atriopeptin"]}, {"conceptId": "C74657", "definition": "A measurement of the Auer rods (elongated needle structures that are found in the cytoplasm of leukemic blasts and are formed by clumps of azurophilic granular material) in a biological specimen.", "preferredTerm": "Auer Rod Measurement", "submissionValue": "Auer Rods", "synonyms": ["Auer Rods"]}, {"conceptId": "C116185", "definition": "An observation of azurophilic granules in a biological specimen.", "preferredTerm": "Azurophilic Granule Measurement", "submissionValue": "Azurophilic Granules", "synonyms": ["Azurophilic Granulation", "Azurophilic Granules"]}, {"conceptId": "C111135", "definition": "A measurement of the B-cell activating factor in a biological specimen.", "preferredTerm": "B-Cell Activating Factor Measurement", "submissionValue": "B-Cell Activating Factor", "synonyms": ["B-Cell Activating Factor"]}, {"conceptId": "C98710", "definition": "A measurement of the BK virus viral load in a biological specimen.", "preferredTerm": "BK Virus Viral Load Measurement", "submissionValue": "BKV Viral Load", "synonyms": ["BKV Viral Load"]}, {"conceptId": "C74753", "definition": "A relative measurement (ratio or percentage) (ratio) of the blood urea nitrogen (BUN) to the creatinine in a biological specimen.", "preferredTerm": "Blood Urea Nitrogen To Creatinine Ratio Measurement", "submissionValue": "BUN/Creatinine", "synonyms": ["BUN/Creatinine"]}, {"conceptId": "C64469", "definition": "A measurement of the bacteria in a biological specimen.", "preferredTerm": "Bacterial Count", "submissionValue": "Bacteria", "synonyms": ["Bacteria"]}, {"conceptId": "C74762", "definition": "A measurement of the bacterial casts present in a biological specimen.", "preferredTerm": "Bacterial Cast Measurement", "submissionValue": "Bacterial Casts", "synonyms": ["Bacterial Casts"]}, {"conceptId": "C120631", "definition": "A measurement of the bactericidal/permeability-increasing protein antibody in a biological specimen.", "preferredTerm": "Bactericidal/Permeability-Increasing Protein Antibody Measurement", "submissionValue": "Bactericidal/Permeability-Inc Protein Ab", "synonyms": ["BPI Auto-antibody", "Bactericidal/Permeability-Inc Protein Ab"]}, {"conceptId": "C74688", "definition": "A measurement of any barbiturate class drug present in a biological specimen.", "preferredTerm": "Barbiturate Drug Class Measurement", "submissionValue": "Barbiturates", "synonyms": ["Barbiturates"]}, {"conceptId": "C119270", "definition": "A measurement of the amount of acid or alkali required to return a biological specimen to a normal pH under standard conditions.", "preferredTerm": "Base Excess Measurement", "submissionValue": "Base Excess", "synonyms": ["Base Excess"]}, {"conceptId": "C96567", "definition": "A measurement of the basophilic stippling in a biological specimen.", "preferredTerm": "Basophilic Stippling Measurement", "submissionValue": "Basophilic Stippling", "synonyms": ["Basophilic Stippling"]}, {"conceptId": "C64470", "definition": "A measurement of the basophils in a biological specimen.", "preferredTerm": "Total Basophil Count", "submissionValue": "Basophils", "synonyms": ["Basophils"]}, {"conceptId": "C64471", "definition": "A relative measurement (ratio or percentage) of the basophils to leukocytes in a biological specimen.", "preferredTerm": "Basophil to Leukocyte Ratio", "submissionValue": "Basophils/Leukocytes", "synonyms": ["Basophils/Leukocytes"]}, {"conceptId": "C98865", "definition": "A relative measurement (ratio or percentage) of the basophils to total cells in a biological specimen (for example a bone marrow specimen).", "preferredTerm": "Basophil to Total Cell Ratio Measurement", "submissionValue": "Basophils/Total Cells", "synonyms": ["Basophils/Total Cells"]}, {"conceptId": "C111136", "definition": "A measurement of the total Bence-Jones protein in a biological specimen.", "preferredTerm": "Bence-Jones Protein Measurement", "submissionValue": "Bence-Jones Protein", "synonyms": ["Bence-Jones Protein", "Immunoglobulin Light Chains"]}, {"conceptId": "C74692", "definition": "A measurement of any benzodiazepine class drug present in a biological specimen.", "preferredTerm": "Benzodiazepine Measurement", "submissionValue": "Benzodiazepine", "synonyms": ["Benzodiazepine"]}, {"conceptId": "C75350", "definition": "A measurement of the benzoylecgonine in a biological specimen.", "preferredTerm": "Benzoylecgonine Measurement", "submissionValue": "Benzoylecgonine", "synonyms": ["Benzoylecgonine", "Cocaine Metabolite"]}, {"conceptId": "C100472", "definition": "A measurement of the beta carotene in a biological specimen.", "preferredTerm": "Beta Carotene Measurement", "submissionValue": "Beta Carotene", "synonyms": ["Beta Carotene", "Beta Carotin", "b-Carotene"]}, {"conceptId": "C103357", "definition": "A measurement of the beta catenin in a biological specimen.", "preferredTerm": "Beta Catenin Measurement", "submissionValue": "Beta Catenin", "synonyms": ["Beta Catenin"]}, {"conceptId": "C92256", "definition": "A measurement of the proteins contributing to the beta fraction in a biological specimen.", "preferredTerm": "Beta Globulin Measurement", "submissionValue": "Beta Globulin", "synonyms": ["Beta Globulin"]}, {"conceptId": "C92294", "definition": "A relative measurement (ratio or percentage) of beta fraction proteins to total proteins in a biological specimen.", "preferredTerm": "Beta Globulin to Total Protein Ratio Measurement", "submissionValue": "Beta Globulin/Total Protein", "synonyms": ["Beta Globulin/Total Protein"]}, {"conceptId": "C119274", "definition": "A measurement of the beta-1 globulin in a biological specimen.", "preferredTerm": "Beta-1 Globulin Measurement", "submissionValue": "Beta-1 Globulin", "synonyms": ["Beta-1 Globulin"]}, {"conceptId": "C119275", "definition": "A relative measurement (ratio or percentage) of beta-1-fraction proteins to total proteins in a biological specimen.", "preferredTerm": "Beta-1 Globulin to Total Protein Ratio Measurement", "submissionValue": "Beta-1 Globulin/Total Protein", "synonyms": ["Beta-1 Globulin/Total Protein"]}, {"conceptId": "C119276", "definition": "A measurement of the beta-2 globulin in a biological specimen.", "preferredTerm": "Beta-2 Globulin Measurement", "submissionValue": "Beta-2 Globulin", "synonyms": ["Beta-2 Globulin"]}, {"conceptId": "C119277", "definition": "A relative measurement (ratio or percentage) of beta-2-fraction proteins to total proteins in a biological specimen.", "preferredTerm": "Beta-2 Globulin to Total Protein Ratio Measurement", "submissionValue": "Beta-2 Globulin/Total Protein", "synonyms": ["Beta-2 Globulin/Total Protein"]}, {"conceptId": "C103358", "definition": "A measurement of the Beta-2 glycoprotein 1 IgG antibodies in a biological specimen.", "preferredTerm": "Beta-2 Glycoprotein 1 IgG Antibody Measurement", "submissionValue": "Beta-2 Glycoprotein 1 IgG Antibody", "synonyms": ["Beta-2 Glycoprotein 1 IgG Antibody"]}, {"conceptId": "C103359", "definition": "A measurement of the Beta-2 glycoprotein 1 IgM antibodies in a biological specimen.", "preferredTerm": "Beta-2 Glycoprotein 1 IgM Antibody Measurement", "submissionValue": "Beta-2 Glycoprotein 1 IgM Antibody", "synonyms": ["Beta-2 Glycoprotein 1 IgM Antibody"]}, {"conceptId": "C81979", "definition": "A measurement of the beta-2 glycoprotein antibody in a biological specimen.", "preferredTerm": "Beta-2 Glycoprotein Antibody Measurement", "submissionValue": "Beta-2 Glycoprotein Antibody", "synonyms": ["Beta-2 Glycoprotein Antibody"]}, {"conceptId": "C81980", "definition": "A measurement of the beta-2 microglobulin in a biological specimen.", "preferredTerm": "Beta-2 Microglobulin Measurement", "submissionValue": "Beta-2 Microglobulin", "synonyms": ["Beta-2 Microglobulin"]}, {"conceptId": "C96568", "definition": "A measurement of the total Beta-hydroxybutyrate in a biological specimen.", "preferredTerm": "Beta-Hydroxybutyrate Measurement", "submissionValue": "Beta-Hydroxybutyrate", "synonyms": ["3-Hydroxybutyrate", "B-Hydroxybutyrate", "Beta-Hydroxybutyrate"]}, {"conceptId": "C100426", "definition": "A measurement of the beta-trace protein in a biological specimen.", "preferredTerm": "Beta-Trace Protein Measurement", "submissionValue": "Beta-Trace Protein", "synonyms": ["Beta-Trace Protein"]}, {"conceptId": "C122102", "definition": "A measurement of the beta-defensin 2 in a biological specimen.", "preferredTerm": "Beta-defensin 2 Measurement", "submissionValue": "Beta-defensin 2", "synonyms": ["Beta-defensin 2"]}, {"conceptId": "C74667", "definition": "A measurement of the bicarbonate in a biological specimen.", "preferredTerm": "Bicarbonate Measurement", "submissionValue": "Bicarbonate", "synonyms": ["Bicarbonate", "HCO3"]}, {"conceptId": "C74800", "definition": "A measurement of the total bile acids in a biological specimen.", "preferredTerm": "Bile Acid Measurement", "submissionValue": "Bile Acid", "synonyms": ["Bile Acid", "Bile Acids", "Bile Salt", "Bile Salts"]}, {"conceptId": "C38037", "definition": "A measurement of the total bilirubin in a biological specimen.", "preferredTerm": "Total Bilirubin Measurement", "submissionValue": "Bilirubin", "synonyms": ["Bilirubin", "Total Bilirubin"]}, {"conceptId": "C74668", "definition": "A measurement of the bilirubin crystals present in a biological specimen.", "preferredTerm": "Bilirubin Crystal Measurement", "submissionValue": "Bilirubin Crystals", "synonyms": ["Bilirubin Crystals"]}, {"conceptId": "C117860", "definition": "A measurement of bioavailable testosterone in a biological specimen.", "preferredTerm": "Bioavailable Testosterone Measurement", "submissionValue": "Bioavailable Testosterone", "synonyms": ["Bioavailable Testosterone"]}, {"conceptId": "C74700", "definition": "A measurement of the bite cells (erythrocytes with the appearance of a bite having been removed, due to oxidative hemolysis) in a biological specimen.", "preferredTerm": "Bite Cell Count", "submissionValue": "Bite Cells", "synonyms": ["Bite Cells"]}, {"conceptId": "C74634", "definition": "A relative measurement (ratio or percentage) of bite cells (erythrocytes with the appearance of a bite having been removed, due to oxidative hemolysis) to all erythrocytes in a biological specimen.", "preferredTerm": "Bite Cell to Erythrocyte Ratio Measurement", "submissionValue": "Bite Cells/Erythrocytes", "synonyms": ["Bite Cells/Erythrocytes"]}, {"conceptId": "C74605", "definition": "A measurement of the blast cells in a biological specimen.", "preferredTerm": "Blast Count", "submissionValue": "Blasts", "synonyms": ["Blasts"]}, {"conceptId": "C64487", "definition": "A relative measurement (ratio or percentage) of the blasts to leukocytes in a biological specimen.", "preferredTerm": "Blast to Leukocyte Ratio", "submissionValue": "Blasts/Leukocytes", "synonyms": ["Blasts/Leukocytes"]}, {"conceptId": "C89775", "definition": "A measurement of the time from the start to cessation of an induced bleed.", "preferredTerm": "Bleeding Time", "submissionValue": "Bleeding Time", "synonyms": ["Bleeding Time", "Clotting Time Homeostasis"]}, {"conceptId": "C61019", "definition": "A measurement of the urea nitrogen in a blood specimen.", "preferredTerm": "Blood Urea Nitrogen Measurement", "submissionValue": "Blood Urea Nitrogen", "synonyms": ["Blood Urea Nitrogen"]}, {"conceptId": "C92287", "definition": "A measurement of the bone specific alkaline phosphatase isoform in a biological specimen.", "preferredTerm": "Bone Specific Alkaline Phosphatase Measurement", "submissionValue": "Bone Specific Alkaline Phosphatase", "synonyms": ["Bone Specific Alkaline Phosphatase"]}, {"conceptId": "C122098", "definition": "A measurement of the total Borrelia burgdorferi antibody in a biological specimen.", "preferredTerm": "Borrelia burgdorferi Antibody Measurement", "submissionValue": "Borrelia burgdorferi Antibody", "synonyms": ["Borrelia burgdorferi Antibody", "Lyme Antibody"]}, {"conceptId": "C122099", "definition": "A measurement of the Borrelia burgdorferi IgA antibody in a biological specimen.", "preferredTerm": "Borrelia burgdorferi IgA Antibody Measurement", "submissionValue": "Borrelia burgdorferi IgA Antibody", "synonyms": ["Borrelia burgdorferi IgA Antibody", "Lyme IgA Antibody"]}, {"conceptId": "C122100", "definition": "A measurement of the Borrelia burgdorferi IgG antibody in a biological specimen.", "preferredTerm": "Borrelia burgdorferi IgG Antibody Measurement", "submissionValue": "Borrelia burgdorferi IgG Antibody", "synonyms": ["Borrelia burgdorferi IgG Antibody", "Lyme IgG Antibody"]}, {"conceptId": "C122101", "definition": "A measurement of the Borrelia burgdorferi IgM antibody in a biological specimen.", "preferredTerm": "Borrelia burgdorferi IgM Antibody Measurement", "submissionValue": "Borrelia burgdorferi IgM Antibody", "synonyms": ["Borrelia burgdorferi IgM Antibody", "Lyme IgM Antibody"]}, {"conceptId": "C74735", "definition": "A measurement of the brain (B-type) natriuretic peptide in a biological specimen.", "preferredTerm": "Brain Natriuretic Peptide Measurement", "submissionValue": "Brain Natriuretic Peptide", "synonyms": ["B-Type Natriuretic Peptide", "Brain Natriuretic Peptide"]}, {"conceptId": "C82004", "definition": "A measurement of the brain-derived neurotrophic factor in a biological specimen.", "preferredTerm": "Brain-Derived Neurotrophic Factor Measurement", "submissionValue": "Brain-Derived Neurotrophic Factor", "synonyms": ["Brain-Derived Neurotrophic Factor"]}, {"conceptId": "C96588", "definition": "A measurement of the broad casts in a biological specimen.", "preferredTerm": "Broad Casts Measurement", "submissionValue": "Broad Casts", "synonyms": ["Broad Casts"]}, {"conceptId": "C75352", "definition": "A measurement of the buprenorphine drug present in a biological specimen.", "preferredTerm": "Buprenorphine Measurement", "submissionValue": "Buprenorphine", "synonyms": ["Buprenorphine"]}, {"conceptId": "C74701", "definition": "A measurement of the Burr cells (erythrocytes characterized by the presence of small, blunt projections evenly distributed across the cell surface) in a biological specimen.", "preferredTerm": "Burr Cell Count", "submissionValue": "Burr Cells", "synonyms": ["Burr Cells", "Keratocytes"]}, {"conceptId": "C111142", "definition": "A measurement of the total butyrylcholinesterase in a biological specimen.", "preferredTerm": "Butyrylcholinesterase Measurement", "submissionValue": "Butyrylcholinesterase", "synonyms": ["Acylcholine Acylhydrolase", "Butyrylcholinesterase", "Non-neuronal Cholinesterase", "Plasma Cholinesterase", "Pseudocholinesterase"]}, {"conceptId": "C64548", "definition": "A measurement of the C reactive protein in a biological specimen.", "preferredTerm": "C-Reactive Protein Measurement", "submissionValue": "C Reactive Protein", "synonyms": ["C Reactive Protein"]}, {"conceptId": "C122103", "definition": "A measurement of the CCR5, chemokine (C-C motif) receptor type 5, in a biological specimen.", "preferredTerm": "C-C Chemokine Receptor Type 5 Measurement", "submissionValue": "C-C Chemokine Receptor Type 5", "synonyms": ["C-C Chemokine Receptor Type 5", "CD195"]}, {"conceptId": "C74736", "definition": "A measurement of the C (connecting) peptide of insulin in a biological specimen.", "preferredTerm": "C-peptide Measurement", "submissionValue": "C-peptide", "synonyms": ["C-peptide"]}, {"conceptId": "C103364", "definition": "A count of the CD1 expressing cells per unit of a biological specimen.", "preferredTerm": "CD1 Expressing Cell Measurement", "submissionValue": "CD1", "synonyms": ["CD1"]}, {"conceptId": "C111146", "definition": "A measurement of the CD10 expressing cells per unit in a biological specimen.", "preferredTerm": "CD10 Expressing Cell Count", "submissionValue": "CD10", "synonyms": ["CD10"]}, {"conceptId": "C105439", "definition": "A count of the CD11a expressing cells per unit of a biological specimen.", "preferredTerm": "CD11A Expressing Cell Count", "submissionValue": "CD11A", "synonyms": ["CD11A", "CD11a"]}, {"conceptId": "C105440", "definition": "A count of the CD11b expressing cells per unit of a biological specimen.", "preferredTerm": "CD11B Expressing Cell Count", "submissionValue": "CD11B", "synonyms": ["CD11B", "CD11b", "Complement Component 3 Receptor 3 Subunit", "Complement Receptor Type 3 Alpha Subunit", "ITGAM Protein", "Integrin Alpha-M"]}, {"conceptId": "C111147", "definition": "A measurement of the CD13 expressing cells per unit in a biological specimen.", "preferredTerm": "CD13 Expressing Cell Count", "submissionValue": "CD13", "synonyms": ["CD13"]}, {"conceptId": "C103365", "definition": "A count of the CD14 expressing cells per unit of a biological specimen.", "preferredTerm": "CD14 Expressing Cell Measurement", "submissionValue": "CD14", "synonyms": ["CD14"]}, {"conceptId": "C122105", "definition": "A relative measurement (ratio or percentage) of CD161 expressing cells to all lymphocytes in a biological specimen.", "preferredTerm": "CD161 to Lymphocyte Ratio Measurement", "submissionValue": "CD161/Lymphocytes", "synonyms": ["CD161/Lymphocytes"]}, {"conceptId": "C122104", "definition": "A relative measurement (ratio or percentage) of CD161a expressing cells to all lymphocytes in a biological specimen.", "preferredTerm": "CD161a to Lymphocyte Ratio Measurement", "submissionValue": "CD161a/Lymphocytes", "synonyms": ["CD161a/Lymphocytes"]}, {"conceptId": "C103808", "definition": "A count of the CD19 expressing cells per unit in a biological specimen.", "preferredTerm": "CD19 Expressing Cell Count", "submissionValue": "CD19", "synonyms": ["CD19"]}, {"conceptId": "C103812", "definition": "A relative measurement (ratio or percentage) of CD19 expressing cells to all lymphocytes in a biological specimen.", "preferredTerm": "CD19 Cell to Lymphocyte Ratio Measurement", "submissionValue": "CD19/Lymphocytes", "synonyms": ["CD19/Lymphocytes"]}, {"conceptId": "C103366", "definition": "A count of the CD2 expressing cells per unit of a biological specimen.", "preferredTerm": "CD2 Expressing Cell Measurement", "submissionValue": "CD2", "synonyms": ["CD2"]}, {"conceptId": "C103367", "definition": "A relative measurement (ratio or percentage) of CD2 expressing cells to all lymphocytes in a biological specimen.", "preferredTerm": "CD2 Expressing Cell to Lymphocyte Ratio Measurement", "submissionValue": "CD2/Lymphocytes", "synonyms": ["CD2/Lymphocytes"]}, {"conceptId": "C103368", "definition": "A count of the CD20 expressing cells per unit of a biological specimen.", "preferredTerm": "CD20 Expressing Cell Measurement", "submissionValue": "CD20", "synonyms": ["CD20"]}, {"conceptId": "C111148", "definition": "A measurement of the CD22 expressing cells per unit in a biological specimen.", "preferredTerm": "CD22 Expressing Cell Count", "submissionValue": "CD22", "synonyms": ["CD22"]}, {"conceptId": "C111149", "definition": "A measurement of the CD23 expressing cells per unit in a biological specimen.", "preferredTerm": "CD23 Expressing Cell Count", "submissionValue": "CD23", "synonyms": ["CD23"]}, {"conceptId": "C103809", "definition": "A count of the CD3 expressing cells per unit in a biological specimen.", "preferredTerm": "CD3 Expressing Cell Count", "submissionValue": "CD3", "synonyms": ["CD3"]}, {"conceptId": "C103813", "definition": "A relative measurement (ratio or percentage) of CD3 expressing cells to all lymphocytes in a biological specimen.", "preferredTerm": "CD3 Cell to Lymphocyte Ratio Measurement", "submissionValue": "CD3/Lymphocytes", "synonyms": ["CD3/Lymphocytes"]}, {"conceptId": "C111150", "definition": "A measurement of the CD33 expressing cells per unit in a biological specimen.", "preferredTerm": "CD33 Expressing Cell Count", "submissionValue": "CD33", "synonyms": ["CD33"]}, {"conceptId": "C102260", "definition": "A measurement of the CD34 expressing cells per unit in a biological specimen.", "preferredTerm": "CD34 Measurement", "submissionValue": "CD34", "synonyms": ["CD34"]}, {"conceptId": "C111151", "definition": "A measurement of the CD38 expressing cells per unit in a biological specimen.", "preferredTerm": "CD38 Expressing Cell Count", "submissionValue": "CD38", "synonyms": ["CD38"]}, {"conceptId": "C103810", "definition": "A count of the CD4 expressing cells per unit in a biological specimen.", "preferredTerm": "CD4 Expressing Cell Count", "submissionValue": "CD4", "synonyms": ["CD4"]}, {"conceptId": "C103814", "definition": "A relative measurement (ratio or percentage) of CD4 expressing cells to the CD8 expressing cells in a biological specimen.", "preferredTerm": "CD4 Cell to CD8 Cell Ratio Measurement", "submissionValue": "CD4/CD8", "synonyms": ["CD4/CD8"]}, {"conceptId": "C103815", "definition": "A relative measurement (ratio or percentage) of CD4 expressing cells to all lymphocytes in a biological specimen.", "preferredTerm": "CD4 Cell to Lymphocyte Ratio Measurement", "submissionValue": "CD4/Lymphocytes", "synonyms": ["CD4/Lymphocytes"]}, {"conceptId": "C82006", "definition": "A count of the CD40 cells per unit in a biological specimen.", "preferredTerm": "CD40 Measurement", "submissionValue": "CD40", "synonyms": ["CD40"]}, {"conceptId": "C82007", "definition": "A count of the CD40 ligand cells per unit in a biological specimen.", "preferredTerm": "CD40 Ligand Measurement", "submissionValue": "CD40 Ligand", "synonyms": ["CD40 Ligand"]}, {"conceptId": "C122106", "definition": "A relative measurement (ratio or percentage) of CD45 expressing cells to all lymphocytes in a biological specimen.", "preferredTerm": "CD45 to Lymphocyte Ratio Measurement", "submissionValue": "CD45/Lymphocytes", "synonyms": ["CD45/Lymphocytes"]}, {"conceptId": "C122107", "definition": "A relative measurement (ratio or percentage) of CD45RA expressing cells to all lymphocytes in a biological specimen.", "preferredTerm": "CD45RA to Lymphocyte Ratio Measurement", "submissionValue": "CD45RA/Lymphocytes", "synonyms": ["CD45RA/Lymphocytes"]}, {"conceptId": "C103369", "definition": "A count of the CD5 expressing cells per unit of a biological specimen.", "preferredTerm": "CD5 Expressing Cell Measurement", "submissionValue": "CD5", "synonyms": ["CD5"]}, {"conceptId": "C103370", "definition": "A count of the CD56 expressing cells per unit of a biological specimen.", "preferredTerm": "CD56 Expressing Cell Measurement", "submissionValue": "CD56", "synonyms": ["CD56"]}, {"conceptId": "C111152", "definition": "A measurement of the CD79A expressing cells per unit in a biological specimen.", "preferredTerm": "CD79A Expressing Cell Count", "submissionValue": "CD79A", "synonyms": ["CD79A"]}, {"conceptId": "C103811", "definition": "A count of the CD8 expressing cells per unit in a biological specimen.", "preferredTerm": "CD8 Expressing Cell Count", "submissionValue": "CD8", "synonyms": ["CD8"]}, {"conceptId": "C103816", "definition": "A relative measurement (ratio or percentage) of CD8 expressing cells to all lymphocytes in a biological specimen.", "preferredTerm": "CD8 Cell to Lymphocyte Ratio Measurement", "submissionValue": "CD8/Lymphocytes", "synonyms": ["CD8/Lymphocytes"]}, {"conceptId": "C98716", "definition": "A measurement of the cytomegalovirus viral load in a biological specimen.", "preferredTerm": "Cytomegalovirus Viral Load Measurement", "submissionValue": "CMV Viral Load", "synonyms": ["CMV Viral Load"]}, {"conceptId": "C74702", "definition": "A measurement of the Cabot rings (red-purple staining, threadlike, ring or figure 8 shaped filaments in an erythrocyte) in a biological specimen.", "preferredTerm": "Cabot Ring Count", "submissionValue": "Cabot Rings", "synonyms": ["Cabot Rings"]}, {"conceptId": "C75346", "definition": "A measurement of the caffeine in a biological specimen.", "preferredTerm": "Caffeine Measurement", "submissionValue": "Caffeine", "synonyms": ["Caffeine"]}, {"conceptId": "C74848", "definition": "A measurement of the calcitonin hormone in a biological specimen.", "preferredTerm": "Calcitonin Measurement", "submissionValue": "Calcitonin", "synonyms": ["Calcitonin"]}, {"conceptId": "C74849", "definition": "A measurement of the calcitriol hormone in a biological specimen.", "preferredTerm": "Calcitriol Measurement", "submissionValue": "Calcitriol", "synonyms": ["Calcitriol"]}, {"conceptId": "C64488", "definition": "A measurement of the calcium in a biological specimen.", "preferredTerm": "Calcium Measurement", "submissionValue": "Calcium", "synonyms": ["Calcium"]}, {"conceptId": "C103360", "definition": "A measurement of the product of the calcium and phosphate measurements in a biological specimen.", "preferredTerm": "Calcium and Phosphorus Product Measurement", "submissionValue": "Calcium - Phosphorus Product", "synonyms": ["Calcium - Phosphorus Product"]}, {"conceptId": "C74669", "definition": "A measurement of the calcium carbonate crystals present in a biological specimen.", "preferredTerm": "Calcium Carbonate Crystal Measurement", "submissionValue": "Calcium Carbonate Crystals", "synonyms": ["Calcium Carbonate Crystals"]}, {"conceptId": "C96589", "definition": "A measurement of the volume of serum or plasma that would be cleared of calcium by excretion of urine for a specified unit of time (e.g. one minute).", "preferredTerm": "Calcium Clearance Measurement", "submissionValue": "Calcium Clearance", "synonyms": ["Calcium Clearance"]}, {"conceptId": "C119272", "definition": "A measurement of calcium, which has been corrected for albumin, in a biological specimen.", "preferredTerm": "Calcium Corrected Measurement", "submissionValue": "Calcium Corrected", "synonyms": ["Calcium Corrected"]}, {"conceptId": "C117831", "definition": "A measurement of the amount of calcium being excreted in urine over a defined period of time (e.g. one hour).", "preferredTerm": "Calcium Urine Excretion Rate", "submissionValue": "Calcium Excretion Rate", "synonyms": ["Calcium Excretion Rate"]}, {"conceptId": "C74670", "definition": "A measurement of the calcium oxalate crystals present in a biological specimen.", "preferredTerm": "Calcium Oxalate Crystal Measurement", "submissionValue": "Calcium Oxalate Crystals", "synonyms": ["Calcium Oxalate Crystals"]}, {"conceptId": "C74671", "definition": "A measurement of the calcium phosphate crystals present in a biological specimen.", "preferredTerm": "Calcium Phosphate Crystal Measurement", "submissionValue": "Calcium Phosphate Crystals", "synonyms": ["Calcium Phosphate Crystals"]}, {"conceptId": "C96590", "definition": "A measurement of the calcium sulphate in a biological specimen.", "preferredTerm": "Calcium Sulphate Measurement", "submissionValue": "Calcium Sulphate", "synonyms": ["Calcium Sulphate"]}, {"conceptId": "C81948", "definition": "A measurement of the ionized calcium in a biological specimen.", "preferredTerm": "Ionized Calcium Measurement", "submissionValue": "Calcium, Ionized", "synonyms": ["Calcium, Ionized"]}, {"conceptId": "C79439", "definition": "A relative measurement (ratio or percentage) of the calcium to creatinine in a biological specimen.", "preferredTerm": "Calcium to Creatinine Ratio Measurement", "submissionValue": "Calcium/Creatinine", "synonyms": ["Calcium/Creatinine"]}, {"conceptId": "C82005", "definition": "A measurement of the calprotectin in a biological specimen.", "preferredTerm": "Calprotectin Measurement", "submissionValue": "Calprotectin", "synonyms": ["Calprotectin"]}, {"conceptId": "C103361", "definition": "A measurement of the cancer antigen 1 in a biological specimen.", "preferredTerm": "Cancer Antigen 1 Measurement", "submissionValue": "Cancer Antigen 1", "synonyms": ["Cancer Antigen 1"]}, {"conceptId": "C79089", "definition": "A measurement of the cancer antigen 125 in a biological specimen.", "preferredTerm": "CA-125 Measurement", "submissionValue": "Cancer Antigen 125", "synonyms": ["Cancer Antigen 125"]}, {"conceptId": "C103362", "definition": "A measurement of the cancer antigen 15-3 in a biological specimen.", "preferredTerm": "Cancer Antigen 15-3 Measurement", "submissionValue": "Cancer Antigen 15-3", "synonyms": ["Cancer Antigen 15-3"]}, {"conceptId": "C81982", "definition": "A measurement of the cancer antigen 19-9 in a biological specimen.", "preferredTerm": "Cancer Antigen 19-9 Measurement", "submissionValue": "Cancer Antigen 19-9", "synonyms": ["Cancer Antigen 19-9"]}, {"conceptId": "C111143", "definition": "A measurement of the cancer antigen 27-29 in a biological specimen.", "preferredTerm": "Cancer Antigen 27-29 Measurement", "submissionValue": "Cancer Antigen 27-29", "synonyms": ["Cancer Antigen 27-29"]}, {"conceptId": "C106505", "definition": "A measurement of the cancer antigen 72-4 in a biological specimen.", "preferredTerm": "Cancer Antigen 72-4 Measurement", "submissionValue": "Cancer Antigen 72-4", "synonyms": ["CA 72-4", "Cancer Antigen 72-4", "Carbohydrate Antigen 72-4"]}, {"conceptId": "C74689", "definition": "A measurement of any cannabinoid class drug present in a biological specimen.", "preferredTerm": "Cannabinoid Drug Class Measurement", "submissionValue": "Cannabinoids", "synonyms": ["Cannabinoids"]}, {"conceptId": "C101016", "definition": "A measurement of transferrin with a reduced number of carbohydrate moieties in a biological specimen.", "preferredTerm": "Carbohydrate-Deficient Transferrin Measurement", "submissionValue": "Carbohydrate-Deficient Transferrin", "synonyms": ["Carbohydrate-Deficient Transferrin"]}, {"conceptId": "C64545", "definition": "A measurement of the carbon dioxide gas in a biological specimen.", "preferredTerm": "Carbon Dioxide Measurement", "submissionValue": "Carbon Dioxide", "synonyms": ["Carbon Dioxide"]}, {"conceptId": "C96591", "definition": "A measurement of the carboxyhemoglobin, carbon monoxide-bound hemoglobin, in a biological specimen.", "preferredTerm": "Carboxyhemoglobin Measurement", "submissionValue": "Carboxyhemoglobin", "synonyms": ["Carboxyhemoglobin"]}, {"conceptId": "C81983", "definition": "A measurement of the carcinoembryonic antigen in a biological specimen.", "preferredTerm": "Carcinoembryonic Antigen Measurement", "submissionValue": "Carcinoembryonic Antigen", "synonyms": ["Carcinoembryonic Antigen"]}, {"conceptId": "C122112", "definition": "A measurement of the cardiolipin IgA antibody in a biological specimen.", "preferredTerm": "Cardiolipin IgA Antibody Measurement", "submissionValue": "Cardiolipin IgA Antibody", "synonyms": ["Cardiolipin IgA Antibody"]}, {"conceptId": "C111144", "definition": "A measurement of the cardiolipin IgG antibody in a biological specimen.", "preferredTerm": "Cardiolipin IgG Antibody Measurement", "submissionValue": "Cardiolipin IgG Antibody", "synonyms": ["Anti-Cardiolipin IgG Antibody", "Cardiolipin IgG Antibody"]}, {"conceptId": "C103363", "definition": "A measurement of the cardiolipin IgM antibodies in a biological specimen.", "preferredTerm": "Cardiolipin IgM Antibody Measurement", "submissionValue": "Cardiolipin IgM Antibody", "synonyms": ["Cardiolipin IgM Antibody"]}, {"conceptId": "C74682", "definition": "A measurement of the total carnitine in a biological specimen.", "preferredTerm": "Total Carnitine Measurement", "submissionValue": "Carnitine", "synonyms": ["Carnitine"]}, {"conceptId": "C92288", "definition": "A measurement of the carnitine acetyl transferase in a biological specimen.", "preferredTerm": "Carnitine Acetyl Transferase Measurement", "submissionValue": "Carnitine Acetyl Transferase", "synonyms": ["Carnitine Acetyl Transferase"]}, {"conceptId": "C74677", "definition": "A measurement of the free carnitine in a biological specimen.", "preferredTerm": "Free Carnitine Measurement", "submissionValue": "Carnitine, Free", "synonyms": ["Carnitine, Free"]}, {"conceptId": "C111145", "definition": "A measurement of the cartilage oligomeric matrix protein in a biological specimen.", "preferredTerm": "Cartilage Oligomeric Matrix Protein Measurement", "submissionValue": "Cartilage Oligomeric Matrix Protein", "synonyms": ["Cartilage Oligomeric Matrix Protein"]}, {"conceptId": "C74763", "definition": "A statement that indicates casts were looked for in a biological specimen.", "preferredTerm": "Cast Present Or Absent", "submissionValue": "Casts", "synonyms": ["Casts"]}, {"conceptId": "C120634", "definition": "A measurement of the total cathepsin antibody in a biological specimen.", "preferredTerm": "Cathepsin Antibody Measurement", "submissionValue": "Cathepsin Antibody", "synonyms": ["Cathepsin Antibody"]}, {"conceptId": "C74764", "definition": "A measurement of the cellular (white blood cell, red blood cell, epithelial and bacterial) casts present in a biological specimen.", "preferredTerm": "Cellular Cast Measurement", "submissionValue": "Cellular Casts", "synonyms": ["Cellular Casts"]}, {"conceptId": "C111153", "definition": "A measurement of the degree, quality or condition of cells in a biological specimen.", "preferredTerm": "Cellularity Measurement", "submissionValue": "Cellularity", "synonyms": ["Cellularity", "Cellularity Grade"]}, {"conceptId": "C111154", "definition": "A measurement of centromere B antibodies in a biological specimen.", "preferredTerm": "Centromere B Antibody Measurement", "submissionValue": "Centromere B Antibodies", "synonyms": ["Anti-Centromere B Antibodies"]}, {"conceptId": "C122111", "definition": "A measurement of the centromere IgG antibody in a biological specimen.", "preferredTerm": "Centromere IgG Antibody Measurement", "submissionValue": "Centromere IgG Antibody", "synonyms": ["Centromere IgG Antibody", "Centromere Protein B"]}, {"conceptId": "C100432", "definition": "A measurement of ceruloplasmin in a biological specimen.", "preferredTerm": "Ceruloplasmin Measurement", "submissionValue": "Ceruloplasmin", "synonyms": ["Caeruloplasmin", "Ceruloplasmin"]}, {"conceptId": "C112236", "definition": "A measurement of the CCL17, chemokine (C-C motif) ligand 17, in a biological specimen.", "preferredTerm": "Chemokine (C-C Motif) Ligand 17 Measurement", "submissionValue": "Chemokine (C-C Motif) Ligand 17", "synonyms": ["ABCD-2", "Chemokine (C-C Motif) Ligand 17", "SCYA17", "TARC", "Thymus and Activation Regulated Chemokine"]}, {"conceptId": "C112237", "definition": "A measurement of the CCL18, chemokine (C-C motif) ligand 18, in a biological specimen.", "preferredTerm": "Chemokine (C-C Motif) Ligand 18 Measurement", "submissionValue": "Chemokine (C-C Motif) Ligand 18", "synonyms": ["AMAC-1", "AMAC1", "CKB7", "Chemokine (C-C Motif) Ligand 18", "DC-CK1", "DCCK1", "MIP-4", "Macrophage inflammatory protein-4", "PARC", "Pulmonary and Activation-Regulated Chemokine", "SCYA18"]}, {"conceptId": "C112238", "definition": "A measurement of the CXCL10, chemokine (C-X-C motif) ligand 10, in a biological specimen.", "preferredTerm": "Chemokine (C-X-C Motif) Ligand 10 Measurement", "submissionValue": "Chemokine (C-X-C Motif) Ligand 10", "synonyms": ["Chemokine (C-X-C Motif) Ligand 10", "IP-10", "Interferon Gamma-induced Protein 10", "Small-inducible Cytokine B10"]}, {"conceptId": "C100431", "definition": "A measurement of the CXCR3, chemokine (C-X-C motif) receptor 3, in a biological specimen.", "preferredTerm": "Chemokine Receptor CXCR3 Measurement", "submissionValue": "Chemokine (C-X-C Motif) Receptor 3", "synonyms": ["CD183", "CXCR3", "Chemokine (C-X-C Motif) Receptor 3", "GPR9"]}, {"conceptId": "C92432", "definition": "A measurement of the Chlamydia pneumoniae IgA antibody in a biological specimen.", "preferredTerm": "Chlamydia pneumoniae IgA Antibody Measurement", "submissionValue": "Chlamydia pneumoniae IgA Antibody", "synonyms": ["Chlamydia pneumoniae IgA Antibody"]}, {"conceptId": "C92433", "definition": "A measurement of the Chlamydia pneumoniae IgM in a biological specimen.", "preferredTerm": "Chlamydia pneumoniae IgM Antibody Measurement", "submissionValue": "Chlamydia pneumoniae IgM Antibody", "synonyms": ["Chlamydia pneumoniae IgM Antibody"]}, {"conceptId": "C100464", "definition": "A measurement of the Chlamydia trachomatis IgA antibody in a biological specimen.", "preferredTerm": "Chlamydia trachomatis IgA Antibody Measurement", "submissionValue": "Chlamydia trachomatis IgA Antibody", "synonyms": ["Chlamydia trachomatis IgA Antibody"]}, {"conceptId": "C100466", "definition": "A measurement of the Chlamydia trachomatis IgG antibody in a biological specimen.", "preferredTerm": "Chlamydia trachomatis IgG Antibody Measurement", "submissionValue": "Chlamydia trachomatis IgG Antibody", "synonyms": ["Chlamydia trachomatis IgG Antibody"]}, {"conceptId": "C100465", "definition": "A measurement of the Chlamydia trachomatis IgM antibody in a biological specimen.", "preferredTerm": "Chlamydia trachomatis IgM Antibody Measurement", "submissionValue": "Chlamydia trachomatis IgM Antibody", "synonyms": ["Chlamydia trachomatis IgM Antibody"]}, {"conceptId": "C64495", "definition": "A measurement of the chloride in a biological specimen.", "preferredTerm": "Chloride Measurement", "submissionValue": "Chloride", "synonyms": ["Chloride"]}, {"conceptId": "C106509", "definition": "A measurement of the volume of serum or plasma that would be cleared of chloride by excretion of urine for a specified unit of time (e.g. one minute).", "preferredTerm": "Chloride Clearance Measurement", "submissionValue": "Chloride Clearance", "synonyms": ["Chloride Clearance"]}, {"conceptId": "C117832", "definition": "A measurement of the amount of chloride being excreted in urine over a defined period of time (e.g. one hour).", "preferredTerm": "Chloride Urine Excretion Rate", "submissionValue": "Chloride Excretion Rate", "synonyms": ["Chloride Excretion Rate"]}, {"conceptId": "C79440", "definition": "A relative measurement (ratio or percentage) of the chloride to creatinine in a biological specimen.", "preferredTerm": "Chloride to Creatinine Ratio Measurement", "submissionValue": "Chloride/Creatinine", "synonyms": ["Chloride/Creatinine"]}, {"conceptId": "C74850", "definition": "A measurement of the cholecystokinin hormone in a biological specimen.", "preferredTerm": "Cholecystokinin Measurement", "submissionValue": "Cholecystokinin", "synonyms": ["Cholecystokinin", "Pancreozymin"]}, {"conceptId": "C116194", "definition": "A measurement of the cholera toxin B subunit IgG antibody in a biological specimen.", "preferredTerm": "Cholera Toxin B Subunit IgG Antibody Measurement", "submissionValue": "Cholera Toxin B Subunit IgG Antibody", "synonyms": ["Cholera Toxin B Subunit IgG Antibody"]}, {"conceptId": "C105586", "definition": "A measurement of the cholesterol in a biological specimen.", "preferredTerm": "Cholesterol Measurement", "submissionValue": "Cholesterol", "synonyms": ["Cholesterol", "Total Cholesterol"]}, {"conceptId": "C74672", "definition": "A measurement of the cholesterol crystals present in a biological specimen.", "preferredTerm": "Cholesterol Crystal Measurement", "submissionValue": "Cholesterol Crystals", "synonyms": ["Cholesterol Crystals"]}, {"conceptId": "C80171", "definition": "A relative measurement (ratio or percentage) of total cholesterol to high-density lipoprotein cholesterol (HDL-C) in a biological specimen.", "preferredTerm": "Cholesterol to HDL-Cholesterol Ratio Measurement", "submissionValue": "Cholesterol/HDL-Cholesterol", "synonyms": ["Cholesterol/HDL-Cholesterol"]}, {"conceptId": "C120632", "definition": "A measurement of the cholesteryl ester transfer protein in a biological specimen.", "preferredTerm": "Cholesteryl Ester Transfer Protein Measurement", "submissionValue": "Cholesteryl Ester Transfer Protein", "synonyms": ["Cholesteryl Ester Transfer Protein"]}, {"conceptId": "C103380", "definition": "A measurement of the biological activity of cholesteryl ester transfer protein in a biological specimen.", "preferredTerm": "Cholesteryl Ester Transfer Protein Activity Measurement", "submissionValue": "Cholesteryl Ester Transfer Protein Act", "synonyms": ["Cholesteryl Ester Transfer Protein Act"]}, {"conceptId": "C92289", "definition": "A measurement of the cholinesterase in a biological specimen.", "preferredTerm": "Cholinesterase Measurement", "submissionValue": "Cholinesterase", "synonyms": ["Cholinesterase"]}, {"conceptId": "C64851", "definition": "A measurement of the Choriogonadotropin Beta in a biological specimen.", "preferredTerm": "Choriogonadotropin Beta Measurement", "submissionValue": "Choriogonadotropin Beta", "synonyms": ["Choriogonadotropin Beta", "Pregnancy Test"]}, {"conceptId": "C122108", "definition": "A measurement of the chromogranin A in a biological specimen.", "preferredTerm": "Chromogranin A Measurement", "submissionValue": "Chromogranin A", "synonyms": ["Chromogranin A"]}, {"conceptId": "C120633", "definition": "A measurement of the chylomicrons in a biological specimen.", "preferredTerm": "Chylomicrons Measurement", "submissionValue": "Chylomicrons", "synonyms": ["Chylomicrons"]}, {"conceptId": "C111159", "definition": "A measurement of the total chymotrypsin in a biological specimen.", "preferredTerm": "Chymotrypsin Measurement", "submissionValue": "Chymotrypsin", "synonyms": ["Chymotrypsin"]}, {"conceptId": "C96592", "definition": "A measurement of the circulating endothelial cells in a biological specimen.", "preferredTerm": "Circulating Endothelial Cell Count", "submissionValue": "Circulating Endothelial Cells", "synonyms": ["Circulating Endothelial Cells"]}, {"conceptId": "C96593", "definition": "A measurement of the circulating tumor cells in a biological specimen.", "preferredTerm": "Circulating Tumor Cell Count", "submissionValue": "Circulating Tumor Cells", "synonyms": ["Circulating Tumor Cells"]}, {"conceptId": "C92248", "definition": "A measurement of the citrate in a biological specimen.", "preferredTerm": "Citrate Measurement", "submissionValue": "Citrate", "synonyms": ["Citrate", "Citric Acid"]}, {"conceptId": "C122110", "definition": "A relative measurement (ratio or percentage) of the citrate to creatinine in a biological specimen.", "preferredTerm": "Citrate to Creatinine Ratio Measurement", "submissionValue": "Citrate/Creatinine", "synonyms": ["Citrate/Creatinine", "Citric Acid/Creatinine"]}, {"conceptId": "C122109", "definition": "A measurement of the citrulline in a biological specimen.", "preferredTerm": "Citrulline Measurement", "submissionValue": "Citrulline", "synonyms": ["Citrulline"]}, {"conceptId": "C96594", "definition": "A measurement of the transparency of a biological specimen.", "preferredTerm": "Clarity Measurement", "submissionValue": "Clarity", "synonyms": ["Clarity"]}, {"conceptId": "C103381", "definition": "A measurement of the Clostridium difficile toxin in a biological specimen.", "preferredTerm": "Clostridium difficile Toxin Measurement", "submissionValue": "Clostridium difficile Toxin", "synonyms": ["Clostridium difficile Toxin"]}, {"conceptId": "C103382", "definition": "A measurement of the Clostridium tetani IgG antibody in a biological specimen.", "preferredTerm": "Clostridium tetani IgG Antibody Measurement", "submissionValue": "Clostridium tetani IgG Antibody", "synonyms": ["Clostridium tetani IgG Antibody"]}, {"conceptId": "C102261", "definition": "A measurement of the clue cells in a biological specimen.", "preferredTerm": "Clue Cell Count", "submissionValue": "Clue Cells", "synonyms": ["Clue Cells"]}, {"conceptId": "C112239", "definition": "A measurement of the efficiency of coagulation of a biological specimen. This is calculated by a mathematical formula that takes into account the R value, K value, angle and maximum amplitude of clot formation.", "preferredTerm": "Coagulation Index Measurement", "submissionValue": "Coagulation Index", "synonyms": ["CI", "Coagulation Index"]}, {"conceptId": "C74690", "definition": "A measurement of the cocaine present in a biological specimen.", "preferredTerm": "Cocaine Measurement", "submissionValue": "Cocaine", "synonyms": ["Cocaine"]}, {"conceptId": "C111160", "definition": "A measurement of the coccidioides antibody in a biological specimen.", "preferredTerm": "Coccidioides Antibody Measurement", "submissionValue": "Coccidioides Antibody", "synonyms": ["Coccidioides Antibody"]}, {"conceptId": "C74877", "definition": "A measurement of the codeine present in a biological specimen.", "preferredTerm": "Codeine Measurement", "submissionValue": "Codeine", "synonyms": ["Codeine"]}, {"conceptId": "C103383", "definition": "A measurement of the collagen type IV in a biological specimen.", "preferredTerm": "Collagen Type IV Measurement", "submissionValue": "Collagen Type IV", "synonyms": ["Collagen Type IV"]}, {"conceptId": "C64546", "definition": "A measurement of the color of a biological specimen.", "preferredTerm": "Color Assessment", "submissionValue": "Color", "synonyms": ["Color"]}, {"conceptId": "C80172", "definition": "A measurement of the Bb fragment of complement factor B in a biological specimen.", "preferredTerm": "Complement Bb Measurement", "submissionValue": "Complement Bb", "synonyms": ["Bb Fragment of Complement Factor B", "Bb Fragment of Factor B", "Complement Bb"]}, {"conceptId": "C80173", "definition": "A measurement of the complement C1q antibody in a biological specimen.", "preferredTerm": "Complement C1q Antibody Measurement", "submissionValue": "Complement C1q Antibody", "synonyms": ["Complement C1q Antibody"]}, {"conceptId": "C80174", "definition": "A measurement of the complement C3 in a biological specimen.", "preferredTerm": "Complement C3 Measurement", "submissionValue": "Complement C3", "synonyms": ["Complement C3"]}, {"conceptId": "C80175", "definition": "A measurement of the complement C3a in a biological specimen.", "preferredTerm": "Complement C3a Measurement", "submissionValue": "Complement C3a", "synonyms": ["ASP, Complement C3 DesArg, Acetylation-stimulating Protein", "Complement C3a"]}, {"conceptId": "C80176", "definition": "A measurement of the complement C3b in a biological specimen.", "preferredTerm": "Complement C3b Measurement", "submissionValue": "Complement C3b", "synonyms": ["Complement C3b"]}, {"conceptId": "C119271", "definition": "A measurement of the complement C3d antibody in a biological specimen.", "preferredTerm": "Complement C3d Antibody Measurement", "submissionValue": "Complement C3d Antibody", "synonyms": ["Complement C3d Antibody"]}, {"conceptId": "C80177", "definition": "A measurement of the complement C4 in a biological specimen.", "preferredTerm": "Complement C4 Measurement", "submissionValue": "Complement C4", "synonyms": ["Complement C4"]}, {"conceptId": "C80178", "definition": "A measurement of the complement C4a in a biological specimen.", "preferredTerm": "Complement C4a Measurement", "submissionValue": "Complement C4a", "synonyms": ["Complement C4a"]}, {"conceptId": "C80179", "definition": "A measurement of the complement C5a in a biological specimen.", "preferredTerm": "Complement C5a Measurement", "submissionValue": "Complement C5a", "synonyms": ["Complement C5a"]}, {"conceptId": "C100423", "definition": "A measurement of the complement required to lyse 50 percent of red blood cells in a biological specimen.", "preferredTerm": "CH50 Measurement", "submissionValue": "Complement CH50", "synonyms": ["CH50", "Complement CH50", "Total Hemolytic Complement"]}, {"conceptId": "C80160", "definition": "A measurement of the total complement in a biological specimen.", "preferredTerm": "Complement Measurement", "submissionValue": "Complement Total", "synonyms": ["Complement Total"]}, {"conceptId": "C111161", "definition": "A measurement of copper in a biological specimen.", "preferredTerm": "Copper Measurement", "submissionValue": "Copper", "synonyms": ["Copper", "Cu"]}, {"conceptId": "C79434", "definition": "A measurement of corticosterone in a biological specimen.", "preferredTerm": "Corticosterone Measurement", "submissionValue": "Corticosterone", "synonyms": ["Corticosterone"]}, {"conceptId": "C106511", "definition": "A relative measurement (ratio or percentage) of the corticosterone to creatinine present in a sample.", "preferredTerm": "Corticosterone to Creatinine Ratio Measurement", "submissionValue": "Corticosterone/Creatinine", "synonyms": ["Corticosterone/Creatinine"]}, {"conceptId": "C74851", "definition": "A measurement of the corticotropin releasing hormone in a biological specimen.", "preferredTerm": "Corticotropin Releasing Hormone Measurement", "submissionValue": "Corticotropin Releasing Hormone", "synonyms": ["Corticotropin Releasing Factor", "Corticotropin Releasing Hormone"]}, {"conceptId": "C74781", "definition": "A measurement of the cortisol in a biological specimen.", "preferredTerm": "Cortisol Measurement", "submissionValue": "Cortisol", "synonyms": ["Cortisol", "Total Cortisol"]}, {"conceptId": "C88113", "definition": "A measurement of the free, unbound cortisol in a biological specimen.", "preferredTerm": "Free Cortisol Measurement", "submissionValue": "Cortisol, Free", "synonyms": ["Cortisol, Free"]}, {"conceptId": "C106512", "definition": "A relative measurement (ratio or percentage) of the cortisol to creatinine present in a sample.", "preferredTerm": "Cortisol to Creatinine Ratio Measurement", "submissionValue": "Cortisol/Creatinine", "synonyms": ["Cortisol/Creatinine"]}, {"conceptId": "C92249", "definition": "A measurement of the cotinine in a biological specimen.", "preferredTerm": "Cotinine Measurement", "submissionValue": "Cotinine", "synonyms": ["Cotinine"]}, {"conceptId": "C64489", "definition": "A measurement of the total creatine kinase in a biological specimen.", "preferredTerm": "Creatine Kinase Measurement", "submissionValue": "Creatine Kinase", "synonyms": ["Creatine Kinase"]}, {"conceptId": "C64490", "definition": "A measurement of the homozygous B-type creatine kinase in a biological specimen.", "preferredTerm": "Creatine Kinase BB Measurement", "submissionValue": "Creatine Kinase BB", "synonyms": ["Creatine Kinase BB"]}, {"conceptId": "C79466", "definition": "A relative measurement (ratio or percentage) of the BB-type creatine kinase to total creatine kinase in a biological specimen.", "preferredTerm": "Creatine Kinase BB to Total Creatine Kinase Ratio Measurement", "submissionValue": "Creatine Kinase BB/Total Creatine Kinase", "synonyms": ["Creatine Kinase BB/Total Creatine Kinase"]}, {"conceptId": "C64491", "definition": "A measurement of the heterozygous MB-type creatine kinase in a biological specimen.", "preferredTerm": "Creatine Kinase MB Measurement", "submissionValue": "Creatine Kinase MB", "synonyms": ["Creatine Kinase MB"]}, {"conceptId": "C79441", "definition": "A relative measurement (ratio or percentage) of the MB-type creatine kinase to total creatine kinase in a biological specimen.", "preferredTerm": "Creatine Kinase MB to Total Creatine Kinase Ratio Measurement", "submissionValue": "Creatine Kinase MB/Total Creatine Kinase", "synonyms": ["Creatine Kinase MB/Total Creatine Kinase"]}, {"conceptId": "C64494", "definition": "A measurement of the homozygous M-type creatine kinase in a biological specimen.", "preferredTerm": "Creatine Kinase MM Measurement", "submissionValue": "Creatine Kinase MM", "synonyms": ["Creatine Kinase MM"]}, {"conceptId": "C79442", "definition": "A relative measurement (ratio or percentage) of the MM-type creatine kinase to total creatine kinase in a biological specimen.", "preferredTerm": "Creatine Kinase MM to Total Creatine Kinase Ratio Measurement", "submissionValue": "Creatine Kinase MM/Total Creatine Kinase", "synonyms": ["Creatine Kinase MM/Total Creatine Kinase"]}, {"conceptId": "C64547", "definition": "A measurement of the creatinine in a biological specimen.", "preferredTerm": "Creatinine Measurement", "submissionValue": "Creatinine", "synonyms": ["Creatinine"]}, {"conceptId": "C25747", "definition": "A measurement of the volume of serum or plasma that would be cleared of creatinine by excretion of urine for a specified unit of time (e.g. one minute).", "preferredTerm": "Creatinine Clearance", "submissionValue": "Creatinine Clearance", "synonyms": ["Creatinine Clearance"]}, {"conceptId": "C117833", "definition": "A measurement of the amount of creatinine being excreted in urine over a defined amount of time (e.g. one hour).", "preferredTerm": "Creatinine Urine Excretion Rate", "submissionValue": "Creatinine Excretion Rate", "synonyms": ["Creatinine Excretion Rate"]}, {"conceptId": "C74703", "definition": "A measurement of the Burr cells (erythrocytes characterized by the presence of multiple small, sharp projections evenly distributed across the cell surface) in a biological specimen.", "preferredTerm": "Crenated Cell Measurement", "submissionValue": "Crenated Cells", "synonyms": ["Crenated Cells", "Echinocytes"]}, {"conceptId": "C111164", "definition": "A measurement of cryoglobulin in a biological specimen.", "preferredTerm": "Cryoglobulin Measurement", "submissionValue": "Cryoglobulin", "synonyms": ["Cryoglobulin"]}, {"conceptId": "C74673", "definition": "A statement that indicates crystals were looked for in a biological specimen.", "preferredTerm": "Crystal Present Or Absent", "submissionValue": "Crystals", "synonyms": ["Crystals"]}, {"conceptId": "C96595", "definition": "A measurement of the cyclic citrullinated peptide antibody in a biological specimen.", "preferredTerm": "Cyclic Citrullinated Peptide Antibody Measurement", "submissionValue": "Cyclic Citrullinated Peptide Antibody", "synonyms": ["Cyclic Citrullinated Peptide Antibody"]}, {"conceptId": "C111165", "definition": "A measurement of the cyclic guanosine 3,5-monophosphate in a biological specimen.", "preferredTerm": "Cyclic Guanosine Monophosphate Measurement", "submissionValue": "Cyclic Guanosine Monophosphate", "synonyms": ["Cyclic Guanosine 3,5-Monophosphate"]}, {"conceptId": "C92290", "definition": "A measurement of the cystatin C in a biological specimen.", "preferredTerm": "Cystatin C Measurement", "submissionValue": "Cystatin C", "synonyms": ["Cystatin C"]}, {"conceptId": "C106513", "definition": "A relative measurement (ratio or percentage) of the cystatin C to creatinine present in a sample.", "preferredTerm": "Cystatin C to Creatinine Ratio Measurement", "submissionValue": "Cystatin C/Creatinine", "synonyms": ["Cystatin C/Creatinine"]}, {"conceptId": "C105441", "definition": "A measurement of the cystine in a biological specimen.", "preferredTerm": "Cystine Measurement", "submissionValue": "Cystine", "synonyms": ["Cystine"]}, {"conceptId": "C74674", "definition": "A measurement of the cystine crystals present in a biological specimen.", "preferredTerm": "Cystine Crystal Measurement", "submissionValue": "Cystine Crystals", "synonyms": ["Cystine Crystals"]}, {"conceptId": "C106514", "definition": "A measurement of the cytokeratin 19 fragment 21-1 in a biological specimen.", "preferredTerm": "Cytokeratin Fragment 21-1 Measurement", "submissionValue": "Cytokeratin Fragment 21-1", "synonyms": ["CYFRA21-1", "Cytokeratin 19 Fragment", "Cytokeratin Fragment 21-1"]}, {"conceptId": "C96596", "definition": "A measurement of the cytomegalovirus IgG antibody in a biological specimen.", "preferredTerm": "Cytomegalovirus IgG Antibody Measurement", "submissionValue": "Cytomegalovirus IgG Antibody", "synonyms": ["Cytomegalovirus IgG Antibody"]}, {"conceptId": "C96597", "definition": "A measurement of the cytomegalovirus IgM antibody in a biological specimen.", "preferredTerm": "Cytomegalovirus IgM Antibody Measurement", "submissionValue": "Cytomegalovirus IgM Antibody", "synonyms": ["Cytomegalovirus IgM Antibody"]}, {"conceptId": "C111166", "definition": "A measurement of the neutrophils in a biological specimen showing a dark staining pattern in the cytoplasm due to increased acidic content.", "preferredTerm": "Cytoplasmic Basophilia Neutrophil Count", "submissionValue": "Cytoplasmic Basophilia Neutrophil", "synonyms": ["Cytoplasmic Basophilia Neutrophil"]}, {"conceptId": "C82621", "definition": "A measurement of the d-dimers in a biological specimen.", "preferredTerm": "D-Dimer Measurement", "submissionValue": "D-Dimer", "synonyms": ["D-Dimer"]}, {"conceptId": "C100463", "definition": "A measurement of Dnase-B antibody in a biological specimen.", "preferredTerm": "DNase-B Antibody Measurement", "submissionValue": "DNase-B Antibody", "synonyms": ["Anti-Dnase B", "DNase-B Antibody"]}, {"conceptId": "C100441", "definition": "A measurement of the volume of serum or plasma that would be cleared of Diethylenetriamine pentaacetate (DTPA) through its excretion for a specified unit of time.", "preferredTerm": "Diethylene Triamine Pentaacetic Acid Clearance", "submissionValue": "DTPA Clearance", "synonyms": ["DTPA Clearance"]}, {"conceptId": "C64801", "definition": "A measurement of dacryocytes in a biological specimen.", "preferredTerm": "Dacryocyte Analysis", "submissionValue": "Dacryocytes", "synonyms": ["Dacryocytes", "Tear Shaped Erythrocytes", "Teardrop Cells"]}, {"conceptId": "C111190", "definition": "A measurement of the degenerated leukocytes (leukocytes that show deterioration in form or function) in a biological specimen.", "preferredTerm": "Degenerated Leukocyte Count", "submissionValue": "Degenerated Leukocytes", "synonyms": ["Degenerated Leukocytes", "Degenerated WBC", "Degenerated White Blood Cells"]}, {"conceptId": "C74852", "definition": "A measurement of the dehydroepiandrosterone hormone in a biological specimen.", "preferredTerm": "Dehydroepiandrosterone Measurement", "submissionValue": "Dehydroepiandrosterone", "synonyms": ["Dehydroepiandrosterone", "Dehydroisoandrosterone"]}, {"conceptId": "C96629", "definition": "A measurement of the sulfated Dehydroepiandrosterone in a biological specimen.", "preferredTerm": "Sulfated DHEA Measurement", "submissionValue": "Dehydroepiandrosterone Sulfate", "synonyms": ["DHEA Sulfate", "DHEA-S", "Dehydroepiandrosterone Sulfate", "sDHEA"]}, {"conceptId": "C45781", "definition": "A measurement of the compactness of a biological specimen expressed in mass per unit volume.", "preferredTerm": "Density", "submissionValue": "Density", "synonyms": ["Density"]}, {"conceptId": "C79443", "definition": "A measurement of the deoxypyridinoline in a biological specimen.", "preferredTerm": "Deoxypyridinoline Measurement", "submissionValue": "Deoxypyridinoline", "synonyms": ["Deoxypyridinoline"]}, {"conceptId": "C79444", "definition": "A relative measurement (ratio or percentage) of the deoxypyridinoline to creatinine in a biological specimen.", "preferredTerm": "Deoxypyridinoline to Creatinine Ratio Measurement", "submissionValue": "Deoxypyridinoline/Creatinine", "synonyms": ["Deoxypyridinoline/Creatinine"]}, {"conceptId": "C122114", "definition": "A measurement of the desmoglein 1 antibody in a biological specimen.", "preferredTerm": "Desmoglein 1 Antibody Measurement", "submissionValue": "Desmoglein 1 Antibody", "synonyms": ["Desmoglein 1 Antibody"]}, {"conceptId": "C122115", "definition": "A measurement of the desmoglein 3 antibody in a biological specimen.", "preferredTerm": "Desmoglein 3 Antibody Measurement", "submissionValue": "Desmoglein 3 Antibody", "synonyms": ["Desmoglein 3 Antibody"]}, {"conceptId": "C102262", "definition": "A measurement of the dextroamphetamine in a biological specimen.", "preferredTerm": "Dextroamphetamine Measurement", "submissionValue": "Dextroamphetamine", "synonyms": ["Dextroamphetamine", "d-amphetamine"]}, {"conceptId": "C74878", "definition": "A measurement of the dihydrocodeine present in a biological specimen.", "preferredTerm": "Dihydrocodeine Measurement", "submissionValue": "Dihydrocodeine", "synonyms": ["Dihydrocodeine"]}, {"conceptId": "C74853", "definition": "A measurement of the dihydrotestosterone hormone in a biological specimen.", "preferredTerm": "Dihydrotestosterone Measurement", "submissionValue": "Dihydrotestosterone", "synonyms": ["Androstanalone", "Dihydrotestosterone"]}, {"conceptId": "C96696", "definition": "A measurement of the time it takes a plasma sample to clot after adding dilute Russell's viper venom.", "preferredTerm": "Dilute Russell's Viper Venom Time Measurement", "submissionValue": "Dilute Russell's Viper Venom Time", "synonyms": ["Dilute Russell's Viper Venom Time", "Lupus Anticoagulant Test"]}, {"conceptId": "C103386", "definition": "A relative measurement (ratio or percentage) of the dilute Russell's viper venom time in a subject sample to a control sample.", "preferredTerm": "Dilute Russell's Viper Venom Time to Control Ratio Measurement", "submissionValue": "Dilute Russell's Viper Venom Time Ratio", "synonyms": ["Lupus Anticoagulant Ratio"]}, {"conceptId": "C117853", "definition": "Examination of a biological specimen to detect the presence of dimorphic erythrocyte population.", "preferredTerm": "Dimorphic Erythrocyte Population", "submissionValue": "Dimorphic Erythrocyte Population", "synonyms": ["Dimorphic Erythrocyte Population", "Dimorphic RBC Population"]}, {"conceptId": "C103387", "definition": "A measurement of the biological activity of dipeptidyl peptidase-4 in a biological specimen.", "preferredTerm": "Dipeptidyl Peptidase-4 Activity Measurement", "submissionValue": "Dipeptidyl Peptidase-4 Activity", "synonyms": ["DPPIV Activity"]}, {"conceptId": "C103388", "definition": "A measurement of the Diphtheria IgG antibodies in a biological specimen.", "preferredTerm": "Diphtheria IgG Antibody Measurement", "submissionValue": "Diphtheria IgG Antibody", "synonyms": ["Diphtheria IgG Antibody"]}, {"conceptId": "C64481", "definition": "A measurement of the conjugated or water-soluble bilirubin in a biological specimen.", "preferredTerm": "Direct Bilirubin Measurement", "submissionValue": "Direct Bilirubin", "synonyms": ["Direct Bilirubin"]}, {"conceptId": "C74610", "definition": "A measurement of the Dohle bodies (blue-gray, basophilic, leukocyte inclusions located in the peripheral cytoplasm of neutrophils) in a biological specimen.", "preferredTerm": "Dohle Body Measurement", "submissionValue": "Dohle Bodies", "synonyms": ["Dohle Bodies"]}, {"conceptId": "C74854", "definition": "A measurement of the dopamine hormone in a biological specimen.", "preferredTerm": "Dopamine Measurement", "submissionValue": "Dopamine", "synonyms": ["Dopamine"]}, {"conceptId": "C78139", "definition": "An indication of the presence or absence of recreational drugs or drugs of abuse in a biological specimen.", "preferredTerm": "Drug Test", "submissionValue": "Drug Screen", "synonyms": ["Drug Screen"]}, {"conceptId": "C106519", "definition": "An assessment of Epstein-Barr virus infection based on a panel of EBV antigen antibody tests.", "preferredTerm": "Epstein-Barr Virus Profile Interpretation", "submissionValue": "EBV Profile Interpretation", "synonyms": ["EBV Profile Interpretation", "Epstein-Barr Virus Antibody Profile", "Epstein-Barr Virus Panel", "Epstein-Barr Virus Profile Interpretation"]}, {"conceptId": "C98721", "definition": "A measurement of the Epstein-Barr virus viral load in a biological specimen.", "preferredTerm": "Epstein-Barr Virus Viral Load Measurement", "submissionValue": "EBV Viral Load", "synonyms": ["EBV Viral Load"]}, {"conceptId": "C100440", "definition": "A measurement of the volume of serum or plasma that would be cleared of Ethylenediamine tetraacetic acid (EDTA) through its excretion for a specified unit of time.", "preferredTerm": "EDTA Clearance", "submissionValue": "EDTA Clearance", "synonyms": ["EDTA Clearance"]}, {"conceptId": "C102263", "definition": "A measurement of the area under the thrombin generation curve.", "preferredTerm": "Endogenous Thrombin Potential Area Under Curve Measurement", "submissionValue": "ETP Area Under Curve", "synonyms": ["ETP Area Under Curve", "Endogenous Thrombin Potential Area Under Curve"]}, {"conceptId": "C102264", "definition": "A measurement of time from the start of the thrombin generation test to the point where a predetermined amount of thrombin is generated.", "preferredTerm": "Endogenous Thrombin Potential Lag Time Measurement", "submissionValue": "ETP Lag Time", "synonyms": ["ETP Lag Time", "Endogenous Thrombin Potential Lag Time"]}, {"conceptId": "C102265", "definition": "A relative measurement (ratio or percentage) of time from the start of the thrombin generation test to the point where a predetermined amount of thrombin is generated.", "preferredTerm": "Endogenous Thrombin Potential Lag Time Relative Measurement", "submissionValue": "ETP Lag Time Relative", "synonyms": ["ETP Lag Time Relative", "Endogenous Thrombin Potential Lag Time Relative"]}, {"conceptId": "C102267", "definition": "A measurement of the maximum concentration of thrombin generated during a thrombin generation test.", "preferredTerm": "Endogenous Thrombin Potential Peak Height Measurement", "submissionValue": "ETP Peak Height", "synonyms": ["ETP Peak Height", "Endogenous Thrombin Potential Peak Height"]}, {"conceptId": "C102268", "definition": "A relative (ratio or percentage) of the maximum concentration of thrombin generated during a thrombin generation test.", "preferredTerm": "Endogenous Thrombin Potential Peak Height Relative Measurement", "submissionValue": "ETP Peak Height Relative", "synonyms": ["ETP Peak Height Relative", "Endogenous Thrombin Potential Peak Height Relative"]}, {"conceptId": "C102269", "definition": "A measurement of the time it takes to generate the maximum concentration of thrombin.", "preferredTerm": "Endogenous Thrombin Potential Time to Peak Measurement", "submissionValue": "ETP Time to Peak", "synonyms": ["ETP Time to Peak", "Endogenous Thrombin Potential Time to Peak"]}, {"conceptId": "C102270", "definition": "A relative (ratio or percentage) measurement of the time it takes to generate the maximum concentration of thrombin.", "preferredTerm": "Endogenous Thrombin Potential Time to Peak Relative Measurement", "submissionValue": "ETP Time to Peak Relative", "synonyms": ["ETP Time to Peak Relative", "Endogenous Thrombin Potential Time to Peak Relative"]}, {"conceptId": "C100422", "definition": "A measurement of the activity of thrombin inhibitors in a biological specimen based on the generation of meizothrombin.", "preferredTerm": "Ecarin Clotting Time Measurement", "submissionValue": "Ecarin Clotting Time", "synonyms": ["Ecarin Clotting Time"]}, {"conceptId": "C96598", "definition": "A measurement of the eccentrocytes (erythrocytes in which the hemoglobin is localized to a particular portion of the cell, noticeable as localized staining) in a biological specimen.", "preferredTerm": "Eccentrocyte Count", "submissionValue": "Eccentrocytes", "synonyms": ["Eccentrocytes"]}, {"conceptId": "C64549", "definition": "A measurement of the elliptically shaped erythrocytes in a biological specimen.", "preferredTerm": "Elliptocyte Count", "submissionValue": "Elliptocytes", "synonyms": ["Elliptocytes", "Ovalocytes"]}, {"conceptId": "C102266", "definition": "A measurement of the total concentration of thrombin generated in the presence of a substrate in a plasma or blood sample.", "preferredTerm": "Endogenous Thrombin Potential Measurement", "submissionValue": "Endogenous Thrombin Potential", "synonyms": ["Endogenous Thrombin Potential"]}, {"conceptId": "C82008", "definition": "A measurement of the endothelin-1 in a biological specimen.", "preferredTerm": "Endothelin-1 Measurement", "submissionValue": "Endothelin-1", "synonyms": ["Endothelin-1"]}, {"conceptId": "C84819", "definition": "A measurement of the eosinphilic metamyelocytes in a biological specimen.", "preferredTerm": "Eosinophilic Metamyelocyte Count", "submissionValue": "Eosinophilic Metamyelocytes", "synonyms": ["Eosinophilic Metamyelocytes"]}, {"conceptId": "C84821", "definition": "A measurement of the eosinophilic myelocytes in a biological specimen.", "preferredTerm": "Eosinophilic Myelocyte Count", "submissionValue": "Eosinophilic Myelocytes", "synonyms": ["Eosinophilic Myelocytes"]}, {"conceptId": "C64550", "definition": "A measurement of the eosinophils in a biological specimen.", "preferredTerm": "Eosinophil Count", "submissionValue": "Eosinophils", "synonyms": ["Eosinophils"]}, {"conceptId": "C114216", "definition": "A measurement of the banded eosinophils in a biological specimen.", "preferredTerm": "Eosinophil Band Form Count", "submissionValue": "Eosinophils Band Form", "synonyms": ["Eosinophils Band Form"]}, {"conceptId": "C114217", "definition": "A relative measurement (ratio or percentage) of the banded eosinophils to leukocytes in a biological specimen.", "preferredTerm": "Eosinophil Band Form to Leukocyte Ratio", "submissionValue": "Eosinophils Band Form/Leukocytes", "synonyms": ["Eosinophils Band Form/Leukocytes"]}, {"conceptId": "C64604", "definition": "A relative measurement (ratio or percentage) of the eosinophils to leukocytes in a biological specimen.", "preferredTerm": "Eosinophil to Leukocyte Ratio", "submissionValue": "Eosinophils/Leukocytes", "synonyms": ["Eosinophils/Leukocytes"]}, {"conceptId": "C98720", "definition": "A relative measurement (ratio or percentage) of the eosinophils to total cells in a biological specimen (for example a bone marrow specimen).", "preferredTerm": "Eosinophils to Total Cell Ratio Measurement", "submissionValue": "Eosinophils/Total Cells", "synonyms": ["Eosinophils/Total Cells"]}, {"conceptId": "C81952", "definition": "A measurement of the eotaxin-1 in a biological specimen.", "preferredTerm": "Eotaxin-1 Measurement", "submissionValue": "Eotaxin-1", "synonyms": ["Chemokine Ligand 11", "Eotaxin-1"]}, {"conceptId": "C81953", "definition": "A measurement of the eotaxin-2 in a biological specimen.", "preferredTerm": "Eotaxin-2 Measurement", "submissionValue": "Eotaxin-2", "synonyms": ["Chemokine Ligand 24", "Eotaxin-2"]}, {"conceptId": "C81954", "definition": "A measurement of the eotaxin-3 in a biological specimen.", "preferredTerm": "Eotaxin-3 Measurement", "submissionValue": "Eotaxin-3", "synonyms": ["CCL26", "Chemokine (C-C Motif) Ligand 26", "Chemokine Ligand 26", "Eotaxin-3"]}, {"conceptId": "C82009", "definition": "A measurement of the epidermal growth factor in a biological specimen.", "preferredTerm": "Epidermal Growth Factor Measurement", "submissionValue": "Epidermal Growth Factor", "synonyms": ["Epidermal Growth Factor"]}, {"conceptId": "C112273", "definition": "A measurement of the cells with positive expression of EGFR in a biological specimen.", "preferredTerm": "Epidermal Growth Factor Receptor Measurement", "submissionValue": "Epidermal Growth Factor Receptor", "synonyms": ["ERBB1", "Epidermal Growth Factor Receptor", "HER1"]}, {"conceptId": "C79445", "definition": "A measurement of the epinephrine hormone in a biological specimen.", "preferredTerm": "Epinephrine Measurement", "submissionValue": "Epinephrine", "synonyms": ["Adrenaline", "Epinephrine"]}, {"conceptId": "C82010", "definition": "A measurement of the epithelial neutrophil-activating peptide in a biological specimen.", "preferredTerm": "Epithelial Neutrophil-Activating Peptide 78 Measurement", "submissionValue": "Epith Neutrophil-Activating Peptide 78", "synonyms": ["Epith Neutrophil-Activating Peptide 78"]}, {"conceptId": "C74779", "definition": "A measurement of the epithelial cell casts present in a biological specimen.", "preferredTerm": "Epithelial-Cast Measurement", "submissionValue": "Epithelial Casts", "synonyms": ["Epithelial Casts"]}, {"conceptId": "C64605", "definition": "A measurement of the epithelial cells in a biological specimen.", "preferredTerm": "Epithelial Cell Count", "submissionValue": "Epithelial Cells", "synonyms": ["Epithelial Cells"]}, {"conceptId": "C96600", "definition": "A measurement of the Epstein-Barr capsid IgG antibody in a biological specimen.", "preferredTerm": "Epstein-Barr Capsid IgG Antibody Measurement", "submissionValue": "Epstein-Barr Capsid IgG Antibody", "synonyms": ["Epstein-Barr Capsid IgG Antibody"]}, {"conceptId": "C96601", "definition": "A measurement of the Epstein-Barr capsid IgM antibody in a biological specimen.", "preferredTerm": "Epstein-Barr Capsid IgM Antibody Measurement", "submissionValue": "Epstein-Barr Capsid IgM Antibody", "synonyms": ["Epstein-Barr Capsid IgM Antibody"]}, {"conceptId": "C96602", "definition": "A measurement of the Epstein-Barr early antigen in a biological specimen.", "preferredTerm": "Epstein-Barr Early Antigen Measurement", "submissionValue": "Epstein-Barr Early Antigen", "synonyms": ["Epstein-Barr Early Antigen"]}, {"conceptId": "C122116", "definition": "A measurement of the Epstein-Barr early diffuse antigen IgG antibody in a biological specimen.", "preferredTerm": "Epstein-Barr Early D Antigen IgG Antibody Measurement", "submissionValue": "Epstein-Barr Early D Antigen IgG Ab", "synonyms": ["Epstein-Barr Early D Antigen IgG Ab"]}, {"conceptId": "C96603", "definition": "A measurement of the Epstein-Barr nuclear antibody in a biological specimen.", "preferredTerm": "Epstein-Barr Nuclear Antibody Measurement", "submissionValue": "Epstein-Barr Nuclear Antibody", "synonyms": ["Epstein-Barr Nuclear Antibody", "Epstein-Barr Nuclear Antigen Antibody"]}, {"conceptId": "C96604", "definition": "A measurement of the Epstein-Barr nuclear antigen in a biological specimen.", "preferredTerm": "Epstein-Barr Nuclear Antigen Measurement", "submissionValue": "Epstein-Barr Nuclear Antigen", "synonyms": ["Epstein-Barr Nuclear Antigen"]}, {"conceptId": "C106518", "definition": "A measurement of the Epstein-Barr nuclear antigen 1 IgG antibody in a biological specimen.", "preferredTerm": "Epstein-Barr Nuclear Antigen 1 IgG Ab Measurement", "submissionValue": "Epstein-Barr Nuclear Antigen 1 IgG Ab", "synonyms": ["Epstein-Barr Nuclear Antigen 1 IgG Ab"]}, {"conceptId": "C64798", "definition": "A quantitative measurement of the mean amount of hemoglobin per erythrocytes in a specified volume of a biological specimen.", "preferredTerm": "Erythrocyte Mean Corpuscular Hemoglobin Concentration", "submissionValue": "Ery. Mean Corpuscular HGB Concentration", "synonyms": ["Ery. Mean Corpuscular HGB Concentration"]}, {"conceptId": "C64797", "definition": "A quantitative measurement of the mean amount of hemoglobin per erythrocyte in a biological specimen.", "preferredTerm": "Erythrocyte Mean Corpuscular Hemoglobin", "submissionValue": "Ery. Mean Corpuscular Hemoglobin", "synonyms": ["Ery. Mean Corpuscular Hemoglobin"]}, {"conceptId": "C64799", "definition": "A quantitative measurement of the mean volume of erythrocytes in a biological specimen.", "preferredTerm": "Erythrocyte Mean Corpuscular Volume", "submissionValue": "Ery. Mean Corpuscular Volume", "synonyms": ["Ery. Mean Corpuscular Volume", "Erythrocytes Mean Corpuscular Volume", "RBC Mean Corpuscular Volume"]}, {"conceptId": "C111197", "definition": "A measurement of the erythrocyte agglutination in a biological specimen.", "preferredTerm": "Erythrocyte Agglutination Measurement", "submissionValue": "Erythrocyte Agglutination", "synonyms": ["Autoagglutination", "Erythrocyte Agglutination", "RBC Agglutination"]}, {"conceptId": "C92245", "definition": "A measurement of red blood cell clumps in a biological specimen.", "preferredTerm": "Erythrocyte Cell Clumps Measurement", "submissionValue": "Erythrocyte Cell Clumps", "synonyms": ["Erythrocyte Cell Clumps", "RBC Clumps", "Red Blood Cell Clumps"]}, {"conceptId": "C92296", "definition": "An examination or assessment of the form and structure of red blood cells.", "preferredTerm": "Erythrocyte Cell Morphology", "submissionValue": "Erythrocyte Cell Morphology", "synonyms": ["Erythrocyte Cell Morphology", "RBC Morphology", "Red Blood Cell Morphology"]}, {"conceptId": "C116212", "definition": "A measurement of the red blood cell fragments (red cell fragments that have a reticular-like shape with rounded ends and no spicules, differentiating them from schistocytes and acanthocytes) in a biological specimen.", "preferredTerm": "Erythrocyte Fragment Measurement", "submissionValue": "Erythrocyte Fragment", "synonyms": ["Erythrocyte Fragment", "RBC Fragment"]}, {"conceptId": "C96605", "definition": "A measurement of the erythrocyte ghosts (erythrocytes in which hemoglobin has been removed through hemolysis) in a biological specimen.", "preferredTerm": "Erythrocyte Ghost Count", "submissionValue": "Erythrocyte Ghosts", "synonyms": ["Erythrocyte Ghosts", "RBC Ghosts"]}, {"conceptId": "C74611", "definition": "The distance (e.g. millimeters) that red blood cells settle in unclotted blood over a specified unit of time (e.g. one hour).", "preferredTerm": "Erythrocyte Sedimentation Rate Measurement", "submissionValue": "Erythrocyte Sedimentation Rate", "synonyms": ["Biernacki Reaction", "Erythrocyte Sedimentation Rate"]}, {"conceptId": "C51946", "definition": "A measurement of the total erythrocytes in a biological specimen.", "preferredTerm": "Erythrocyte Count", "submissionValue": "Erythrocytes", "synonyms": ["Erythrocytes", "Red Blood Cells"]}, {"conceptId": "C64800", "definition": "A value derived from mean corpuscular volume and the standard deviation of the red blood cell volume in a whole blood specimen.", "preferredTerm": "Erythrocyte Distribution Width Measurement", "submissionValue": "Erythrocytes Distribution Width", "synonyms": ["Erythrocytes Distribution Width", "Red Blood Cell Distribution Width"]}, {"conceptId": "C74855", "definition": "A measurement of the erythropoietin hormone in a biological specimen.", "preferredTerm": "Erythropoietin Measurement", "submissionValue": "Erythropoietin", "synonyms": ["Erythropoietin", "Hematopoietin"]}, {"conceptId": "C74782", "definition": "A measurement of the estradiol in a biological specimen.", "preferredTerm": "Estradiol Measurement", "submissionValue": "Estradiol", "synonyms": ["Estradiol", "Oestradiol"]}, {"conceptId": "C74856", "definition": "A measurement of the estriol hormone in a biological specimen.", "preferredTerm": "Estriol Measurement", "submissionValue": "Estriol", "synonyms": ["Estriol", "Oestriol"]}, {"conceptId": "C81963", "definition": "A measurement of the free estriol in a biological specimen.", "preferredTerm": "Free Estriol Measurement", "submissionValue": "Estriol, Free", "synonyms": ["Estriol, Free"]}, {"conceptId": "C112274", "definition": "A measurement of the cells with positive expression of estrogen receptor in a biological specimen.", "preferredTerm": "Estrogen Receptor Measurement", "submissionValue": "Estrogen Receptor", "synonyms": ["ER", "ESR", "Estrogen Receptor", "Oestrogen Receptor"]}, {"conceptId": "C74857", "definition": "A measurement of the estrone hormone in a biological specimen.", "preferredTerm": "Estrone Measurement", "submissionValue": "Estrone", "synonyms": ["Estrone", "Oestrone"]}, {"conceptId": "C74693", "definition": "A measurement of the ethanol present in a biological specimen.", "preferredTerm": "Ethanol Measurement", "submissionValue": "Ethanol", "synonyms": ["Alcohol", "Ethanol"]}, {"conceptId": "C82011", "definition": "A measurement of the extracellular newly identified RAGE (receptor for advanced glycation end products) binding protein in a biological specimen.", "preferredTerm": "Extracell Newly Ident RAGE Bind Protein Measurement", "submissionValue": "Extracell Newly Ident RAGE Bind Protein", "synonyms": ["Extracell Newly Ident RAGE Bind Protein", "S100 Calcium Binding Protein A12"]}, {"conceptId": "C92270", "definition": "A measurement of the extractable nuclear antigen antibody in a biological specimen.", "preferredTerm": "Extractable Nuclear Antigen Antibody Measurement", "submissionValue": "Extractable Nuclear Antigen Antibody", "synonyms": ["Anti-ENA", "Extractable Nuclear Antigen Antibody"]}, {"conceptId": "C80180", "definition": "A measurement of the F2-isoprostane in a biological specimen.", "preferredTerm": "F2 Isoprostane Measurement", "submissionValue": "F2-Isoprostane", "synonyms": ["F2-Isoprostane"]}, {"conceptId": "C96626", "definition": "A measurement of the Factor II in a biological specimen.", "preferredTerm": "Prothrombin Measurement", "submissionValue": "Factor II", "synonyms": ["Factor II", "Prothrombin"]}, {"conceptId": "C81959", "definition": "A measurement of the factor III in a biological specimen.", "preferredTerm": "Factor III Measurement", "submissionValue": "Factor III", "synonyms": ["Factor III", "Tissue Factor, CD142"]}, {"conceptId": "C98725", "definition": "A measurement of the factor IX in a biological specimen.", "preferredTerm": "Factor IX Measurement", "submissionValue": "Factor IX", "synonyms": ["Christmas Factor", "Factor IX"]}, {"conceptId": "C103395", "definition": "A measurement of the biological activity of factor IX in a biological specimen.", "preferredTerm": "Factor IX Activity Measurement", "submissionValue": "Factor IX Activity", "synonyms": ["Christmas Factor Activity"]}, {"conceptId": "C98726", "definition": "A measurement of the factor V in a biological specimen.", "preferredTerm": "Factor V Measurement", "submissionValue": "Factor V", "synonyms": ["Factor V", "Labile Factor"]}, {"conceptId": "C103396", "definition": "A measurement of the biological activity of factor V in a biological specimen.", "preferredTerm": "Factor V Activity Measurement", "submissionValue": "Factor V Activity", "synonyms": ["Labile Factor Activity"]}, {"conceptId": "C102271", "definition": "A measurement of the Factor V Leiden in a biological specimen.", "preferredTerm": "Factor V Leiden Measurement", "submissionValue": "Factor V Leiden", "synonyms": ["Factor V Leiden"]}, {"conceptId": "C81960", "definition": "A measurement of the factor VII in a biological specimen.", "preferredTerm": "Factor VII Measurement", "submissionValue": "Factor VII", "synonyms": ["Factor VII", "Proconvertin", "Stable Factor"]}, {"conceptId": "C103397", "definition": "A measurement of the biological activity of factor VII in a biological specimen.", "preferredTerm": "Factor VII Activity Measurement", "submissionValue": "Factor VII Activity", "synonyms": ["Proconvertin Activity", "Stable Factor Activity"]}, {"conceptId": "C81961", "definition": "A measurement of the factor VIII in a biological specimen.", "preferredTerm": "Factor VIII Measurement", "submissionValue": "Factor VIII", "synonyms": ["Anti-hemophilic Factor", "Factor VIII"]}, {"conceptId": "C103399", "definition": "A measurement of the biological activity of factor VIII in a biological specimen.", "preferredTerm": "Factor VIII Activity Measurement", "submissionValue": "Factor VIII Activity", "synonyms": ["Anti-hemophilic Factor Activity"]}, {"conceptId": "C103398", "definition": "A measurement of the biological activity of factor VIIa in a biological specimen.", "preferredTerm": "Factor VIIa Activity Measurement", "submissionValue": "Factor VIIa Activity", "synonyms": ["Factor VIIa Activity"]}, {"conceptId": "C98727", "definition": "A measurement of the factor X in a biological specimen.", "preferredTerm": "Factor X Measurement", "submissionValue": "Factor X", "synonyms": ["Factor X"]}, {"conceptId": "C122118", "definition": "A measurement of the factor X activity in a biological specimen.", "preferredTerm": "Factor X Activity Measurement", "submissionValue": "Factor X Activity", "synonyms": ["Factor X Activity"]}, {"conceptId": "C112277", "definition": "A measurement of the factor XIII in a biological specimen.", "preferredTerm": "Factor XIII Measurement", "submissionValue": "Factor XIII", "synonyms": ["Factor XIII", "Fibrin Stablizing Factor"]}, {"conceptId": "C102272", "definition": "A measurement of the factor XIV in a biological specimen.", "preferredTerm": "Factor XIV Measurement", "submissionValue": "Factor XIV", "synonyms": ["Autoprothrombin IIA", "Factor XIV", "Protein C", "Protein C Antigen"]}, {"conceptId": "C105442", "definition": "A measurement of the factor XIV activity in a biological specimen.", "preferredTerm": "Factor XIV Activity Measurement", "submissionValue": "Factor XIV Activity", "synonyms": ["Factor XIV Activity", "Protein C Activity", "Protein C Function"]}, {"conceptId": "C96648", "definition": "A measurement of the fat in a biological specimen.", "preferredTerm": "Fat Measurement", "submissionValue": "Fat", "synonyms": ["Fat"]}, {"conceptId": "C81947", "definition": "A measurement of the oval-shaped fat bodies, usually renal proximal tubular cells with lipid aggregates in the cytoplasm, in a biological specimen.", "preferredTerm": "Oval Fat Body Measurement", "submissionValue": "Fat Bodies, Oval", "synonyms": ["Fat Bodies, Oval"]}, {"conceptId": "C98728", "definition": "A measurement of the triglyceride aggregates within a biological specimen.", "preferredTerm": "Fat Droplet Measurement", "submissionValue": "Fat Droplet", "synonyms": ["Fat Droplet"]}, {"conceptId": "C82012", "definition": "A measurement of the fatty acid binding protein 1 in a biological specimen.", "preferredTerm": "Fatty Acid Binding Protein 1 Measurement", "submissionValue": "Fatty Acid Binding Protein 1", "synonyms": ["Fatty Acid Binding Protein 1"]}, {"conceptId": "C106521", "definition": "A measurement of the fatty acid binding protein 3 in a biological specimen.", "preferredTerm": "Fatty Acid Binding Protein 3 Measurement", "submissionValue": "Fatty Acid Binding Protein 3", "synonyms": ["Fatty Acid Binding Protein 3"]}, {"conceptId": "C74766", "definition": "A measurement of the fatty casts present in a biological specimen.", "preferredTerm": "Fatty Cast Measurement", "submissionValue": "Fatty Casts", "synonyms": ["Fatty Casts"]}, {"conceptId": "C74737", "definition": "A measurement of the ferritin in a biological specimen.", "preferredTerm": "Ferritin Measurement", "submissionValue": "Ferritin", "synonyms": ["Ferritin"]}, {"conceptId": "C82013", "definition": "A measurement of the fibrin degradation products in a biological specimen.", "preferredTerm": "Fibrin Degradation Products Measurement", "submissionValue": "Fibrin Degradation Products", "synonyms": ["Fibrin Degradation Products"]}, {"conceptId": "C64606", "definition": "A measurement of the fibrinogen in a biological specimen.", "preferredTerm": "Fibrinogen Measurement", "submissionValue": "Fibrinogen", "synonyms": ["Fibrinogen"]}, {"conceptId": "C105443", "definition": "A biomarker test that measures liver pathology through the assessment of a six-parameter blood test (for Alpha-2-macroglobulin, Haptoglobin, Apolipoprotein A1, Gamma-glutamyl transpeptidase (GGT), Total bilirubin, and Alanine aminotransferase (ALT)), taking into account the age and gender of the patient.", "preferredTerm": "FibroTest Score Measurement", "submissionValue": "FibroTest Score", "synonyms": ["FibroSURE Score", "FibroTest Score"]}, {"conceptId": "C112280", "definition": "A measurement of the fibroblast growth factor 21 in a biological specimen.", "preferredTerm": "Fibroblast Growth Factor 21 Measurement", "submissionValue": "Fibroblast Growth Factor 21", "synonyms": ["FGF 21", "Fibroblast Growth Factor 21"]}, {"conceptId": "C96650", "definition": "A measurement of the fibroblast growth factor 23 in a biological specimen.", "preferredTerm": "Fibroblast Growth Factor 23 Measurement", "submissionValue": "Fibroblast Growth Factor 23", "synonyms": ["Fibroblast Growth Factor 23", "Phosphatonin"]}, {"conceptId": "C82014", "definition": "A measurement of the basic form of fibroblast growth factor in a biological specimen.", "preferredTerm": "Fibroblast Growth Factor Basic Form Measurement", "submissionValue": "Fibroblast Growth Factor Basic Form", "synonyms": ["FGF2", "Fibroblast Growth Factor Basic Form"]}, {"conceptId": "C122120", "definition": "A measurement of the fluoride in a biological specimen.", "preferredTerm": "Fluoride Measurement", "submissionValue": "Fluoride", "synonyms": ["Fluoride"]}, {"conceptId": "C74783", "definition": "A measurement of the follicle stimulating hormone (FSH) in a biological specimen.", "preferredTerm": "Follicle Stimulating Hormone Measurement", "submissionValue": "Follicle Stimulating Hormone", "synonyms": ["Follicle Stimulating Hormone"]}, {"conceptId": "C114219", "definition": "A measurement of the fractional excretion of calcium that is computed based upon the concentrations of calcium and creatinine in both blood and urine.", "preferredTerm": "Fractional Excretion of Calcium", "submissionValue": "Fractional Calcium Excretion", "synonyms": ["Fractional Calcium Excretion"]}, {"conceptId": "C114220", "definition": "A measurement of the fractional excretion of chloride that is computed based upon the concentrations of chloride and creatinine in both blood and urine.", "preferredTerm": "Fractional Excretion of Chloride", "submissionValue": "Fractional Chloride Excretion", "synonyms": ["Fractional Chloride Excretion"]}, {"conceptId": "C122119", "definition": "A measurement of the fractional excretion of magnesium that is computed based upon the concentrations of magnesium and creatinine in both blood and urine.", "preferredTerm": "Fractional Excretion of Magnesium", "submissionValue": "Fractional Magnesium Excretion", "synonyms": ["Fractional Magnesium Excretion"]}, {"conceptId": "C114221", "definition": "A measurement of the fractional excretion of phosphorus that is computed based upon the concentrations of phosphorus and creatinine in both blood and urine.", "preferredTerm": "Fractional Excretion of Phosphate", "submissionValue": "Fractional Phosphorus Excretion", "synonyms": ["Fractional Inorganic Phosphate Excretion", "Fractional Phosphorus Excretion"]}, {"conceptId": "C114222", "definition": "A measurement of the fractional excretion of potassium that is computed based upon the concentrations of potassium and creatinine in both blood and urine.", "preferredTerm": "Fractional Excretion of Potassium", "submissionValue": "Fractional Potassium Excretion", "synonyms": ["Fractional Potassium Excretion"]}, {"conceptId": "C107435", "definition": "A measurement of the fractional excretion of sodium that is computed based upon the concentrations of sodium and creatinine in both blood and urine.", "preferredTerm": "Fractional Excretion of Sodium", "submissionValue": "Fractional Sodium Excretion", "synonyms": ["Fractional Sodium Excretion"]}, {"conceptId": "C80200", "definition": "A measurement of the total non-esterified fatty acids in a biological specimen.", "preferredTerm": "Non-esterified Fatty Acids Measurement", "submissionValue": "Free Fatty Acid", "synonyms": ["Free Fatty Acid", "Non-Esterified Fatty Acid, Free"]}, {"conceptId": "C80206", "definition": "A measurement of the saturated non-esterified fatty acids in a biological specimen.", "preferredTerm": "Saturated Non-esterified Fatty Acids Measurement", "submissionValue": "Free Fatty Acid, Saturated", "synonyms": ["Free Fatty Acid, Saturated", "Non-esterified Fatty Acid, Saturated"]}, {"conceptId": "C80209", "definition": "A measurement of the unsaturated non-esterified fatty acids in a biological specimen.", "preferredTerm": "Unsaturated Non-esterified Fatty Acids Measurement", "submissionValue": "Free Fatty Acid, Unsaturated", "synonyms": ["Free Fatty Acid, Unsaturated", "Non-esterified Fatty Acid, Unsaturated"]}, {"conceptId": "C100448", "definition": "A measurement of the amount of unbound glycerol in a biological specimen.", "preferredTerm": "Free Glycerol Measurement", "submissionValue": "Free Glycerol", "synonyms": ["Free Glycerin", "Free Glycerol"]}, {"conceptId": "C74678", "definition": "A measurement of the fructosamine in a biological specimen.", "preferredTerm": "Fructosamine Measurement", "submissionValue": "Fructosamine", "synonyms": ["Fructosamine", "Glycated Serum Protein"]}, {"conceptId": "C100450", "definition": "A measurement of the glomerular filtration rate (GFR) based on the clearance of beta-2 microglobulin after adjusting it for the body surface area.", "preferredTerm": "Glomerular Filtration Rate from B-2 Microglobulin Adjusted for BSA Measurement", "submissionValue": "GFR from B-2 Microglobulin Adj for BSA", "synonyms": ["GFR from B-2 Microglobulin Adj for BSA"]}, {"conceptId": "C100449", "definition": "A measurement of the glomerular filtration rate (GFR) based on the clearance of beta-trace protein after adjusting it for the body surface area.", "preferredTerm": "Glomerular Filtration Rate from Beta-Trace Protein Adjusted for BSA Measurement", "submissionValue": "GFR from Beta-Trace Protein Adj for BSA", "synonyms": ["GFR from Beta-Trace Protein Adj for BSA"]}, {"conceptId": "C98735", "definition": "An estimation of the glomerular filtration rate adjusted for body size based on creatinine.", "preferredTerm": "Glomerular Filtration Rate from Creatinine Adjusted for BSA", "submissionValue": "GFR from Creatinine Adjusted for BSA", "synonyms": ["GFR from Creatinine Adjusted for BSA"]}, {"conceptId": "C98736", "definition": "An estimation of the glomerular filtration rate adjusted for body size based on cystatin C.", "preferredTerm": "Glomerular Filtration Rate from Cystatin C Adjusted for BSA", "submissionValue": "GFR from Cystatin C Adjusted for BSA", "synonyms": ["GFR from Cystatin C Adjusted for BSA"]}, {"conceptId": "C80182", "definition": "A measurement of the galanin in a biological specimen.", "preferredTerm": "Galanin Measurement", "submissionValue": "Galanin", "synonyms": ["Galanin"]}, {"conceptId": "C92257", "definition": "A measurement of the proteins contributing to the gamma fraction in a biological specimen.", "preferredTerm": "Gamma Globulin Measurement", "submissionValue": "Gamma Globulin", "synonyms": ["Gamma Globulin"]}, {"conceptId": "C92295", "definition": "A relative measurement (ratio or percentage) of gamma fraction proteins to total proteins in a biological specimen.", "preferredTerm": "Gamma Globulin to Total Protein Ratio Measurement", "submissionValue": "Gamma Globulin/Total Protein", "synonyms": ["Gamma Globulin/Total Protein"]}, {"conceptId": "C64847", "definition": "A measurement of the gamma glutamyl transferase in a biological specimen.", "preferredTerm": "Gamma Glutamyl Transpeptidase Measurement", "submissionValue": "Gamma Glutamyl Transferase", "synonyms": ["Gamma Glutamyl Transferase"]}, {"conceptId": "C79446", "definition": "A relative measurement (ratio or percentage) of the gamma glutamyl transferase to creatinine in a biological specimen.", "preferredTerm": "Gamma Glutamyl Transferase to Creatinine Ratio Measurement", "submissionValue": "Gamma Glutamyl Transferase/Creatinine", "synonyms": ["Gamma Glutamyl Transferase/Creatinine"]}, {"conceptId": "C116211", "definition": "A measurement of the gamma tocopherol in a biological specimen.", "preferredTerm": "Gamma Tocopherol Measurement", "submissionValue": "Gamma Tocopherol", "synonyms": ["Gamma Tocopherol"]}, {"conceptId": "C74858", "definition": "A measurement of the gastrin hormone in a biological specimen.", "preferredTerm": "Gastrin Measurement", "submissionValue": "Gastrin", "synonyms": ["Gastrin"]}, {"conceptId": "C112286", "definition": "A measurement of total ghrelin in a biological specimen.", "preferredTerm": "Ghrelin Measurement", "submissionValue": "Ghrelin", "synonyms": ["Ghrelin", "Growth Hormone Secretagogue Receptor Ligand", "Motilin-related Peptide", "Total Ghrelin"]}, {"conceptId": "C96651", "definition": "A measurement of the giant neutrophils in a biological specimen.", "preferredTerm": "Giant Neutrophil Count", "submissionValue": "Giant Neutrophils", "synonyms": ["Giant Neutrophils"]}, {"conceptId": "C74728", "definition": "A measurement of the giant (larger than 7um in diameter) platelets in a biological specimen.", "preferredTerm": "Giant Platelet Count", "submissionValue": "Giant Platelets", "synonyms": ["Giant Platelets"]}, {"conceptId": "C74738", "definition": "A measurement of the globulin protein in a biological specimen.", "preferredTerm": "Globulin Protein Measurement", "submissionValue": "Globulin", "synonyms": ["Globulin"]}, {"conceptId": "C90505", "definition": "A kidney function test that measures the fluid volume that is filtered from the kidney glomeruli to the Bowman's capsule per unit of time.", "preferredTerm": "Glomerular Filtration Rate", "submissionValue": "Glomerular Filtration Rate", "synonyms": ["Glomerular Filtration Rate"]}, {"conceptId": "C98734", "definition": "A measurement of the glomerular filtration rate adjusted for body size.", "preferredTerm": "Glomerular Filtration Rate Adjusted for BSA", "submissionValue": "Glomerular Filtration Rate Adj for BSA", "synonyms": ["Glomerular Filtration Rate Adj for BSA"]}, {"conceptId": "C74859", "definition": "A measurement of the glucagon hormone in a biological specimen.", "preferredTerm": "Glucagon Measurement", "submissionValue": "Glucagon", "synonyms": ["Glucagon"]}, {"conceptId": "C80183", "definition": "A measurement of the total glucagon-like peptide-1 in a biological specimen.", "preferredTerm": "Glucagon-like Peptide-1 Measurement", "submissionValue": "Glucagon-Like Peptide-1", "synonyms": ["Glucagon-Like Peptide-1", "Total Glucagon-Like Peptide-1"]}, {"conceptId": "C80164", "definition": "A measurement of the active form of glucagon-like peptide-1 in a biological specimen.", "preferredTerm": "Active Glucagon-like Peptide-1 Measurement", "submissionValue": "Glucagon-Like Peptide-1, Active Form", "synonyms": ["Glucagon-Like Peptide-1, Active Form"]}, {"conceptId": "C105585", "definition": "A measurement of the glucose in a biological specimen.", "preferredTerm": "Glucose Measurement", "submissionValue": "Glucose", "synonyms": ["Glucose"]}, {"conceptId": "C96652", "definition": "A measurement of the volume of serum or plasma that would be cleared of glucose by excretion of urine for a specified unit of time (e.g. one minute).", "preferredTerm": "Glucose Clearance Measurement", "submissionValue": "Glucose Clearance", "synonyms": ["Glucose Clearance"]}, {"conceptId": "C117834", "definition": "A measurement of the amount of glucose being excreted in urine over a defined amount of time (e.g. one hour).", "preferredTerm": "Glucose Urine Excretion Rate", "submissionValue": "Glucose Excretion Rate", "synonyms": ["Glucose Excretion Rate"]}, {"conceptId": "C80184", "definition": "A measurement of the glucose-6-phosphate dehydrogenase in a biological specimen.", "preferredTerm": "Glucose-6-Phosphate Dehydrogenase Measurement", "submissionValue": "Glucose-6-Phosphate Dehydrogenase", "synonyms": ["Glucose-6-Phosphate Dehydrogenase"]}, {"conceptId": "C106537", "definition": "A measurement of the intact (containing amino acids 1-42) glucose-dependent insulinotropic peptide in a biological specimen.", "preferredTerm": "Intact Glucose-dependent Insulinotropic Peptide Measurement", "submissionValue": "Glucose-dep Insulinotropic Pep, Intact", "synonyms": ["Glucose-dep Insulinotropic Pep, Intact", "Intact GIP", "Intact Gastric Inhibitory Polypeptide", "Intact Glucose-dependent Insulinotropic Peptide"]}, {"conceptId": "C79447", "definition": "A relative measurement (ratio or percentage) of the glucose to creatinine in a biological specimen.", "preferredTerm": "Glucose to Creatinine Ratio Measurement", "submissionValue": "Glucose/Creatinine", "synonyms": ["Glucose/Creatinine"]}, {"conceptId": "C80165", "definition": "A measurement of the alpha glucuronidase in a biological specimen.", "preferredTerm": "Alpha Glucuronidase Measurement", "submissionValue": "Glucuronidase, Alpha", "synonyms": ["Glucuronidase, Alpha"]}, {"conceptId": "C80170", "definition": "A measurement of the beta glucuronidase in a biological specimen.", "preferredTerm": "Beta Glucuronidase Measurement", "submissionValue": "Glucuronidase, Beta", "synonyms": ["Glucuronidase, Beta"]}, {"conceptId": "C74739", "definition": "A measurement of the glutamate in a biological specimen.", "preferredTerm": "Glutamate Measurement", "submissionValue": "Glutamate", "synonyms": ["Glutamate", "Glutamic Acid"]}, {"conceptId": "C79448", "definition": "A measurement of the glutamate dehydrogenase in a biological specimen.", "preferredTerm": "Glutamate Dehydrogenase Measurement", "submissionValue": "Glutamate Dehydrogenase", "synonyms": ["Glutamate Dehydrogenase"]}, {"conceptId": "C82015", "definition": "A measurement of the glutamic acid decarboxylase 1 in a biological specimen.", "preferredTerm": "Glutamic Acid Decarboxylase 1 Measurement", "submissionValue": "Glutamic Acid Decarboxylase 1", "synonyms": ["Glutamic Acid Decarboxylase 1", "Glutamic Acid Decarboxylase 67"]}, {"conceptId": "C82016", "definition": "A measurement of the glutamic acid decarboxylase 2 in a biological specimen.", "preferredTerm": "Glutamic Acid Decarboxylase 2 Measurement", "submissionValue": "Glutamic Acid Decarboxylase 2", "synonyms": ["Glutamic Acid Decarboxylase 2", "Glutamic Acid Decarboxylase 65"]}, {"conceptId": "C82017", "definition": "A measurement of the glutamic acid decarboxylase 2 antibody in a biological specimen.", "preferredTerm": "Glutamic Acid Decarboxylase 2 Antibody Measurement", "submissionValue": "Glutamic Acid Decarboxylase 2 Antibody", "synonyms": ["Glutamic Acid Decarboxylase 2 Antibody", "Glutamic Acid Decarboxylase 65 Antibody"]}, {"conceptId": "C96653", "definition": "A measurement of the glutamic acid decarboxylase antibody in a biological specimen.", "preferredTerm": "Glutamic Acid Decarboxylase Antibody Measurement", "submissionValue": "Glutamic Acid Decarboxylase Antibody", "synonyms": ["GAD Antibody", "Glutamic Acid Decarboxylase Antibody"]}, {"conceptId": "C122121", "definition": "A measurement of the glutamine in a biological specimen.", "preferredTerm": "Glutamine Measurement", "submissionValue": "Glutamine", "synonyms": ["Glutamine"]}, {"conceptId": "C80166", "definition": "A relative measurement (ratio or percentage) of the alpha glutathione-S-transferase to creatinine in a biological specimen.", "preferredTerm": "Alpha Glutathione-S-Transferase to Creatinine Ratio Measurement", "submissionValue": "Glutathione S-Transferase, Alpha/Creat", "synonyms": ["Glutathione S-Transferase, Alpha/Creat"]}, {"conceptId": "C80203", "definition": "A measurement of the Pi glutathione-s-transferase in a biological specimen.", "preferredTerm": "Pi Glutathione S-Transferase Measurement", "submissionValue": "Glutathione S-Transferase, Pi", "synonyms": ["Glutathione S-Transferase, Pi"]}, {"conceptId": "C80207", "definition": "A measurement of the theta glutathione-s-transferase in a biological specimen.", "preferredTerm": "Theta Glutathione S-Transferase Measurement", "submissionValue": "Glutathione S-Transferase, Theta", "synonyms": ["Glutathione S-Transferase, Theta"]}, {"conceptId": "C80185", "definition": "A measurement of the total glutathione-s-transferase in a biological specimen.", "preferredTerm": "Glutathione-S-Transferase Measurement", "submissionValue": "Glutathione S-Transferase, Total", "synonyms": ["Glutathione S-Transferase, Total"]}, {"conceptId": "C79435", "definition": "A relative measurement (ratio or percentage) of the glutathione S-transferase to creatinine in a biological specimen.", "preferredTerm": "Glutathione-S-Transferase to Creatinine Ratio Measurement", "submissionValue": "Glutathione-S-Transferase/Creatinine", "synonyms": ["Glutathione-S-Transferase/Creatinine"]}, {"conceptId": "C122092", "definition": "A measurement of the glycated albumin present in a biological specimen.", "preferredTerm": "Glycated Albumin Measurement", "submissionValue": "Glycated Albumin", "synonyms": ["Glycated Albumin"]}, {"conceptId": "C122122", "definition": "A measurement of the glycine in a biological specimen.", "preferredTerm": "Glycine Measurement", "submissionValue": "Glycine", "synonyms": ["Glycine"]}, {"conceptId": "C80186", "definition": "A measurement of the gold in a biological specimen.", "preferredTerm": "Gold Measurement", "submissionValue": "Gold", "synonyms": ["Gold"]}, {"conceptId": "C74860", "definition": "A measurement of the gonadotropin releasing hormone in a biological specimen.", "preferredTerm": "Gonadotropin Releasing Hormone Measurement", "submissionValue": "Gonadotropin Releasing Hormone", "synonyms": ["Gonadotropin Releasing Hormone", "Luteinising Hormone Releasing Hormone"]}, {"conceptId": "C74768", "definition": "A measurement of the granular (coarse and fine) casts present in a biological specimen.", "preferredTerm": "Granular Cast Measurement", "submissionValue": "Granular Casts", "synonyms": ["Granular Casts"]}, {"conceptId": "C74765", "definition": "A measurement of the coarse granular casts present in a biological specimen.", "preferredTerm": "Coarse Granular Cast Measurement", "submissionValue": "Granular Coarse Casts", "synonyms": ["Granular Coarse Casts"]}, {"conceptId": "C74769", "definition": "A measurement of the fine granular casts present in a biological specimen.", "preferredTerm": "Granular Fine Cast Measurement", "submissionValue": "Granular Fine Casts", "synonyms": ["Granular Fine Casts"]}, {"conceptId": "C82018", "definition": "A measurement of the granulocyte colony stimulating factor in a biological specimen.", "preferredTerm": "Granulocyte Colony Stimulating Factor Measurement", "submissionValue": "Granulocyte Colony Stimulating Factor", "synonyms": ["Granulocyte Colony Stimulating Factor"]}, {"conceptId": "C82019", "definition": "A measurement of the granulocyte macrophage colony stimulating factor in a biological specimen.", "preferredTerm": "Granulocyte Macrophage Colony Stm Factor Measurement", "submissionValue": "Granulocyte Macrophage Colony Stm Factor", "synonyms": ["Granulocyte Macrophage Colony Stm Factor"]}, {"conceptId": "C96654", "definition": "A measurement of the granulocytes in a biological specimen.", "preferredTerm": "Granulocyte Count", "submissionValue": "Granulocytes", "synonyms": ["Granulocytes"]}, {"conceptId": "C98866", "definition": "A relative measurement (ratio or percentage) of the granulocytes to total cells in a biological specimen (for example a bone marrow specimen).", "preferredTerm": "Granulocyte to Total Cell Ratio Measurement", "submissionValue": "Granulocytes/Total Cells", "synonyms": ["Granulocytes/Total Cells"]}, {"conceptId": "C74861", "definition": "A measurement of the growth hormone inhibiting hormone in a biological specimen.", "preferredTerm": "Growth Hormone Inhibiting Hormone Measurement", "submissionValue": "Growth Hormone Inhibiting Hormone", "synonyms": ["Growth Hormone Inhibiting Hormone", "Somatostatin"]}, {"conceptId": "C74862", "definition": "A measurement of the growth hormone releasing hormone in a biological specimen.", "preferredTerm": "Growth Hormone Releasing Hormone Measurement", "submissionValue": "Growth Hormone Releasing Hormone", "synonyms": ["Growth Hormone Releasing Hormone", "Somatocrinin"]}, {"conceptId": "C92541", "definition": "A measurement of the hepatitis A viral load in a biological specimen.", "preferredTerm": "Hepatitis A Viral Load Measurement", "submissionValue": "HAV Viral Load", "synonyms": ["HAV Viral Load"]}, {"conceptId": "C92542", "definition": "A measurement of the hepatitis B viral load in a biological specimen.", "preferredTerm": "Hepatitis B Viral Load Measurement", "submissionValue": "HBV Viral Load", "synonyms": ["HBV Viral Load"]}, {"conceptId": "C102274", "definition": "A relative measurement (ratio or percentage) of the hematocrit corrected reticulocytes to erythrocytes in a biological specimen.", "preferredTerm": "Hematocrit Corrected Reticulocytes to Erythrocytes Ratio Measurement", "submissionValue": "HCT Corrected Reticulocytes/Erythrocytes", "synonyms": ["HCT Corrected Reticulocytes/Erythrocytes"]}, {"conceptId": "C92543", "definition": "A measurement of the hepatitis C viral load in a biological specimen.", "preferredTerm": "Hepatitis C Viral Load Measurement", "submissionValue": "HCV Viral Load", "synonyms": ["HCV RNA", "HCV Viral Load", "Hepatitis C RNA"]}, {"conceptId": "C105587", "definition": "A measurement of the high density lipoprotein cholesterol in a biological specimen.", "preferredTerm": "High Density Lipoprotein Cholesterol Measurement", "submissionValue": "HDL Cholesterol", "synonyms": ["HDL Cholesterol"]}, {"conceptId": "C100425", "definition": "A relative measurement (ratio or percentage) of the amount of HDL cholesterol compared to LDL cholesterol in a biological specimen.", "preferredTerm": "HDL Cholesterol to LDL Cholesterol Ratio Measurement", "submissionValue": "HDL Cholesterol/LDL Cholesterol Ratio", "synonyms": ["HDL Cholesterol/LDL Cholesterol Ratio"]}, {"conceptId": "C103402", "definition": "A measurement of the average particle size of high-density lipoprotein in a biological specimen.", "preferredTerm": "HDL Particle Size Measurement", "submissionValue": "HDL Particle Size", "synonyms": ["HDL Particle Size"]}, {"conceptId": "C80187", "definition": "A measurement of the high-density lipoprotein (HDL) cholesterol subclass 2 in a biological specimen.", "preferredTerm": "HDL-Cholesterol Subclass 2 Measurement", "submissionValue": "HDL-Cholesterol Subclass 2", "synonyms": ["HDL-Cholesterol Subclass 2"]}, {"conceptId": "C80188", "definition": "A measurement of the high-density lipoprotein (HDL) cholesterol subclass 3 in a biological specimen.", "preferredTerm": "HDL-Cholesterol Subclass 3 Measurement", "submissionValue": "HDL-Cholesterol Subclass 3", "synonyms": ["HDL-Cholesterol Subclass 3"]}, {"conceptId": "C112291", "definition": "A measurement of the HER2 antigen in a biological specimen.", "preferredTerm": "HER2 Antigen Measurement", "submissionValue": "HER2 Antigen", "synonyms": ["HER2 Antigen", "HER2/NEU Antigen"]}, {"conceptId": "C106527", "definition": "A measurement of the antibody reaction of a biological specimen to the HIV virus.", "preferredTerm": "HIV Antibody Measurement", "submissionValue": "HIV Antibody", "synonyms": ["HIV Antibody"]}, {"conceptId": "C92544", "definition": "A measurement of the HIV viral load in a biological specimen.", "preferredTerm": "HIV Viral Load Measurement", "submissionValue": "HIV Viral Load", "synonyms": ["HIV Viral Load"]}, {"conceptId": "C74713", "definition": "A measurement of the antibody reaction of a biological specimen to the HIV-1 virus.", "preferredTerm": "HIV-1 Antibody Measurement", "submissionValue": "HIV-1 Antibody", "synonyms": ["HIV-1 Antibody"]}, {"conceptId": "C92263", "definition": "A measurement of the HIV-1 group M and O nucleic acids in a biological specimen.", "preferredTerm": "HIV-1 Group M and O Nucleic Acid Measurement", "submissionValue": "HIV-1 Group M and O Nucleic Acid", "synonyms": ["HIV-1 Group M and O Nucleic Acid"]}, {"conceptId": "C92264", "definition": "A measurement of the HIV-1 group O antibody in a biological specimen.", "preferredTerm": "HIV-1 Group O Antibody Measurement", "submissionValue": "HIV-1 Group O Antibody", "synonyms": ["HIV-1 Group O Antibody"]}, {"conceptId": "C92265", "definition": "A measurement of the HIV-1 p24 antigen in a biological specimen.", "preferredTerm": "HIV-1 p24 Antigen Measurement", "submissionValue": "HIV-1 p24 Antigen", "synonyms": ["HIV-1 p24 Antigen"]}, {"conceptId": "C74714", "definition": "A measurement of the antibody reaction of a biological specimen to either the HIV-1 or HIV-2 virus.", "preferredTerm": "HIV-1 HIV-2 Antibody Measurement", "submissionValue": "HIV-1/2 Antibody", "synonyms": ["HIV-1/2 Antibody"]}, {"conceptId": "C74715", "definition": "A measurement of the antibody reaction of a biological specimen to the HIV-2 virus.", "preferredTerm": "HIV-2 Antibody Measurement", "submissionValue": "HIV-2 Antibody", "synonyms": ["HIV-2 Antibody"]}, {"conceptId": "C92266", "definition": "A measurement of the HIV-2 nucleic acids in a biological specimen.", "preferredTerm": "HIV-2 Nucleic Acid Measurement", "submissionValue": "HIV-2 Nucleic Acid", "synonyms": ["HIV-2 Nucleic Acid"]}, {"conceptId": "C100460", "definition": "A measurement of the human leukocyte antigen B27 (HLA-B27) in a biological specimen.", "preferredTerm": "HLA-B27 Antigen Measurement", "submissionValue": "HLA-B27 Antigen", "synonyms": ["HLA-B27 Antigen", "Human Leukocyte Antigen B27"]}, {"conceptId": "C122125", "definition": "A measurement of the antibody reaction of a biological specimen to either the HTLV-1 or HTLV-2 virus.", "preferredTerm": "HTLV-I HTLV-II Antibody Measurement", "submissionValue": "HTLV-1/2 Antibody", "synonyms": ["HTLV-1/2 Antibody", "HTLV-I/II Antibody", "Human T-cell Lymphotropic Virus 1/2 Antibody"]}, {"conceptId": "C74604", "definition": "A measurement of the hairy cells (b-cell lymphocytes with hairy projections from the cytoplasm) in a biological specimen.", "preferredTerm": "Hairy Cell Count", "submissionValue": "Hairy Cells", "synonyms": ["Hairy Cells"]}, {"conceptId": "C74640", "definition": "A relative measurement (ratio or percentage) of the hairy cells (b-cell lymphocytes with hairy projections from the cytoplasm) to all lymphocytes in a biological specimen .", "preferredTerm": "Hairy Cell to Lymphocyte Ratio Measurement", "submissionValue": "Hairy Cells/Lymphocytes", "synonyms": ["Hairy Cells/Lymphocytes"]}, {"conceptId": "C74740", "definition": "A measurement of the haptoglobin protein in a biological specimen.", "preferredTerm": "Haptoglobin Protein Measurement", "submissionValue": "Haptoglobin", "synonyms": ["Haptoglobin"]}, {"conceptId": "C74709", "definition": "A measurement of the Heinz bodies (small round inclusions within the body of a red blood cell) in a biological specimen.", "preferredTerm": "Heinz-Ehrlich Body Measurement", "submissionValue": "Heinz Bodies", "synonyms": ["Heinz Bodies", "Heinz-Erhlich Bodies"]}, {"conceptId": "C111206", "definition": "A relative measurement (ratio or percentage) of the erythrocytes that contain heinz bodies to total erythrocytes in a biological specimen.", "preferredTerm": "Heinz Body to Erythrocyte Ratio Measurement", "submissionValue": "Heinz Bodies/Erythrocytes", "synonyms": ["Heinz Bodies/Erythrocytes"]}, {"conceptId": "C103403", "definition": "A measurement of the Helicobacter pylori IgG antibody in a biological specimen.", "preferredTerm": "Helicobacter pylori IgG Antibody Measurement", "submissionValue": "Helicobacter pylori IgG Antibody", "synonyms": ["Helicobacter pylori IgG Antibody"]}, {"conceptId": "C74658", "definition": "A measurement of the Helmet cells (specialized Keratocytes with two projections on either end that are tapered and hornlike) in a biological specimen.", "preferredTerm": "Helmet Cell Count", "submissionValue": "Helmet Cells", "synonyms": ["Helmet Cells"]}, {"conceptId": "C64796", "definition": "The percentage of a whole blood specimen that is composed of red blood cells (erythrocytes).", "preferredTerm": "Hematocrit Measurement", "submissionValue": "Hematocrit", "synonyms": ["EVF", "Erythrocyte Volume Fraction", "Hematocrit", "PCV", "Packed Cell Volume"]}, {"conceptId": "C102273", "definition": "A measurement of the hematocrit corrected reticulocytes in a biological specimen.", "preferredTerm": "Hematocrit Corrected Reticulocyte Count", "submissionValue": "Hematocrit Corrected Reticulocytes", "synonyms": ["Hematocrit Corrected Reticulocytes"]}, {"conceptId": "C64848", "definition": "A measurement of the non-cellular hemoglobin in a biological specimen.", "preferredTerm": "Hemoglobin Measurement", "submissionValue": "Hemoglobin", "synonyms": ["FHGB", "Free Hemoglobin", "Hemoglobin"]}, {"conceptId": "C92258", "definition": "A measurement of the hemoglobin A in a biological specimen.", "preferredTerm": "Hemoglobin A Measurement", "submissionValue": "Hemoglobin A", "synonyms": ["Hemoglobin A"]}, {"conceptId": "C64849", "definition": "A measurement of the glycosylated hemoglobin in a biological specimen.", "preferredTerm": "Glycosylated Hemoglobin Measurement", "submissionValue": "Hemoglobin A1C", "synonyms": ["Glycosylated Hemoglobin", "Hemoglobin A1C"]}, {"conceptId": "C111207", "definition": "A relative measurement (ratio or percentage) of the glycosylated hemoglobin to total hemoglobin in a biological specimen.", "preferredTerm": "Hemoglobin A1C to Hemoglobin Ratio Measurement", "submissionValue": "Hemoglobin A1C/Hemoglobin", "synonyms": ["Hemoglobin A1C/Hemoglobin"]}, {"conceptId": "C92259", "definition": "A measurement of the hemoglobin A2 in a biological specimen.", "preferredTerm": "Hemoglobin A2 Measurement", "submissionValue": "Hemoglobin A2", "synonyms": ["Hemoglobin A2"]}, {"conceptId": "C92260", "definition": "A measurement of the hemoglobin B in a biological specimen.", "preferredTerm": "Hemoglobin B Measurement", "submissionValue": "Hemoglobin B", "synonyms": ["Hemoglobin B"]}, {"conceptId": "C92261", "definition": "A measurement of the hemoglobin C in a biological specimen.", "preferredTerm": "Hemoglobin C Measurement", "submissionValue": "Hemoglobin C", "synonyms": ["Hemoglobin C"]}, {"conceptId": "C112288", "definition": "A measurement of hemoglobin C crystals in a biological specimen.", "preferredTerm": "Hemoglobin C Crystals Measurement", "submissionValue": "Hemoglobin C Crystals", "synonyms": ["Hemoglobin C Crystals"]}, {"conceptId": "C106525", "definition": "A measurement of the distribution of the hemoglobin concentration in red blood cells.", "preferredTerm": "Hemoglobin Distribution Width Measurement", "submissionValue": "Hemoglobin Distribution Width", "synonyms": ["Hemoglobin Distribution Width"]}, {"conceptId": "C92262", "definition": "A measurement of the hemoglobin F in a biological specimen.", "preferredTerm": "Hemoglobin F Measurement", "submissionValue": "Hemoglobin F", "synonyms": ["Fetal Hemoglobin", "Hemoglobin F"]}, {"conceptId": "C122123", "definition": "A measurement of the hemoglobin S in a biological specimen.", "preferredTerm": "Hemoglobin S Measurement", "submissionValue": "Hemoglobin S", "synonyms": ["Hemoglobin S", "Sickle Hemoglobin"]}, {"conceptId": "C111208", "definition": "A measurement of the destruction of red blood cells in a biological specimen.", "preferredTerm": "Hemolytic Index", "submissionValue": "Hemolytic Index", "synonyms": ["Hemolysis", "Hemolytic Index"]}, {"conceptId": "C96659", "definition": "A measurement of the hemosiderin complex in a biological specimen.", "preferredTerm": "Hemosiderin Measurement", "submissionValue": "Hemosiderin", "synonyms": ["Hemosiderin"]}, {"conceptId": "C92534", "definition": "A measurement of the antibody reaction of a biological specimen to the Hepatitis A virus.", "preferredTerm": "Hepatitis A Antibody Measurement", "submissionValue": "Hepatitis A Virus Antibody", "synonyms": ["Hepatitis A Virus Antibody"]}, {"conceptId": "C92271", "definition": "A measurement of hepatitis A virus antibody IgM in a biological specimen.", "preferredTerm": "Hepatitis A Virus Antibody IgM Measurement", "submissionValue": "Hepatitis A Virus Antibody IgM", "synonyms": ["Hepatitis A Virus Antibody IgM"]}, {"conceptId": "C103404", "definition": "A measurement of hepatitis B virus DNA in a biological specimen.", "preferredTerm": "Hepatitis B DNA Measurement", "submissionValue": "Hepatitis B DNA", "synonyms": ["Hepatitis B DNA"]}, {"conceptId": "C96660", "definition": "A measurement of the hepatitis B virus core antibody in a biological specimen.", "preferredTerm": "Hepatitis B Virus Core Antibody Measurement", "submissionValue": "Hepatitis B Virus Core Antibody", "synonyms": ["Hepatitis B Virus Core Antibody"]}, {"conceptId": "C119280", "definition": "A measurement of the hepatitis B virus core IgG antibody in a biological specimen.", "preferredTerm": "Hepatitis B Virus Core IgG Antibody Measurement", "submissionValue": "Hepatitis B Virus Core IgG Antibody", "synonyms": ["Hepatitis B Virus Core IgG Antibody"]}, {"conceptId": "C96661", "definition": "A measurement of the hepatitis B virus core IgM antibody in a biological specimen.", "preferredTerm": "Hepatitis B Virus Core IgM Antibody Measurement", "submissionValue": "Hepatitis B Virus Core IgM Antibody", "synonyms": ["Hepatitis B Virus Core IgM Antibody"]}, {"conceptId": "C74711", "definition": "A measurement of the surface antibody reaction of a biological specimen to the Hepatitis B virus.", "preferredTerm": "Hepatitis B Surface Antibody Measurement", "submissionValue": "Hepatitis B Virus Surface Antibody", "synonyms": ["Anti-HBs", "HBsAb", "Hepatitis B Virus Surface Antibody"]}, {"conceptId": "C64850", "definition": "A measurement of the surface antigen reaction of a biological specimen to the Hepatitis B virus.", "preferredTerm": "Hepatitis B Virus Surface Antigen Measurement", "submissionValue": "Hepatitis B Virus Surface Antigen", "synonyms": ["HBsAg", "Hepatitis B Virus Surface Antigen"]}, {"conceptId": "C96662", "definition": "A measurement of the hepatitis B e antibody in a biological specimen.", "preferredTerm": "Hepatitis B Virus e Antibody Measurement", "submissionValue": "Hepatitis B Virus e Antibody", "synonyms": ["Hepatitis B Virus e Antibody"]}, {"conceptId": "C96663", "definition": "A measurement of the hepatitis B e antigen in a biological specimen.", "preferredTerm": "Hepatitis B Virus e Antigen Measurement", "submissionValue": "Hepatitis B Virus e Antigen", "synonyms": ["Hepatitis B Virus e Antigen"]}, {"conceptId": "C92535", "definition": "A measurement of the antibody reaction of a biological specimen to the Hepatitis C virus.", "preferredTerm": "Hepatitis C Antibody Measurement", "submissionValue": "Hepatitis C Virus Antibody", "synonyms": ["Hepatitis C Virus Antibody"]}, {"conceptId": "C116196", "definition": "A measurement of the hepatitis C virus antigen in a biological specimen.", "preferredTerm": "Hepatitis C Virus Antigen Measurement", "submissionValue": "Hepatitis C Virus Antigen", "synonyms": ["Hepatitis C Virus Antigen"]}, {"conceptId": "C96664", "definition": "A measurement of the hepatitis D virus antibody in a biological specimen.", "preferredTerm": "Hepatitis D Virus Antibody Measurement", "submissionValue": "Hepatitis D Virus Antibody", "synonyms": ["Hepatitis D Virus Antibody", "Hepatitis Delta Antibody"]}, {"conceptId": "C119281", "definition": "A measurement of the hepatitis D virus IgG antibody in a biological specimen.", "preferredTerm": "Hepatitis D Virus IgG Antibody Measurement", "submissionValue": "Hepatitis D Virus IgG Antibody", "synonyms": ["Hepatitis D Virus IgG Antibody"]}, {"conceptId": "C119282", "definition": "A measurement of the hepatitis D virus IgM antibody in a biological specimen.", "preferredTerm": "Hepatitis D Virus IgM Antibody Measurement", "submissionValue": "Hepatitis D Virus IgM Antibody", "synonyms": ["Hepatitis D Virus IgM Antibody"]}, {"conceptId": "C119283", "definition": "A measurement of the antibody reaction of a biological specimen to the Hepatitis E virus.", "preferredTerm": "Hepatitis E Virus Antibody Measurement", "submissionValue": "Hepatitis E Virus Antibody", "synonyms": ["Hepatitis E Virus Antibody"]}, {"conceptId": "C106526", "definition": "A measurement of IgG antibody to the hepatitis E virus in a biological specimen.", "preferredTerm": "Hepatitis E Virus IgG Antibody Measurement", "submissionValue": "Hepatitis E Virus IgG Antibody", "synonyms": ["Hepatitis E Virus IgG Antibody"]}, {"conceptId": "C96665", "definition": "A measurement of the hepatitis E virus IgM antibody in a biological specimen.", "preferredTerm": "Hepatitis E Virus IgM Antibody Measurement", "submissionValue": "Hepatitis E Virus IgM Antibody", "synonyms": ["Hepatitis E Virus IgM Antibody"]}, {"conceptId": "C92272", "definition": "A measurement of the Hepatitis G RNA in a biological specimen.", "preferredTerm": "Hepatitis G RNA Measurement", "submissionValue": "Hepatitis G RNA", "synonyms": ["Hepatitis G RNA"]}, {"conceptId": "C96666", "definition": "A measurement of the herpes simplex virus 1 IgG antibody in a biological specimen.", "preferredTerm": "Herpes Simplex Virus 1 IgG Antibody Measurement", "submissionValue": "Herpes Simplex Virus 1 IgG Antibody", "synonyms": ["HSV-1 IgG Antibody", "Herpes Simplex Virus 1 IgG Antibody"]}, {"conceptId": "C98738", "definition": "A measurement of the Herpes Simplex virus 1 IgM antibodies in a biological specimen.", "preferredTerm": "Herpes Simplex Virus 1 IgM Antibody Measurement", "submissionValue": "Herpes Simplex Virus 1 IgM Antibody", "synonyms": ["Herpes Simplex Virus 1 IgM Antibody"]}, {"conceptId": "C96697", "definition": "A measurement of the herpes simplex virus 1 and 2 IgG antibody in a biological specimen.", "preferredTerm": "Herpes Simplex Virus 1/2 IgG Antibody Measurement", "submissionValue": "Herpes Simplex Virus 1/2 IgG Antibody", "synonyms": ["HSV-1/2 IgG Ab", "Herpes Simplex Virus 1/2 IgG Antibody"]}, {"conceptId": "C96698", "definition": "A measurement of the herpes simplex virus 1 and 2 IgM antibody in a biological specimen.", "preferredTerm": "Herpes Simplex Virus 1/2 IgM Antibody Measurement", "submissionValue": "Herpes Simplex Virus 1/2 IgM Antibody", "synonyms": ["HSV-1/2 IgM Ab", "Herpes Simplex Virus 1/2 IgM Antibody"]}, {"conceptId": "C96667", "definition": "A measurement of the herpes simplex virus 2 IgG antibody in a biological specimen.", "preferredTerm": "Herpes Simplex Virus 2 IgG Antibody Measurement", "submissionValue": "Herpes Simplex Virus 2 IgG Antibody", "synonyms": ["HSV-2 IgG Antibody", "Herpes Simplex Virus 2 IgG Antibody"]}, {"conceptId": "C98739", "definition": "A measurement of the Herpes Simplex virus 2 IgM antibodies in a biological specimen.", "preferredTerm": "Herpes Simplex Virus 2 IgM Antibody Measurement", "submissionValue": "Herpes Simplex Virus 2 IgM Antibody", "synonyms": ["Herpes Simplex Virus 2 IgM Antibody"]}, {"conceptId": "C112292", "definition": "A measurement of the herpes simplex virus 6 antibody in a biological specimen.", "preferredTerm": "Herpes Simplex Virus 6 Antibody Measurement", "submissionValue": "Herpes Simplex Virus 6 Antibody", "synonyms": ["Herpes Simplex Virus 6 Antibody"]}, {"conceptId": "C81984", "definition": "A measurement of the heterophile antibodies in a biological specimen.", "preferredTerm": "Heterophile Antibody Measurement", "submissionValue": "Heterophile Antibodies", "synonyms": ["Heterophile Antibodies"]}, {"conceptId": "C116186", "definition": "A measurement of heterophils (granular leukocytes) in a biological specimen from avian species.", "preferredTerm": "Heterophil Measurement", "submissionValue": "Heterophils", "synonyms": ["Heterophils"]}, {"conceptId": "C116187", "definition": "A relative measurement (ratio or percentage) of heterophils to leukocytes in a biological specimen from avian species.", "preferredTerm": "Heterophils to Leukocytes Ratio Measurement", "submissionValue": "Heterophils/Leukocytes", "synonyms": ["Heterophils/Leukocytes"]}, {"conceptId": "C96668", "definition": "A measurement of the hexokinase in a biological specimen.", "preferredTerm": "Hexokinase Measurement", "submissionValue": "Hexokinase", "synonyms": ["Hexokinase"]}, {"conceptId": "C116189", "definition": "A relative measurement (ratio or percentage) of the high absorption reticulocytes to total reticulocytes in a biological specimen.", "preferredTerm": "High Absorption Reticulocytes to Total Reticulocytes Ratio Measurement", "submissionValue": "High Absorption Retic/Reticulocytes", "synonyms": ["High Absorption Retic/Reticulocytes"]}, {"conceptId": "C116188", "definition": "A measurement of the high absorption reticulocytes in a biological specimen.", "preferredTerm": "High Absorption Reticulocyte Measurement", "submissionValue": "High Absorption Reticulocytes", "synonyms": ["High Absorption Reticulocytes"]}, {"conceptId": "C74754", "definition": "A measurement of the hippuric acid crystals present in a biological specimen.", "preferredTerm": "Hippuric Acid Crystal Measurement", "submissionValue": "Hippuric Acid Crystals", "synonyms": ["Hippuric Acid Crystals"]}, {"conceptId": "C80189", "definition": "A measurement of the histamine in a biological specimen.", "preferredTerm": "Histamine Measurement", "submissionValue": "Histamine", "synonyms": ["Histamine"]}, {"conceptId": "C122124", "definition": "A measurement of the histidine in a biological specimen.", "preferredTerm": "Histidine Measurement", "submissionValue": "Histidine", "synonyms": ["Histidine"]}, {"conceptId": "C112293", "definition": "A measurement of the total histone 1 antibodies in a biological specimen.", "preferredTerm": "Histone 1 Antibody Measurement", "submissionValue": "Histone 1 Antibody", "synonyms": ["Histone 1 Antibody"]}, {"conceptId": "C112294", "definition": "A measurement of the total histone 2A antibodies in a biological specimen.", "preferredTerm": "Histone 2A Antibody Measurement", "submissionValue": "Histone 2A Antibody", "synonyms": ["Histone 2A Antibody"]}, {"conceptId": "C112295", "definition": "A measurement of the total histone 2B antibodies in a biological specimen.", "preferredTerm": "Histone 2B Antibody Measurement", "submissionValue": "Histone 2B Antibody", "synonyms": ["Histone 2B Antibody"]}, {"conceptId": "C112296", "definition": "A measurement of the total histone 3 antibodies in a biological specimen.", "preferredTerm": "Histone 3 Antibody Measurement", "submissionValue": "Histone 3 Antibody", "synonyms": ["Histone 3 Antibody"]}, {"conceptId": "C112297", "definition": "A measurement of the total histone 4 antibodies in a biological specimen.", "preferredTerm": "Histone 4 Antibody Measurement", "submissionValue": "Histone 4 Antibody", "synonyms": ["Histone 4 Antibody"]}, {"conceptId": "C111209", "definition": "A measurement of histone antibodies in a biological specimen.", "preferredTerm": "Histone Antibody Measurement", "submissionValue": "Histone Antibodies", "synonyms": ["Anti-Histone Antibodies", "Histone Antibodies"]}, {"conceptId": "C74741", "definition": "A measurement of the homocysteine amino acid in a biological specimen.", "preferredTerm": "Homocysteine Acid Measurement", "submissionValue": "Homocysteine", "synonyms": ["Homocysteine"]}, {"conceptId": "C100447", "definition": "An assessment of beta-cell function and insulin resistance based on fasting blood glucose and insulin concentrations.", "preferredTerm": "Homeostatic Model Assessment of Insulin Resistance", "submissionValue": "Homostat Model Assess of Insulin Rstn", "synonyms": ["Homeostatic Model Assessment of Insulin Resistance", "Homostat Model Assess of Insulin Rstn"]}, {"conceptId": "C74863", "definition": "A measurement of the homovanillic acid metabolite in a biological specimen.", "preferredTerm": "Homovanillic Acid Measurement", "submissionValue": "Homovanillic Acid", "synonyms": ["Homovanillic Acid"]}, {"conceptId": "C74704", "definition": "A measurement of the Howell-Jolly bodies (spherical, blue-black condensed DNA inclusions within the body of a red blood cell that appear under Wright-stain) in a biological specimen.", "preferredTerm": "Howell-Jolly Body Measurement", "submissionValue": "Howell-Jolly Bodies", "synonyms": ["Howell-Jolly Bodies"]}, {"conceptId": "C103405", "definition": "A measurement of the human albumin antibody in a biological specimen.", "preferredTerm": "Human Albumin Antibody Measurement", "submissionValue": "Human Albumin Antibody", "synonyms": ["Human Albumin Antibody"]}, {"conceptId": "C103406", "definition": "A measurement of the human anti-mouse antibody in a biological specimen.", "preferredTerm": "Human Anti-Mouse Antibody Measurement", "submissionValue": "Human Anti-Mouse Antibody", "synonyms": ["HAMA"]}, {"conceptId": "C98740", "definition": "A measurement of the human anti-sheep IgE antibodies in a biological specimen.", "preferredTerm": "Human Anti-Sheep IgE Antibody Measurement", "submissionValue": "Human Anti-Sheep IgE Antibody", "synonyms": ["Human Anti-Sheep IgE Antibody"]}, {"conceptId": "C98741", "definition": "A measurement of the human anti-sheep IgG antibodies in a biological specimen.", "preferredTerm": "Human Anti-Sheep IgG Antibody Measurement", "submissionValue": "Human Anti-Sheep IgG Antibody", "synonyms": ["Human Anti-Sheep IgG Antibody"]}, {"conceptId": "C98742", "definition": "A measurement of the human anti-sheep IgM antibodies in a biological specimen.", "preferredTerm": "Human Anti-Sheep IgM Antibody Measurement", "submissionValue": "Human Anti-Sheep IgM Antibody", "synonyms": ["Human Anti-Sheep IgM Antibody"]}, {"conceptId": "C112312", "definition": "A measurement of the cells with positive expression of HER2 in a biological specimen.", "preferredTerm": "Human Epidermal Growth Factor Receptor 2 Measurement", "submissionValue": "Human Epidermal Growth Factor Receptor 2", "synonyms": ["ERBB2", "HER2/NEU", "Human Epidermal Growth Factor Receptor 2"]}, {"conceptId": "C74770", "definition": "A measurement of the hyaline casts present in a biological specimen.", "preferredTerm": "Hyaline Cast Measurement", "submissionValue": "Hyaline Casts", "synonyms": ["Hyaline Casts"]}, {"conceptId": "C112319", "definition": "A measurement of hyaluronic acid in a biological specimen.", "preferredTerm": "Hyaluronic Acid Measurement", "submissionValue": "Hyaluronic Acid", "synonyms": ["Hyaluronic Acid"]}, {"conceptId": "C74879", "definition": "A measurement of the hydrocodone present in a biological specimen.", "preferredTerm": "Hydrocodone Measurement", "submissionValue": "Hydrocodone", "synonyms": ["Hydrocodone"]}, {"conceptId": "C102275", "definition": "A measurement of the hydrogen in a biological specimen.", "preferredTerm": "Hydrogen Measurement", "submissionValue": "Hydrogen", "synonyms": ["Hydrogen"]}, {"conceptId": "C74880", "definition": "A measurement of the hydromorphone present in a biological specimen.", "preferredTerm": "Hydromorphone Measurement", "submissionValue": "Hydromorphone", "synonyms": ["Hydromorphone"]}, {"conceptId": "C80190", "definition": "A measurement of the total hydroxyproline in a biological specimen.", "preferredTerm": "Hydroxyproline Measurement", "submissionValue": "Hydroxyproline", "synonyms": ["Hydroxyproline"]}, {"conceptId": "C96669", "definition": "A measurement of the prevalence of the erthrocytes with an elevated hemoglobin concentration.", "preferredTerm": "Hyperchromia Measurement", "submissionValue": "Hyperchromia", "synonyms": ["Hyperchromia"]}, {"conceptId": "C74612", "definition": "A measurement of the hypersegmented (more than five lobes) neutrophils in a biological specimen.", "preferredTerm": "Hypersegmented Neutrophil Measurement", "submissionValue": "Hypersegmented Cells", "synonyms": ["Hypersegmented Cells"]}, {"conceptId": "C64802", "definition": "An observation which indicates that the hemoglobin concentration in a red blood cell specimen has fallen below a specified level.", "preferredTerm": "Hypochromia", "submissionValue": "Hypochromia", "synonyms": ["Hypochromia"]}, {"conceptId": "C116201", "definition": "A measurement of the hypogranular neutrophils in a biological specimen.", "preferredTerm": "Hypogranular Neutrophil Measurement", "submissionValue": "Hypogranular Neutrophils", "synonyms": ["Hypogranular Neutrophils"]}, {"conceptId": "C112325", "definition": "A measurement of the intermediate density lipoprotein in a biological specimen.", "preferredTerm": "Intermediate Density Lipoprotein Cholesterol Measurement", "submissionValue": "IDL Cholesterol", "synonyms": ["IDL Cholesterol", "Intermediate Density Lipoprotein"]}, {"conceptId": "C116197", "definition": "A measurement of the concentration of IDL particles in a biological specimen.", "preferredTerm": "IDL Particles Measurement", "submissionValue": "IDL Particles", "synonyms": ["IDL Particles", "Intermediate Density Lipoproteins Particles"]}, {"conceptId": "C111232", "definition": "A measurement of the yellow color of a biological specimen, due to the presence of bile pigments.", "preferredTerm": "Icteric Index", "submissionValue": "Icteric Index", "synonyms": ["Icteric Index", "Icterus"]}, {"conceptId": "C111233", "definition": "A measurement of the total IgG, IgM, and IgA in a biological specimen.", "preferredTerm": "IgG IgM IgA Total Measurement", "submissionValue": "IgG IgM IgA Total", "synonyms": ["IgG IgM IgA Total"]}, {"conceptId": "C96670", "definition": "A measurement of the immature basophils in a biological specimen.", "preferredTerm": "Immature Basophil Count", "submissionValue": "Immature Basophils", "synonyms": ["Immature Basophils"]}, {"conceptId": "C96671", "definition": "A relative measurement (ratio or percentage) of immature basophils to total leukocytes in a biological specimen.", "preferredTerm": "Immature Basophil to Leukocyte Ratio Measurement", "submissionValue": "Immature Basophils/Leukocytes", "synonyms": ["Immature Basophils/Leukocytes"]}, {"conceptId": "C96672", "definition": "A measurement of the total immature cells in a blood specimen.", "preferredTerm": "Immature Cell Count", "submissionValue": "Immature Cells", "synonyms": ["Immature Cells"]}, {"conceptId": "C111234", "definition": "A relative measurement (ratio or percentage) of the immature hematopoietic cells to total cells in a biological specimen.", "preferredTerm": "Immature Cell to Total Cell Ratio Measurement", "submissionValue": "Immature Cells/Total Cells", "synonyms": ["Immature Cells/Total Cells"]}, {"conceptId": "C96673", "definition": "A measurement of the immature eosinophils in a biological specimen.", "preferredTerm": "Immature Eosinophil Count", "submissionValue": "Immature Eosinophils", "synonyms": ["Immature Eosinophils"]}, {"conceptId": "C96674", "definition": "A relative measurement (ratio or percentage) of immature eosinophils to total leukocytes in a biological specimen.", "preferredTerm": "Immature Eosinophil to Leukocyte Ratio Measurement", "submissionValue": "Immature Eosinophils/Leukocytes", "synonyms": ["Immature Eosinophils/Leukocytes"]}, {"conceptId": "C96675", "definition": "A measurement of the total immature granulocytes in a biological specimen.", "preferredTerm": "Immature Granulocyte Count", "submissionValue": "Immature Granulocytes", "synonyms": ["Immature Granulocytes"]}, {"conceptId": "C100445", "definition": "A relative measurement (ratio or percentage) of the immature granulocytes to leukocytes in a biological specimen (for example a bone marrow specimen).", "preferredTerm": "Immature Granulocytes to Leukocytes Ratio Measurement", "submissionValue": "Immature Granulocytes/Leukocytes", "synonyms": ["Immature Granulocytes/Leukocytes"]}, {"conceptId": "C100444", "definition": "A measurement of the immature lymphocytes in a biological specimen.", "preferredTerm": "Immature Lymphocytes Measurement", "submissionValue": "Immature Lymphocytes", "synonyms": ["Immature Lymphocytes"]}, {"conceptId": "C100443", "definition": "A relative measurement (ratio or percentage) of the immature lymphocytes to leukocytes in a biological specimen.", "preferredTerm": "Immature Lymphocytes to Leukocytes Ratio Measurement", "submissionValue": "Immature Lymphocytes/Leukocytes", "synonyms": ["Immature Lymphocytes/Leukocytes"]}, {"conceptId": "C96676", "definition": "A measurement of the immature monocytes in a biological specimen.", "preferredTerm": "Immature Monocyte Count", "submissionValue": "Immature Monocytes", "synonyms": ["Immature Monocytes"]}, {"conceptId": "C96677", "definition": "A relative measurement (ratio or percentage) of immature monocytes to total leukocytes in a biological specimen.", "preferredTerm": "Immature Monocyte to Leukocyte Ratio Measurement", "submissionValue": "Immature Monocytes/Leukocytes", "synonyms": ["Immature Monocytes/Leukocytes"]}, {"conceptId": "C96678", "definition": "A measurement of the total immature neutrophils in a biological specimen.", "preferredTerm": "Immature Neutrophil Count", "submissionValue": "Immature Neutrophils", "synonyms": ["Immature Neutrophils"]}, {"conceptId": "C100442", "definition": "A relative measurement (ratio or percentage) of the immature neutrophils to leukocytes in a biological specimen.", "preferredTerm": "Immature Neutrophils to Leukocytes Ratio Measurement", "submissionValue": "Immature Neutrophils/Leukocytes", "synonyms": ["Immature Neutrophils/Leukocytes"]}, {"conceptId": "C96679", "definition": "A measurement of the immature plasma cells in a biological specimen.", "preferredTerm": "Immature Plasma Cell Count", "submissionValue": "Immature Plasma Cells", "synonyms": ["Immature Plasma Cells"]}, {"conceptId": "C96680", "definition": "A relative measurement (ratio or percentage) of immature plasma cells to total lymphocytes in a biological specimen.", "preferredTerm": "Immature Plasma Cell to Lymphocyte Ratio Measurement", "submissionValue": "Immature Plasma Cells/Lymphocytes", "synonyms": ["Immature Plasma Cells/Lymphocytes"]}, {"conceptId": "C102276", "definition": "A measurement of the immature reticulocyte fraction present in a biological specimen.", "preferredTerm": "Immature Reticulocyte Fraction Measurement", "submissionValue": "Immature Reticulocyte Fraction", "synonyms": ["Immature Reticulocyte Fraction"]}, {"conceptId": "C103407", "definition": "A measurement of the immunoblasts in a biological specimen.", "preferredTerm": "Immunoblast Count", "submissionValue": "Immunoblasts", "synonyms": ["Lymphocytes, Immunoblastic"]}, {"conceptId": "C106535", "definition": "A relative measurement (ratio or percentage) of immunoblasts to all lymphocytes present in a sample.", "preferredTerm": "Immunoblasts to Lymphocytes Ratio Measurement", "submissionValue": "Immunoblasts/Lymphocytes", "synonyms": ["Immunoblasts/Lymphocytes", "Lymphocytes, Immunoblastic/Lymphocytes"]}, {"conceptId": "C81969", "definition": "A measurement of the Immunoglobulin A in a biological specimen.", "preferredTerm": "Immunoglobulin A Measurement", "submissionValue": "Immunoglobulin A", "synonyms": ["Immunoglobulin A"]}, {"conceptId": "C98745", "definition": "A measurement of the Immunoglobulin D in a biological specimen.", "preferredTerm": "Immunoglobulin D Measurement", "submissionValue": "Immunoglobulin D", "synonyms": ["Immunoglobulin D"]}, {"conceptId": "C81970", "definition": "A measurement of the Immunoglobulin E in a biological specimen.", "preferredTerm": "Immunoglobulin E Measurement", "submissionValue": "Immunoglobulin E", "synonyms": ["Immunoglobulin E"]}, {"conceptId": "C81971", "definition": "A measurement of the Immunoglobulin G in a biological specimen.", "preferredTerm": "Immunoglobulin G Measurement", "submissionValue": "Immunoglobulin G", "synonyms": ["Immunoglobulin G"]}, {"conceptId": "C122127", "definition": "A measurement of the immunoglobulin G subclass 1 in a biological specimen.", "preferredTerm": "Immunoglobulin G Subclass 1 Measurement", "submissionValue": "Immunoglobulin G Subclass 1", "synonyms": ["Immunoglobulin G Subclass 1"]}, {"conceptId": "C122128", "definition": "A measurement of the immunoglobulin G subclass 2 in a biological specimen.", "preferredTerm": "Immunoglobulin G Subclass 2 Measurement", "submissionValue": "Immunoglobulin G Subclass 2", "synonyms": ["Immunoglobulin G Subclass 2"]}, {"conceptId": "C122129", "definition": "A measurement of the immunoglobulin G subclass 3 in a biological specimen.", "preferredTerm": "Immunoglobulin G Subclass 3 Measurement", "submissionValue": "Immunoglobulin G Subclass 3", "synonyms": ["Immunoglobulin G Subclass 3"]}, {"conceptId": "C122130", "definition": "A measurement of the immunoglobulin G subclass 4 in a biological specimen.", "preferredTerm": "Immunoglobulin G Subclass 4 Measurement", "submissionValue": "Immunoglobulin G Subclass 4", "synonyms": ["Immunoglobulin G Subclass 4"]}, {"conceptId": "C119285", "definition": "A relative measurement (ratio or percentage) of the immunoglobulin G to creatinine in a biological specimen.", "preferredTerm": "Immunoglobulin G to Creatinine Ratio Measurement", "submissionValue": "Immunoglobulin G/Creatinine", "synonyms": ["Immunoglobulin G/Creatinine"]}, {"conceptId": "C81972", "definition": "A measurement of the Immunoglobulin M in a biological specimen.", "preferredTerm": "Immunoglobulin M Measurement", "submissionValue": "Immunoglobulin M", "synonyms": ["Immunoglobulin M"]}, {"conceptId": "C116184", "definition": "A measurement of the inclusion bodies in a biological specimen.", "preferredTerm": "Inclusion Body Measurement", "submissionValue": "Inclusion Bodies", "synonyms": ["Inclusion Bodies"]}, {"conceptId": "C82044", "definition": "A measurement of the indican present in a biological specimen.", "preferredTerm": "Indican Measurement", "submissionValue": "Indican", "synonyms": ["Indican"]}, {"conceptId": "C64483", "definition": "A measurement of the unconjugated or non-water-soluble bilirubin in a biological specimen.", "preferredTerm": "Indirect Bilirubin Measurement", "submissionValue": "Indirect Bilirubin", "synonyms": ["Indirect Bilirubin"]}, {"conceptId": "C92273", "definition": "A measurement of the Influenza A H1N1 viral load in a biological specimen.", "preferredTerm": "Influenza A H1N1 Viral Load Measurement", "submissionValue": "Influenza A H1N1 Viral Load", "synonyms": ["Influenza A H1N1 Viral Load"]}, {"conceptId": "C103408", "definition": "A measurement of the Influenza A IgG antibody in a biological specimen.", "preferredTerm": "Influenza A IgG Antibody Measurement", "submissionValue": "Influenza A IgG Antibody", "synonyms": ["Influenza A IgG Antibody"]}, {"conceptId": "C92274", "definition": "A measurement of the Influenza A viral load in a biological specimen.", "preferredTerm": "Influenza A Viral Load Measurement", "submissionValue": "Influenza A Viral Load", "synonyms": ["Influenza A Viral Load"]}, {"conceptId": "C103409", "definition": "A measurement of the Influenza B IgG antibody in a biological specimen.", "preferredTerm": "Influenza B IgG Antibody Measurement", "submissionValue": "Influenza B IgG Antibody", "synonyms": ["Influenza B IgG Antibody"]}, {"conceptId": "C82020", "definition": "A measurement of the inhibin A in a biological specimen.", "preferredTerm": "Inhibin A Measurement", "submissionValue": "Inhibin A", "synonyms": ["Inhibin A"]}, {"conceptId": "C96681", "definition": "A measurement of the inhibin B in a biological specimen.", "preferredTerm": "Inhibin B Measurement", "submissionValue": "Inhibin B", "synonyms": ["Inhibin B"]}, {"conceptId": "C74788", "definition": "A measurement of the insulin in a biological specimen.", "preferredTerm": "Insulin Measurement", "submissionValue": "Insulin", "synonyms": ["Insulin"]}, {"conceptId": "C119287", "definition": "A measurement of the antibody to therapeutic insulin in a biological specimen.", "preferredTerm": "Insulin Antibody Measurement", "submissionValue": "Insulin Antibody", "synonyms": ["Insulin Antibody"]}, {"conceptId": "C119286", "definition": "A measurement of the antibody to endogenous insulin in a biological specimen.", "preferredTerm": "Insulin Autoantibody Measurement", "submissionValue": "Insulin Autoantibody", "synonyms": ["Insulin Autoantibody"]}, {"conceptId": "C112322", "definition": "A measurement of the insulin-like growth factor binding protein 3 in a biological specimen.", "preferredTerm": "Insulin-Like Growth Factor Binding Protein 3 Measurement", "submissionValue": "Insulin-Like Growth Factor Binding Prot3", "synonyms": ["Insulin-Like Growth Factor Binding Prot3", "Insulin-Like Growth Factor Binding Protein 3"]}, {"conceptId": "C74864", "definition": "A measurement of the insulin-like growth factor-1 in a biological specimen.", "preferredTerm": "Insulin Like Growth Factor-1 Measurement", "submissionValue": "Insulin-like Growth Factor-1", "synonyms": ["Insulin-like Growth Factor-1"]}, {"conceptId": "C74865", "definition": "A measurement of the insulin-like growth factor-2 in a biological specimen.", "preferredTerm": "Insulin Like Growth Factor-2 Measurement", "submissionValue": "Insulin-like Growth Factor-2", "synonyms": ["Insulin-like Growth Factor-2"]}, {"conceptId": "C119284", "definition": "A measurement of the insulinoma-associated protein 2 antibody in a biological specimen.", "preferredTerm": "Insulinoma-Associated Protein 2 Antibody Measurement", "submissionValue": "Insulinoma-Associated Protein 2 Antibody", "synonyms": ["Insulinoma-Associated Protein 2 Antibody"]}, {"conceptId": "C81994", "definition": "A measurement of the interferon alpha in a biological specimen.", "preferredTerm": "Interferon Alpha Measurement", "submissionValue": "Interferon Alpha", "synonyms": ["Interferon Alpha"]}, {"conceptId": "C81995", "definition": "A measurement of the interferon beta in a biological specimen.", "preferredTerm": "Interferon Beta Measurement", "submissionValue": "Interferon Beta", "synonyms": ["Interferon Beta"]}, {"conceptId": "C81996", "definition": "A measurement of the interferon gamma in a biological specimen.", "preferredTerm": "Interferon Gamma Measurement", "submissionValue": "Interferon Gamma", "synonyms": ["Interferon Gamma"]}, {"conceptId": "C74805", "definition": "A measurement of the interleukin 1 in a biological specimen.", "preferredTerm": "Interleukin 1 Measurement", "submissionValue": "Interleukin 1", "synonyms": ["Interleukin 1"]}, {"conceptId": "C122131", "definition": "A measurement of interleukin 1 alpha in a biological specimen.", "preferredTerm": "Interleukin 1 Alpha Measurement", "submissionValue": "Interleukin 1 Alpha", "synonyms": ["Interleukin 1 Alpha"]}, {"conceptId": "C112323", "definition": "A measurement of interleukin 1 beta in a biological specimen.", "preferredTerm": "Interleukin 1 Beta Measurement", "submissionValue": "Interleukin 1 Beta", "synonyms": ["IL-1B", "IL1Beta", "Interleukin 1 Beta", "Interleukin 1B"]}, {"conceptId": "C112324", "definition": "A measurement of the interleukin 1 receptor antagonist in a biological specimen.", "preferredTerm": "Interleukin 1 Receptor Antagonist Measurement", "submissionValue": "Interleukin 1 Receptor Antagonist", "synonyms": ["IL-1RA", "Interleukin 1 Receptor Antagonist"]}, {"conceptId": "C74806", "definition": "A measurement of the interleukin 10 in a biological specimen.", "preferredTerm": "Interleukin 10 Measurement", "submissionValue": "Interleukin 10", "synonyms": ["Interleukin 10"]}, {"conceptId": "C74807", "definition": "A measurement of the interleukin 11 in a biological specimen.", "preferredTerm": "Interleukin 11 Measurement", "submissionValue": "Interleukin 11", "synonyms": ["Interleukin 11"]}, {"conceptId": "C74808", "definition": "A measurement of the interleukin 12 in a biological specimen.", "preferredTerm": "Interleukin 12 Measurement", "submissionValue": "Interleukin 12", "synonyms": ["Interleukin 12"]}, {"conceptId": "C74809", "definition": "A measurement of the interleukin 13 in a biological specimen.", "preferredTerm": "Interleukin 13 Measurement", "submissionValue": "Interleukin 13", "synonyms": ["Interleukin 13"]}, {"conceptId": "C74810", "definition": "A measurement of the interleukin 14 in a biological specimen.", "preferredTerm": "Interleukin 14 Measurement", "submissionValue": "Interleukin 14", "synonyms": ["Interleukin 14"]}, {"conceptId": "C74811", "definition": "A measurement of the interleukin 15 in a biological specimen.", "preferredTerm": "Interleukin 15 Measurement", "submissionValue": "Interleukin 15", "synonyms": ["Interleukin 15"]}, {"conceptId": "C74812", "definition": "A measurement of the interleukin 16 in a biological specimen.", "preferredTerm": "Interleukin 16 Measurement", "submissionValue": "Interleukin 16", "synonyms": ["Interleukin 16"]}, {"conceptId": "C74813", "definition": "A measurement of the interleukin 17 in a biological specimen.", "preferredTerm": "Interleukin 17 Measurement", "submissionValue": "Interleukin 17", "synonyms": ["Interleukin 17"]}, {"conceptId": "C74814", "definition": "A measurement of the interleukin 18 in a biological specimen.", "preferredTerm": "Interleukin 18 Measurement", "submissionValue": "Interleukin 18", "synonyms": ["Interleukin 18"]}, {"conceptId": "C74815", "definition": "A measurement of the interleukin 19 in a biological specimen.", "preferredTerm": "Interleukin 19 Measurement", "submissionValue": "Interleukin 19", "synonyms": ["Interleukin 19"]}, {"conceptId": "C74816", "definition": "A measurement of the interleukin 2 in a biological specimen.", "preferredTerm": "Interleukin 2 Measurement", "submissionValue": "Interleukin 2", "synonyms": ["Interleukin 2"]}, {"conceptId": "C74817", "definition": "A measurement of the interleukin 20 in a biological specimen.", "preferredTerm": "Interleukin 20 Measurement", "submissionValue": "Interleukin 20", "synonyms": ["Interleukin 20"]}, {"conceptId": "C74818", "definition": "A measurement of the interleukin 21 in a biological specimen.", "preferredTerm": "Interleukin 21 Measurement", "submissionValue": "Interleukin 21", "synonyms": ["Interleukin 21"]}, {"conceptId": "C74819", "definition": "A measurement of the interleukin 22 in a biological specimen.", "preferredTerm": "Interleukin 22 Measurement", "submissionValue": "Interleukin 22", "synonyms": ["Interleukin 22"]}, {"conceptId": "C74820", "definition": "A measurement of the interleukin 23 in a biological specimen.", "preferredTerm": "Interleukin 23 Measurement", "submissionValue": "Interleukin 23", "synonyms": ["Interleukin 23"]}, {"conceptId": "C74821", "definition": "A measurement of the interleukin 24 in a biological specimen.", "preferredTerm": "Interleukin 24 Measurement", "submissionValue": "Interleukin 24", "synonyms": ["Interleukin 24"]}, {"conceptId": "C74822", "definition": "A measurement of the interleukin 25 in a biological specimen.", "preferredTerm": "Interleukin 25 Measurement", "submissionValue": "Interleukin 25", "synonyms": ["Interleukin 25"]}, {"conceptId": "C74823", "definition": "A measurement of the interleukin 26 in a biological specimen.", "preferredTerm": "Interleukin 26 Measurement", "submissionValue": "Interleukin 26", "synonyms": ["Interleukin 26"]}, {"conceptId": "C74824", "definition": "A measurement of the interleukin 27 in a biological specimen.", "preferredTerm": "Interleukin 27 Measurement", "submissionValue": "Interleukin 27", "synonyms": ["Interleukin 27"]}, {"conceptId": "C74825", "definition": "A measurement of the interleukin 28 in a biological specimen.", "preferredTerm": "Interleukin 28 Measurement", "submissionValue": "Interleukin 28", "synonyms": ["Interleukin 28"]}, {"conceptId": "C74826", "definition": "A measurement of the interleukin 29 in a biological specimen.", "preferredTerm": "Interleukin 29 Measurement", "submissionValue": "Interleukin 29", "synonyms": ["Interleukin 29"]}, {"conceptId": "C74827", "definition": "A measurement of the interleukin 3 in a biological specimen.", "preferredTerm": "Interleukin 3 Measurement", "submissionValue": "Interleukin 3", "synonyms": ["Interleukin 3"]}, {"conceptId": "C74828", "definition": "A measurement of the interleukin 30 in a biological specimen.", "preferredTerm": "Interleukin 30 Measurement", "submissionValue": "Interleukin 30", "synonyms": ["Interleukin 30"]}, {"conceptId": "C74829", "definition": "A measurement of the interleukin 31 in a biological specimen.", "preferredTerm": "Interleukin 31 Measurement", "submissionValue": "Interleukin 31", "synonyms": ["Interleukin 31"]}, {"conceptId": "C74830", "definition": "A measurement of the interleukin 32 in a biological specimen.", "preferredTerm": "Interleukin 32 Measurement", "submissionValue": "Interleukin 32", "synonyms": ["Interleukin 32"]}, {"conceptId": "C74831", "definition": "A measurement of the interleukin 33 in a biological specimen.", "preferredTerm": "Interleukin 33 Measurement", "submissionValue": "Interleukin 33", "synonyms": ["Interleukin 33"]}, {"conceptId": "C74832", "definition": "A measurement of the interleukin 4 in a biological specimen.", "preferredTerm": "Interleukin 4 Measurement", "submissionValue": "Interleukin 4", "synonyms": ["Interleukin 4"]}, {"conceptId": "C74833", "definition": "A measurement of the interleukin 5 in a biological specimen.", "preferredTerm": "Interleukin 5 Measurement", "submissionValue": "Interleukin 5", "synonyms": ["Interleukin 5"]}, {"conceptId": "C74834", "definition": "A measurement of the interleukin 6 in a biological specimen.", "preferredTerm": "Interleukin 6 Measurement", "submissionValue": "Interleukin 6", "synonyms": ["Interleukin 6"]}, {"conceptId": "C74835", "definition": "A measurement of the interleukin 7 in a biological specimen.", "preferredTerm": "Interleukin 7 Measurement", "submissionValue": "Interleukin 7", "synonyms": ["Interleukin 7"]}, {"conceptId": "C74836", "definition": "A measurement of the interleukin 8 in a biological specimen.", "preferredTerm": "Interleukin 8 Measurement", "submissionValue": "Interleukin 8", "synonyms": ["Interleukin 8"]}, {"conceptId": "C74837", "definition": "A measurement of the interleukin 9 in a biological specimen.", "preferredTerm": "Interleukin 9 Measurement", "submissionValue": "Interleukin 9", "synonyms": ["Interleukin 9"]}, {"conceptId": "C119266", "definition": "A measurement of the intestinal specific alkaline phosphatase isoform in a biological specimen.", "preferredTerm": "Intestinal Specific Alkaline Phosphatase Measurement", "submissionValue": "Intestinal Specific Alkaline Phosphatase", "synonyms": ["Intestinal Specific Alkaline Phosphatase"]}, {"conceptId": "C98748", "definition": "A measurement of the volume of serum or plasma that would be cleared of inulin by excretion of urine for a specified unit of time (e.g. one minute).", "preferredTerm": "Inulin Clearance", "submissionValue": "Inulin Clearance", "synonyms": ["Inulin Clearance"]}, {"conceptId": "C100439", "definition": "A measurement of the volume of serum or plasma that would be cleared of Iohexol through excretion for a specified unit of time.", "preferredTerm": "Iohexol Clearance", "submissionValue": "Iohexol Clearance", "synonyms": ["Iohexol Clearance"]}, {"conceptId": "C98749", "definition": "A measurement of the volume of serum or plasma that would be cleared of iothalamate by excretion of urine for a specified unit of time (e.g. one minute).", "preferredTerm": "Iothalamate Clearance", "submissionValue": "Iothalamate Clearance", "synonyms": ["Iothalamate Clearance"]}, {"conceptId": "C98750", "definition": "A measurement of the volume of serum or plasma that would be cleared of iothalamate by excretion of urine for a specified unit of time (e.g. one minute), adjusted for body size.", "preferredTerm": "Iothalamate Clearance Adjusted for BSA", "submissionValue": "Iothalamate Clearance Adjusted for BSA", "synonyms": ["Iothalamate Clearance Adjusted for BSA"]}, {"conceptId": "C74679", "definition": "A measurement of the iron in a biological specimen.", "preferredTerm": "Iron Measurement", "submissionValue": "Iron", "synonyms": ["FE", "Iron"]}, {"conceptId": "C117838", "definition": "A measurement of the amount of iron being excreted in urine over a defined amount of time (e.g. one hour).", "preferredTerm": "Iron Urine Excretion Rate", "submissionValue": "Iron Excretion Rate", "synonyms": ["Iron Excretion Rate"]}, {"conceptId": "C81985", "definition": "A measurement of the islet cell 512 antibody in a biological specimen.", "preferredTerm": "Islet Cell 512 Antibody Measurement", "submissionValue": "Islet Cell 512 Antibody", "synonyms": ["Islet Cell 512 Antibody"]}, {"conceptId": "C81986", "definition": "A measurement of the islet cell 512 antigen in a biological specimen.", "preferredTerm": "Islet Cell 512 Antigen Measurement", "submissionValue": "Islet Cell 512 Antigen", "synonyms": ["Islet Cell 512 Antigen"]}, {"conceptId": "C122126", "definition": "A measurement of the islet cell cytoplasmic IgG antibody in a biological specimen.", "preferredTerm": "Islet Cell Cytoplasmic IgG Antibody Measurement", "submissionValue": "Islet Cell Cytoplasmic IgG Antibody", "synonyms": ["Islet Cell Cytoplasmic IgG Antibody"]}, {"conceptId": "C81987", "definition": "A measurement of the islet neogenesis associated protein antibody in a biological specimen.", "preferredTerm": "Islet Neogenesis Associated Protein Antibody Measurement", "submissionValue": "Islet Neogenesis Assoc Protein Antibody", "synonyms": ["Islet Neogenesis Assoc Protein Antibody"]}, {"conceptId": "C103410", "definition": "A measurement of the isoleucine in a biological specimen.", "preferredTerm": "Isoleucine Measurement", "submissionValue": "Isoleucine", "synonyms": ["Isoleucine"]}, {"conceptId": "C112326", "definition": "A measurement of the JC virus antibody in a biological specimen.", "preferredTerm": "JC Virus Antibody Measurement", "submissionValue": "JC Virus Antibody", "synonyms": ["JC Polyomavirus Antibody", "JC Virus Antibody", "JCV Antibody", "John Cunningham Virus Antibody"]}, {"conceptId": "C100459", "definition": "A measurement of the Jo-1 antibody in a biological specimen.", "preferredTerm": "Jo-1 Antibody Measurement", "submissionValue": "Jo-1 Antibody", "synonyms": ["Jo-1 Antibody"]}, {"conceptId": "C98730", "definition": "A measurement of the free kappa light chain in a biological specimen.", "preferredTerm": "Free Kappa Light Chain Measurement", "submissionValue": "Kappa Light Chain, Free", "synonyms": ["Kappa Light Chain, Free"]}, {"conceptId": "C98731", "definition": "A relative measurement (ratio or percentage) of the free kappa light chain to the free lambda light chain in a biological specimen.", "preferredTerm": "Free Kappa Light Chain to Free Lambda Light Chain Ratio Measurement", "submissionValue": "Kappa Lt Chain,Free/Lambda Lt Chain,Free", "synonyms": ["Kappa Lt Chain,Free/Lambda Lt Chain,Free"]}, {"conceptId": "C111239", "definition": "A measurement of the ketone bodies (acetone, acetoacetic acid, beta-hydroxy