{"_links": {"parentPackage": {"href": "/mdr/ct/packages/sendct-2015-06-26", "title": "SEND Controlled Terminology Package 22 Effective 2015-06-26", "type": "Terminology"}, "priorVersion": {"href": "/mdr/ct/packages/sendct-2015-03-27/codelists/C77529", "title": "CDISC SEND Biospecimens Terminology", "type": "Code List"}, "rootItem": {"href": "/mdr/root/ct/sendct/codelists/C77529", "title": "Version-agnostic anchor resource for codelist C77529", "type": "Root Value Domain"}, "self": {"href": "/mdr/ct/packages/sendct-2015-06-26/codelists/C77529", "title": "CDISC SEND Biospecimens Terminology", "type": "Code List"}}, "conceptId": "C77529", "definition": "Terminology related to any material sample taken from a biological entity.", "extensible": "true", "name": "Specimen", "preferredTerm": "CDISC SEND Biospecimens Terminology", "submissionValue": "SPEC", "synonyms": ["Specimen"], "terms": [{"conceptId": "C77608", "definition": "The tissues that surround the organs that are present within the abdominal cavity. The abdominal wall tissue is composed of layers of fat, parietal peritoneum, fascia, and muscles. (NCI)", "preferredTerm": "Abdominal Wall", "submissionValue": "ABDOMINAL WALL"}, {"conceptId": "C98702", "definition": "The glandular stomach of the ruminant. (NCI)", "preferredTerm": "Abomasum", "submissionValue": "ABOMASUM"}, {"conceptId": "C12472", "definition": "A specialized form of connective tissue consisting primarily of adipocytes (fat cells), surrounded by a meshwork of collagen fibers. (NCI)", "preferredTerm": "Adipose Tissue", "submissionValue": "ADIPOSE TISSUE", "synonyms": ["Adipose Tissue", "Body Fat", "Fat Tissue"]}, {"conceptId": "C32235", "definition": "Brown-colored adipose tissue that contains numerous small droplets of lipids and high numbers of mitochondria as its primary function is to generate body heat.", "preferredTerm": "Brown Adipose Tissue", "submissionValue": "ADIPOSE TISSUE, BROWN", "synonyms": ["BAT", "Brown Fat"]}, {"conceptId": "C33889", "definition": "Adipose tissue that collects, stores and releases fat in the form of triglycerides. It functions as a heat insulator, mechanical cushion and as a source of energy. White adipose tissue is composed of adipocytes that secrete leptin and other substances that effect energy homeostasis. Its distribution in the body is dependent on the sex of the individual. (NCI)", "preferredTerm": "White Adipose Tissue", "submissionValue": "ADIPOSE TISSUE, WHITE", "synonyms": ["White Fat"]}, {"conceptId": "C32057", "definition": "The terminal dilation of an alveolar duct that gives rise to alveoli in the lung. (NCI)", "preferredTerm": "Alveolar Sac", "submissionValue": "AIR SAC"}, {"conceptId": "C90476", "definition": "The total collection of tissues within a sample. (NCI)", "preferredTerm": "Total Tissue", "submissionValue": "ALL TISSUES"}, {"conceptId": "C12440", "definition": "An almond-shaped group of basal nuclei anterior to the inferior horn of the lateral ventricle of the brain, within the temporal lobe. The amygdala is part of the limbic system. (MESH)", "preferredTerm": "Amygdala", "submissionValue": "AMYGDALOID BODY", "synonyms": ["Amygdaloid Nucleus"]}, {"conceptId": "C12372", "definition": "A blood vessel that carries blood away from the heart. (NCI)", "preferredTerm": "Artery", "submissionValue": "ARTERY", "synonyms": ["Artery"]}, {"conceptId": "C12669", "definition": "The major arterial trunk that carries oxygenated blood from the left ventricle into the ascending aorta behind the heart, the aortic arch, through the thorax as the descending aorta and through the abdomen as the abdominal aorta; it bifurcates into the left and right common iliac arteries. (NCI)", "preferredTerm": "Aorta", "submissionValue": "ARTERY, AORTA", "synonyms": ["Aorta"]}, {"conceptId": "C52849", "definition": "An artery that supplies oxygenated blood to the ear. (NCI)", "preferredTerm": "Auricular Artery", "submissionValue": "ARTERY, AURICULAR"}, {"conceptId": "C12681", "definition": "An artery originating at the axillary artery and branching into the radial and ulnar arteries. (NCI)", "preferredTerm": "Brachial Artery", "submissionValue": "ARTERY, BRACHIAL", "synonyms": ["Brachial Artery"]}, {"conceptId": "C12687", "definition": "One of two arteries that supply oxygenated blood to the head and neck; the left common carotid branches from the aorta and the right common carotid from the innominate (brachiocephalic artery). (NCI)", "preferredTerm": "Carotid Artery", "submissionValue": "ARTERY, CAROTID", "synonyms": ["Carotid Artery"]}, {"conceptId": "C12843", "definition": "A principal artery that originates in the aorta. It supplies blood to the muscular tissue of the heart. (NCI)", "preferredTerm": "Coronary Artery", "submissionValue": "ARTERY, CORONARY", "synonyms": ["Coronary Artery"]}, {"conceptId": "C12715", "definition": "An artery that starts within the inguinal region and extends to the lower extremities. (NCI)", "preferredTerm": "Femoral Artery", "submissionValue": "ARTERY, FEMORAL", "synonyms": ["Femoral Artery"]}, {"conceptId": "C12733", "definition": "A branch of the abdominal aorta that supplies blood to the lower trunk and the legs. (NCI)", "preferredTerm": "Iliac Artery", "submissionValue": "ARTERY, ILIAC"}, {"conceptId": "C52941", "definition": "The blood vessel that supplies the breast and the anterior chest wall with arterial blood. It is located in the chest wall. (NCI)", "preferredTerm": "Internal Mammary Artery", "submissionValue": "ARTERY, MAMMARY"}, {"conceptId": "C52975", "definition": "A branch of the abdominal aorta that supplies blood to the intestines. (NCI)", "preferredTerm": "Mesenteric Artery", "submissionValue": "ARTERY, MESENTERIC"}, {"conceptId": "C12774", "definition": "An artery arising from the right ventricle of the heart that carries deoxygenated blood to the lungs. (NCI)", "preferredTerm": "Pulmonary Artery", "submissionValue": "ARTERY, PULMONARY"}, {"conceptId": "C33581", "definition": "A branch of the abdominal aorta that supplies oxygenated blood to the testis. (NCI)", "preferredTerm": "Spermatic Artery", "submissionValue": "ARTERY, SPERMATIC"}, {"conceptId": "C33587", "definition": "A branch of the intercostal artery that supplies oxygenated blood to the spinal cord and the pia mater. (NCI)", "preferredTerm": "Spinal Artery", "submissionValue": "ARTERY, SPINAL"}, {"conceptId": "C33643", "definition": "An artery located below the clavicle that supplies blood to the head and the arms. The right subclavian artery originates from the brachiocephalic artery and the left subclavian artery originates from the aortic arch. (NCI)", "preferredTerm": "Subclavian Artery", "submissionValue": "ARTERY, SUBCLAVIAN"}, {"conceptId": "C13347", "definition": "Fluid withdrawn from a body cavity, cyst, or tumor. (NCI)", "preferredTerm": "Aspirate", "submissionValue": "ASPIRATE"}, {"conceptId": "C13192", "definition": "Fluid composed of waste products, bile acids, salts, cholesterol, and electrolytes. It is secreted by the liver parenchyma and stored in the gallbladder. (NCI)", "preferredTerm": "Bile", "submissionValue": "BILE"}, {"conceptId": "C70699", "definition": "Any material sample taken from a biological entity for testing, diagnostic, propagation, treatment or research purposes, including a sample obtained from a living organism or taken from the biological object after halting of all its life functions. Biospecimen can contain one or more components including but not limited to cellular molecules, cells, tissues, organs, body fluids, embryos, and body excretory products. (NCI)", "preferredTerm": "Biospecimen", "submissionValue": "BIOSPECIMEN", "synonyms": ["Biological Sample", "Biological Specimen", "Sample"]}, {"conceptId": "C25444", "definition": "A natural hollow or sinus within the body. (NCI)", "preferredTerm": "Body Cavity", "submissionValue": "BODY CAVITY"}, {"conceptId": "C12664", "definition": "The portion of the body that lies between the thorax and the pelvis. (NCI)", "preferredTerm": "Abdomen", "submissionValue": "BODY CAVITY, ABDOMINAL", "synonyms": ["Abdomen", "Abdominal Cavity"]}, {"conceptId": "C77638", "definition": "The atrium that is formed by the bones of the skull, and contains the brain.", "preferredTerm": "Cranial Cavity", "submissionValue": "BODY CAVITY, CRANIAL"}, {"conceptId": "C92208", "definition": "The space of the abdominal and pelvic cavities outside the peritoneum. (NCI)", "preferredTerm": "Extraperitoneal Space", "submissionValue": "BODY CAVITY, EXTRAPERITONEAL", "synonyms": ["Extraperitoneal Area", "Extraperitoneal Space"]}, {"conceptId": "C12424", "definition": "The proximal portion of the respiratory passages on either side of the nasal septum lying between the floor of the cranium and the roof of the mouth and extending from the face to the pharynx. The nasal cavity is lined with ciliated mucosa, extending from the nares to the pharynx. (NCI)", "preferredTerm": "Nasal Cavity", "submissionValue": "BODY CAVITY, NASAL", "synonyms": ["Nasal Cavity"]}, {"conceptId": "C12421", "definition": "The cavity located at the upper end of the alimentary canal, behind the teeth and gums that is bounded on the outside by the lips, above by the hard and soft palates and below by the tongue. (NCI)", "preferredTerm": "Oral Cavity", "submissionValue": "BODY CAVITY, ORAL", "synonyms": ["Mouth", "Oral Cavity"]}, {"conceptId": "C12347", "definition": "The bony cavity of the skull which contains the eye, anterior portion of the optic nerve, ocular muscles and ocular adnexa. Seven bones contribute to the structure of the orbit: the frontal, maxillary, zygomatic, sphenoid, lacrimal, ethmoid, and palatine bones. (NCI)", "preferredTerm": "Orbit", "submissionValue": "BODY CAVITY, ORBITAL", "synonyms": ["Eye Socket", "Ocular Orbit", "Orbit", "Orbital Cavity"]}, {"conceptId": "C12767", "definition": "The bony, basin-shaped structure formed by the hipbones and the base of the backbone supporting the lower limbs in humans. (NCI)", "preferredTerm": "Pelvis", "submissionValue": "BODY CAVITY, PELVIC", "synonyms": ["Pelvic Cavity", "Pelvic Region", "Pelvis"]}, {"conceptId": "C38662", "definition": "The potential body space formed between the parietal and visceral layers of the pericardial sac. (NCI)", "preferredTerm": "Pericardial Cavity", "submissionValue": "BODY CAVITY, PERICARDIAL", "synonyms": ["Pericardial Cavity"]}, {"conceptId": "C12769", "definition": "The lower part of the abdomen that contains the intestines (the last part of the digestive tract), the stomach, and the liver. It is bound by thin membranes. (NCI)", "preferredTerm": "Peritoneal Cavity", "submissionValue": "BODY CAVITY, PERITONEAL", "synonyms": ["Peritoneal Cavity"]}, {"conceptId": "C12840", "definition": "The cavity lined by the pleura, located in the thorax and contains heart and lungs. (NCI)", "preferredTerm": "Pleural Cavity", "submissionValue": "BODY CAVITY, PLEURAL", "synonyms": ["Pleural Cavity"]}, {"conceptId": "C12905", "definition": "The cavity in the vertebrate body enclosed by the ribs between the diaphragm and the neck and containing the lungs and heart. (NCI)", "preferredTerm": "Thoracic Cavity", "submissionValue": "BODY CAVITY, THORACIC", "synonyms": ["Thoracic Cavity"]}, {"conceptId": "C13076", "definition": "The mineralized osseous tissue that gives rigidity to the bones and forms its honeycomb-like three-dimensional internal structure. (NCI)", "preferredTerm": "Bone Tissue", "submissionValue": "BONE"}, {"conceptId": "C12431", "definition": "The tissue occupying the spaces of bone. It consists of blood vessel sinuses and a network of hematopoietic cells which give rise to the red cells, white cells, and megakaryocytes. (NCI)", "preferredTerm": "Bone Marrow", "submissionValue": "BONE MARROW", "synonyms": ["Bone Marrow"]}, {"conceptId": "C77609", "definition": "A laboratory procedure in which cells from bone marrow aspirate are spread thinly on a glass slide for microscopic examination. The study of bone marrow smears is routinely used for the investigation, diagnosis, and staging of hematopoietic disorders.", "preferredTerm": "Bone Marrow Smear", "submissionValue": "BONE MARROW SMEAR"}, {"conceptId": "C77686", "definition": "Bone marrow in the femoral bone. (NCI)", "preferredTerm": "Bone Marrow, Femur", "submissionValue": "BONE MARROW, FEMUR", "synonyms": ["Bone Marrow, Femoral"]}, {"conceptId": "C77687", "definition": "Bone marrow in the humerus bone. (NCI)", "preferredTerm": "Bone Marrow, Humerus", "submissionValue": "BONE MARROW, HUMERUS"}, {"conceptId": "C77688", "definition": "Bone marrow in the rib. (NCI)", "preferredTerm": "Bone Marrow, Rib", "submissionValue": "BONE MARROW, RIB"}, {"conceptId": "C77689", "definition": "Bone marrow in the scapula. (NCI)", "preferredTerm": "Bone Marrow, Scapula", "submissionValue": "BONE MARROW, SCAPULA"}, {"conceptId": "C77690", "definition": "Bone marrow in the sternum. (NCI)", "preferredTerm": "Bone Marrow, Sternum", "submissionValue": "BONE MARROW, STERNUM", "synonyms": ["Bone Marrow, Sternal"]}, {"conceptId": "C77691", "definition": "Bone marrow in the tibia bone. (NCI)", "preferredTerm": "Bone Marrow, Tibia", "submissionValue": "BONE MARROW, TIBIA"}, {"conceptId": "C77692", "definition": "Bone marrow in a vertebral bone. (NCI)", "preferredTerm": "Bone Marrow, Vertebral", "submissionValue": "BONE MARROW, VERTEBRUM", "synonyms": ["Bone Marrow, Vertebral"]}, {"conceptId": "C81188", "definition": "The roof or dome of the skull. (NCI)", "preferredTerm": "Skullcap", "submissionValue": "BONE, CALVARIUM"}, {"conceptId": "C12688", "definition": "Any of the small bones of the wrist joint, located between the radius and the ulna and the metacarpus. (NCI)", "preferredTerm": "Carpal Bone", "submissionValue": "BONE, CARPAL"}, {"conceptId": "C83002", "definition": "A rounded bony projection at the end of the bone. (NCI)", "preferredTerm": "Condyle", "submissionValue": "BONE, CONDYLE"}, {"conceptId": "C12717", "definition": "The upper leg bone positioned between the pelvis and the knee. (NCI)", "preferredTerm": "Femur", "submissionValue": "BONE, FEMUR", "synonyms": ["Bone, Femoral", "Femur"]}, {"conceptId": "C12718", "definition": "The small, lateral calf bone extending from the knee to the ankle. (NCI)", "preferredTerm": "Fibula", "submissionValue": "BONE, FIBULA", "synonyms": ["Fibula"]}, {"conceptId": "C12731", "definition": "The upper arm bone between the shoulder and elbow. (NCI)", "preferredTerm": "Humerus", "submissionValue": "BONE, HUMERUS", "synonyms": ["Bone, Humeral", "Humerus"]}, {"conceptId": "C32765", "definition": "The broad, dorsal, upper, and widest of the three principal bones composing either half of the pelvis. (NCI)", "preferredTerm": "Ilium", "submissionValue": "BONE, ILIUM", "synonyms": ["Ilium"]}, {"conceptId": "C12290", "definition": "The lower jaw bone holding the lower teeth. (NCI)", "preferredTerm": "Mandible", "submissionValue": "BONE, MANDIBLE", "synonyms": ["Bone, Mandibular", "Inferior Maxillary Bone", "Lower Jaw", "Mandible"]}, {"conceptId": "C26470", "definition": "The upper jawbone in vertebrates: it is fused to the cranium. (NCI)", "preferredTerm": "Maxilla", "submissionValue": "BONE, MAXILLA", "synonyms": ["Maxilla"]}, {"conceptId": "C33282", "definition": "A small flat triangular bone in front of the knee that articulates with the femur and protects the knee joint. (NCI)", "preferredTerm": "Patella", "submissionValue": "BONE, PATELLA", "synonyms": ["Patella"]}, {"conceptId": "C33287", "definition": "The caudal portion of the trunk, bounded anteriorly and laterally by the two hip bones incorporating the socket portion of the hip joint for each leg. Posteriorly it is bounded by the sacrum and coccyx. (NCI)", "preferredTerm": "Pelvic Bone", "submissionValue": "BONE, PELVIS", "synonyms": ["Pelvic Bone", "Pelvis Bone"]}, {"conceptId": "C12777", "definition": "The long bone that extends from the lateral aspect of the elbow to the medial side of the carpus.", "preferredTerm": "Radius Bone", "submissionValue": "BONE, RADIUS", "synonyms": ["Radius", "Radius Bone"]}, {"conceptId": "C12782", "definition": "Any one of the paired bones, extending from the thoracic vertebrae toward the median line on the ventral aspect of the trunk.", "preferredTerm": "Rib", "submissionValue": "BONE, RIB"}, {"conceptId": "C12783", "definition": "The flat triangle-shaped bone that connects the humerus with the clavicle in the back of the shoulder. (NCI)", "preferredTerm": "Scapula", "submissionValue": "BONE, SCAPULA", "synonyms": ["Scapula", "Shoulder Blade"]}, {"conceptId": "C12789", "definition": "The bones that form the head, made up of the bones of the braincase and face. (NCI)", "preferredTerm": "Skull", "submissionValue": "BONE, SKULL", "synonyms": ["Cranium"]}, {"conceptId": "C12793", "definition": "The long, flat bone connecting with the cartilages of the first seven ribs and the clavicle. (NCI)", "preferredTerm": "Sternum", "submissionValue": "BONE, STERNUM", "synonyms": ["Sterna", "Sternum"]}, {"conceptId": "C12796", "definition": "Any one of the seven bones forming the instep of the foot. (NCI)", "preferredTerm": "Tarsal Bone", "submissionValue": "BONE, TARSUS", "synonyms": ["Bone, Tarsal", "Tarsus", "Tarsus Bone"]}, {"conceptId": "C12800", "definition": "A bone located between the femur and the tarsus, being part of the lower leg. (NCI)", "preferredTerm": "Tibia", "submissionValue": "BONE, TIBIA", "synonyms": ["Tibia"]}, {"conceptId": "C12809", "definition": "The long bone that extends from the elbow to the lateral side of the carpus.", "preferredTerm": "Ulna", "submissionValue": "BONE, ULNA", "synonyms": ["Ulna Bone"]}, {"conceptId": "C33868", "definition": "One of the bones that make up the vertebral column.", "preferredTerm": "Vertebral Bone", "submissionValue": "BONE, VERTEBRA", "synonyms": ["Vertebra", "Vertebral Bone"]}, {"conceptId": "C12439", "definition": "An organ composed of grey and white matter containing billions of neurons that is the center for intelligence and reasoning. It is protected by the bony cranium. (NCI)", "preferredTerm": "Brain", "submissionValue": "BRAIN", "synonyms": ["Brain", "Nervous System, Brain"]}, {"conceptId": "C12447", "definition": "Clusters of neurons comprising the globus pallidus, putamen, caudate, nucleus accumbens, substantia nigra and subthalamic nucleus. They are involved with high level aspects of inhibitory motor activity in coordination with the excitation commands issued from the cerebellum. (NCI)", "preferredTerm": "Basal Ganglia", "submissionValue": "BRAIN, BASAL GANGLIA", "synonyms": ["Basal Ganglia"]}, {"conceptId": "C12441", "definition": "The part of the brain that connects the cerebral hemispheres with the spinal cord. It consists of the mesencephalon, pons, and medulla oblongata. (NCI)", "preferredTerm": "Brain Stem", "submissionValue": "BRAIN, BRAIN STEM", "synonyms": ["Brain Stem"]}, {"conceptId": "C49137", "definition": "The cortical cell layer of the cerebellum. It consists of the granular layer, molecular layer, and Purkinje cell layer. (NCI)", "preferredTerm": "Cortical Cell Layer of the Cerebellum", "submissionValue": "BRAIN, CEREBELLUM", "synonyms": ["Cerebellar", "Cerebellum"]}, {"conceptId": "C49136", "definition": "Cerebral tissue composed of cells with distinctive characteristics. The cerebral cortex contains six cell layers. (NCI)", "preferredTerm": "Cortical Cell Layer of the Cerebral Cortex", "submissionValue": "BRAIN, CEREBRUM", "synonyms": ["Cerebral Hemispheres", "Cerebrum"]}, {"conceptId": "C12694", "definition": "Blood vessels forming villous structures in the third, fourth, and lateral ventricles of the brain. (NCI)", "preferredTerm": "Choroid Plexus", "submissionValue": "BRAIN, CHOROID PLEXUS", "synonyms": ["Choroid Plexus"]}, {"conceptId": "C40185", "definition": "The largest part of the brain composed of the cerebral hemispheres, thalamus, hypothalamus, and the limbic system. (NCI)", "preferredTerm": "Forebrain", "submissionValue": "BRAIN, FOREBRAIN"}, {"conceptId": "C12444", "definition": "A curved gray matter structure of the temporal lobe lying on the floor of the lateral ventricle of the brain. (NCI)", "preferredTerm": "Hippocampus", "submissionValue": "BRAIN, HIPPOCAMPUS", "synonyms": ["Hippocampus"]}, {"conceptId": "C12458", "definition": "The supervisory center in the brain, rich in ganglia, nerve fibers, and synaptic connections. It is composed of several sections called nuclei, each of which controls a specific function.", "preferredTerm": "Hypothalamus", "submissionValue": "BRAIN, HYPOTHALAMUS", "synonyms": ["Hypothalamus"]}, {"conceptId": "C12442", "definition": "The lower portion of the brainstem located between the pons and brainstem. This structure contains several descending and ascending tracts, lower cranial nerve nuclei, a significant proportion of the reticular system of the brainstem and other structures. (NCI)", "preferredTerm": "Medulla Oblongata", "submissionValue": "BRAIN, MEDULLA OBLONGATA", "synonyms": ["Medulla Oblongata"]}, {"conceptId": "C12510", "definition": "The uppermost portion of the brainstem located between the pons and the diencephalon. The midbrain contains the cerebral peduncles, oculomotor, trochlear and red nuclei, substantia nigra and various other nuclei and tracts. (NCI)", "preferredTerm": "Mesencephalon", "submissionValue": "BRAIN, MIDBRAIN", "synonyms": ["Mesencephalon", "Midbrain"]}, {"conceptId": "C92592", "definition": "The location of the brain that corresponds to the narrowing of the fourth ventricle into the central canal of the spinal column. (NCI)", "preferredTerm": "Obex Region", "submissionValue": "BRAIN, OBEX"}, {"conceptId": "C28401", "definition": "Anatomical structure located in the vertebral forebrain that receives neural input regarding odors that have been detected by cells within the nasal cavity. The axons of olfactory receptor cells extend into the olfactory bulb. (NCI)", "preferredTerm": "Olfactory Bulb", "submissionValue": "BRAIN, OLFACTORY BULB", "synonyms": ["Olfactory Bulb"]}, {"conceptId": "C12511", "definition": "The middle portion of the brainstem located between the midbrain and the medulla oblongata.", "preferredTerm": "Pons Varolii", "submissionValue": "BRAIN, PONS", "synonyms": ["Pons Varolii"]}, {"conceptId": "C12453", "definition": "A large cell mass extending forward, over the dorsal surface of the crus cerebri, from the rostral border of the pons into the subthalamic region. It is composed of a dorsal stratum of closely spaced pigmented cells, the pars compacta, and a larger ventral region of widely scattered cells, the pars reticulata. The pars compacta includes numerous cells that project forward to the striatum (caudate nucleus and putamen) and contain dopamine, which acts as the primary neurotransmitter at the synaptic endings. Other, apparently non-dopaminergic cells project to portions of the ventral nucleus of thalamus, the superior colliculus and reticular formation. The nigrostriatal projection is reciprocated by a striatonigral fiber system with multiple neurotransmitters, chief among which is gamma-aminobutyric acid (GABA). The substantia nigra is involved in the metabolic disturbances associated with Parkinson's disease and Huntington's disease. (NCI)", "preferredTerm": "Substantia Nigra", "submissionValue": "BRAIN, SUBSTANTIA NIGRA", "synonyms": ["Substantia Nigra"]}, {"conceptId": "C12459", "definition": "An ovoid mass composed predominantly of gray substance and associated laminae of white substance. The thalamus is divided into anterior, medial, and lateral parts. The function of the thalamus is to relay sensory impulses and cerebellar and basal ganglia projections to the cerebral cortex. The thalamus is positioned within the posterior part of the diencephalon forming most of each lateral wall of the third ventricle. (NCI)", "preferredTerm": "Thalamus", "submissionValue": "BRAIN, THALAMUS", "synonyms": ["Thalamus"]}, {"conceptId": "C97340", "definition": "A brain region in the occipital cortex that receives visual stimuli from the retina. (NCI)", "preferredTerm": "Primary Visual Cortex", "submissionValue": "BRAIN, VISUAL CORTEX"}, {"conceptId": "C12683", "definition": "Tubular structure in continuation with the trachea, serving as air passage. It terminates in the lung (terminal bronchiole). (NCI)", "preferredTerm": "Bronchus", "submissionValue": "BRONCHUS", "synonyms": ["Bronchi", "Bronchus"]}, {"conceptId": "C32234", "definition": "Lymphoid tissue located with the bronchi.", "preferredTerm": "Bronchus-Associated Lymphoid Tissue", "submissionValue": "BRONCHUS-ASSOCIATED LYMPHOID TISSUE", "synonyms": ["BALT"]}, {"conceptId": "C13010", "definition": "Small, flat, granular glands embedded in the submucous areolar tissue of the duodenum. (MeSH) (NCI)", "preferredTerm": "Brunner's Gland", "submissionValue": "BRUNNER'S GLAND"}, {"conceptId": "C84507", "definition": "The middle fraction of an anticoagulated blood specimen following separation by centrifugation. It contains most of the white blood cells and platelets.", "preferredTerm": "Buffy Coat", "submissionValue": "BUFFY COAT"}, {"conceptId": "C112234", "definition": "A superficial muscle located in the midline of the perineum and anterior to the anus. It covers the bulb of the penis in males and the vestibular bulb in females. The origin and insertion differs between males and females. (NCI)", "preferredTerm": "Bulbospongiosus", "submissionValue": "BULBOSPONGIOSUS", "synonyms": ["Bulbocavernosus"]}, {"conceptId": "C111141", "definition": "An epithelial outgrowth of lymphoid tissue in the cloaca of young birds, responsible for B-lymphocyte maturation. It undergoes atrophy and involution at six months of age.", "preferredTerm": "Bursa Of Fabricius", "submissionValue": "BURSA OF FABRICIUS"}, {"conceptId": "C25264", "definition": "A ridge or ridge-like structure. The carina of trachea is part of the lowest tracheal cartilage which is placed between the orifices of the two bronchi.", "preferredTerm": "Carina", "submissionValue": "CARINA", "synonyms": ["Carina, Tracheal"]}, {"conceptId": "C66852", "definition": "A cluster of cells that function as chemo-receptors, located at the bifurcation of the carotid artery. Its main purpose is to detect changes in the composition of arterial blood. (NCI)", "preferredTerm": "Carotid Body", "submissionValue": "CAROTID BODY"}, {"conceptId": "C32268", "definition": "A type of connective tissue composed of chondrocytes and an extracellular matrix, composed of collagen, elastin, and ground substance. There are three types of cartilage; namely elastic, hyaline, and fibrocartilage. (NCI)", "preferredTerm": "Cartilaginous Tissue", "submissionValue": "CARTILAGE", "synonyms": ["Cartilaginous"]}, {"conceptId": "C33732", "definition": "The lower part of the epididymis. (NCI)", "preferredTerm": "Tail of the Epididymis", "submissionValue": "CAUDA EPIDIDYMIS"}, {"conceptId": "C12311", "definition": "The lower part of the uterus occupying the region between the isthmus of the uterus and the vagina. It is divided into supravaginal and vaginal portions. (NCI)", "preferredTerm": "Cervix Uteri", "submissionValue": "CERVIX", "synonyms": ["Cervix Uteri", "Uterine Cervix"]}, {"conceptId": "C13070", "definition": "The fleshy part of the face bounded by the eyes, nose, ear, and jaw line. (NCI)", "preferredTerm": "Cheek", "submissionValue": "CHEEK"}, {"conceptId": "C111156", "definition": "An evagination of the oral mucosa within the cheek of some mammals, which forms a pocket. (NCI)", "preferredTerm": "Cheek Pouch", "submissionValue": "CHEEK POUCH"}, {"conceptId": "C12308", "definition": "The erectile tissue in the vulva. It is composed of the corpora cavernosa and the glans clitoris.", "preferredTerm": "Clitoris", "submissionValue": "CLITORIS"}, {"conceptId": "C34127", "definition": "The singular posterior opening of the intestinal and urinary tracts of birds, reptiles, amphibians, marsupials and monotremes. (NCI)", "preferredTerm": "Cloaca", "submissionValue": "CLOACA"}, {"conceptId": "C12837", "definition": "Located at the brainstem, this sensory organ receives auditory signals from the cochlear auditory nerve fibers. It is composed of the dorsal cochlear nucleus located on the dorsolateral surface of the inferior peduncle and the ventral (or accessory) cochlear nucleus located on the ventral aspect of the inferior peduncle. (NCI)", "preferredTerm": "Cochlear Nucleus", "submissionValue": "COCHLEAR NUCLEI"}, {"conceptId": "C12341", "definition": "A thin, transparent tissue divided into the palpebral conjunctiva (covering the inner side of the eye lid) and the bulbar conjunctiva (covering the eyeball). (NCI)", "preferredTerm": "Conjunctiva", "submissionValue": "CONJUNCTIVA", "synonyms": ["Conjunctiva"]}, {"conceptId": "C12902", "definition": "The part of the conjunctiva, a thin transparent mucous membrane, that is loosely attached to the orbital septum and covers the anterior surface of the sclera.", "preferredTerm": "Bulbar Conjunctiva", "submissionValue": "CONJUNCTIVA, BULBAR"}, {"conceptId": "C12901", "definition": "The part of the conjunctiva, a thin transparent mucous membrane, that covers the posterior surface of the eyelids.", "preferredTerm": "Palpebral Conjunctiva", "submissionValue": "CONJUNCTIVA, PALPEBRAL"}, {"conceptId": "C12374", "definition": "The supporting or framework tissue of the body, formed of fibrous and ground substance with more or less numerous cells of various kinds; it is derived from the mesenchyme, and this in turn from the mesoderm; the varieties of connective tissue are: areolar or loose; adipose; dense, regular or irregular, white fibrous; elastic; mucous; and lymphoid tissue; cartilage; and bone; the blood and lymph may be regarded as connective tissues the ground substance of which is a liquid.", "preferredTerm": "Connective Tissue", "submissionValue": "CONNECTIVE TISSUE"}, {"conceptId": "C12446", "definition": "A white matter structure within the cleft that separates the left and right cerebral hemispheres in the mammalian brain. It is composed of a wide, flat bundle of 200-250 million axonal projections. (NCI)", "preferredTerm": "Corpus Callosum", "submissionValue": "CORPUS CALLOSUM"}, {"conceptId": "C12316", "definition": "The Corpus uteri, or body of uterus, is the part of the uterus above the isthmus, comprising about two thirds of the non-pregnant organ. (NCI)", "preferredTerm": "Corpus Uteri", "submissionValue": "CORPUS UTERI", "synonyms": ["Uterine Body", "Uterus, Corpus"]}, {"conceptId": "C32392", "definition": "Hyaline cartilaginous joint between the ribs and costal cartilage. (NCI)", "preferredTerm": "Costochondral Joint", "submissionValue": "COSTOCHONDRAL JOINT", "synonyms": ["Costochondral Junction", "Costochondral Junction, Rib"]}, {"conceptId": "C111162", "definition": "A saccular diverticulum of the esophagus in bird species that is used for food storage prior to digestion.", "preferredTerm": "Crop", "submissionValue": "CROP", "synonyms": ["Ingluvies"]}, {"conceptId": "C12948", "definition": "A tube that carries various secretions from one part of the body to another. (NCI)", "preferredTerm": "Duct", "submissionValue": "DUCT"}, {"conceptId": "C43615", "definition": "The tissue that forms the bile duct wall. It is lined by epithelium. (NCI)", "preferredTerm": "Bile Duct Tissue", "submissionValue": "DUCT, BILE"}, {"conceptId": "C12698", "definition": "The extrahepatic duct that is formed by the juncture of the cystic and hepatic ducts and extends to the duodenum.", "preferredTerm": "Common Bile Duct", "submissionValue": "DUCT, COMMON BILE"}, {"conceptId": "C32356", "definition": "The extrahepatic duct that connects the convergence of the left and right hepatic ducts into the common bile duct.", "preferredTerm": "Common Hepatic Duct", "submissionValue": "DUCT, COMMON HEPATIC"}, {"conceptId": "C32421", "definition": "A short duct attached to the gallbladder through which the bile from the gallbladder is secreted in the common bile duct. (NCI)", "preferredTerm": "Cystic Duct", "submissionValue": "DUCT, CYSTIC"}, {"conceptId": "C32492", "definition": "A tube-like structure that connects the rete testis to the head of the epididymis.", "preferredTerm": "Efferent Duct", "submissionValue": "DUCT, EFFERENT"}, {"conceptId": "C33161", "definition": "A tube-like structure that conveys tears from the lacrimal sac to the nasal cavity. (NCI)", "preferredTerm": "Nasolacrimal Duct", "submissionValue": "DUCT, NASOLACRIMAL", "synonyms": ["Duct, Nasolac"]}, {"conceptId": "C12272", "definition": "A duct extending from the pancreas to supply pancreatic content to the duodenum.", "preferredTerm": "Pancreatic Duct", "submissionValue": "DUCT, PANCREATIC"}, {"conceptId": "C49783", "definition": "A tube-like structure present in the developing embryo that connects the area in which the thyroid gland initially develops, the oropharynx, to the final position of the thyroid gland in the newborn. This structure normally atrophies prior to birth but may persist in some cases. (NCI)", "preferredTerm": "Thyroglossal Duct", "submissionValue": "DUCT, THYROGLOSSAL"}, {"conceptId": "C12394", "definition": "A sense organ needed for the detection of sound and for establishing balance. The outer ear consists of the auricle, the ear canal as well as the tympanic membrane. The middle ear is made up of an air-filled cavity behind the tympanic membrane that contains the ossicles (malleus, incus and stapes). The inner ear is made up of the cochlea needed for hearing and the vestibular apparatus required for balance. (NCI)", "preferredTerm": "Ear", "submissionValue": "EAR", "synonyms": ["Ear"]}, {"conceptId": "C12498", "definition": "A tubular structure that runs from the outer ear to the tympanic membrane.", "preferredTerm": "External Acoustic Meatus", "submissionValue": "EAR CANAL"}, {"conceptId": "C12395", "definition": "The snail shell-shaped auditory component of the inner ear. It contains the sensory organ of hearing. (NCI)", "preferredTerm": "Cochlea", "submissionValue": "EAR, COCHLEA"}, {"conceptId": "C13164", "definition": "The outer membranous connective tissue layer of the heart tissue. (NCI)", "preferredTerm": "Epicardium", "submissionValue": "EPICARDIUM"}, {"conceptId": "C12328", "definition": "A crescent-like structure located in the upper and posterior surfaces of the testis. It consists of the efferent ductules and the duct of the epididymis. It facilitates the maturation of sperm that is produced in the testis. (NCI)", "preferredTerm": "Epididymis", "submissionValue": "EPIDIDYMIS"}, {"conceptId": "C32529", "definition": "The round end of the long bones. (NCI)", "preferredTerm": "Epiphysis of the Bone", "submissionValue": "EPIPHYSIS", "synonyms": ["Epiphyseal Plate", "Growth Plate", "Junction, Bone-Cartilage"]}, {"conceptId": "C32543", "definition": "The tissue of the esophageal wall. It is composed of mucosa, a muscular coat, and a serosal surface. (NCI)", "preferredTerm": "Esophageal Tissue", "submissionValue": "ESOPHAGUS"}, {"conceptId": "C12500", "definition": "A tubular structure that runs from the middle ear to the nasopharynx and is approximately 3-4 cm length. Its lumen is roughly triangular and has average diameter of 2-3 mm. The lumen is lined by ciliated pseudostratified, columnar epithelium, which sweeps material from the middle ear to the nasopharynx. It is functionally collapsed at rest, with slight negative pressure present in the middle ear, and opens during swallowing, sneezing, and yawning. It serves to ventilate pressure differences between the middle ear and nasopharynx. This tube also allows middle ear secretions to drain into the nasopharynx.", "preferredTerm": "Eustachian Tube", "submissionValue": "EUSTACHIAN TUBE", "synonyms": ["Auditory Tube", "Pharyngotympanic Tube", "Tuba Auditoria"]}, {"conceptId": "C13233", "definition": "Fluid, cells or cellular debris that escapes from the blood vessels and accumulates in nearby tissues. It is the result of inflammation and is rich in proteins.", "preferredTerm": "Exudate", "submissionValue": "EXUDATE"}, {"conceptId": "C12401", "definition": "The organ of sight or vision. (NCI)", "preferredTerm": "Eye", "submissionValue": "EYE", "synonyms": ["Eye", "Eyeball"]}, {"conceptId": "C12667", "definition": "The space in the eye, filled with aqueous humor, bounded anteriorly by the cornea and a small portion of the sclera and posteriorly by a small portion of the ciliary body, the iris, and that part of the crystalline lens which presents through the pupil. (Cline et al., Dictionary of Visual Science, 4th ed, p109) (NCI)", "preferredTerm": "Anterior Chamber of the Eye", "submissionValue": "EYE, ANTERIOR CHAMBER"}, {"conceptId": "C13190", "definition": "The watery fluid which is present in the anterior and posterior chambers of the eye. (NCI)", "preferredTerm": "Aqueous Humor", "submissionValue": "EYE, AQUEOUS HUMOR", "synonyms": ["Aqueous Humour"]}, {"conceptId": "C12344", "definition": "A blood vessel-containing membrane of the eye that lies between the retina and the sclera. (NCI)", "preferredTerm": "Choroid", "submissionValue": "EYE, CHOROID"}, {"conceptId": "C12345", "definition": "Tissue located behind the iris and composed of muscle and epithelium. Its functions include the production of aqueous humor and changing the shape of the crystalline lens. (NCI)", "preferredTerm": "Ciliary Body", "submissionValue": "EYE, CILIARY BODY"}, {"conceptId": "C12342", "definition": "A dome-shaped, transparent, avascular tissue covering the front of the eye. It is composed of five layers: squamous epithelium, Bowman's membrane, stroma, Descemet's membrane, and endothelium. Refraction of light contributing to eye's focusing ability is its characteristic function. It contains unmyelinated nerve endings which are responsible for the high sensitivity of the tissue. (NCI)", "preferredTerm": "Cornea", "submissionValue": "EYE, CORNEA", "synonyms": ["Cornea"]}, {"conceptId": "C12737", "definition": "The colored disc of the eye composed of connective tissue, epithelium, and endothelium. It separates the anterior chamber from the posterior chamber. (NCI)", "preferredTerm": "Iris", "submissionValue": "EYE, IRIS"}, {"conceptId": "C12743", "definition": "A biconvex transparent structure of the eye through which light is focused on the retina. The lens sits behind the iris and is supported by the zonule, which connects it to the ciliary body. The lens is an avascular structure. (NCI)", "preferredTerm": "Lens", "submissionValue": "EYE, LENS", "synonyms": ["Crystalline Lens", "Lens", "Lens Of Eye", "Ocular Lens"]}, {"conceptId": "C12900", "definition": "A space within the eye located between the iris and the lens. It is filled with aqueous humor. (NCI)", "preferredTerm": "Posterior Chamber of the Eye", "submissionValue": "EYE, POSTERIOR CHAMBER", "synonyms": ["Eye, Posterior Compartment"]}, {"conceptId": "C49328", "definition": "The tissue that constitutes the retina. It is composed of the following layers: ganglion cell layer, inner limiting membrane, inner nuclear layer, inner plexiform layer, layer of the ophthalmic nerve fibers, layer of the rods and cones, neural retina, outer limiting membrane, outer nuclear layer, outer plexiform layer, and retinal pigment epithelium. (NCI)", "preferredTerm": "Retina Layer", "submissionValue": "EYE, RETINA"}, {"conceptId": "C12784", "definition": "The white, opaque, fibrous, outer tunic of the eyeball, covering it entirely excepting the segment covered anteriorly by the cornea. It is essentially avascular but contains apertures for vessels, lymphatics, and nerves. It receives the tendons of insertion of the extraocular muscles and at the corneoscleral junction contains the canal of Schlemm. (From Cline et al., Dictionary of Visual Science, 4th ed)", "preferredTerm": "Sclera", "submissionValue": "EYE, SCLERA"}, {"conceptId": "C33884", "definition": "A clear, avascular, gelatinous body that occupies the posterior chamber of the eye. It is bounded by the retina except anteriorly where it lies adjacent to the lens and iris.", "preferredTerm": "Vitreous Body", "submissionValue": "EYE, VITREOUS"}, {"conceptId": "C12713", "definition": "A thin membrane of skin with the purpose of covering and protecting an eye. (NCI)", "preferredTerm": "Eyelid", "submissionValue": "EYELID", "synonyms": ["Eyelid", "Palpebra"]}, {"conceptId": "C13071", "definition": "The portion of the head containing the eyes, nose and mouth, cheeks and jaws.", "preferredTerm": "Face", "submissionValue": "FACE", "synonyms": ["Facial"]}, {"conceptId": "C13234", "definition": "The material discharged from the bowel during defecation. It consists of undigested food, intestinal mucus, epithelial cells, and bacteria. (NCI)", "preferredTerm": "Feces", "submissionValue": "FECES", "synonyms": ["Feces"]}, {"conceptId": "C17730", "definition": "Any tissue from a fetus. (NCI)", "preferredTerm": "Fetal Tissue", "submissionValue": "FETUS"}, {"conceptId": "C13236", "definition": "Liquid substances produced by the body.", "preferredTerm": "Body Fluid or Substance", "submissionValue": "FLUID"}, {"conceptId": "C77611", "definition": "The fluid that is abnormally collected in the abdominal cavity as a result of vascular pressure, liver disorder, or malignancy. (NCI)", "preferredTerm": "Abdominal Fluid", "submissionValue": "FLUID, ABDOMINAL"}, {"conceptId": "C13188", "definition": "The fluid within the amniotic cavity which surrounds and protects the developing embryo. (NCI)", "preferredTerm": "Amniotic Fluid", "submissionValue": "FLUID, AMNIOTIC", "synonyms": ["Aqua Amnii"]}, {"conceptId": "C13195", "definition": "Fluid introduced into, and collected from, the lungs by a bronchoalveolar lavage procedure. (NCI)", "preferredTerm": "Bronchoalveolar Lavage Fluid", "submissionValue": "FLUID, BRONCHOALVEOLAR LAVAGE", "synonyms": ["Bronchial Lavage Fluid", "Fluid, Bronchial Lavage"]}, {"conceptId": "C12692", "definition": "The fluid that is contained within the brain ventricles, the subarachnoid space and the central canal of the spinal cord. (NCI)", "preferredTerm": "Cerebrospinal Fluid", "submissionValue": "FLUID, CEREBROSPINAL", "synonyms": ["CSF"]}, {"conceptId": "C3319", "definition": "Fluid collection within the pericardial sac, usually due to inflammation. (NCI)", "preferredTerm": "Pericardial Effusion", "submissionValue": "FLUID, PERICARDIAL"}, {"conceptId": "C77612", "definition": "The small amount of fluid that is generated in the abdominal cavity to lubricate the peritoneum. (NCI)", "preferredTerm": "Peritoneal Fluid", "submissionValue": "FLUID, PERITONEAL", "synonyms": ["Fluid, Ascites"]}, {"conceptId": "C33718", "definition": "A viscid fluid secreted by the synovial membrane, serving as a lubricant. (NCI)", "preferredTerm": "Synovial Fluid", "submissionValue": "FLUID, SYNOVIAL", "synonyms": ["Synovia", "Synovial Fluid"]}, {"conceptId": "C77613", "definition": "The fluid that is abnormally collected in the pleural cavity. (NCI)", "preferredTerm": "Pleural Fluid", "submissionValue": "FLUID, THORACIC", "synonyms": ["Pleural Fluid"]}, {"conceptId": "C32622", "definition": "The structure found below the ankle joint required for locomotion. (NCI)", "preferredTerm": "Foot", "submissionValue": "FOOT", "synonyms": ["Feet", "Foot"]}, {"conceptId": "C77671", "definition": "A laboratory specimen consisting of the foot and footpad. (NCI)", "preferredTerm": "Foot/Footpad", "submissionValue": "FOOT/FOOTPAD"}, {"conceptId": "C92654", "definition": "A thick, spongy layer of tissue located under the metacarpal and metatarsal joints of the foot. It consists of a pad of adipose tissue covered by a thick epidermis containing dermal sweat glands.", "preferredTerm": "Footpad", "submissionValue": "FOOTPAD"}, {"conceptId": "C12671", "definition": "The region of the body that extends distal to the scapulohumeral joint.", "preferredTerm": "Upper Extremity", "submissionValue": "FORELIMB", "synonyms": ["Upper Extremity"]}, {"conceptId": "C77956", "definition": "Non-glandular portion of the stomach of some mammals that is connected to the esophagus. It is utilized as a holding chamber during digestion for un-digested and partially digested food. (NCI)", "preferredTerm": "Forestomach", "submissionValue": "FORESTOMACH"}, {"conceptId": "C12377", "definition": "A pear-shaped organ located under the liver that stores and concentrates bile secreted by the liver. From the gallbladder the bile is delivered through the bile ducts into the intestine thereby aiding the digestion of fat-containing foods. (NCI)", "preferredTerm": "Gallbladder", "submissionValue": "GALLBLADDER", "synonyms": ["Gallbladder"]}, {"conceptId": "C12719", "definition": "A cluster of nervous tissue principally composed of neuronal cell bodies external to the central nervous system (CNS). (NCI)", "preferredTerm": "Ganglion", "submissionValue": "GANGLION", "synonyms": ["Ganglia", "Ganglion", "Neural Ganglion"]}, {"conceptId": "C98713", "definition": "Any one of the three sympathetic ganglia of the cervical vertebrae. (NCI)", "preferredTerm": "Cervical Ganglia", "submissionValue": "GANGLION, CERVICAL"}, {"conceptId": "C92211", "definition": "A sympathetic ganglion located at the seventh cervical vertebral level. (NCI)", "preferredTerm": "Inferior Cervical Ganglion", "submissionValue": "GANGLION, CERVICOTHORACIC"}, {"conceptId": "C12462", "definition": "Sensory ganglia located on the dorsal spinal roots within the vertebral column. (MeSH)", "preferredTerm": "Dorsal Root Ganglion", "submissionValue": "GANGLION, DORSAL ROOT", "synonyms": ["Dorsal Root"]}, {"conceptId": "C62642", "definition": "Large sensory ganglion of the trigeminal nerve that lies adjacent to the cavernous sinus in the trigeminal cavity of the dura mater. (NCI)", "preferredTerm": "Trigeminal Ganglion", "submissionValue": "GANGLION, TRIGEMINAL", "synonyms": ["Gasserian Ganglion"]}, {"conceptId": "C92214", "definition": "A tissue sample that contains the trigeminal ganglion and branches of the trigeminal nerve. (NCI)", "preferredTerm": "Trigeminal Ganglion/Trigeminal Nerve", "submissionValue": "GANGLION, TRIGEMINAL/NERVE, TRIGEMINAL"}, {"conceptId": "C77614", "definition": "The contents of the stomach that may include undigested food mixed with juices secreted by the gastric mucosal glands. (NCI)", "preferredTerm": "Gastric Content", "submissionValue": "GASTRIC CONTENTS", "synonyms": ["Digestive Contents", "Ingesta"]}, {"conceptId": "C92593", "definition": "A respiratory organ found in aquatic animals that allows for the exchange of dissolved oxygen from water into the blood stream. (NCI)", "preferredTerm": "Gill", "submissionValue": "GILLS"}, {"conceptId": "C32677", "definition": "The soft tissue surrounding the neck of individual teeth as well as covering the alveolar bone. The tissue is fibrous and continuous with the periodontal ligament and mucosal covering. (NCI)", "preferredTerm": "Gingiva", "submissionValue": "GINGIVA", "synonyms": ["Gingiva", "Gum"]}, {"conceptId": "C77615", "definition": "The thick-walled secondary stomach of birds used to grind the food prior to digestion. (NCI)", "preferredTerm": "Gizzard", "submissionValue": "GIZZARD"}, {"conceptId": "C77616", "definition": "A gland producing tears in a third eyelid in the corner of each eye, as seen in animals. (NCI)", "preferredTerm": "Gland of the Third Eyelid", "submissionValue": "GLAND OF THE THIRD EYELID", "synonyms": ["Nictitans Gland"]}, {"conceptId": "C74586", "definition": "Serous gland with distended lumen. It includes the gland of Krause in the lacrimal sac and the gland of Wolfring on the inner surface of the upper eyelid. (NCI)", "preferredTerm": "Accessory Lacrimal Gland", "submissionValue": "GLAND, ACCESSORY OCULAR"}, {"conceptId": "C32051", "definition": "The tissue that forms the adrenal gland. It consists of the outer adrenal cortex and the inner adrenal medulla. (NCI)", "preferredTerm": "Adrenal Gland Tissue", "submissionValue": "GLAND, ADRENAL"}, {"conceptId": "C77955", "definition": "Paired exocrine glands of the male reproductive system located at the medial termination of the ductus deferens that produce and secrete lipids and glycogen, components of the seminal fluid. (NCI)", "preferredTerm": "Ampullary Gland", "submissionValue": "GLAND, AMPULLARY"}, {"conceptId": "C32395", "definition": "Paired exocrine glands located at the base of the penis, positioned posterior and lateral to the urethra, that produce and secrete a clear viscous liquid that lubricates the urethra in preparation for the passage of sperm. (NCI)", "preferredTerm": "Cowper Gland", "submissionValue": "GLAND, BULBOURETHRAL", "synonyms": ["Cowper's Gland", "Gland, Cowper's"]}, {"conceptId": "C77610", "definition": "A large apocrine gland located in the area surrounding the anal orifice. (NCI)", "preferredTerm": "Circumanal Gland", "submissionValue": "GLAND, CIRCUMANAL"}, {"conceptId": "C77617", "definition": "A female reproductive gland located on the side of the clitoris. (NCI)", "preferredTerm": "Clitoral Gland", "submissionValue": "GLAND, CLITORAL"}, {"conceptId": "C77618", "definition": "The anterior lobe of the prostate gland in animals. (NCI)", "preferredTerm": "Coagulating Gland", "submissionValue": "GLAND, COAGULATING"}, {"conceptId": "C12313", "definition": "The endometrium, or tunica mucosa, is the mucous membrane comprising the inner layer of the uterine wall; it consists of a simple columnar epithelium and a lamina propria that contains simple tubular uterine glands. The structure, thickness, and state of the endometrium undergo marked change with the menstrual cycle.", "preferredTerm": "Endometrium", "submissionValue": "GLAND, ENDOMETRIAL"}, {"conceptId": "C77619", "definition": "An accessory gland of the orbit. (NCI)", "preferredTerm": "Harderian Gland", "submissionValue": "GLAND, HARDERIAN"}, {"conceptId": "C12346", "definition": "Paired, almond-shaped exocrine glands situated superior and posterior to each orbit of the eye that produce and secrete the watery serous component of tears. (NCI)", "preferredTerm": "Lacrimal Gland", "submissionValue": "GLAND, LACRIMAL"}, {"conceptId": "C12370", "definition": "The glandular tissue of the breast. In females, it is composed of numerous lobules with alveolar ducts and alveoli. In males, it is composed of rudimentary glands.", "preferredTerm": "Mammary Gland Tissue", "submissionValue": "GLAND, MAMMARY"}, {"conceptId": "C33075", "definition": "A sebaceous gland in the eyelid that produces a specific type of sebum. (NCI)", "preferredTerm": "Meibomian Gland", "submissionValue": "GLAND, MEIBOMIAN"}, {"conceptId": "C33270", "definition": "Parathyroid gland tissue consists of three primary cell types - chief cells, oxyphil cells and clear cells. These glands are usually located in close proximity to the thyroid gland. (NCI)", "preferredTerm": "Parathyroid Gland Tissue", "submissionValue": "GLAND, PARATHYROID"}, {"conceptId": "C77620", "definition": "A gland located in the area around the anus. (NCI)", "preferredTerm": "Perianal Gland", "submissionValue": "GLAND, PERIANAL"}, {"conceptId": "C77621", "definition": "A gland near the anus producing an odorous secretion. (NCI)", "preferredTerm": "Perineal Gland", "submissionValue": "GLAND, PERINEAL"}, {"conceptId": "C41834", "definition": "The tissue of the pineal gland. The pineal gland is a small reddish-gray body, about 8 mm. in length which lies in the depression between the superior colliculi. It is attached to the roof of the third ventricle near its junction with the mid-brain. It develops as an outgrowth from the third ventricle of the brain. The pineal parenchyma consists of follicles lined by epithelium and enveloped by connective tissues. It produces and secretes melatonin. (NCI)", "preferredTerm": "Pineal Parenchyma", "submissionValue": "GLAND, PINEAL", "synonyms": ["Pineal Body"]}, {"conceptId": "C12399", "definition": "Pea-sized endocrine gland located at the base of the brain in the pituitary fossa. It produces and secretes hormones such as oxytocin and vasopressin, to regulate the activities of the hypothalamus. (NCI)", "preferredTerm": "Pituitary Gland", "submissionValue": "GLAND, PITUITARY", "synonyms": ["Hypophysis", "Hypophysis Cerebri"]}, {"conceptId": "C79432", "definition": "Exocrine glands located at the anterior aspect of the genitals of some mammals, such as mice and rats, that produce and secrete pheromones. (NCI)", "preferredTerm": "Preputial Gland", "submissionValue": "GLAND, PREPUTIAL"}, {"conceptId": "C117978", "definition": "A laboratory specimen consisting of either preputial or clitoral gland.", "preferredTerm": "Preputial Gland/Clitoral Gland", "submissionValue": "GLAND, PREPUTIAL/GLAND, CLITORAL"}, {"conceptId": "C33414", "definition": "Tissue composed of tubuloalveolar glands embedded in fibromuscular stroma. The stroma is smooth muscle separated by strands of connective tissue rich in collagenous and elastic fibers. The secretory alveoli of the prostate are irregularly shaped with papillary projections of the mucosa into the lumen of the gland. (NCI)", "preferredTerm": "Prostatic Tissue", "submissionValue": "GLAND, PROSTATE"}, {"conceptId": "C77622", "definition": "The dorsolateral lobe of the prostate gland in animals. (NCI)", "preferredTerm": "Dorsolateral Prostate Gland", "submissionValue": "GLAND, PROSTATE DORSOLATERAL"}, {"conceptId": "C77623", "definition": "The ventral lobe of the prostate gland in animals. (NCI)", "preferredTerm": "Ventral Prostate Gland", "submissionValue": "GLAND, PROSTATE VENTRAL"}, {"conceptId": "C77670", "definition": "A laboratory specimen consisting of the prostate and seminal vesicles. (NCI)", "preferredTerm": "Prostate/Seminal Vesicles", "submissionValue": "GLAND, PROSTATE/GLAND, SEMINAL VESICLE"}, {"conceptId": "C33509", "definition": "Tissue consisting of mucous or serous secreting epithelial tissue, connective tissue, blood vessels, nerves and lymphatic tissue. (NCI)", "preferredTerm": "Salivary Gland Tissue", "submissionValue": "GLAND, SALIVARY"}, {"conceptId": "C33141", "definition": "Salivary glands that produce and secrete a saliva made up exclusively of mucous. (NCI)", "preferredTerm": "Mucous Salivary Gland", "submissionValue": "GLAND, SALIVARY, MUCOUS"}, {"conceptId": "C12427", "definition": "The largest of the three paired salivary glands, located in front of the ear. (NCI)", "preferredTerm": "Parotid Gland", "submissionValue": "GLAND, SALIVARY, PAROTID", "synonyms": ["Parotid Gland"]}, {"conceptId": "C33539", "definition": "Salivary glands that produce and secrete a saliva made up exclusively of a pale-yellow transparent fluid containing amylase. (NCI)", "preferredTerm": "Serous Salivary Gland", "submissionValue": "GLAND, SALIVARY, SEROUS"}, {"conceptId": "C12234", "definition": "A salivary gland located under the tongue in the floor of the oral cavity. (NCI)", "preferredTerm": "Sublingual Salivary Gland", "submissionValue": "GLAND, SALIVARY, SUBLINGUAL"}, {"conceptId": "C12233", "definition": "One of two salivary glands in the neck, located in the space bound by the two bellies of the digastric muscle and the angle of the mandible. It discharges through the submandibular duct. (MeSH) (NCI)", "preferredTerm": "Submandibular Gland", "submissionValue": "GLAND, SALIVARY, SUBMANDIBULAR", "synonyms": ["Gland, Salivary, Mandibular", "Submaxillary Gland"]}, {"conceptId": "C92215", "definition": "A tissue sample that contains the submandibular and sublingual salivary glands. (NCI)", "preferredTerm": "Submandibular Gland/Sublingual Gland", "submissionValue": "GLAND, SALIVARY, SUBMANDIBULAR/GLAND, SALIVARY, SUBLINGUAL"}, {"conceptId": "C77624", "definition": "A salivary gland located in the upper portion of the mouth. (NCI)", "preferredTerm": "Zygomatic Gland", "submissionValue": "GLAND, SALIVARY, ZYGOMATIC"}, {"conceptId": "C33519", "definition": "Small glands located within the epidermis, and associated with the hair follicle, that produce and secrete an oily substance that lubricates the skin and hair. (NCI)", "preferredTerm": "Sebaceous Gland", "submissionValue": "GLAND, SEBACEOUS"}, {"conceptId": "C12787", "definition": "One of the two paired glands in the male genitourinary system, posterior to the bladder and superior to the prostate gland, that produces fructose-rich seminal fluid which is a component of semen. These glands join the ipsilateral ductus deferens to form the ejaculatory duct. (NCI)", "preferredTerm": "Seminal Vesicle", "submissionValue": "GLAND, SEMINAL VESICLE", "synonyms": ["Seminal Sacs"]}, {"conceptId": "C92216", "definition": "A tissue sample that contains a seminal vesicle and coagulating gland. (NCI)", "preferredTerm": "Seminal Vesicle/Coagulating Gland", "submissionValue": "GLAND, SEMINAL VESICLE/GLAND, COAGULATING"}, {"conceptId": "C33785", "definition": "The tissue that forms the thyroid gland. Its main component is the thyroid follicle. (NCI)", "preferredTerm": "Thyroid Gland Tissue", "submissionValue": "GLAND, THYROID"}, {"conceptId": "C77667", "definition": "A laboratory specimen consisting of the thyroid and parathyroid. (NCI)", "preferredTerm": "Thyroid/Parathyroid", "submissionValue": "GLAND, THYROID/GLAND, PARATHYROID"}, {"conceptId": "C49311", "definition": "Any of the glands located at the wall of the urethra of male mammals that produce and secrete mucus, a major component of semen. (NCI)", "preferredTerm": "Gland of Littre", "submissionValue": "GLAND, URETHRAL", "synonyms": ["Gland Of Littre"]}, {"conceptId": "C77954", "definition": "A sebaceous gland located at the base of the rodent external ear that produces and secretes oil, which lubricates the auditory canal. (NCI)", "preferredTerm": "Zymbal Gland", "submissionValue": "GLAND, ZYMBAL"}, {"conceptId": "C12725", "definition": "The gamete-producing tissues, ovary or testis. (MeSH)", "preferredTerm": "Gonad", "submissionValue": "GONAD"}, {"conceptId": "C77639", "definition": "The uterus during pregnancy. (NCI)", "preferredTerm": "Gravid Uterus", "submissionValue": "GRAVID UTERUS"}, {"conceptId": "C3824", "definition": "A localized pathological or traumatic structural change, damage, deformity, or discontinuity of tissue, organ, or body part. (NCI)", "preferredTerm": "Lesion", "submissionValue": "GROSS LESION"}, {"conceptId": "C12936", "definition": "Non-encapsulated accumulations of lymphoid tissue in the alimentary tract that form a secretory immune system containing cells committed to IgA or IgE synthesis; It includes Peyer's patches and the lymphoid tissue which is present throughout the gastrointestinal mucosa. (NCI)", "preferredTerm": "Gut-Associated Lymphoid Tissue", "submissionValue": "GUT-ASSOCIATED LYMPHOID TISSUE"}, {"conceptId": "C32705", "definition": "The filamentous outgrowth of the epidermis. (NCI)", "preferredTerm": "Hair", "submissionValue": "HAIR", "synonyms": ["Hair"]}, {"conceptId": "C32712", "definition": "The distal portion of the upper extremity. It consists of the carpus, metacarpus, and digits. (NCI)", "preferredTerm": "Hand", "submissionValue": "HAND", "synonyms": ["Hand"]}, {"conceptId": "C12419", "definition": "The anterior and superior part of a human or animal bearing the mouth, the brain and sensory organs.", "preferredTerm": "Head", "submissionValue": "HEAD", "synonyms": ["Head"]}, {"conceptId": "C12727", "definition": "A hollow muscular organ which receives the blood from the veins and propels it into the arteries. It is divided by a musculomembranous septum into two halves -- right or venous and left or arterial -- each of which consists of a receiving chamber (atrium) and an ejecting chamber (ventricle). (NCI)", "preferredTerm": "Heart", "submissionValue": "HEART", "synonyms": ["Cardiac", "Heart"]}, {"conceptId": "C41168", "definition": "The tissue that contains hematopoietic cells and/or lymphocytes and immune system cells.", "preferredTerm": "Hematopoietic and Lymphoid Tissue", "submissionValue": "HEMOLYMPHORETICULAR TISSUE", "synonyms": ["Hematopoietic And Lymphoid Tissue"]}, {"conceptId": "C77625", "definition": "The posterior limb of an animal. (NCI)", "preferredTerm": "Hind Limb", "submissionValue": "HINDLIMB"}, {"conceptId": "C77626", "definition": "The keratinized, outer portion of the foot of a ungulate mammal.", "preferredTerm": "Hoof Wall", "submissionValue": "HOOF WALL"}, {"conceptId": "C12499", "definition": "The portion of the ear located within the temporal bone that is involved in both hearing and balance and includes the semicircular canals, vestibule, and cochlea. (from American Heritage Dictionary online)", "preferredTerm": "Inner Ear", "submissionValue": "INNER EAR", "synonyms": ["Cochlea", "Internal Ear", "Labyrinth"]}, {"conceptId": "C32874", "definition": "The wall that separates the left and right ventricles of the heart. (NCI)", "preferredTerm": "Interventricular Septum", "submissionValue": "INTERVENTRICULAR SEPTUM"}, {"conceptId": "C49571", "definition": "Spongy discs located between the vertebrae of the spinal column; composed of the outer annulus fibrosus and inner nucleus pulposus. (NCI)", "preferredTerm": "Intervertebral Disc", "submissionValue": "INTERVERTEBRAL DISC"}, {"conceptId": "C49478", "definition": "The tissue that forms the wall of the small and large intestine. It consists of mucosa, submucosa, muscular coat, and serosal surface. (NCI)", "preferredTerm": "Intestinal Wall Tissue", "submissionValue": "INTESTINE"}, {"conceptId": "C13044", "definition": "The connection point between two bones or skeletal elements. The joint may be fixed or movable. (NCI)", "preferredTerm": "Joint", "submissionValue": "JOINT", "synonyms": ["Articulation", "Joint"]}, {"conceptId": "C32264", "definition": "A joint formed between carpal bones. (NCI)", "preferredTerm": "Carpal Joint", "submissionValue": "JOINT, CARPUS"}, {"conceptId": "C32497", "definition": "A joint involving the humerus, radius and ulna bones.", "preferredTerm": "Elbow Joint", "submissionValue": "JOINT, ELBOW", "synonyms": ["Elbow Joint"]}, {"conceptId": "C32742", "definition": "A ball-and-socket joint between the head of the femur and the acetabulum. (NCI)", "preferredTerm": "Hip Joint", "submissionValue": "JOINT, HIP", "synonyms": ["Coxofemoral Joint", "Hip Joint"]}, {"conceptId": "C32898", "definition": "A joint connecting the lower part of the femur with the upper part of the tibia. The lower part of the femur and the upper part of the tibia are attached to each other by ligaments. Other structures of the knee joint include the upper part of the fibula, located below and parallel to the tibia, and the patella which moves as the knee bends. (NCI)", "preferredTerm": "Knee Joint", "submissionValue": "JOINT, KNEE", "synonyms": ["Knee", "Tibiofemoral Joint"]}, {"conceptId": "C111308", "definition": "The synovial ball and socket joint involving the articulation of the glenoid fossa of the scapula and the head of the humerus. (NCI)", "preferredTerm": "Scapulohumeral Joint", "submissionValue": "JOINT, SCAPULOHUMERAL"}, {"conceptId": "C98784", "definition": "A synovial joint located in the hind limb of quadrupeds, consisting of the femorotibial articulation, femoropatellar articulation and the proximal tibiofibular articulation. (NCI)", "preferredTerm": "Stifle Joint", "submissionValue": "JOINT, STIFLE", "synonyms": ["Femorotibial Joint", "Stifle Joint"]}, {"conceptId": "C33735", "definition": "A joint formed by the union of tarsal bones.", "preferredTerm": "Tarsal Joint", "submissionValue": "JOINT, TARSUS"}, {"conceptId": "C33461", "definition": "Tissue composed of the renal cortex and the renal medulla. The basic functional unit of renal tissue is the nephron. (NCI)", "preferredTerm": "Renal Tissue", "submissionValue": "KIDNEY"}, {"conceptId": "C12227", "definition": "The junction of the upper and lower lips at the corner of the mouth. (NCI)", "preferredTerm": "Commissure of the Lip", "submissionValue": "LABIAL JUNCTION"}, {"conceptId": "C12306", "definition": "One of the two longitudinal folds of skin that form the lateral boundary of the vulva. It extends from the mons pubis to the perineum. (NCI)", "preferredTerm": "Labium Majus", "submissionValue": "LABIUM MAJUS"}, {"conceptId": "C12307", "definition": "One of the two longitudinal folds of skin located between the labia majora. (NCI)", "preferredTerm": "Labium Minus", "submissionValue": "LABIUM MINUS"}, {"conceptId": "C92439", "definition": "The ascending colon of the horse. (NCI)", "preferredTerm": "Large Colon", "submissionValue": "LARGE COLON"}, {"conceptId": "C32931", "definition": "The tissue of the large intestine. It is composed of four layers - mucosa, submucosa, smooth muscle with inner circular and outer longitudinal layers, and serosa. The mucosa has a large number of goblet cells but does not have any villi. The longitudinal muscle layer is incomplete. The longitudinal muscle is limited to three distinct bands, called teniae coli that run the entire length of the colon. Contraction of the teniae coli exerts pressure on the wall and creates a series of pouches, called haustra, along the colon. Epiploic appendages, pieces of fat-filled connective tissue, are attached to the outer surface of the colon. (NCI)", "preferredTerm": "Large Intestinal Wall Tissue", "submissionValue": "LARGE INTESTINE", "synonyms": ["Large Bowel"]}, {"conceptId": "C43362", "definition": "The lower opening of the digestive tract, lying in the cleft between the buttocks, through which fecal matter is extruded. (NCI)", "preferredTerm": "Anus", "submissionValue": "LARGE INTESTINE, ANUS", "synonyms": ["Anus"]}, {"conceptId": "C12380", "definition": "Small tissue projection existing as a cecal diverticulum with a questionable history of vestigial versus specialized organ. (NCI)", "preferredTerm": "Appendix", "submissionValue": "LARGE INTESTINE, APPENDIX", "synonyms": ["Appendix"]}, {"conceptId": "C12381", "definition": "A blind pouch-like commencement of the colon in the right lower quadrant of the abdomen at the end of the small intestine and the start of the large intestine. (OMD)", "preferredTerm": "Cecum", "submissionValue": "LARGE INTESTINE, CECUM", "synonyms": ["Cecal", "Cecum"]}, {"conceptId": "C12382", "definition": "The part of the large intestine measured from the cecum to the rectum consisting of ascending, transverse, descending and sigmoid portions. The purpose of the colon is to remove water from digested food prior to excretion. (NCI)", "preferredTerm": "Colon", "submissionValue": "LARGE INTESTINE, COLON", "synonyms": ["Colon"]}, {"conceptId": "C12390", "definition": "The terminal portion of the gastrointestinal tract, extending from the rectosigmoid junction to the anal canal. (NCI)", "preferredTerm": "Rectum", "submissionValue": "LARGE INTESTINE, RECTUM"}, {"conceptId": "C92217", "definition": "A tissue sample that contains the rectum and anus. (NCI)", "preferredTerm": "Rectum/Anus", "submissionValue": "LARGE INTESTINE, RECTUM/LARGE INTESTINE, ANUS"}, {"conceptId": "C122233", "definition": "An accessory mucosal membranous diverticulum of the laryngeal region, found in certain nonhuman primates.", "preferredTerm": "Laryngeal Pouch", "submissionValue": "LARYNGEAL POUCH"}, {"conceptId": "C12420", "definition": "The cartilaginous structure of the respiratory tract between the pharynx and the trachea. It contains elastic vocal cords required for sound production. (NCI)", "preferredTerm": "Larynx", "submissionValue": "LARYNX", "synonyms": ["Larynx"]}, {"conceptId": "C13046", "definition": "Band of fibrous tissue connecting bone to bone or cartilage to bone thereby supporting or strengthening a joint. (NCI)", "preferredTerm": "Ligament", "submissionValue": "LIGAMENT", "synonyms": ["Ligament"]}, {"conceptId": "C12429", "definition": "A body region referring to an upper or lower extremity. (NCI)", "preferredTerm": "Limb", "submissionValue": "LIMB", "synonyms": ["Extremities", "Limb"]}, {"conceptId": "C12220", "definition": "Fleshy fold which surrounds the opening of the mouth. (NCI)", "preferredTerm": "Lip", "submissionValue": "LIP", "synonyms": ["Lip"]}, {"conceptId": "C32735", "definition": "The tissue of the liver. It includes the hepatic lobules, hepatic sinusoids, perisinusoidal spaces, and portal triad. The hepatic lobules are composed of hepatocytes. (NCI)", "preferredTerm": "Hepatic Tissue", "submissionValue": "LIVER"}, {"conceptId": "C77669", "definition": "A laboratory specimen consisting of the liver and gallbladder. (NCI)", "preferredTerm": "Liver/Gallbladder", "submissionValue": "LIVER/GALLBLADDER"}, {"conceptId": "C33024", "definition": "Tissue consisting of an external serous coat, subserous areolar tissue and lung parenchyma. The parenchyma is made up of lobules wound together by connective tissue. A primary lobule consists of a terminal bronchiole, respiratory bronchioles, and alveolar ducts, which communicate with many alveoli, each alveolus being surrounded by a network of capillary blood vessels. (NCI)", "preferredTerm": "Lung Tissue", "submissionValue": "LUNG"}, {"conceptId": "C92218", "definition": "A sample that contains lung and bronchial tissues. (NCI)", "preferredTerm": "Lung/Bronchus", "submissionValue": "LUNG/BRONCHUS"}, {"conceptId": "C33034", "definition": "Tissue composed of specialized cells that are organized as a definite organ, situated along the course of lymphatic vessels, and consisting of an outer cortical and an inner medullary part. The lymph nodes are the main source of lymphocytes of the peripheral blood and serve as a defense mechanism by removing noxious agents, such as bacteria and toxins, and probably play a role in antibody production. (NCI)", "preferredTerm": "Lymph Node Tissue", "submissionValue": "LYMPH NODE", "synonyms": ["Lymph Gland"]}, {"conceptId": "C12904", "definition": "One of approximately 20-30 lymph nodes in chain formation that traverse the concavity of the underarm to the clavicle. (NCI)", "preferredTerm": "Axillary Lymph Node", "submissionValue": "LYMPH NODE, AXILLARY", "synonyms": ["Axillary Lymph Node"]}, {"conceptId": "C92221", "definition": "An axillary lymph node along the brachial vein. (NCI)", "preferredTerm": "Brachial Lymph Node", "submissionValue": "LYMPH NODE, BRACHIAL"}, {"conceptId": "C32232", "definition": "Lymph node located in the bronchi. (NCI)", "preferredTerm": "Bronchial Lymph Node", "submissionValue": "LYMPH NODE, BRONCHIAL"}, {"conceptId": "C32298", "definition": "Any of the lymph nodes located in the neck. (NCI)", "preferredTerm": "Cervical Lymph Node", "submissionValue": "LYMPH NODE, CERVICAL", "synonyms": ["Cervical Lymph Node"]}, {"conceptId": "C92222", "definition": "A lymph node along the left gastric artery or greater omentum. (NCI)", "preferredTerm": "Gastric Lymph Node", "submissionValue": "LYMPH NODE, GASTRIC"}, {"conceptId": "C77640", "definition": "Any of the lymph nodes adjacent to the stomach and duodenum. (NCI)", "preferredTerm": "Hepatic Lymph Node", "submissionValue": "LYMPH NODE, HEPATIC"}, {"conceptId": "C77653", "definition": "A lymph node at the ileocecocolic junction. (NCI)", "preferredTerm": "Ileocecocolic Lymph Node", "submissionValue": "LYMPH NODE, ILEOCECOCOLIC"}, {"conceptId": "C32761", "definition": "One of the three lymph nodes of the pelvis: the superior gluteal, interior gluteal or sacral. (NCI)", "preferredTerm": "Iliac Lymph Node", "submissionValue": "LYMPH NODE, ILIAC", "synonyms": ["Iliac Lymph Node"]}, {"conceptId": "C32801", "definition": "A superficial or deep lymph node located in the inguinal area. (NCI)", "preferredTerm": "Inguinal Lymph Node", "submissionValue": "LYMPH NODE, INGUINAL", "synonyms": ["Inguinal Lymph Node"]}, {"conceptId": "C77652", "definition": "A lymph node located in the intercostal space of the thoracic wall. (NCI)", "preferredTerm": "Intercostal Lymph Node", "submissionValue": "LYMPH NODE, INTERCOSTAL"}, {"conceptId": "C77643", "definition": "A lymph node located adjacent to the lumbar region of the spine. (NCI)", "preferredTerm": "Paraaortic Lymph Node", "submissionValue": "LYMPH NODE, LUMBAR", "synonyms": ["Lymph Node, Para-Aortic"]}, {"conceptId": "C32853", "definition": "Any of the lymph nodes of the breast located under the ribcage, near the sternum. (NCI)", "preferredTerm": "Internal Mammary Lymph Node", "submissionValue": "LYMPH NODE, MAMMARY GLAND"}, {"conceptId": "C77650", "definition": "A lymph node located beneath the floor of the oral cavity. (NCI)", "preferredTerm": "Submandibular Lymph Node", "submissionValue": "LYMPH NODE, MANDIBULAR", "synonyms": ["Lymph Node, Submandibular"]}, {"conceptId": "C33073", "definition": "A lymph node located in the mediastinum. Mediastinal lymph nodes are arranged in three groups, one on the lateral, another on the medial, and a third on the anterior aspect of the vessels; the third group is, however, sometimes absent. (NCI)", "preferredTerm": "Mediastinal Lymph Node", "submissionValue": "LYMPH NODE, MEDIASTINAL", "synonyms": ["Mediastinal Lymph Node"]}, {"conceptId": "C77641", "definition": "A lymph node located in the mesentery. (NCI)", "preferredTerm": "Mesenteric Lymph Node", "submissionValue": "LYMPH NODE, MESENTERIC"}, {"conceptId": "C77642", "definition": "A lymph node of the pancreas. (NCI)", "preferredTerm": "Pancreatic Lymph Node", "submissionValue": "LYMPH NODE, PANCREATIC"}, {"conceptId": "C33278", "definition": "A lymph node located close to, on, or within the parotid gland. (NCI)", "preferredTerm": "Parotid Gland Lymph Node", "submissionValue": "LYMPH NODE, PAROTID", "synonyms": ["Parotid Gland Lymph Node"]}, {"conceptId": "C77644", "definition": "A lymph node located in the peritoneum. (NCI)", "preferredTerm": "Peritoneal Lymph Node", "submissionValue": "LYMPH NODE, PERITONEAL"}, {"conceptId": "C53146", "definition": "Lymph node located within the fat layer of the knee joint. (NCI)", "preferredTerm": "Popliteal Lymph Node", "submissionValue": "LYMPH NODE, POPLITEAL"}, {"conceptId": "C77645", "definition": "Lymph nodes surrounding the portal vein. (NCI)", "preferredTerm": "Portal Lymph Node", "submissionValue": "LYMPH NODE, PORTAL", "synonyms": ["Periportal Lymph Node"]}, {"conceptId": "C77654", "definition": "A lymph node located in front of the shoulder. (NCI)", "preferredTerm": "Prescapular Lymph Node", "submissionValue": "LYMPH NODE, PRESCAPULAR"}, {"conceptId": "C49018", "definition": "A lymph node that drains lymph from a region of interest. (NCI)", "preferredTerm": "Regional Lymph Node", "submissionValue": "LYMPH NODE, REGIONAL", "synonyms": ["Regional Lymph Node"]}, {"conceptId": "C77646", "definition": "A lymph node located in the hilar area of the kidney or the fat surrounding the kidney. (NCI)", "preferredTerm": "Renal Lymph Node", "submissionValue": "LYMPH NODE, RENAL"}, {"conceptId": "C77649", "definition": "A lymph node located in the retropharyngeal space behind the upper part of the pharynx. (NCI)", "preferredTerm": "Retropharyngeal Lymph Node", "submissionValue": "LYMPH NODE, RETROPHARYNGEAL"}, {"conceptId": "C77648", "definition": "A lymph node located in the retrosacral region. (NCI)", "preferredTerm": "Retrosacral Lymph Node", "submissionValue": "LYMPH NODE, RETROSACRAL"}, {"conceptId": "C77647", "definition": "A lymph node located in the sacral region. (NCI)", "preferredTerm": "Sacral Lymph Node", "submissionValue": "LYMPH NODE, SACRAL"}, {"conceptId": "C92594", "definition": "A lymph node located below the ilium. (NCI)", "preferredTerm": "Subiliac Lymph Node", "submissionValue": "LYMPH NODE, SUBILIAC"}, {"conceptId": "C92434", "definition": "A lymph node located under the tongue in the floor of the mouth. (NCI)", "preferredTerm": "Sublingual Lymph Node", "submissionValue": "LYMPH NODE, SUBLINGUAL"}, {"conceptId": "C77655", "definition": "A lymph node located under the spine. (NCI)", "preferredTerm": "Sublumbar Lymph Node", "submissionValue": "LYMPH NODE, SUBLUMBAR"}, {"conceptId": "C77656", "definition": "A lymph node located in the roof of the pharynx. (NCI)", "preferredTerm": "Suprapharyngeal Lymph Node", "submissionValue": "LYMPH NODE, SUPRAPHARYNGEAL"}, {"conceptId": "C33769", "definition": "Lymph node located in the thoracic cavity. (NCI)", "preferredTerm": "Thoracic Lymph Node", "submissionValue": "LYMPH NODE, THORACIC"}, {"conceptId": "C77651", "definition": "A lymph node located near the bifurcation of the trachea. (NCI)", "preferredTerm": "Tracheobronchial Lymph Node", "submissionValue": "LYMPH NODE, TRACHEOBRONCHIAL"}, {"conceptId": "C34808", "definition": "A benign or malignant pathologic structure in any part of the body resulting from cystic changes or accumulation of inflammatory or neoplastic cells.", "preferredTerm": "Mass", "submissionValue": "MASS"}, {"conceptId": "C12748", "definition": "A group of organs surrounded by loose connective tissue, separating the two pleural sacs, between the sternum anteriorly and the vertebral column posteriorly as well as from the thoracic inlet superiorly to the diaphragm inferiorly. The mediastinum contains the heart and pericardium, the bases of the great vessels, the trachea and bronchi, esophagus, thymus, lymph nodes, thoracic duct, phrenic and vagus nerves, and other structures and tissues. (NCI)", "preferredTerm": "Mediastinum", "submissionValue": "MEDIASTINUM", "synonyms": ["Mediastinum"]}, {"conceptId": "C77657", "definition": "A translucent membrane present in the eye of some animals, also called the third eyelid.", "preferredTerm": "Nictitating Membrane", "submissionValue": "MEMBRANE, NICTITATING"}, {"conceptId": "C12348", "definition": "Any one of three membranes that surround the brain and spinal cord. (NCI)", "preferredTerm": "Meninges", "submissionValue": "MENINGES"}, {"conceptId": "C33096", "definition": "A crescent-shaped wedge of cartilaginous material that serves as a cushion in the knee, between the tuberosities of the femur and the tibia. There are two locations, the medial meniscus located on the inner aspect of the knee and the lateral which is located on the outer aspect. (NCI)", "preferredTerm": "Meniscus", "submissionValue": "MENISCUS"}, {"conceptId": "C33097", "definition": "A semicircular meniscus located towards the outer aspect of the knee joint. (NCI)", "preferredTerm": "Meniscus Lateralis", "submissionValue": "MENISCUS, LATERAL"}, {"conceptId": "C33098", "definition": "A semicircular meniscus located towards the inner aspect of the knee joint. (NCI)", "preferredTerm": "Meniscus Medialis", "submissionValue": "MENISCUS, MEDIAL"}, {"conceptId": "C33103", "definition": "A double layer of peritoneum that attaches to the back wall of the abdominal cavity and supports the small intestines. (NCI)", "preferredTerm": "Mesentery", "submissionValue": "MESENTERY"}, {"conceptId": "C92435", "definition": "A tissue sample that contains mesenteric fat and peritoneal tissue. (NCI)", "preferredTerm": "Mesentery/Peritoneum", "submissionValue": "MESENTERY/PERITONEUM"}, {"conceptId": "C92440", "definition": "The peritoneal fold that covers and attaches the ovary to the broad ligament. (NCI)", "preferredTerm": "Mesovarium", "submissionValue": "MESOVARIAN LIGAMENTS"}, {"conceptId": "C12274", "definition": "The part of the ear including the eardrum and ossicles. The middle ear leads to the inner ear. (NCI)", "preferredTerm": "Middle Ear", "submissionValue": "MIDDLE EAR", "synonyms": ["Middle Ear"]}, {"conceptId": "C13257", "definition": "Milk produced by females for the purpose of feeding their young. (NCI)", "preferredTerm": "Breast Milk", "submissionValue": "MILK"}, {"conceptId": "C77658", "definition": "The fluid that remains after removing the fat and casein from the milk. (NCI)", "preferredTerm": "Milk Serum", "submissionValue": "MILK SERUM"}, {"conceptId": "C12505", "definition": "The mucosal membranes located on the inside of the cheek, in the buccal cavity. (NCI)", "preferredTerm": "Buccal Mucosa", "submissionValue": "MUCOSA, BUCCAL"}, {"conceptId": "C33205", "definition": "The part of the nasal mucosa composed of neuroepithelial tissue and mucus-producing Bowman's glands. The mucus moistens the epithelium and helps dissolve odor-containing gases. (NCI)", "preferredTerm": "Olfactory Mucosa", "submissionValue": "MUCOSA, NASAL", "synonyms": ["Olfactory Mucosa"]}, {"conceptId": "C77637", "definition": "Moist tissue lining the oral cavity, containing mucus secreting glands.", "preferredTerm": "Oral Mucosa", "submissionValue": "MUCOSA, ORAL"}, {"conceptId": "C13259", "definition": "The thick fluid secreted by the mucus glands in the aerodigestive tract and the vagina. (NCI)", "preferredTerm": "Mucus", "submissionValue": "MUCUS"}, {"conceptId": "C53039", "definition": "A group of muscles causing movement of the leg towards the midline of the body. (NCI)", "preferredTerm": "Adductor Group of the Leg", "submissionValue": "MUSCLE, ADDUCTOR"}, {"conceptId": "C32200", "definition": "A muscle in the upper limb. Its action involves the rotation of the limb and the flexion of the humeralradial joint.", "preferredTerm": "Biceps", "submissionValue": "MUSCLE, BICEPS BRACHII", "synonyms": ["Biceps"]}, {"conceptId": "C53147", "definition": "A muscle in the back of the thigh. Its action involves the knee flexion and hip extension. (NCI)", "preferredTerm": "Biceps Femoris", "submissionValue": "MUSCLE, BICEPS FEMORIS"}, {"conceptId": "C12702", "definition": "Fibromuscular tissue that separates the thoracic from the abdominal cavity. It increases the volume of the thoracic cavity through contractions, thus facilitating respiration.", "preferredTerm": "Diaphragm", "submissionValue": "MUSCLE, DIAPHRAGM"}, {"conceptId": "C52918", "definition": "Muscle located on the lateral part of the hindlimb. Its actions involve the extension of the digits and dorsiflexion of the foot.", "preferredTerm": "Extensor Digitorum Longus", "submissionValue": "MUSCLE, EXTENSOR DIGITORUM LONGUS", "synonyms": ["Long Digital Extensor Muscle"]}, {"conceptId": "C33199", "definition": "A group of six muscles that are responsible for moving the eye. (NCI)", "preferredTerm": "Oculomotor Muscle", "submissionValue": "MUSCLE, EXTRAOCULAR"}, {"conceptId": "C32666", "definition": "A large muscle in the back of the lower limb. Its action involves the flexion of the tarsis.", "preferredTerm": "Gastrocnemius Muscle", "submissionValue": "MUSCLE, GASTROCNEMIUS"}, {"conceptId": "C78205", "definition": "Any of the skeletal muscles that form the buttocks. These muscles are responsible for hip abduction and extension as well as movement of the thigh. (NCI)", "preferredTerm": "Gluteal Muscle", "submissionValue": "MUSCLE, GLUTEUS"}, {"conceptId": "C32824", "definition": "A muscle located between two ribs. (NCI)", "preferredTerm": "Intercostal Muscle", "submissionValue": "MUSCLE, INTERCOSTAL"}, {"conceptId": "C33150", "definition": "A triangular muscle in the back, connected to the vertebral column, arm, and shoulder. Its action involves adduction, medial rotation, and extension of the arm. (NCI)", "preferredTerm": "Musculus Latissimus Dorsi", "submissionValue": "MUSCLE, LATISSIMUS", "synonyms": ["Musculus Latissimus Dorsi"]}, {"conceptId": "C32984", "definition": "A broad, thin muscle originating from the posterior side of the pubis body, spine of the ischium, and pelvic fascia between the pubis and ischium on either side of the pelvis.", "preferredTerm": "Levator Ani", "submissionValue": "MUSCLE, LEVATOR ANI"}, {"conceptId": "C112430", "definition": "A tissue sample that contains the bulbocavernosus and the levator ani.", "preferredTerm": "Levator Ani/Bulbospongiosus", "submissionValue": "MUSCLE, LEVATOR ANI/BULBOSPONGIOSUS", "synonyms": ["Levator Ani/Bulbocavernosus"]}, {"conceptId": "C13074", "definition": "Muscles arising in the zygomatic arch that close the jaw. (MeSH) (NCI)", "preferredTerm": "Masseter Muscle", "submissionValue": "MUSCLE, MASSETER"}, {"conceptId": "C33286", "definition": "Muscles of the upper chest. The term may refer to one of two muscles, the pectoralis major and pectoralis minor. The former is a thick muscle in the anterior portion of the chest. Its action involves flexion, medial rotation, and adduction of the humerus. The latter is a thin muscle located beneath the pectoralis major. Its action involves lowering the scapula and raising the ribs. (NCI)", "preferredTerm": "Pectoralis Muscle", "submissionValue": "MUSCLE, PECTORALIS", "synonyms": ["Muscle, Pectoral"]}, {"conceptId": "C117979", "definition": "One of three superficial muscles in primates between the soleus and the gastrocnemius, and assists in flexing the foot and knee.", "preferredTerm": "Plantaris Muscle", "submissionValue": "MUSCLE, PLANTARIS"}, {"conceptId": "C33422", "definition": "Muscles of the lower back whose actions involve the flexion of the hips and lumbar spine. The term may refer to psoas major muscle and psoas minor muscle, both located in the lower back. (NCI)", "preferredTerm": "Psoas Muscle", "submissionValue": "MUSCLE, PSOAS"}, {"conceptId": "C33441", "definition": "A group of four powerful muscles in the front of the thigh. Their actions involve the extension of the knee joint. (NCI)", "preferredTerm": "Quadriceps Muscle of the Thigh", "submissionValue": "MUSCLE, QUADRICEPS FEMORIS", "synonyms": ["Muscle, Quadriceps", "Muscle, Thigh"]}, {"conceptId": "C53175", "definition": "One of the four quadriceps muscles, located in the middle of the front of the thigh. Its actions involve the extension of the knee joint and flexion of the hip. (NCI)", "preferredTerm": "Rectus Femoris", "submissionValue": "MUSCLE, RECTUS FEMORIS"}, {"conceptId": "C53176", "definition": "A muscle located at the posterior and medial aspect of the thigh that extends the hip joint, flexes the knee joint and assists in medially rotating the knee.", "preferredTerm": "Semitendinosus", "submissionValue": "MUSCLE, SEMITENDINOSUS"}, {"conceptId": "C13050", "definition": "Striated muscles that are under voluntary control of the organism. They are connected at either or both ends to a bone and are utilized for locomotion and other movements. (NCI)", "preferredTerm": "Skeletal Muscle Tissue", "submissionValue": "MUSCLE, SKELETAL", "synonyms": ["Skeletal Muscle Tissue"]}, {"conceptId": "C12437", "definition": "Involuntary muscle tissue of the internal organs. It is composed of elongated muscle cells or fibers that are not arranged in a striated pattern and form layers of muscle tissue. The smooth muscle cells contain a contractile apparatus composed of thin and thick filaments and a cytoskeleton composed of intermediate filaments. (NCI)", "preferredTerm": "Smooth Muscle Tissue", "submissionValue": "MUSCLE, SMOOTH"}, {"conceptId": "C53075", "definition": "A muscle located in the back of the lower leg beneath the gastrocnemius muscle. Its actions involve the flexion of the ankle joint and standing. (NCI)", "preferredTerm": "Soleus", "submissionValue": "MUSCLE, SOLEUS"}, {"conceptId": "C117980", "definition": "A long muscle of the neck that extends from the manubrium sterni to the mandible and branches at the middle of the neck, forming the ventral border of the jugular groove.", "preferredTerm": "Sternocephalicus Muscle", "submissionValue": "MUSCLE, STERNOCEPHALICUS"}, {"conceptId": "C53079", "definition": "An extensor muscle in the anterior surface of the tibia. (NCI)", "preferredTerm": "Tibialis Cranialis", "submissionValue": "MUSCLE, TIBIALIS CRANIALIS"}, {"conceptId": "C90604", "definition": "The muscle of the upper limb that extends the limb.", "preferredTerm": "Triceps Brachii", "submissionValue": "MUSCLE, TRICEPS BRACHII"}, {"conceptId": "C117876", "definition": "The portion of the quadriceps femoris muscle group that is underneath the Rectus Femoris muscle, spans and covers the upper two-thirds of the anterior and lateral surfaces of the femur, and inserts into the lateral border of the patella.", "preferredTerm": "Vastus Intermedius Muscle", "submissionValue": "MUSCLE, VASTUS INTERMEDIUS"}, {"conceptId": "C53073", "definition": "The largest muscle of the quadriceps femoris muscle group that extends laterally from the intertrochanteric line of the femur to the lateral aspects of the quadriceps femoris tendon and patella.", "preferredTerm": "Vastus Lateralis", "submissionValue": "MUSCLE, VASTUS LATERALIS"}, {"conceptId": "C117736", "definition": "The portion of the quadriceps femoris muscle group that extends medially from the intertrochanteric line of the femur to the medial aspects of the quadriceps femoris tendon and patella. (NCI)", "preferredTerm": "Vastus Medialis Muscle", "submissionValue": "MUSCLE, VASTUS MEDIALIS"}, {"conceptId": "C49594", "definition": "One of three (Inferior, Middle, Superior) paired bony shelves located within the nasal cavity through which inhaled air is taken into the nasopharynx. It is lined with ciliated, pseudostratified columnar epithelium and functions to humidify, heat, and filter incoming air, as well as protecting the olfactory bulb and sinuses from incorrectly pressurized incoming air. (NCI)", "preferredTerm": "Nasal Turbinate", "submissionValue": "NASAL TURBINATE"}, {"conceptId": "C77659", "definition": "The lymphocytic cell population present in the mucosa of the nasopharyngeal duct.", "preferredTerm": "Nasal-Associated Lymphoid Tissue", "submissionValue": "NASAL-ASSOCIATED LYMPHOID TISSUE", "synonyms": ["NALT"]}, {"conceptId": "C12423", "definition": "The part of the pharynx in the back of the throat, at and above the soft palate. The nasopharynx is continuous with the nasal passages. (NCI)", "preferredTerm": "Nasopharynx", "submissionValue": "NASOPHARYNX", "synonyms": ["Nasopharynx"]}, {"conceptId": "C13052", "definition": "The tissue that generates and conducts electrical signals in the body. It contains the neurons.", "preferredTerm": "Nerve Tissue", "submissionValue": "NERVE"}, {"conceptId": "C54024", "definition": "One of the two bundles of nerve fibers (dorsal and ventral roots) emerging from the spinal cord that join to form each spinal nerve. (NCI)", "preferredTerm": "Nerve Root", "submissionValue": "NERVE ROOT"}, {"conceptId": "C12682", "definition": "A nerve network originating from C5 to T1 that supplies cutaneous and muscular innervation to the arm and hand. (NCI)", "preferredTerm": "Brachial Plexus", "submissionValue": "NERVE, BRACHIAL", "synonyms": ["Brachial Plexus"]}, {"conceptId": "C12700", "definition": "Any of the 12 paired nerves that originate in the brain stem. (NCI)", "preferredTerm": "Cranial Nerve", "submissionValue": "NERVE, CRANIAL"}, {"conceptId": "C12714", "definition": "The 7th cranial nerve. The facial nerve has two parts, the larger motor root which may be called the facial nerve proper, and the smaller intermediate or sensory root. Together they provide efferent innervation to the muscles of facial expression and to the lacrimal and salivary glands, and convey afferent information for taste from the anterior two-thirds of the tongue and for touch from the external ear. (MeSH)", "preferredTerm": "Facial Nerve", "submissionValue": "NERVE, FACIAL", "synonyms": ["Seventh Cranial Nerve"]}, {"conceptId": "C52815", "definition": "A branch of the brachial plexus that extends along the anterior aspect of the forearm and the hand. (NCI)", "preferredTerm": "Median Nerve", "submissionValue": "NERVE, MEDIAN"}, {"conceptId": "C12761", "definition": "The second cranial nerve. (NCI)", "preferredTerm": "Optic Nerve", "submissionValue": "NERVE, OPTIC", "synonyms": ["Optic Nerve"]}, {"conceptId": "C12768", "definition": "Any nerve outside the brain or spinal cord that connects with peripheral receptors or effectors. (NCI)", "preferredTerm": "Peripheral Nerve", "submissionValue": "NERVE, PERIPHERAL", "synonyms": ["Peripheral Nerve"]}, {"conceptId": "C52814", "definition": "Any one of the three (Common, Deep, and Superficial) peroneal nerves.", "preferredTerm": "Peroneal Nerve", "submissionValue": "NERVE, PERONEAL", "synonyms": ["Nerve, Fibular"]}, {"conceptId": "C92601", "definition": "A terminal branch of the sciatic nerve. It innervates the calf and foot.", "preferredTerm": "Common Peroneal Nerve", "submissionValue": "NERVE, PERONEAL, COMMON"}, {"conceptId": "C92602", "definition": "A branch of the common peroneal nerve. It innervates the ankle and toes.", "preferredTerm": "Deep Peroneal Nerve", "submissionValue": "NERVE, PERONEAL, DEEP"}, {"conceptId": "C92603", "definition": "A branch of the common peroneal nerve. It innervates the surface of the calf and foot.", "preferredTerm": "Superficial Peroneal Nerve", "submissionValue": "NERVE, PERONEAL, SUPERFICIAL"}, {"conceptId": "C77674", "definition": "A nerve that innervates the sole of the foot. This term may refer to the medial plantar nerve or lateral plantar nerve, both of which originate from the tibial nerve. (NCI)", "preferredTerm": "Plantar Nerve", "submissionValue": "NERVE, PLANTAR"}, {"conceptId": "C52812", "definition": "A large nerve that arises from the brachial plexus and enervates the extensor muscles and skin of the entire upper limb's posterior aspect. (NCI)", "preferredTerm": "Radial Nerve", "submissionValue": "NERVE, RADIAL"}, {"conceptId": "C52810", "definition": "The longest single nerve that is formed by the merging of the ventral rami of the L4, L5, and S1 in the pelvis and passes down the lower limb where it divides into the common peroneal and tibial nerves. (NCI)", "preferredTerm": "Sciatic Nerve", "submissionValue": "NERVE, SCIATIC", "synonyms": ["Sciatic Nerve"]}, {"conceptId": "C12792", "definition": "Paired nerves that arise from the spinal cord.", "preferredTerm": "Spinal Nerve", "submissionValue": "NERVE, SPINAL", "synonyms": ["Spinal Roots"]}, {"conceptId": "C77675", "definition": "A peripheral nerve that runs close to the small saphenous vein. It supplies innervation to the skin of the lower back of the leg and sends a branch to the lateral side of the foot and little toe. (NCI)", "preferredTerm": "Sural Nerve", "submissionValue": "NERVE, SURAL"}, {"conceptId": "C52809", "definition": "One of two major branches of the sciatic nerve. It innervates the muscles of the lower limb and the muscles of the plantar aspect of the foot.", "preferredTerm": "Tibial Nerve", "submissionValue": "NERVE, TIBIAL"}, {"conceptId": "C12806", "definition": "The fifth set of paired nerves of the face that emerge from the brain steam. These nerves have sensory and motor functions in the face, oral cavity, and nasal cavity. (NCI)", "preferredTerm": "Trigeminal Nerve", "submissionValue": "NERVE, TRIGEMINAL", "synonyms": ["Fifth Cranial Nerve", "Nervus Trigeminus", "Trigeminal Nerve"]}, {"conceptId": "C52807", "definition": "A nerve in the arm that runs along the inside of the upper arm down to the palm and little finger.", "preferredTerm": "Ulnar Nerve", "submissionValue": "NERVE, ULNAR"}, {"conceptId": "C12812", "definition": "The 10th cranial nerve. The vagus is a mixed nerve which contains somatic afferents (from skin in back of the ear and the external auditory meatus), visceral afferents (from the pharynx, larynx, thorax, and abdomen), parasympathetic efferents (to the thorax and abdomen), and efferents to striated muscle (of the larynx and pharynx). (MSH2001)", "preferredTerm": "Vagus Nerve", "submissionValue": "NERVE, VAGUS"}, {"conceptId": "C12299", "definition": "The pigmented protuberance on the surface of the breast through which milk is drawn from the breast. (NCI)", "preferredTerm": "Nipple", "submissionValue": "NIPPLE", "synonyms": ["Nipple"]}, {"conceptId": "C12756", "definition": "A structure of special sense serving as an organ of the sense of smell and as an entrance to the respiratory tract. (NCI)", "preferredTerm": "Nose", "submissionValue": "NOSE", "synonyms": ["Nose"]}, {"conceptId": "C13197", "definition": "A body within the cell, surrounded by a membrane, within which lie the chromosomes, one or more nucleoli, combined with proteins, and exhibits mitosis. (NCI)", "preferredTerm": "Nucleus", "submissionValue": "NUCLEUS", "synonyms": ["Cell Nucleus"]}, {"conceptId": "C98765", "definition": "The area of mucosa in the nose lined by olfactory epithelium and containing olfactory glands. (NCI)", "preferredTerm": "Olfactory Region", "submissionValue": "OLFACTORY REGION"}, {"conceptId": "C98766", "definition": "The third compartment of the forestomach of ruminants with many long folds of mucosa (resembling a book). (NCI)", "preferredTerm": "Omasum", "submissionValue": "OMASUM"}, {"conceptId": "C33209", "definition": "A fold of peritoneum originating at the stomach and supporting the viscera. (NCI)", "preferredTerm": "Omentum", "submissionValue": "OMENTUM", "synonyms": ["Omental Fat"]}, {"conceptId": "C12760", "definition": "A portion of the retina at which the axons of the ganglion cells exit the eyeball to form the optic nerve. No light-sensitive photoreceptors are contained within this portion of the retina. (NCI)", "preferredTerm": "Optic Disc", "submissionValue": "OPTIC DISC", "synonyms": ["Optic Nerve Head", "Optic Papilla", "Second Cranial Nerve"]}, {"conceptId": "C92600", "definition": "Tissue that occupies the area between the soft palate and upper portion of the epiglottis. (NCI)", "preferredTerm": "Oropharyngeal Tissue", "submissionValue": "OROPHARYNX"}, {"conceptId": "C12404", "definition": "One of the paired female reproductive glands containing the ova or germ cells; the ovary's stroma is a vascular connective tissue containing numbers of ovarian follicles enclosing the ova. (NCI)", "preferredTerm": "Ovary", "submissionValue": "OVARY", "synonyms": ["Ovary"]}, {"conceptId": "C92595", "definition": "A laboratory specimen consisting of the ovaries and oviduct. (NCI)", "preferredTerm": "Ovary/Oviduct", "submissionValue": "OVARY/OVIDUCT"}, {"conceptId": "C12403", "definition": "One of a pair of tubes that extend from the uterus to each of the ovaries. Following ovulation the egg travels down the fallopian tube to the uterus where fertilization may or may not occur. (NCI)", "preferredTerm": "Fallopian Tube", "submissionValue": "OVIDUCT", "synonyms": ["Fallopian Tube"]}, {"conceptId": "C12229", "definition": "The roof of the oral cavity. It separates the oral cavity from the nasal cavity.", "preferredTerm": "Palate", "submissionValue": "PALATE"}, {"conceptId": "C12230", "definition": "The bony anterior part of the roof of the mouth separating the nose from the mouth. (NCI)", "preferredTerm": "Hard Palate", "submissionValue": "PALATE, HARD", "synonyms": ["Hard Palate"]}, {"conceptId": "C12231", "definition": "A movable fold suspended from the posterior border of the hard palate. (MeSH)", "preferredTerm": "Soft Palate", "submissionValue": "PALATE, SOFT"}, {"conceptId": "C12393", "definition": "An organ located adjacent to the stomach that contains both exocrine and endocrine tissue.", "preferredTerm": "Pancreas", "submissionValue": "PANCREAS"}, {"conceptId": "C119578", "definition": "An opening on the duodenal mucosa where the bile and pancreatic ducts enter the duodenum.", "preferredTerm": "Duodenal Papilla", "submissionValue": "PAPILLA, DUODENAL"}, {"conceptId": "C12763", "definition": "An air-filled cavity adjacent to the nasal cavity lined by a mucous membrane and located in the bones of the skull. There are four paranasal sinuses on each side of the face: ethmoid, frontal, maxillary, and sphenoid sinus. (NCI)", "preferredTerm": "Paranasal Sinus", "submissionValue": "PARANASAL SINUS", "synonyms": ["Accessory Sinuses", "Nasal Cavity", "Nasal Sinuses", "Paranasal Sinus"]}, {"conceptId": "C77660", "definition": "The foot of a quadruped animal, including canines, felines, mice, rats, and bears. The paw contains claws or nails and pads composed of a thick keratinized dermis covering collagenous adipose tissue. (NCI)", "preferredTerm": "Paw", "submissionValue": "PAW"}, {"conceptId": "C49269", "definition": "The erectile tissues of the penis. It includes the dorsal corpora cavernosa and the ventral corpus spongiosum. Their structure consists of multiple vascular spaces that are surrounded by smooth muscle. (NCI)", "preferredTerm": "Penis Erectile Tissue", "submissionValue": "PENIS"}, {"conceptId": "C13005", "definition": "A conical membranous sac filled with serous fluid in which the heart as well as the roots of the aorta and other large blood vessels are contained. (NCI)", "preferredTerm": "Pericardium", "submissionValue": "PERICARDIUM", "synonyms": ["Pericardium"]}, {"conceptId": "C33301", "definition": "The area located between the anus and vulva in females, and anus and scrotum in males. (NCI)", "preferredTerm": "Perineum", "submissionValue": "PERINEUM", "synonyms": ["Perineum"]}, {"conceptId": "C12770", "definition": "The tissue that lines the wall of the abdominal cavity, intestine, and mesentery. It consists of the parietal peritoneum that covers the inside of the abdominal wall and the visceral peritoneum that covers the surface of the intestine and mesentery. (NCI)", "preferredTerm": "Peritoneum", "submissionValue": "PERITONEUM", "synonyms": ["Peritoneum"]}, {"conceptId": "C12771", "definition": "Lymphoid tissue on the mucosa of the small intestine. (MeSH) (NCI)", "preferredTerm": "Peyer Patch", "submissionValue": "PEYER'S PATCH"}, {"conceptId": "C12425", "definition": "A hollow tube that starts posterior to the mouth and nasal cavity and ends superior to the trachea and esophagus. (NCI)", "preferredTerm": "Pharynx", "submissionValue": "PHARYNX", "synonyms": ["Pharynx"]}, {"conceptId": "C12292", "definition": "The external part of the ear. (NCI)", "preferredTerm": "External Ear", "submissionValue": "PINNA", "synonyms": ["Auricle", "External Ear"]}, {"conceptId": "C13272", "definition": "An organ present in some vertebrates during embryonic gestation that surrounds the fetus and provides it with nutrients and oxygen, facilitates gas and waste exchange between the fetus and mother, and provides parasitic cloaking from the mother's immune system by excretion of neurokinin B. (NCI)", "preferredTerm": "Placenta", "submissionValue": "PLACENTA"}, {"conceptId": "C13356", "definition": "Plasma is the fluid (acellular) portion of the circulating blood, as distinguished from the serum that is the fluid portion of the blood obtained by removal of the fibrin clot and blood cells after coagulation.", "preferredTerm": "Plasma", "submissionValue": "PLASMA"}, {"conceptId": "C12469", "definition": "The tissue that lines the wall of the thoracic cavity and the surface of the lungs. (NCI)", "preferredTerm": "Pleura", "submissionValue": "PLEURA", "synonyms": ["Pleural Tissue"]}, {"conceptId": "C12323", "definition": "A covering fold of skin, often used alone to designate the preputium penis. (NCI)", "preferredTerm": "Prepuce", "submissionValue": "PREPUCE", "synonyms": ["Preputium Penis"]}, {"conceptId": "C111301", "definition": "A portion of the digestive system of birds, insects and invertebrates lying between the crop and the ventriculus. It is responsible for the secretion of gastric enzymes and moving food into the ventriculus.", "preferredTerm": "Proventriculus", "submissionValue": "PROVENTRICULUS"}, {"conceptId": "C12887", "definition": "The funnel-shaped proximal portion of the ureter located within the kidney into which urine is secreted, from the collecting duct system of the kidney. (NCI)", "preferredTerm": "Renal Pelvis", "submissionValue": "RENAL PELVIS"}, {"conceptId": "C33467", "definition": "A network of tubules that convey sperm from the seminiferous tubules within the testicles to the efferent ducts. (NCI)", "preferredTerm": "Rete Testis", "submissionValue": "RETE TESTIS"}, {"conceptId": "C98777", "definition": "Smallest forestomach of ruminants with complex honeycomb folding of mucosa. (NCI)", "preferredTerm": "Reticulum", "submissionValue": "RETICULUM"}, {"conceptId": "C12298", "definition": "The back of the abdomen where the kidneys lie and the great blood vessels run. (NCI)", "preferredTerm": "Retroperitoneum", "submissionValue": "RETROPERITONEUM", "synonyms": ["RETROPERITONEAL CAVITY"]}, {"conceptId": "C98778", "definition": "Largest forestomach of ruminants where bacterial fermentation occurs. (NCI)", "preferredTerm": "Rumen", "submissionValue": "RUMEN", "synonyms": ["Paunch"]}, {"conceptId": "C32068", "definition": "Paired glands located on either side of the anus of most carnivores that secrete a noxious-smelling liquid, thus allowing members of the same species to identify one another. (NCI)", "preferredTerm": "Anal Gland", "submissionValue": "SAC, ANAL"}, {"conceptId": "C14128", "definition": "Membranous sac on the ventral aspect of the developing embryo that acts as a primitive circulatory system as well as providing nourishment. (NCI)", "preferredTerm": "Yolk Sac", "submissionValue": "SAC, YOLK"}, {"conceptId": "C13275", "definition": "A clear liquid secreted into the mouth by the salivary glands and mucous glands of the mouth; moistens the mouth and starts the digestion of starches. (NCI)", "preferredTerm": "Saliva", "submissionValue": "SALIVA"}, {"conceptId": "C12785", "definition": "The musculocutaneous pouch that encloses the testicles. (NCI)", "preferredTerm": "Scrotum", "submissionValue": "SCROTUM", "synonyms": ["Scrotum"]}, {"conceptId": "C13277", "definition": "The thick, whitish secretion of the male reproductive organs. It is composed of spermatozoa in their nutrient plasma, secretions from the prostate, seminal vesicles, and various other glands, epithelial cells, and minor constituents. (NCI)", "preferredTerm": "Semen", "submissionValue": "SEMEN", "synonyms": ["Seminal Plasma"]}, {"conceptId": "C13325", "definition": "The clear portion of the blood that remains after the removal of the blood cells and the clotting proteins. (NCI)", "preferredTerm": "Serum", "submissionValue": "SERUM", "synonyms": ["Sera"]}, {"conceptId": "C33556", "definition": "A recess, cavity, or channel. (NCI)", "preferredTerm": "Sinus", "submissionValue": "SINUS", "synonyms": ["Sinus"]}, {"conceptId": "C77676", "definition": "The anatomic site at which medical intervention is administered. (NCI)", "preferredTerm": "Application Site", "submissionValue": "SITE, APPLICATION", "synonyms": ["Site, Exposure"]}, {"conceptId": "C77677", "definition": "The anatomic site targeted for a biopsy procedure. (NCI)", "preferredTerm": "Biopsy Site", "submissionValue": "SITE, BIOPSY"}, {"conceptId": "C92596", "definition": "The anatomic site through which fluid is transferred into or out of the body using a catheter. (NCI)", "preferredTerm": "Catheter Site", "submissionValue": "SITE, CATHETER"}, {"conceptId": "C77685", "definition": "The site of the surgical exposure of an internal organ or tissue. (NCI)", "preferredTerm": "Exteriorization Site", "submissionValue": "SITE, EXTERIORIZATION"}, {"conceptId": "C77678", "definition": "The anatomic site at which a material such as a tissue, graft, device or radioactive material is inserted with some intended degree of permanence. This term may also refer to the site of the uterus at which the early embryo is attached.", "preferredTerm": "Implantation Site", "submissionValue": "SITE, IMPLANTATION"}, {"conceptId": "C77679", "definition": "The anatomic site through which fluid is introduced into the body. (NCI)", "preferredTerm": "Infusion Site", "submissionValue": "SITE, INFUSION"}, {"conceptId": "C77680", "definition": "The anatomic site at which a medication or a vaccine is injected. (NCI)", "preferredTerm": "Injection Site", "submissionValue": "SITE, INJECTION"}, {"conceptId": "C77681", "definition": "The anatomic site at which damage or harm was suffered. (NCI)", "preferredTerm": "Injury Site", "submissionValue": "SITE, INJURY"}, {"conceptId": "C77682", "definition": "The anatomic site at which a microchip is implanted. (NCI)", "preferredTerm": "Microchip Site", "submissionValue": "SITE, MICROCHIP"}, {"conceptId": "C77683", "definition": "The anatomic site of a cut made during surgery. The term may also refer to the resultant scar from the surgical procedure. (NCI)", "preferredTerm": "Incision Site", "submissionValue": "SITE, SURGICAL", "synonyms": ["Incision Site"]}, {"conceptId": "C77684", "definition": "The anatomic site at which a tattoo is present. (NCI)", "preferredTerm": "Tattoo Site", "submissionValue": "SITE, TATTOO"}, {"conceptId": "C48322", "definition": "Referring to the fact that the original site of growth of a metastatic cancer is unknown or uncertain. (NCI)", "preferredTerm": "Primary Site Unknown", "submissionValue": "SITE, UNCERTAIN PRIMARY"}, {"conceptId": "C12470", "definition": "An organ that constitutes the external surface of the body. It consists of the epidermis, dermis, and skin appendages. (NCI)", "preferredTerm": "Skin", "submissionValue": "SKIN", "synonyms": ["Integument", "Skin"]}, {"conceptId": "C92441", "definition": "A tissue sample that contains the epidermis, dermis, and subcutaneous adipose tissue. (NCI)", "preferredTerm": "Skin/Subcutaneous Tissue", "submissionValue": "SKIN/SUBCUTIS"}, {"conceptId": "C92437", "definition": "The terminal part of the colon of the horse with a reduced diameter. (NCI)", "preferredTerm": "Small Colon", "submissionValue": "SMALL COLON"}, {"conceptId": "C33573", "definition": "The tissue of the small intestine. It comprises four layers - mucosa with simple columnar epithelium, submucosa, smooth muscle with inner circular and outer longitudinal layers, and serosa. (NCI)", "preferredTerm": "Small Intestinal Wall Tissue", "submissionValue": "SMALL INTESTINE", "synonyms": ["Duodenum/Jejunum/Ileum", "Small Bowel"]}, {"conceptId": "C12263", "definition": "A jointed tube 25-30 cm long that connects the stomach to the jejunum. (NCI)", "preferredTerm": "Duodenum", "submissionValue": "SMALL INTESTINE, DUODENUM"}, {"conceptId": "C12387", "definition": "The final section of the small intestine. (NCI)", "preferredTerm": "Ileum", "submissionValue": "SMALL INTESTINE, ILEUM", "synonyms": ["Ileum"]}, {"conceptId": "C12388", "definition": "The portion of the small intestine that extends from the duodenum to the ileum. (NCI)", "preferredTerm": "Jejunum", "submissionValue": "SMALL INTESTINE, JEJUNUM", "synonyms": ["Jejunum"]}, {"conceptId": "C88024", "definition": "An anatomic structure exclusive to rabbits that is located at the terminal part of the ileum. It is rich in lymphoid tissue.", "preferredTerm": "Sacculus Rotundus", "submissionValue": "SMALL INTESTINE, SACCULUS ROTUNDUS"}, {"conceptId": "C12329", "definition": "A tube-like structure composed of the vas deferens and surrounding tissue layers, that runs from the abdomen to each of the testicles. (NCI)", "preferredTerm": "Spermatic Cord", "submissionValue": "SPERMATIC CORD"}, {"conceptId": "C12998", "definition": "A series of bones, muscles, tendons, and other tissues reaching from the base of the skull to the tailbone. The vertebral column forms the axis of the skeleton and encloses as well as protects the spinal cord and the fluid surrounding the spinal cord. (NCI)", "preferredTerm": "Vertebral Column", "submissionValue": "SPINAL COLUMN", "synonyms": ["Spinal Column", "Vertebral Column"]}, {"conceptId": "C12464", "definition": "The elongated, approximately cylindrical part of the central nervous system of vertebrates that lies in the vertebral canal and from which the spinal nerves emerge. (NCI)", "preferredTerm": "Spinal Cord", "submissionValue": "SPINAL CORD", "synonyms": ["Medulla Spinalis"]}, {"conceptId": "C12892", "definition": "The portion of the spinal cord located in the cervical region. (NCI)", "preferredTerm": "Cervical Spinal Cord", "submissionValue": "SPINAL CORD, CERVICAL"}, {"conceptId": "C12895", "definition": "The portion of the spinal cord located in the lumbar region. (NCI)", "preferredTerm": "Lumbar Spinal Cord", "submissionValue": "SPINAL CORD, LUMBAR"}, {"conceptId": "C12896", "definition": "The portion of the spinal cord located in the sacral region. (NCI)", "preferredTerm": "Sacral Spinal Cord", "submissionValue": "SPINAL CORD, SACRAL"}, {"conceptId": "C12894", "definition": "The portion of the spinal cord located in the thoracic region. (NCI)", "preferredTerm": "Thoracic Spinal Cord", "submissionValue": "SPINAL CORD, THORACIC"}, {"conceptId": "C92597", "definition": "The region of the spinal cord pertaining to the thoracic and lumbar vertebrae. (NCI)", "preferredTerm": "Thoracolumbar Region", "submissionValue": "SPINAL CORD, THORACOLUMBAR"}, {"conceptId": "C92438", "definition": "The ascending colon of the ruminants and pigs. (NCI)", "preferredTerm": "Spiral Colon", "submissionValue": "SPIRAL COLON"}, {"conceptId": "C34086", "definition": "The largest mass of lymphatic tissue in the body. It consists of cells and vessels contained within a capsule lined by mesothelium, from which trabecula enter the splenic parenchyma. The parenchyma is supported by a framework of reticular fibers. The spleen consists of two types of parenchymal tissue, the white and red pulp. The white pulp is composed of elongated cords of compact lymphatic tissue containing nodules. The red pulp is composed of pulp cords and splenic sinusoids. (NCI)", "preferredTerm": "Splenic Tissue", "submissionValue": "SPLEEN"}, {"conceptId": "C32664", "definition": "The tissue of the stomach. It is composed of a fibrous outer layer bounded by smooth muscle, the submucosa, and the mucosa. The mucosa of the stomach consists of secretory cells that produce hydrochloric acid and gastric enzymes. (NCI)", "preferredTerm": "Gastric Tissue", "submissionValue": "STOMACH"}, {"conceptId": "C12256", "definition": "The area around the esophagogastric mucosal junction where the esophageal mucosa transitions into the gastric mucosa. (NCI)", "preferredTerm": "Gastric Cardia", "submissionValue": "STOMACH, CARDIA", "synonyms": ["Gastric Cardia"]}, {"conceptId": "C12257", "definition": "The portion of the stomach that lies above the cardiac notch. It allows for the accumulation of gases produced by chemical digestion. (NCI)", "preferredTerm": "Fundus of the Stomach", "submissionValue": "STOMACH, FUNDUS", "synonyms": ["Fundus of the Stomach"]}, {"conceptId": "C77661", "definition": "The part of the stomach that is lined with glandular mucosa and receives the food from the esophagus. The mucosa contains gastric glands that secret gastric acid. (NCI)", "preferredTerm": "Glandular Stomach", "submissionValue": "STOMACH, GLANDULAR"}, {"conceptId": "C77662", "definition": "The portion of the animal stomach that is responsible for storage and digestion of food particles but does not contain the gastric mucosa-associated glands.", "preferredTerm": "Nonglandular Stomach", "submissionValue": "STOMACH, NONGLANDULAR"}, {"conceptId": "C12260", "definition": "The lower part of the stomach that connects to the duodenum. (NCI)", "preferredTerm": "Pylorus", "submissionValue": "STOMACH, PYLORUS"}, {"conceptId": "C33645", "definition": "Adipose tissue located under the dermis. It binds underlying structures with the skin. The subcutis is important in the regulation of temperature of the skin itself and the body. The size of this layer varies throughout the body and from subject to subject.", "preferredTerm": "Subcutis", "submissionValue": "SUBCUTIS", "synonyms": ["Subcutaneous Adipose Tissue", "Subcutaneous Tissue"]}, {"conceptId": "C13280", "definition": "The liquid secreted by the sweat glands. (NCI)", "preferredTerm": "Sweat", "submissionValue": "SWEAT", "synonyms": ["Sweat"]}, {"conceptId": "C111323", "definition": "The vocal organ of a bird that is located in the lower portion of the larynx. (NCI)", "preferredTerm": "Syrinx", "submissionValue": "SYRINX"}, {"conceptId": "C77663", "definition": "The flexible prolongated structure of the posterior part of an animal's body. (NCI)", "preferredTerm": "Tail", "submissionValue": "TAIL"}, {"conceptId": "C33739", "definition": "A fluid containing oils, mucin, and proteins, which is secreted by the lacrimal gland and cleans and lubricates the eye. (NCI)", "preferredTerm": "Tear", "submissionValue": "TEAR"}, {"conceptId": "C77664", "definition": "The outer projections from the mammary organ of an animal. They are the structures through which the milk is discharged. (NCI)", "preferredTerm": "Teat", "submissionValue": "TEAT"}, {"conceptId": "C13045", "definition": "A band of fibrous connective tissue that joins bone to muscle. (NCI)", "preferredTerm": "Tendon", "submissionValue": "TENDON"}, {"conceptId": "C96299", "definition": "A membranous sheet that envelops a tendon.", "preferredTerm": "Tendon Sheath", "submissionValue": "TENDON SHEATH"}, {"conceptId": "C32043", "definition": "The tendon that connects the heel bone to the calf muscles at the back of the lower leg. (NCI)", "preferredTerm": "Achilles Tendon", "submissionValue": "TENDON, CALCANEAL", "synonyms": ["Calcaneal Tendon"]}, {"conceptId": "C12412", "definition": "Either of the paired male reproductive glands that produce the male germ cells and the male hormones. (NCI)", "preferredTerm": "Testis", "submissionValue": "TESTIS", "synonyms": ["Testicle", "Testis"]}, {"conceptId": "C77668", "definition": "A laboratory specimen consisting of the testis and epididymis. (NCI)", "preferredTerm": "Testis/Epididymis", "submissionValue": "TESTIS/EPIDIDYMIS"}, {"conceptId": "C62484", "definition": "The total system of structures outside the lungs that move as a part of breathing; it includes all structures from the skin to the parietal pleura. (NCI)", "preferredTerm": "Chest Wall", "submissionValue": "THORACIC WALL", "synonyms": ["Chest Wall"]}, {"conceptId": "C33952", "definition": "Tissue composed of a highly cellular outer cortex, and less cellular inner medulla. Both cortex and medulla contain epithelial cells, interdigitating dendritic cells, macrophages, and lymphocytes. (NCI)", "preferredTerm": "Thymic Tissue", "submissionValue": "THYMUS"}, {"conceptId": "C12801", "definition": "An anatomical structure consisting of similarly specialized cells and intercellular matrix, aggregated according to genetically determined spatial relationships, performing a specific function. (NCI)", "preferredTerm": "Tissue", "submissionValue": "TISSUE"}, {"conceptId": "C12473", "definition": "The inner layer of the connective tissue that seals the joint. (NCI)", "preferredTerm": "Synovial Membrane", "submissionValue": "TISSUE, SYNOVIAL"}, {"conceptId": "C12422", "definition": "The muscular organ located in the floor of the mouth and serving as the principal organ of taste and modification of the voice in speech. (NCI)", "preferredTerm": "Tongue", "submissionValue": "TONGUE", "synonyms": ["Tongue"]}, {"conceptId": "C38516", "definition": "Nodules of lymphoid tissue located on either side of the back of the nasal canal and throat. (NCI)", "preferredTerm": "Tonsillar Tissue", "submissionValue": "TONSIL"}, {"conceptId": "C32988", "definition": "A mass of lymphoid tissue located at the base of the dorsal surface of the tongue.", "preferredTerm": "Lingual Tonsil", "submissionValue": "TONSIL, LINGUAL"}, {"conceptId": "C33250", "definition": "Paired small tissue masses located on opposite sides of the oropharynx between the faucial pillars.", "preferredTerm": "Palatine Tonsil", "submissionValue": "TONSIL, PALATINE"}, {"conceptId": "C33318", "definition": "A fold of lymphatic tissue covered by ciliated epithelium at the very back of the nose, in the roof of the nasopharynx. (NCI)", "preferredTerm": "Pharyngeal Tonsil", "submissionValue": "TONSIL, PHARYNGEAL", "synonyms": ["Adenoid", "Pharyngeal Tonsil"]}, {"conceptId": "C33794", "definition": "The tissue that forms the tooth. It consists of the dental pulp, dentin, enamel, cementum, odontogenic epithelium, and periodontium. (NCI)", "preferredTerm": "Odontogenic Tissue", "submissionValue": "TOOTH", "synonyms": ["Teeth"]}, {"conceptId": "C32258", "definition": "A single-cusped (pointed) and usually single-rooted tooth located between the incisors and premolars. (NCI)", "preferredTerm": "Canine Tooth", "submissionValue": "TOOTH, CANINE", "synonyms": ["Canine Tooth"]}, {"conceptId": "C32769", "definition": "One of the teeth in front of the canines in either jaw designed for cutting or gnawing. (NCI)", "preferredTerm": "Incisor", "submissionValue": "TOOTH, INCISOR", "synonyms": ["Incisor"]}, {"conceptId": "C33136", "definition": "A grinding tooth with a broad crown; located behind the premolars. (NCI)", "preferredTerm": "Molar Tooth", "submissionValue": "TOOTH, MOLAR"}, {"conceptId": "C32201", "definition": "A tooth rostral to true molars and behind the canine when the latter are present.", "preferredTerm": "Bicuspid Tooth", "submissionValue": "TOOTH, PREMOLAR", "synonyms": ["Bicuspid Tooth", "Premolar", "Premolar Tooth"]}, {"conceptId": "C12428", "definition": "The fibrocartilaginous, mucous-lined tube passing from the larynx to the bronchi. (NCI)", "preferredTerm": "Trachea", "submissionValue": "TRACHEA", "synonyms": ["Trachea", "Windpipe"]}, {"conceptId": "C33822", "definition": "Serous membrane that covers the testicles. (NCI)", "preferredTerm": "Tunica Vaginalis", "submissionValue": "TUNICA VAGINALIS"}, {"conceptId": "C112425", "definition": "Bone structure covering the ventral aspect of the middle ear.", "preferredTerm": "Tympanic Bulla", "submissionValue": "TYMPANIC BULLA"}, {"conceptId": "C12416", "definition": "The thick-walled tube that carries urine from each kidney to the bladder. (NCI)", "preferredTerm": "Ureter", "submissionValue": "URETER", "synonyms": ["Ureter"]}, {"conceptId": "C12417", "definition": "The tube carrying urine from the bladder to outside of the body. (NCI)", "preferredTerm": "Urethra", "submissionValue": "URETHRA", "synonyms": ["Urethra"]}, {"conceptId": "C32209", "definition": "The tissue that forms the bladder wall. It consists of mucosa, muscular coat, and serosal surface. (NCI)", "preferredTerm": "Bladder Tissue", "submissionValue": "URINARY BLADDER", "synonyms": ["Bladder", "Urinary System, Bladder"]}, {"conceptId": "C13283", "definition": "The fluid that is excreted by the kidneys. It is stored in the bladder and discharged through the urethra. (NCI)", "preferredTerm": "Urine", "submissionValue": "URINE"}, {"conceptId": "C12405", "definition": "A hollow muscular organ within which the fertilized egg implants and the embryo/fetus develops during pregnancy.", "preferredTerm": "Uterus", "submissionValue": "UTERUS", "synonyms": ["Womb"]}, {"conceptId": "C92436", "definition": "A tissue sample that contains the body of uterus and the cervix. (NCI)", "preferredTerm": "Uterus/Cervix", "submissionValue": "UTERUS/CERVIX"}, {"conceptId": "C77672", "definition": "A laboratory specimen consisting of the uterus and ovaries. (NCI)", "preferredTerm": "Uterus/Ovaries", "submissionValue": "UTERUS/OVARY"}, {"conceptId": "C12407", "definition": "The female genital canal, extending from the uterus to the vulva. (NCI)", "preferredTerm": "Vagina", "submissionValue": "VAGINA", "synonyms": ["Vagina"]}, {"conceptId": "C12670", "definition": "A valve that is located between and controls the flow of blood from the left ventricle of the heart and the aorta. (NCI)", "preferredTerm": "Aortic Valve", "submissionValue": "VALVE, AORTIC"}, {"conceptId": "C12729", "definition": "Any of the four heart valves, including the two atrioventricular valves and the two semilunar valves, that regulate the flow of blood through the chambers of the heart. (NCI)", "preferredTerm": "Cardiac Valve", "submissionValue": "VALVE, CARDIAC"}, {"conceptId": "C12753", "definition": "A dual-flap valve of the heart that regulates the flow of blood between the left atrium and the left ventricle of the heart. (NCI)", "preferredTerm": "Mitral Valve", "submissionValue": "VALVE, MITRAL"}, {"conceptId": "C12775", "definition": "A valve that is located between and controls the flow of blood from the right ventricle of the heart and the pulmonary artery. (NCI)", "preferredTerm": "Pulmonary Valve", "submissionValue": "VALVE, PULMONARY"}, {"conceptId": "C12805", "definition": "A three-cusp valve of the heart that regulates the flow of blood between the right atrium and the right ventricle of the heart. (NCI)", "preferredTerm": "Tricuspid Valve", "submissionValue": "VALVE, TRICUSPID"}, {"conceptId": "C12813", "definition": "A duct carrying spermatozoa from the epididymides to the urethra.", "preferredTerm": "Vas Deferens", "submissionValue": "VAS DEFERENS"}, {"conceptId": "C12814", "definition": "A blood vessel that carries blood towards the heart.", "preferredTerm": "Vein", "submissionValue": "VEIN", "synonyms": ["Vein"]}, {"conceptId": "C77673", "definition": "A vein located in the ear region. It may pertain to the anterior or posterior auricular veins. (NCI)", "preferredTerm": "Auricular Vein", "submissionValue": "VEIN, AURICULAR"}, {"conceptId": "C12883", "definition": "Deep vein of the upper arm that forms at the junction of the radial and ulnar veins and ends at the inferior border of the teres major. (NCI)", "preferredTerm": "Brachial Vein", "submissionValue": "VEIN, BRACHIAL"}, {"conceptId": "C92598", "definition": "A vein located in the tail of vertebrate animals that leads to the inferior vena cava in mammals and the posterior cardinal vein in the trunk of fish. (NCI)", "preferredTerm": "Caudal Vein", "submissionValue": "VEIN, CAUDAL", "synonyms": ["Tail Vein"]}, {"conceptId": "C32286", "definition": "One of five superficial veins of the upper extremity, beginning at the radial aspect of the wrist area, wrapping around the forearm and emptying into the axillary vein. (NCI)", "preferredTerm": "Cephalic Vein", "submissionValue": "VEIN, CEPHALIC", "synonyms": ["Cephalic Vein", "Vena Cephalica"]}, {"conceptId": "C12716", "definition": "A vein that starts within the inguinal region and extends to the lower extremities. (NCI)", "preferredTerm": "Femoral Vein", "submissionValue": "VEIN, FEMORAL", "synonyms": ["Femoral Vein"]}, {"conceptId": "C12738", "definition": "Veins in the neck which drain the brain, face, and neck into the brachiocephalic or subclavian veins. (NCI)", "preferredTerm": "Jugular Vein", "submissionValue": "VEIN, JUGULAR", "synonyms": ["Vena Jugularis"]}, {"conceptId": "C53055", "definition": "One of two veins (inferior or superior) that returns deoxygenated blood from the intestines. (NCI)", "preferredTerm": "Mesenteric Vein", "submissionValue": "VEIN, MESENTERIC"}, {"conceptId": "C33343", "definition": "A short thick trunk vein that transports blood containing the absorbed products of digestion from the intestine directly to the liver. (NCI)", "preferredTerm": "Portal Vein", "submissionValue": "VEIN, PORTAL", "synonyms": ["Hepatic Portal Vein", "Portal Vein"]}, {"conceptId": "C12776", "definition": "One of four veins that carries oxygen-rich blood from the lungs to the cardiac left atrium. (NCI)", "preferredTerm": "Pulmonary Vein", "submissionValue": "VEIN, PULMONARY"}, {"conceptId": "C33462", "definition": "The veins which return blood from the kidneys to the vena cava. (NCI)", "preferredTerm": "Renal Vein", "submissionValue": "VEIN, RENAL"}, {"conceptId": "C33511", "definition": "One of two (Greater, Small) superficial veins of the leg and thigh. (NCI)", "preferredTerm": "Saphenous Vein", "submissionValue": "VEIN, SAPHENA", "synonyms": ["Saphenous Vein"]}, {"conceptId": "C12817", "definition": "A large vein which returns blood from the head, neck and extremities to the heart. (NCI)", "preferredTerm": "Vena Cava", "submissionValue": "VEIN, VENA CAVA", "synonyms": ["Vena Cava"]}, {"conceptId": "C114236", "definition": "A pouch below the proventriculus in some birds, insects, reptiles and invertebrates. It is responsible for digestion.", "preferredTerm": "Ventriculus", "submissionValue": "VENTRICULUS"}, {"conceptId": "C32213", "definition": "The tissue component of a blood vessel. Large vessels contain three layers of tissue, the tunica intima, tunica media, and tunica adventitia. Capillary tissue is composed of a single layer of endothelium and connective tissue. (NCI)", "preferredTerm": "Blood Vessel Tissue", "submissionValue": "VESSEL, BLOOD", "synonyms": ["Vessel"]}, {"conceptId": "C33038", "definition": "A tubule that carries lymph throughout the body. (NCI)", "preferredTerm": "Lymphatic Vessel", "submissionValue": "VESSEL, LYMPHATIC", "synonyms": ["Vessel, Lymph"]}, {"conceptId": "C77666", "definition": "Stomach contents that have returned to the mouth or are ejected beyond the mouth. (NCI)", "preferredTerm": "Vomitus", "submissionValue": "VOMITUS", "synonyms": ["Emesis", "Vomit"]}, {"conceptId": "C12408", "definition": "The external, visible part of the female genitalia surrounding the urethral and vaginal opening. The vulva includes the clitoris and inner as well as outer labia. (NCI)", "preferredTerm": "Vulva", "submissionValue": "VULVA", "synonyms": ["External Genitalia", "Vulva"]}, {"conceptId": "C77665", "definition": "Referring to the entire body of an animal. (NCI)", "preferredTerm": "Whole Animal", "submissionValue": "WHOLE ANIMAL", "synonyms": ["Carcass"]}, {"conceptId": "C41067", "definition": "Blood that has not been separated into its various components; blood that has not been modified except for the addition of an anticoagulant. (NCI)", "preferredTerm": "Whole Blood", "submissionValue": "WHOLE BLOOD"}]}