{"_links": {"parentPackage": {"href": "/mdr/ct/packages/protocolct-2020-12-18", "title": "PROTOCOL Controlled Terminology Package 44 Effective 2020-12-18", "type": "Terminology"}, "priorVersion": {"href": "/mdr/ct/packages/protocolct-2020-11-06/codelists/C160921", "title": "CDISC Protocol Study Population Attribute Terminology", "type": "Code List"}, "rootItem": {"href": "/mdr/root/ct/protocolct/codelists/C160921", "title": "Version-agnostic anchor resource for codelist C160921", "type": "Root Value Domain"}, "self": {"href": "/mdr/ct/packages/protocolct-2020-12-18/codelists/C160921", "title": "CDISC Protocol Study Population Attribute Terminology", "type": "Code List"}}, "conceptId": "C160921", "definition": "A terminology value set relevant to the attributes of the study population entity.", "name": "Study Population Attribute Terminology", "preferredTerm": "CDISC Protocol Study Population Attribute Terminology", "submissionValue": "Study Population Attribute Terminology", "synonyms": ["Study Population Attribute Terminology"], "terms": [{"conceptId": "C161320", "definition": "Medical or health condition that is concomitant or concurrent with the primary condition or disease under study.", "preferredTerm": "Comorbid Condition", "submissionValue": "Comorbid Condition"}, {"conceptId": "C161319", "definition": "Primary disease(s) or condition(s) being studied in the trial, or the focus of the study. (clinicaltrials.gov)", "preferredTerm": "Condition or Disease under Study", "submissionValue": "Condition or Disease under Study"}, {"conceptId": "C28143", "definition": "A study population that is defined for the purpose of comparison to the treatment group in a controlled trial. In an epidemiological study, a study population that does not have the outcome of interest.", "preferredTerm": "Control Group", "submissionValue": "Control Group"}, {"conceptId": "C161324", "definition": "A descriptive characterization of the study population (e.g., age, sex, race, education, etc.).", "preferredTerm": "Demographic Group", "submissionValue": "Demographic Group"}, {"conceptId": "C161323", "definition": "A study population that receives the intervention that is the focus of the study.", "preferredTerm": "Experimental Group", "submissionValue": "Experimental Group"}, {"conceptId": "C161316", "definition": "Female study subjects or patients who have the potential to become pregnant, i.e., those who have experienced menarche and who have not undergone surgical sterilization and are not postmenopausal.", "preferredTerm": "Female of Childbearing Potential", "submissionValue": "Females of Childbearing Potential", "synonyms": ["FOCBP", "WOCBP", "Women of Childbearing Potential"]}, {"conceptId": "C16669", "definition": "The state of a subject's mental or physical condition.", "preferredTerm": "Health Status", "submissionValue": "General Health Status"}, {"conceptId": "C49651", "definition": "An individual who is or becomes a participant in a research study and has no significant health-related issues. (NCI)", "preferredTerm": "Healthy Subject", "submissionValue": "Healthy Volunteer", "synonyms": ["Healthy Subject"]}, {"conceptId": "C161318", "definition": "An explanation with defensible proof as to the reason why a special population of subjects is included in the clinical study.", "preferredTerm": "Justification of Special Population", "submissionValue": "Justification of Special Population"}, {"conceptId": "C161317", "definition": "An explanation as to the logical reasons for why a specific population of subjects is being considered for inclusion in a clinical study.", "preferredTerm": "Population Rationale", "submissionValue": "Population Rationale"}, {"conceptId": "C161321", "definition": "The study population that is defined for the purpose of comparison to the population under investigation.", "preferredTerm": "Reference Group", "submissionValue": "Reference Group", "synonyms": ["Reference Group for Study Sample Population"]}, {"conceptId": "C142728", "definition": "The population within the general population for which the study results can be generalized.", "preferredTerm": "Target Study Population", "submissionValue": "Target Study Population", "synonyms": ["Target Population"]}, {"conceptId": "C161322", "definition": "A study population that receives an intervention(s) within a trial. This could include the investigational product(s) or a comparator (e.g., placebo or an approved intervention).", "preferredTerm": "Treatment Group", "submissionValue": "Treatment Group"}, {"conceptId": "C142747", "definition": "Individuals whose willingness to volunteer in a clinical trial may be unduly influenced by the expectation, whether justified or not, of benefits associated with participation, or of a retaliatory response from senior members of a hierarchy in case of refusal to participate. Examples include subordinate members of a group with a hierarchical structure, patients with incurable diseases, persons in nursing homes, unemployed or impoverished persons, patients in emergency situations, ethnic minority groups, homeless persons, nomads, refugees, minors, and those incapable of giving consent. (ICH)", "preferredTerm": "Vulnerable Subjects", "submissionValue": "Vulnerable Population"}]}