{"_links": {"parentPackage": {"href": "/mdr/ct/packages/protocolct-2020-12-18", "title": "PROTOCOL Controlled Terminology Package 44 Effective 2020-12-18", "type": "Terminology"}, "priorVersion": {"href": "/mdr/ct/packages/protocolct-2020-11-06/codelists/C165642", "title": "CDISC Protocol Oversight Entity Value Set Terminology", "type": "Code List"}, "rootItem": {"href": "/mdr/root/ct/protocolct/codelists/C165642", "title": "Version-agnostic anchor resource for codelist C165642", "type": "Root Value Domain"}, "self": {"href": "/mdr/ct/packages/protocolct-2020-12-18/codelists/C165642", "title": "CDISC Protocol Oversight Entity Value Set Terminology", "type": "Code List"}}, "conceptId": "C165642", "definition": "The terminology relevant to the type of oversight entity for the study.", "name": "Oversight Entity Value Set", "preferredTerm": "CDISC Protocol Oversight Entity Value Set Terminology", "submissionValue": "Oversight Entity Value Set", "synonyms": ["Oversight Entity Value Set"], "terms": [{"conceptId": "C142489", "definition": "A group of independent experts who are appointed to monitor the safety and scientific integrity of a research intervention, protect the confidentiality of participant data, and to make recommendations to the sponsor regarding the stopping of the trial for safety, efficacy, or for futility. (clinicaltrials.gov)", "preferredTerm": "Data Monitoring Committee", "submissionValue": "Data Monitoring Committee", "synonyms": ["DMC", "DMOC", "DSMC", "Data Monitoring and Oversight Committee", "Data and Safety Monitoring Board", "Data and Safety Monitoring Committee DSMB", "IDMC", "Independent Data Monitoring Committee"]}, {"conceptId": "C142579", "definition": "An independent body (a review board or a committee, institutional, regional, national, or supranational), constituted of medical professionals and non-medical members, whose responsibility it is to ensure the protection of the rights, safety and well-being of human subjects involved in a study and to provide public assurance of that protection, by, among other things, reviewing and approving/providing favorable opinion on, the study protocol, the suitability of the investigator(s), facilities, and the methods and material to be used in obtaining and documenting informed consent of the study subjects. The legal status, composition, function, operations and regulatory requirements pertaining to Independent Ethics Committees may differ among countries, but should allow the Independent Ethics Committee to act in agreement with GCP as described in the ICH E6 guideline. (ICH E6 R2)", "preferredTerm": "Independent Ethics Committee", "submissionValue": "Independent Ethics Committee", "synonyms": ["IEC"]}, {"conceptId": "C165865", "definition": "An independent physician or health-care professional who evaluates individual and cumulative participant data to make recommendations regarding the safe continuation of the study. (NIH)", "preferredTerm": "Independent Safety Monitor", "submissionValue": "Independent Safety Monitor", "synonyms": ["ISM"]}, {"conceptId": "C16741", "definition": "An independent body constituted of medical, scientific, and non-scientific members, whose responsibility is to ensure the protection of the rights, safety and well-being of human subjects involved in a study by, among other things, reviewing, approving, and providing continuing review of study protocol and amendments and of the methods and material to be used in obtaining and documenting informed consent of the study subjects. (ICH E6 R2)", "preferredTerm": "Institutional Review Board", "submissionValue": "Institutional Review Board", "synonyms": ["IRB"]}, {"conceptId": "C165866", "definition": "A group of independent experts who are appointed to monitor the safety and scientific integrity of an observational study, including protecting the confidentiality of participant data and to make recommendations regarding the stopping of the study for safety or for futility. (clinicaltrials.gov)", "preferredTerm": "Observational Study Monitoring Committee", "submissionValue": "Observational Study Monitoring Committee", "synonyms": ["OSMB", "OSMC", "Observational Study Monitoring Board"]}, {"conceptId": "C165867", "definition": "Group of individuals with pertinent expertise that reviews, on a regular basis, accumulating safety data from an ongoing clinical study. This independent committee monitors the safety of participants during the study.", "preferredTerm": "Safety Monitoring Committee", "submissionValue": "Safety Monitoring Committee", "synonyms": ["SMC", "Safety Assessment Committee", "Safety Monitoring Board"]}]}