{"_links": {"parentPackage": {"href": "/mdr/ct/packages/protocolct-2020-12-18", "title": "PROTOCOL Controlled Terminology Package 44 Effective 2020-12-18", "type": "Terminology"}, "priorVersion": {"href": "/mdr/ct/packages/protocolct-2020-11-06/codelists/C172329", "title": "CDISC Protocol Study Arm Attribute Terminology", "type": "Code List"}, "rootItem": {"href": "/mdr/root/ct/protocolct/codelists/C172329", "title": "Version-agnostic anchor resource for codelist C172329", "type": "Root Value Domain"}, "self": {"href": "/mdr/ct/packages/protocolct-2020-12-18/codelists/C172329", "title": "CDISC Protocol Study Arm Attribute Terminology", "type": "Code List"}}, "conceptId": "C172329", "definition": "A terminology value set relevant to the attributes of the study arm entity.", "name": "Study Arm Attribute Terminology", "preferredTerm": "CDISC Protocol Study Arm Attribute Terminology", "submissionValue": "Study Arm Attribute Terminology", "synonyms": ["Study Arm Attribute Terminology"], "terms": [{"conceptId": "C172458", "definition": "The total number of subjects intended to be included within each arm for the study. (NCI)", "preferredTerm": "Planned Number of Subjects Per Study Arm", "submissionValue": "Planned Number of Subjects Per Study Arm"}, {"conceptId": "C93728", "definition": "The textual representation of the arm for the study.", "preferredTerm": "Arm Description", "submissionValue": "Study Arm Description", "synonyms": ["Arm Description"]}, {"conceptId": "C172456", "definition": "The given name of the arm for the study. (NCI)", "preferredTerm": "Study Arm Label", "submissionValue": "Study Arm Label", "synonyms": ["Arm Label"]}, {"conceptId": "C172457", "definition": "The identification of the kind of arm(s) for the study. (NCI)", "preferredTerm": "Study Arm Type", "submissionValue": "Study Arm Type", "synonyms": ["Arm Type"]}]}