{"_links": {"parentPackage": {"href": "/mdr/ct/packages/protocolct-2020-12-18", "title": "PROTOCOL Controlled Terminology Package 44 Effective 2020-12-18", "type": "Terminology"}, "priorVersion": {"href": "/mdr/ct/packages/protocolct-2020-11-06/codelists/C174221", "title": "CDISC Protocol Study Product Type Value Set Terminology", "type": "Code List"}, "rootItem": {"href": "/mdr/root/ct/protocolct/codelists/C174221", "title": "Version-agnostic anchor resource for codelist C174221", "type": "Root Value Domain"}, "self": {"href": "/mdr/ct/packages/protocolct-2020-12-18/codelists/C174221", "title": "CDISC Protocol Study Product Type Value Set Terminology", "type": "Code List"}}, "conceptId": "C174221", "definition": "The terminology relevant to the identification of the kind of study product.", "name": "Study Product Type Value Set Terminology", "preferredTerm": "CDISC Protocol Study Product Type Value Set Terminology", "submissionValue": "Study Product Type Value Set Terminology", "synonyms": ["Study Product Type Value Set Terminology"], "terms": [{"conceptId": "C68609", "definition": "A type of control, which has a demonstrated effect, administered as a comparator to subjects in a clinical trial. [From ICH E10]", "preferredTerm": "Active Comparator", "submissionValue": "Active Comparator", "synonyms": ["Active Control"]}, {"conceptId": "C142703", "definition": "A comparator product against which the study treatment is evaluated [e.g., concurrent (placebo, no treatment, dose-response, active), and external (historical, published literature)]. [After ICH E10]", "preferredTerm": "Study Control", "submissionValue": "Control Product"}, {"conceptId": "C142587", "definition": "A material (such as a drug, biologic, or device) produced by or resulting from a process, which is being tested in a study. This may also include a product with a marketing authorization when used or assembled (formulated or packaged) in a way different from the approved form, or when used for an unapproved indication, or when used to gain further information about an approved use. [After ICH]", "preferredTerm": "Investigational Product", "submissionValue": "Investigational Product", "synonyms": ["Experimental Product"]}, {"conceptId": "C49648", "definition": "An inactive, identical-appearing drug or treatment that does not contain the test product.", "preferredTerm": "Placebo Control", "submissionValue": "Placebo Comparator", "synonyms": ["Placebo", "Placebo Control"]}, {"conceptId": "C116527", "definition": "A procedure or device that appears to be the same as the actual procedure or device being studied but does not contain active processes or components.", "preferredTerm": "Sham Intervention", "submissionValue": "Sham Comparator", "synonyms": ["Sham Intervention"]}]}