{"_links": {"parentPackage": {"href": "/mdr/ct/packages/sdtmct-2018-06-29", "title": "SDTM Controlled Terminology Package 34 Effective 2018-06-29", "type": "Terminology"}, "priorVersion": {"href": "/mdr/ct/packages/sdtmct-2018-03-30/codelists/C100170", "title": "CDISC Questionnaire KPS Scale Test Code Terminology", "type": "Code List"}, "rootItem": {"href": "/mdr/root/ct/sdtmct/codelists/C100170", "title": "Version-agnostic anchor resource for codelist C100170", "type": "Root Value Domain"}, "self": {"href": "/mdr/ct/packages/sdtmct-2018-06-29/codelists/C100170", "title": "CDISC Questionnaire KPS Scale Test Code Terminology", "type": "Code List"}}, "conceptId": "C100170", "definition": "Karnofsky Performance Status Scale test code.", "extensible": "false", "name": "Karnofsky Performance Status Scale Questionnaire Test Code", "preferredTerm": "CDISC Questionnaire KPS Scale Test Code Terminology", "submissionValue": "KPSSTC", "synonyms": ["Karnofsky Performance Status Scale Questionnaire Test Code"], "terms": [{"conceptId": "C100417", "definition": "Karnofsky Performance Status Scale - Karnofsky Performance Status.", "preferredTerm": "KPS Scale - Karnofsky Performance Status", "submissionValue": "KPSS01", "synonyms": ["KPSS-Karnofsky Performance Status"]}]}