{"_links": {"parentPackage": {"href": "/mdr/ct/packages/sdtmct-2018-06-29", "title": "SDTM Controlled Terminology Package 34 Effective 2018-06-29", "type": "Terminology"}, "priorVersion": {"href": "/mdr/ct/packages/sdtmct-2018-03-30/codelists/C102590", "title": "CDISC SDTM Vaccination Evidence Source Terminology", "type": "Code List"}, "rootItem": {"href": "/mdr/root/ct/sdtmct/codelists/C102590", "title": "Version-agnostic anchor resource for codelist C102590", "type": "Root Value Domain"}, "self": {"href": "/mdr/ct/packages/sdtmct-2018-06-29/codelists/C102590", "title": "CDISC SDTM Vaccination Evidence Source Terminology", "type": "Code List"}}, "conceptId": "C102590", "definition": "Terminology relevant to the source of information regarding the subject's vaccination status.", "extensible": "true", "name": "Vaccination Evidence Source", "preferredTerm": "CDISC SDTM Vaccination Evidence Source Terminology", "submissionValue": "VCNEVD", "synonyms": ["Vaccination Evidence Source"], "terms": [{"conceptId": "C34483", "definition": "A mark left (usually on the skin) by the healing of injured tissue.", "preferredTerm": "Scar", "submissionValue": "SCAR"}, {"conceptId": "C74528", "definition": "An individual's perspective or subjective interpretation of an event or information.", "preferredTerm": "Self-Report", "submissionValue": "SELF-REPORT"}, {"conceptId": "C86042", "definition": "The collecting, abstracting, and coding of printed or written information for future reference.", "preferredTerm": "Written Documentation", "submissionValue": "WRITTEN DOCUMENTATION"}]}