{"_links": {"parentPackage": {"href": "/mdr/ct/packages/sdtmct-2018-06-29", "title": "SDTM Controlled Terminology Package 34 Effective 2018-06-29", "type": "Terminology"}, "priorVersion": {"href": "/mdr/ct/packages/sdtmct-2018-03-30/codelists/C103464", "title": "CDISC Questionnaire FIQR Test Name Terminology", "type": "Code List"}, "rootItem": {"href": "/mdr/root/ct/sdtmct/codelists/C103464", "title": "Version-agnostic anchor resource for codelist C103464", "type": "Root Value Domain"}, "self": {"href": "/mdr/ct/packages/sdtmct-2018-06-29/codelists/C103464", "title": "CDISC Questionnaire FIQR Test Name Terminology", "type": "Code List"}}, "conceptId": "C103464", "definition": "Revised Fibromyalgia Impact Questionnaire test name.", "extensible": "false", "name": "Revised Fibromyalgia Impact Questionnaire Questionnaire Test Name", "preferredTerm": "CDISC Questionnaire FIQR Test Name Terminology", "submissionValue": "FIQR01TN", "synonyms": ["Revised Fibromyalgia Impact Questionnaire Questionnaire Test Name"], "terms": [{"conceptId": "C118107", "definition": "Revised Fibromyalgia Impact Questionnaire - Sub-total for activities subcategory.", "preferredTerm": "FIQR - Activities Sub-Total", "submissionValue": "FIQR01-Activities Sub-Total", "synonyms": ["FIQR01-Activities Sub-Total"]}, {"conceptId": "C103561", "definition": "Revised Fibromyalgia Impact Questionnaire - Please rate your level of anxiety.", "preferredTerm": "FIQR - Anxiety", "submissionValue": "FIQR01-Anxiety", "synonyms": ["FIQR01-Anxiety"]}, {"conceptId": "C103563", "definition": "Revised Fibromyalgia Impact Questionnaire - Please rate your level of balance problems.", "preferredTerm": "FIQR - Balance Problems", "submissionValue": "FIQR01-Balance Problems", "synonyms": ["FIQR01-Balance Problems"]}, {"conceptId": "C103544", "definition": "Revised Fibromyalgia Impact Questionnaire - Brush or comb your hair.", "preferredTerm": "FIQR - Brush or Comb Your Hair", "submissionValue": "FIQR01-Brush or Comb Your Hair", "synonyms": ["FIQR01-Brush or Comb Your Hair"]}, {"conceptId": "C103550", "definition": "Revised Fibromyalgia Impact Questionnaire - Change bed sheets.", "preferredTerm": "FIQR - Change Bed Sheets", "submissionValue": "FIQR01-Change Bed Sheets", "synonyms": ["FIQR01-Change Bed Sheets"]}, {"conceptId": "C103549", "definition": "Revised Fibromyalgia Impact Questionnaire - Climb one flight of stairs.", "preferredTerm": "FIQR - Climb One Flight of Stairs", "submissionValue": "FIQR01-Climb One Flight of Stairs", "synonyms": ["FIQR01-Climb One Flight of Stairs"]}, {"conceptId": "C103559", "definition": "Revised Fibromyalgia Impact Questionnaire - Please rate your level of depression.", "preferredTerm": "FIQR - Depression", "submissionValue": "FIQR01-Depression", "synonyms": ["FIQR01-Depression"]}, {"conceptId": "C103556", "definition": "Revised Fibromyalgia Impact Questionnaire - Please rate your level of energy.", "preferredTerm": "FIQR - Energy", "submissionValue": "FIQR01-Energy", "synonyms": ["FIQR01-Energy"]}, {"conceptId": "C118110", "definition": "Revised Fibromyalgia Impact Questionnaire - FIQR total.", "preferredTerm": "FIQR - FIQR Total", "submissionValue": "FIQR01-FIQR Total", "synonyms": ["FIQR01-FIQR Total"]}, {"conceptId": "C103553", "definition": "Revised Fibromyalgia Impact Questionnaire - Fibromyalgia prevented me from accomplishing goals for the week.", "preferredTerm": "FIQR - Fibromyalgia Prevented Me from Accomplishing Goals for the Week", "submissionValue": "FIQR01-Fibromyalgia Prevented Goals", "synonyms": ["FIQR01-Fibromyalgia Prevented Goals"]}, {"conceptId": "C103552", "definition": "Revised Fibromyalgia Impact Questionnaire - Go shopping for groceries.", "preferredTerm": "FIQR - Go Shopping for Groceries", "submissionValue": "FIQR01-Go Shopping for Groceries", "synonyms": ["FIQR01-Go Shopping for Groceries"]}, {"conceptId": "C103548", "definition": "Revised Fibromyalgia Impact Questionnaire - Lift and carry a bag full of groceries.", "preferredTerm": "FIQR - Lift and Carry a Bag Full of Groceries", "submissionValue": "FIQR01-Lift/Carry Bag Full of Groceries", "synonyms": ["FIQR01-Lift/Carry Bag Full of Groceries"]}, {"conceptId": "C103560", "definition": "Revised Fibromyalgia Impact Questionnaire - Please rate your level of memory problems.", "preferredTerm": "FIQR - Memory Problems", "submissionValue": "FIQR01-Memory Problems", "synonyms": ["FIQR01-Memory Problems"]}, {"conceptId": "C118108", "definition": "Revised Fibromyalgia Impact Questionnaire - Sub-total for overall impact subcategory.", "preferredTerm": "FIQR - Overall Impact Sub-Total", "submissionValue": "FIQR01-Overall Impact Sub-Total", "synonyms": ["FIQR01-Overall Impact Sub-Total"]}, {"conceptId": "C103554", "definition": "Revised Fibromyalgia Impact Questionnaire - I was completely overwhelmed by my fibromyalgia symptoms.", "preferredTerm": "FIQR - I was Completely Overwhelmed by My Fibromyalgia Symptoms", "submissionValue": "FIQR01-Overwhelmed by Fibromyalgia", "synonyms": ["FIQR01-Overwhelmed by Fibromyalgia"]}, {"conceptId": "C103555", "definition": "Revised Fibromyalgia Impact Questionnaire - Please rate your level of pain.", "preferredTerm": "FIQR - Pain", "submissionValue": "FIQR01-Pain", "synonyms": ["FIQR01-Pain"]}, {"conceptId": "C103546", "definition": "Revised Fibromyalgia Impact Questionnaire - Prepare a homemade meal.", "preferredTerm": "FIQR - Prepare a Homemade Meal", "submissionValue": "FIQR01-Prepare a Homemade Meal", "synonyms": ["FIQR01-Prepare a Homemade Meal"]}, {"conceptId": "C103564", "definition": "Revised Fibromyalgia Impact Questionnaire - Please rate your level of sensitivity to loud noises, bright lights, odors and cold.", "preferredTerm": "FIQR - Sensitivity to Loud Noises, Bright Lights, Odors and Cold", "submissionValue": "FIQR01-Sensitivity Noise/Light/Odor/Cold", "synonyms": ["FIQR01-Sensitivity Noise/Light/Odor/Cold"]}, {"conceptId": "C103551", "definition": "Revised Fibromyalgia Impact Questionnaire - Sit in a chair for 45 minutes.", "preferredTerm": "FIQR - Sit in a Chair for 45 Minutes", "submissionValue": "FIQR01-Sit in a Chair for 45 Minutes", "synonyms": ["FIQR01-Sit in a Chair for 45 Minutes"]}, {"conceptId": "C103557", "definition": "Revised Fibromyalgia Impact Questionnaire - Please rate your level of stiffness.", "preferredTerm": "FIQR - Stiffness", "submissionValue": "FIQR01-Stiffness", "synonyms": ["FIQR01-Stiffness"]}, {"conceptId": "C118109", "definition": "Revised Fibromyalgia Impact Questionnaire - Sub-total for symptoms subcategory.", "preferredTerm": "FIQR - Symptoms Sub-Total", "submissionValue": "FIQR01-Symptoms Sub-Total", "synonyms": ["FIQR01-Symptoms Sub-Total"]}, {"conceptId": "C103562", "definition": "Revised Fibromyalgia Impact Questionnaire - Please rate your level of tenderness to touch.", "preferredTerm": "FIQR - Tenderness to Touch", "submissionValue": "FIQR01-Tenderness to Touch", "synonyms": ["FIQR01-Tenderness to Touch"]}, {"conceptId": "C103547", "definition": "Revised Fibromyalgia Impact Questionnaire - Vacuum, scrub or sweep floors.", "preferredTerm": "FIQR - Vacuum Scrub or Sweep Floors", "submissionValue": "FIQR01-Vacuum Scrub or Sweep Floors", "synonyms": ["FIQR01-Vacuum Scrub or Sweep Floors"]}, {"conceptId": "C103545", "definition": "Revised Fibromyalgia Impact Questionnaire - Walk continuously for 20 minutes.", "preferredTerm": "FIQR - Walk Continuously for 20 Minutes", "submissionValue": "FIQR01-Walk Continuously for 20 Minutes", "synonyms": ["FIQR01-Walk Continuously for 20 Minutes"]}, {"conceptId": "C103558", "definition": "Revised Fibromyalgia Impact Questionnaire - Please rate the quality of your sleep.", "preferredTerm": "FIQR - Your Sleep", "submissionValue": "FIQR01-Your Sleep", "synonyms": ["FIQR01-Your Sleep"]}]}