{"_links": {"parentPackage": {"href": "/mdr/ct/packages/sdtmct-2018-06-29", "title": "SDTM Controlled Terminology Package 34 Effective 2018-06-29", "type": "Terminology"}, "priorVersion": {"href": "/mdr/ct/packages/sdtmct-2018-03-30/codelists/C112444", "title": "CDISC Questionnaire MHIS-NACC Test Name Terminology", "type": "Code List"}, "rootItem": {"href": "/mdr/root/ct/sdtmct/codelists/C112444", "title": "Version-agnostic anchor resource for codelist C112444", "type": "Root Value Domain"}, "self": {"href": "/mdr/ct/packages/sdtmct-2018-06-29/codelists/C112444", "title": "CDISC Questionnaire MHIS-NACC Test Name Terminology", "type": "Code List"}}, "conceptId": "C112444", "definition": "Modified Hachinski Ischemic Scale-NACC Version test name.", "extensible": "false", "name": "Modified Hachinski Ischemic Scale-NACC Version Questionnaire Test Name", "preferredTerm": "CDISC Questionnaire MHIS-NACC Test Name Terminology", "submissionValue": "MHIS01TN", "synonyms": ["Modified Hachinski Ischemic Scale-NACC Version Questionnaire Test Name"], "terms": [{"conceptId": "C112813", "definition": "Modified Hachinski Ischemic Scale-NACC Version - Somatic complaints.", "preferredTerm": "MHIS-NACC - Somatic Complaints", "submissionValue": "MHIS01- Somatic Complaints", "synonyms": ["MHIS01- Somatic Complaints"]}, {"conceptId": "C112618", "definition": "Modified Hachinski Ischemic Scale-NACC Version - Abrupt onset (re: cognitive status).", "preferredTerm": "MHIS-NACC - Abrupt Onset", "submissionValue": "MHIS01-Abrupt Onset", "synonyms": ["MHIS01-Abrupt Onset"]}, {"conceptId": "C112620", "definition": "Modified Hachinski Ischemic Scale-NACC Version - Emotional incontinence.", "preferredTerm": "MHIS-NACC - Emotional Incontinence", "submissionValue": "MHIS01-Emotional Incontinence", "synonyms": ["MHIS01-Emotional Incontinence"]}, {"conceptId": "C112624", "definition": "Modified Hachinski Ischemic Scale-NACC Version - Focal neurological signs.", "preferredTerm": "MHIS-NACC - Focal Neurological Signs", "submissionValue": "MHIS01-Focal Neurological Signs", "synonyms": ["MHIS01-Focal Neurological Signs"]}, {"conceptId": "C112623", "definition": "Modified Hachinski Ischemic Scale-NACC Version - Focal neurological symptoms.", "preferredTerm": "MHIS-NACC - Focal Neurological Symptoms", "submissionValue": "MHIS01-Focal Neurological Symptoms", "synonyms": ["MHIS01-Focal Neurological Symptoms"]}, {"conceptId": "C112622", "definition": "Modified Hachinski Ischemic Scale-NACC Version - History of stroke.", "preferredTerm": "MHIS-NACC - History of Stroke", "submissionValue": "MHIS01-History of Stroke", "synonyms": ["MHIS01-History of Stroke"]}, {"conceptId": "C112621", "definition": "Modified Hachinski Ischemic Scale-NACC Version - History or presence of hypertension.", "preferredTerm": "MHIS-NACC - History or Presence of Hypertension", "submissionValue": "MHIS01-History or Presence Hypertension", "synonyms": ["MHIS01-History or Presence Hypertension"]}, {"conceptId": "C112619", "definition": "Modified Hachinski Ischemic Scale-NACC Version - Stepwise deterioration (re: cognitive status).", "preferredTerm": "MHIS-NACC - Stepwise Deterioration", "submissionValue": "MHIS01-Stepwise Deterioration", "synonyms": ["MHIS01-Stepwise Deterioration"]}, {"conceptId": "C112625", "definition": "Modified Hachinski Ischemic Scale-NACC Version - Sum all circled answers for a total score.", "preferredTerm": "MHIS-NACC - Total Score", "submissionValue": "MHIS01-Total Score", "synonyms": ["MHIS01-Total Score"]}]}