{"_links": {"parentPackage": {"href": "/mdr/ct/packages/sdtmct-2018-06-29", "title": "SDTM Controlled Terminology Package 34 Effective 2018-06-29", "type": "Terminology"}, "priorVersion": {"href": "/mdr/ct/packages/sdtmct-2018-03-30/codelists/C112448", "title": "CDISC Questionnaire SGRQ Past 3 Months Version Test Name Terminology", "type": "Code List"}, "rootItem": {"href": "/mdr/root/ct/sdtmct/codelists/C112448", "title": "Version-agnostic anchor resource for codelist C112448", "type": "Root Value Domain"}, "self": {"href": "/mdr/ct/packages/sdtmct-2018-06-29/codelists/C112448", "title": "CDISC Questionnaire SGRQ Past 3 Months Version Test Name Terminology", "type": "Code List"}}, "conceptId": "C112448", "definition": "St. George's Respiratory Questionnaire Past 3 Months Version test name.", "extensible": "false", "name": "St. George's Respiratory Questionnaire Past 3 Months Version Questionnaire Test Name", "preferredTerm": "CDISC Questionnaire SGRQ Past 3 Months Version Test Name Terminology", "submissionValue": "SGRQ01TN", "synonyms": ["St. George's Respiratory Questionnaire Past 3 Months Version Questionnaire Test Name"], "terms": [{"conceptId": "C112653", "definition": "St. George's Respiratory Questionnaire Past 3 Months Version - These are questions about other effects that your respiratory problems may have on you these days: I get afraid or panic when I cannot catch my breath.", "preferredTerm": "SGRQ Past 3 Months Version - Get Afraid When Cannot Catch My Breath", "submissionValue": "SGRQ01-Afraid When Cannot Catch Breath", "synonyms": ["SGRQ01-Afraid When Cannot Catch Breath"]}, {"conceptId": "C112673", "definition": "St. George's Respiratory Questionnaire Past 3 Months Version - We would like to know how your respiratory problems usually affect your daily life: I cannot go out for entertainment or recreation.", "preferredTerm": "SGRQ Past 3 Months Version - Cannot Go Out for Entertainment", "submissionValue": "SGRQ01-Cannot Go Out for Entertainment", "synonyms": ["SGRQ01-Cannot Go Out for Entertainment"]}, {"conceptId": "C112674", "definition": "St. George's Respiratory Questionnaire Past 3 Months Version - We would like to know how your respiratory problems usually affect your daily life: I cannot go out of the house to do the shopping.", "preferredTerm": "SGRQ Past 3 Months Version - Cannot Go Out to Do Shopping", "submissionValue": "SGRQ01-Cannot Go Out to Do Shopping", "synonyms": ["SGRQ01-Cannot Go Out to Do Shopping"]}, {"conceptId": "C112651", "definition": "St. George's Respiratory Questionnaire Past 3 Months Version - These are questions about other effects that your respiratory problems may have on you these days: My cough or breathing is embarrassing in public.", "preferredTerm": "SGRQ Past 3 Months Version - My Cough is Embarrassing in Public", "submissionValue": "SGRQ01-Cough Is Embarrassing in Public", "synonyms": ["SGRQ01-Cough Is Embarrassing in Public"]}, {"conceptId": "C112649", "definition": "St. George's Respiratory Questionnaire Past 3 Months Version - These are more questions about your cough and shortness of breath these days: My coughing or breathing disturbs my sleep.", "preferredTerm": "SGRQ Past 3 Months Version - Coughing Disturbs My Sleep", "submissionValue": "SGRQ01-Coughing Disturbs My Sleep", "synonyms": ["SGRQ01-Coughing Disturbs My Sleep"]}, {"conceptId": "C112645", "definition": "St. George's Respiratory Questionnaire Past 3 Months Version - These are more questions about your cough and shortness of breath these days: Coughing hurts.", "preferredTerm": "SGRQ Past 3 Months Version - Coughing Hurts", "submissionValue": "SGRQ01-Coughing Hurts", "synonyms": ["SGRQ01-Coughing Hurts"]}, {"conceptId": "C112646", "definition": "St. George's Respiratory Questionnaire Past 3 Months Version - These are more questions about your cough and shortness of breath these days: Coughing makes me tired.", "preferredTerm": "SGRQ Past 3 Months Version - Coughing Makes Me Tired", "submissionValue": "SGRQ01-Coughing Makes Me Tired", "synonyms": ["SGRQ01-Coughing Makes Me Tired"]}, {"conceptId": "C112627", "definition": "St. George's Respiratory Questionnaire Past 3 Months Version - Please check one box to show how you describe your current health.", "preferredTerm": "SGRQ Past 3 Months Version - Describe Your Current Health", "submissionValue": "SGRQ01-Describe Your Current Health", "synonyms": ["SGRQ01-Describe Your Current Health"]}, {"conceptId": "C112636", "definition": "St. George's Respiratory Questionnaire Past 3 Months Version - How would you describe your respiratory condition?", "preferredTerm": "SGRQ Past 3 Months Version - Describe Your Respiratory Condition", "submissionValue": "SGRQ01-Describe Your Resp Condition", "synonyms": ["SGRQ01-Describe Your Resp Condition"]}, {"conceptId": "C112670", "definition": "St. George's Respiratory Questionnaire Past 3 Months Version - These are questions about how your activities might be affected by your respiratory problems: My breathing makes it difficult to do things such as carry heavy loads, dig in the garden or shovel snow, jog or walk briskly (5 miles per hour), play tennis or swim.", "preferredTerm": "SGRQ Past 3 Months Version - Breathing Makes Difficult to Carry Heavy Loads", "submissionValue": "SGRQ01-Difficult to Carry Heavy Loads", "synonyms": ["SGRQ01-Difficult to Carry Heavy Loads"]}, {"conceptId": "C112671", "definition": "St. George's Respiratory Questionnaire Past 3 Months Version - These are questions about how your activities might be affected by your respiratory problems: My breathing makes it difficult to do things such as very heavy manual work, ride a bike, run, swim fast, or play competitive sports.", "preferredTerm": "SGRQ Past 3 Months Version - Breathing Makes Difficult to Do Heavy Manual Work", "submissionValue": "SGRQ01-Difficult to Do Very Heavy Work", "synonyms": ["SGRQ01-Difficult to Do Very Heavy Work"]}, {"conceptId": "C112669", "definition": "St. George's Respiratory Questionnaire Past 3 Months Version - These are questions about how your activities might be affected by your respiratory problems: My breathing makes it difficult to do things such as walk up hills, carry things up stairs, light gardening such as weeding, dance, bowl or play golf.", "preferredTerm": "SGRQ Past 3 Months Version - Breathing Makes Difficult to Walk Up Hills", "submissionValue": "SGRQ01-Difficult to Walk Up Hills", "synonyms": ["SGRQ01-Difficult to Walk Up Hills"]}, {"conceptId": "C112660", "definition": "St. George's Respiratory Questionnaire Past 3 Months Version - These are questions about your respiratory treatment: I get embarrassed using my medication in public.", "preferredTerm": "SGRQ Past 3 Months Version - Embarrassed Using Medication in Public", "submissionValue": "SGRQ01-Embarrassed Using Med in Public", "synonyms": ["SGRQ01-Embarrassed Using Med in Public"]}, {"conceptId": "C112658", "definition": "St. George's Respiratory Questionnaire Past 3 Months Version - These are questions about other effects that your respiratory problems may have on you these days: Everything seems too much of an effort.", "preferredTerm": "SGRQ Past 3 Months Version - Everything Too Much Effort", "submissionValue": "SGRQ01-Everything Too Much Effort", "synonyms": ["SGRQ01-Everything Too Much Effort"]}, {"conceptId": "C112657", "definition": "St. George's Respiratory Questionnaire Past 3 Months Version - These are questions about other effects that your respiratory problems may have on you these days: Exercise is not safe for me.", "preferredTerm": "SGRQ Past 3 Months Version - Exercise Is Not Safe for Me", "submissionValue": "SGRQ01-Exercise Is Not Safe for Me", "synonyms": ["SGRQ01-Exercise Is Not Safe for Me"]}, {"conceptId": "C112633", "definition": "St. George's Respiratory Questionnaire Past 3 Months Version - How long did the worst respiratory attack last?", "preferredTerm": "SGRQ Past 3 Months Version - How Long Did Worst Respiratory Attack Last", "submissionValue": "SGRQ01-How Long Worst Resp Attack Last", "synonyms": ["SGRQ01-How Long Worst Resp Attack Last"]}, {"conceptId": "C112634", "definition": "St. George's Respiratory Questionnaire Past 3 Months Version - Over the past 3 months, in a typical week, how many good days (with few respiratory problems) have you had?", "preferredTerm": "SGRQ Past 3 Months Version - How Many Good Days You Had", "submissionValue": "SGRQ01-How Many Good Days Have You Had", "synonyms": ["SGRQ01-How Many Good Days Have You Had"]}, {"conceptId": "C112677", "definition": "St. George's Respiratory Questionnaire Past 3 Months Version - Best describe how your respiratory problems affect you.", "preferredTerm": "SGRQ Past 3 Months Version - How Respiratory Problems Affect You", "submissionValue": "SGRQ01-How Resp Problems Affect You", "synonyms": ["SGRQ01-How Resp Problems Affect You"]}, {"conceptId": "C112675", "definition": "St. George's Respiratory Questionnaire Past 3 Months Version - We would like to know how your respiratory problems usually affect your daily life: I cannot do household chores.", "preferredTerm": "SGRQ Past 3 Months Version - Cannot Do Household Chores", "submissionValue": "SGRQ01-I Cannot Do Household Chores", "synonyms": ["SGRQ01-I Cannot Do Household Chores"]}, {"conceptId": "C112676", "definition": "St. George's Respiratory Questionnaire Past 3 Months Version - We would like to know how your respiratory problems usually affect your daily life: I cannot move far from my bed or chair.", "preferredTerm": "SGRQ Past 3 Months Version - Cannot Move Far From Bed or Chair", "submissionValue": "SGRQ01-I Cannot Move Far From My Bed", "synonyms": ["SGRQ01-I Cannot Move Far From My Bed"]}, {"conceptId": "C112672", "definition": "St. George's Respiratory Questionnaire Past 3 Months Version - We would like to know how your respiratory problems usually affect your daily life: I cannot play sports or do other physical activities.", "preferredTerm": "SGRQ Past 3 Months Version - Cannot Play Sports or Do Physical Activities", "submissionValue": "SGRQ01-I Cannot Play Sports", "synonyms": ["SGRQ01-I Cannot Play Sports"]}, {"conceptId": "C112664", "definition": "St. George's Respiratory Questionnaire Past 3 Months Version - These are questions about how your activities might be affected by your respiratory problems: I cannot take a bath or shower, or I take a long time to do it.", "preferredTerm": "SGRQ Past 3 Months Version - Cannot Take a Bath or Shower", "submissionValue": "SGRQ01-I Cannot Take a Bath or Shower", "synonyms": ["SGRQ01-I Cannot Take a Bath or Shower"]}, {"conceptId": "C112650", "definition": "St. George's Respiratory Questionnaire Past 3 Months Version - These are more questions about your cough and shortness of breath these days: I get exhausted easily.", "preferredTerm": "SGRQ Past 3 Months Version - I Get Exhausted Easily", "submissionValue": "SGRQ01-I Get Exhausted Easily", "synonyms": ["SGRQ01-I Get Exhausted Easily"]}, {"conceptId": "C112656", "definition": "St. George's Respiratory Questionnaire Past 3 Months Version - These are questions about other effects that your respiratory problems may have on you these days: I have become frail or an invalid because of my respiratory problems.", "preferredTerm": "SGRQ Past 3 Months Version - Become Frail or Invalid Because of My Respiratory Problems", "submissionValue": "SGRQ01-I Have Become Frail", "synonyms": ["SGRQ01-I Have Become Frail"]}, {"conceptId": "C112629", "definition": "St. George's Respiratory Questionnaire Past 3 Months Version - Over the past 3 months, I have brought up phlegm (sputum).", "preferredTerm": "SGRQ Past 3 Months Version - I Have Brought Up Phlegm", "submissionValue": "SGRQ01-I Have Brought Up Phlegm", "synonyms": ["SGRQ01-I Have Brought Up Phlegm"]}, {"conceptId": "C112628", "definition": "St. George's Respiratory Questionnaire Past 3 Months Version - Over the past 3 months, I have coughed.", "preferredTerm": "SGRQ Past 3 Months Version - I Have Coughed", "submissionValue": "SGRQ01-I Have Coughed", "synonyms": ["SGRQ01-I Have Coughed"]}, {"conceptId": "C112630", "definition": "St. George's Respiratory Questionnaire Past 3 Months Version - Over the past 3 months, I have had shortness of breath.", "preferredTerm": "SGRQ Past 3 Months Version - I Have Had Shortness of Breath", "submissionValue": "SGRQ01-I Have Had Shortness of Breath", "synonyms": ["SGRQ01-I Have Had Shortness of Breath"]}, {"conceptId": "C112631", "definition": "St. George's Respiratory Questionnaire Past 3 Months Version - Over the past 3 months, I have had wheezing attacks.", "preferredTerm": "SGRQ Past 3 Months Version - I Have Had Wheezing Attacks", "submissionValue": "SGRQ01-I Have Had Wheezing Attacks", "synonyms": ["SGRQ01-I Have Had Wheezing Attacks"]}, {"conceptId": "C112665", "definition": "St. George's Respiratory Questionnaire Past 3 Months Version - These are questions about how your activities might be affected by your respiratory problems: I walk slower than other people my age, or I stop to rest.", "preferredTerm": "SGRQ Past 3 Months Version - Walk Slower Than Other People My Age", "submissionValue": "SGRQ01-I Walk Slower Than Other People", "synonyms": ["SGRQ01-I Walk Slower Than Other People"]}, {"conceptId": "C112668", "definition": "St. George's Respiratory Questionnaire Past 3 Months Version - These are questions about how your activities might be affected by your respiratory problems: If I hurry or walk fast, I have to stop or slow down.", "preferredTerm": "SGRQ Past 3 Months Version - If Walk Fast I Have to Stop or Slow Down", "submissionValue": "SGRQ01-If I Hurry, I Have to Stop", "synonyms": ["SGRQ01-If I Hurry, I Have to Stop"]}, {"conceptId": "C112637", "definition": "St. George's Respiratory Questionnaire Past 3 Months Version - If you have ever held a job.", "preferredTerm": "SGRQ Past 3 Months Version - Held a Job", "submissionValue": "SGRQ01-If You Have Ever Held a Job", "synonyms": ["SGRQ01-If You Have Ever Held a Job"]}, {"conceptId": "C112666", "definition": "St. George's Respiratory Questionnaire Past 3 Months Version - These are questions about how your activities might be affected by your respiratory problems: Jobs such as household chores take a long time, or I have to stop to rest.", "preferredTerm": "SGRQ Past 3 Months Version - Jobs Take Long Time or I Have to Stop", "submissionValue": "SGRQ01-Jobs Take a Long Time", "synonyms": ["SGRQ01-Jobs Take a Long Time"]}, {"conceptId": "C112655", "definition": "St. George's Respiratory Questionnaire Past 3 Months Version - These are questions about other effects that your respiratory problems may have on you these days: I do not expect my respiratory problems to get any better.", "preferredTerm": "SGRQ Past 3 Months Version - Not Expect Respiratory Problems Get Better", "submissionValue": "SGRQ01-Not Expect Probs to Get Better", "synonyms": ["SGRQ01-Not Expect Probs to Get Better"]}, {"conceptId": "C112654", "definition": "St. George's Respiratory Questionnaire Past 3 Months Version - These are questions about other effects that your respiratory problems may have on you these days: I feel that I am not in control of my respiratory problems.", "preferredTerm": "SGRQ Past 3 Months Version - Not in Control of My Respiratory Problems", "submissionValue": "SGRQ01-Not in Control of Resp Problems", "synonyms": ["SGRQ01-Not in Control of Resp Problems"]}, {"conceptId": "C112644", "definition": "St. George's Respiratory Questionnaire Past 3 Months Version - These are questions about what activities usually make you feel short of breath these days: Playing sports or other physical activities.", "preferredTerm": "SGRQ Past 3 Months Version - Playing Sports or Other Physical Activities", "submissionValue": "SGRQ01-Playing Sports", "synonyms": ["SGRQ01-Playing Sports"]}, {"conceptId": "C112652", "definition": "St. George's Respiratory Questionnaire Past 3 Months Version - These are questions about other effects that your respiratory problems may have on you these days: My respiratory problems are a nuisance to my family, friends or neighbors.", "preferredTerm": "SGRQ Past 3 Months Version - Respiratory Problems a Nuisance to Family", "submissionValue": "SGRQ01-Respiratory Problems a Nuisance", "synonyms": ["SGRQ01-Respiratory Problems a Nuisance"]}, {"conceptId": "C112648", "definition": "St. George's Respiratory Questionnaire Past 3 Months Version - These are more questions about your cough and shortness of breath these days: I am short of breath when I bend over.", "preferredTerm": "SGRQ Past 3 Months Version - Short of Breath When Bend Over", "submissionValue": "SGRQ01-Short of Breath When Bend Over", "synonyms": ["SGRQ01-Short of Breath When Bend Over"]}, {"conceptId": "C112647", "definition": "St. George's Respiratory Questionnaire Past 3 Months Version - These are more questions about your cough and shortness of breath these days: I am short of breath when I talk.", "preferredTerm": "SGRQ Past 3 Months Version - Short of Breath When I Talk", "submissionValue": "SGRQ01-Short of Breath When I Talk", "synonyms": ["SGRQ01-Short of Breath When I Talk"]}, {"conceptId": "C112638", "definition": "St. George's Respiratory Questionnaire Past 3 Months Version - These are questions about what activities usually make you feel short of breath these days: Sitting or lying still.", "preferredTerm": "SGRQ Past 3 Months Version - Sitting or Lying Still", "submissionValue": "SGRQ01-Sitting or Lying Still", "synonyms": ["SGRQ01-Sitting or Lying Still"]}, {"conceptId": "C112663", "definition": "St. George's Respiratory Questionnaire Past 3 Months Version - These are questions about how your activities might be affected by your respiratory problems: I take a long time to get washed or dressed.", "preferredTerm": "SGRQ Past 3 Months Version - Take Long Time to Get Washed or Dressed", "submissionValue": "SGRQ01-Take a Long Time to Get Washed", "synonyms": ["SGRQ01-Take a Long Time to Get Washed"]}, {"conceptId": "C112632", "definition": "St. George's Respiratory Questionnaire Past 3 Months Version - How many times during the past 3 months have you suffered from severe or very unpleasant respiratory attacks?", "preferredTerm": "SGRQ Past 3 Months Version - Times Suffered From Severe Respiratory Attacks", "submissionValue": "SGRQ01-Times Suffered Sev Resp Attacks", "synonyms": ["SGRQ01-Times Suffered Sev Resp Attacks"]}, {"conceptId": "C112659", "definition": "St. George's Respiratory Questionnaire Past 3 Months Version - These are questions about your respiratory treatment: My treatment does not help me very much.", "preferredTerm": "SGRQ Past 3 Months Version - Treatment Does Not Help Me Much", "submissionValue": "SGRQ01-Treatment Does Not Help Me Much", "synonyms": ["SGRQ01-Treatment Does Not Help Me Much"]}, {"conceptId": "C112662", "definition": "St. George's Respiratory Questionnaire Past 3 Months Version - These are questions about your respiratory treatment: My treatment interferes with my life a lot.", "preferredTerm": "SGRQ Past 3 Months Version - Treatment Interferes With My Life", "submissionValue": "SGRQ01-Treatment Interferes With Life", "synonyms": ["SGRQ01-Treatment Interferes With Life"]}, {"conceptId": "C112661", "definition": "St. George's Respiratory Questionnaire Past 3 Months Version - These are questions about your respiratory treatment: I have unpleasant side effects from my medication.", "preferredTerm": "SGRQ Past 3 Months Version - Unpleasant Side Effects From Medication", "submissionValue": "SGRQ01-Unpleasant Side Effect From Med", "synonyms": ["SGRQ01-Unpleasant Side Effect From Med"]}, {"conceptId": "C112667", "definition": "St. George's Respiratory Questionnaire Past 3 Months Version - These are questions about how your activities might be affected by your respiratory problems: If I walk up one flight of stairs, I have to go slowly or stop.", "preferredTerm": "SGRQ Past 3 Months Version - If Walk Up One Flight of Stairs I Have to Go Slow", "submissionValue": "SGRQ01-Walk Up Flight of Stairs Slowly", "synonyms": ["SGRQ01-Walk Up Flight of Stairs Slowly"]}, {"conceptId": "C112640", "definition": "St. George's Respiratory Questionnaire Past 3 Months Version - These are questions about what activities usually make you feel short of breath these days: Walking around the house.", "preferredTerm": "SGRQ Past 3 Months Version - Walking Around the House", "submissionValue": "SGRQ01-Walking Around the House", "synonyms": ["SGRQ01-Walking Around the House"]}, {"conceptId": "C112641", "definition": "St. George's Respiratory Questionnaire Past 3 Months Version - These are questions about what activities usually make you feel short of breath these days: Walking outside on level ground.", "preferredTerm": "SGRQ Past 3 Months Version - Walking Outside on Level Ground", "submissionValue": "SGRQ01-Walking Outside on Level Ground", "synonyms": ["SGRQ01-Walking Outside on Level Ground"]}, {"conceptId": "C112643", "definition": "St. George's Respiratory Questionnaire Past 3 Months Version - These are questions about what activities usually make you feel short of breath these days: Walking up hills.", "preferredTerm": "SGRQ Past 3 Months Version - Walking Up Hills", "submissionValue": "SGRQ01-Walking Up Hills", "synonyms": ["SGRQ01-Walking Up Hills"]}, {"conceptId": "C112642", "definition": "St. George's Respiratory Questionnaire Past 3 Months Version - These are questions about what activities usually make you feel short of breath these days: Walking up a flight of stairs.", "preferredTerm": "SGRQ Past 3 Months Version - Walking Up a Flight of Stairs", "submissionValue": "SGRQ01-Walking Up a Flight of Stairs", "synonyms": ["SGRQ01-Walking Up a Flight of Stairs"]}, {"conceptId": "C112639", "definition": "St. George's Respiratory Questionnaire Past 3 Months Version - These are questions about what activities usually make you feel short of breath these days: Washing or dressing yourself.", "preferredTerm": "SGRQ Past 3 Months Version - Washing or Dressing Yourself", "submissionValue": "SGRQ01-Washing or Dressing Yourself", "synonyms": ["SGRQ01-Washing or Dressing Yourself"]}, {"conceptId": "C112635", "definition": "St. George's Respiratory Questionnaire Past 3 Months Version - If you wheeze, is it worse when you get up in the morning?", "preferredTerm": "SGRQ Past 3 Months Version - Wheeze Worse When Get Up in the Morning", "submissionValue": "SGRQ01-Wheeze Worse in the Morning", "synonyms": ["SGRQ01-Wheeze Worse in the Morning"]}]}