{"_links": {"parentPackage": {"href": "/mdr/ct/packages/sdtmct-2018-06-29", "title": "SDTM Controlled Terminology Package 34 Effective 2018-06-29", "type": "Terminology"}, "priorVersion": {"href": "/mdr/ct/packages/sdtmct-2018-03-30/codelists/C112450", "title": "CDISC Questionnaire SGRQ Past 4 Weeks Version Test Name Terminology", "type": "Code List"}, "rootItem": {"href": "/mdr/root/ct/sdtmct/codelists/C112450", "title": "Version-agnostic anchor resource for codelist C112450", "type": "Root Value Domain"}, "self": {"href": "/mdr/ct/packages/sdtmct-2018-06-29/codelists/C112450", "title": "CDISC Questionnaire SGRQ Past 4 Weeks Version Test Name Terminology", "type": "Code List"}}, "conceptId": "C112450", "definition": "St. George's Respiratory Questionnaire Past 4 Weeks Version test name.", "extensible": "false", "name": "St. George's Respiratory Questionnaire Past 4 Weeks Version Questionnaire Test Name", "preferredTerm": "CDISC Questionnaire SGRQ Past 4 Weeks Version Test Name Terminology", "submissionValue": "SGRQ02TN", "synonyms": ["St. George's Respiratory Questionnaire Past 4 Weeks Version Questionnaire Test Name"], "terms": [{"conceptId": "C112704", "definition": "St. George's Respiratory Questionnaire Past 4 Weeks Version - These are questions about other effects that your respiratory problems may have on you these days: I get afraid or panic when I cannot catch my breath.", "preferredTerm": "SGRQ Past 4 Weeks Version - Get Afraid When Cannot Catch My Breath", "submissionValue": "SGRQ02-Afraid When Cannot Catch Breath", "synonyms": ["SGRQ02-Afraid When Cannot Catch Breath"]}, {"conceptId": "C112724", "definition": "St. George's Respiratory Questionnaire Past 4 Weeks Version - We would like to know how your respiratory problems usually affect your daily life: I cannot go out for entertainment or recreation.", "preferredTerm": "SGRQ Past 4 Weeks Version - Cannot Go Out for Entertainment", "submissionValue": "SGRQ02-Cannot Go Out for Entertainment", "synonyms": ["SGRQ02-Cannot Go Out for Entertainment"]}, {"conceptId": "C112725", "definition": "St. George's Respiratory Questionnaire Past 4 Weeks Version - We would like to know how your respiratory problems usually affect your daily life: I cannot go out of the house to do the shopping.", "preferredTerm": "SGRQ Past 4 Weeks Version - Cannot Go Out to Do Shopping", "submissionValue": "SGRQ02-Cannot Go Out to Do Shopping", "synonyms": ["SGRQ02-Cannot Go Out to Do Shopping"]}, {"conceptId": "C112702", "definition": "St. George's Respiratory Questionnaire Past 4 Weeks Version - These are questions about other effects that your respiratory problems may have on you these days: My cough or breathing is embarrassing in public.", "preferredTerm": "SGRQ Past 4 Weeks Version - My Cough is Embarrassing in Public", "submissionValue": "SGRQ02-Cough Is Embarrassing in Public", "synonyms": ["SGRQ02-Cough Is Embarrassing in Public"]}, {"conceptId": "C112700", "definition": "St. George's Respiratory Questionnaire Past 4 Weeks Version - These are more questions about your cough and shortness of breath these days: My coughing or breathing disturbs my sleep.", "preferredTerm": "SGRQ Past 4 Weeks Version - Coughing Disturbs My Sleep", "submissionValue": "SGRQ02-Coughing Disturbs My Sleep", "synonyms": ["SGRQ02-Coughing Disturbs My Sleep"]}, {"conceptId": "C112696", "definition": "St. George's Respiratory Questionnaire Past 4 Weeks Version - These are more questions about your cough and shortness of breath these days: Coughing hurts.", "preferredTerm": "SGRQ Past 4 Weeks Version - Coughing Hurts", "submissionValue": "SGRQ02-Coughing Hurts", "synonyms": ["SGRQ02-Coughing Hurts"]}, {"conceptId": "C112697", "definition": "St. George's Respiratory Questionnaire Past 4 Weeks Version - These are more questions about your cough and shortness of breath these days: Coughing makes me tired.", "preferredTerm": "SGRQ Past 4 Weeks Version - Coughing Makes Me Tired", "submissionValue": "SGRQ02-Coughing Makes Me Tired", "synonyms": ["SGRQ02-Coughing Makes Me Tired"]}, {"conceptId": "C112678", "definition": "St. George's Respiratory Questionnaire Past 4 Weeks Version - Please check one box to show how you describe your current health.", "preferredTerm": "SGRQ Past 4 Weeks Version - Describe Your Current Health", "submissionValue": "SGRQ02-Describe Your Current Health", "synonyms": ["SGRQ02-Describe Your Current Health"]}, {"conceptId": "C112687", "definition": "St. George's Respiratory Questionnaire Past 4 Weeks Version - How would you describe your respiratory condition?", "preferredTerm": "SGRQ Past 4 Weeks Version - Describe Your Respiratory Condition", "submissionValue": "SGRQ02-Describe Your Resp Condition", "synonyms": ["SGRQ02-Describe Your Resp Condition"]}, {"conceptId": "C112721", "definition": "St. George's Respiratory Questionnaire Past 4 Weeks Version - These are questions about how your activities might be affected by your respiratory problems: My breathing makes it difficult to do things such as carry heavy loads, dig in the garden or shovel snow, jog or walk briskly (5 miles per hour), play tennis or swim.", "preferredTerm": "SGRQ Past 4 Weeks Version - Breathing Makes Difficult to Carry Heavy Loads", "submissionValue": "SGRQ02-Difficult to Carry Heavy Loads", "synonyms": ["SGRQ02-Difficult to Carry Heavy Loads"]}, {"conceptId": "C112722", "definition": "St. George's Respiratory Questionnaire Past 4 Weeks Version - These are questions about how your activities might be affected by your respiratory problems: My breathing makes it difficult to do things such as very heavy manual work, ride a bike, run, swim fast, or play competitive sports.", "preferredTerm": "SGRQ Past 4 Weeks Version - Breathing Makes Difficult to Do Heavy Manual Work", "submissionValue": "SGRQ02-Difficult to Do Very Heavy Work", "synonyms": ["SGRQ02-Difficult to Do Very Heavy Work"]}, {"conceptId": "C112720", "definition": "St. George's Respiratory Questionnaire Past 4 Weeks Version - These are questions about how your activities might be affected by your respiratory problems: My breathing makes it difficult to do things such as walk up hills, carry things up stairs, light gardening such as weeding, dance, bowl or play golf.", "preferredTerm": "SGRQ Past 4 Weeks Version - Breathing Makes Difficult to Walk Up Hills", "submissionValue": "SGRQ02-Difficult to Walk Up Hills", "synonyms": ["SGRQ02-Difficult to Walk Up Hills"]}, {"conceptId": "C112711", "definition": "St. George's Respiratory Questionnaire Past 4 Weeks Version - These are questions about your respiratory treatment: I get embarrassed using my medication in public.", "preferredTerm": "SGRQ Past 4 Weeks Version - Embarrassed Using Medication in Public", "submissionValue": "SGRQ02-Embarrassed Using Med in Public", "synonyms": ["SGRQ02-Embarrassed Using Med in Public"]}, {"conceptId": "C112709", "definition": "St. George's Respiratory Questionnaire Past 4 Weeks Version - These are questions about other effects that your respiratory problems may have on you these days: Everything seems too much of an effort.", "preferredTerm": "SGRQ Past 4 Weeks Version - Everything Too Much Effort", "submissionValue": "SGRQ02-Everything Too Much Effort", "synonyms": ["SGRQ02-Everything Too Much Effort"]}, {"conceptId": "C112708", "definition": "St. George's Respiratory Questionnaire Past 4 Weeks Version - These are questions about other effects that your respiratory problems may have on you these days: Exercise is not safe for me.", "preferredTerm": "SGRQ Past 4 Weeks Version - Exercise Is Not Safe for Me", "submissionValue": "SGRQ02-Exercise Is Not Safe for Me", "synonyms": ["SGRQ02-Exercise Is Not Safe for Me"]}, {"conceptId": "C112684", "definition": "St. George's Respiratory Questionnaire Past 4 Weeks Version - How long did the worst respiratory attack last?", "preferredTerm": "SGRQ Past 4 Weeks Version - How Long Did Worst Respiratory Attack Last", "submissionValue": "SGRQ02-How Long Worst Resp Attack Last", "synonyms": ["SGRQ02-How Long Worst Resp Attack Last"]}, {"conceptId": "C112685", "definition": "St. George's Respiratory Questionnaire Past 4 Weeks Version - Over the past 4 weeks, in a typical week, how many good days (with few respiratory problems) have you had?", "preferredTerm": "SGRQ Past 4 Weeks Version - How Many Good Days You Had", "submissionValue": "SGRQ02-How Many Good Days Have You Had", "synonyms": ["SGRQ02-How Many Good Days Have You Had"]}, {"conceptId": "C112728", "definition": "St. George's Respiratory Questionnaire Past 4 Weeks Version - Best describe how your respiratory problems affect you.", "preferredTerm": "SGRQ Past 4 Weeks Version - How Respiratory Problems Affect You", "submissionValue": "SGRQ02-How Resp Problems Affect You", "synonyms": ["SGRQ02-How Resp Problems Affect You"]}, {"conceptId": "C112726", "definition": "St. George's Respiratory Questionnaire Past 4 Weeks Version - We would like to know how your respiratory problems usually affect your daily life: I cannot do household chores.", "preferredTerm": "SGRQ Past 4 Weeks Version - Cannot Do Household Chores", "submissionValue": "SGRQ02-I Cannot Do Household Chores", "synonyms": ["SGRQ02-I Cannot Do Household Chores"]}, {"conceptId": "C112727", "definition": "St. George's Respiratory Questionnaire Past 4 Weeks Version - We would like to know how your respiratory problems usually affect your daily life: I cannot move far from my bed or chair.", "preferredTerm": "SGRQ Past 4 Weeks Version - Cannot Move Far From Bed or Chair", "submissionValue": "SGRQ02-I Cannot Move Far From My Bed", "synonyms": ["SGRQ02-I Cannot Move Far From My Bed"]}, {"conceptId": "C112723", "definition": "St. George's Respiratory Questionnaire Past 4 Weeks Version - We would like to know how your respiratory problems usually affect your daily life: I cannot play sports or do other physical activities.", "preferredTerm": "SGRQ Past 4 Weeks Version - Cannot Play Sports or Do Physical Activities", "submissionValue": "SGRQ02-I Cannot Play Sports", "synonyms": ["SGRQ02-I Cannot Play Sports"]}, {"conceptId": "C112715", "definition": "St. George's Respiratory Questionnaire Past 4 Weeks Version - These are questions about how your activities might be affected by your respiratory problems: I cannot take a bath or shower, or I take a long time to do it.", "preferredTerm": "SGRQ Past 4 Weeks Version - Cannot Take A Bath or Shower", "submissionValue": "SGRQ02-I Cannot Take a Bath or Shower", "synonyms": ["SGRQ02-I Cannot Take a Bath or Shower"]}, {"conceptId": "C112701", "definition": "St. George's Respiratory Questionnaire Past 4 Weeks Version - These are more questions about your cough and shortness of breath these days: I get exhausted easily.", "preferredTerm": "SGRQ Past 4 Weeks Version - I Get Exhausted Easily", "submissionValue": "SGRQ02-I Get Exhausted Easily", "synonyms": ["SGRQ02-I Get Exhausted Easily"]}, {"conceptId": "C112707", "definition": "St. George's Respiratory Questionnaire Past 4 Weeks Version - These are questions about other effects that your respiratory problems may have on you these days: I have become frail or an invalid because of my respiratory problems.", "preferredTerm": "SGRQ Past 4 Weeks Version - Become Frail or Invalid Because of My Respiratory Problems", "submissionValue": "SGRQ02-I Have Become Frail", "synonyms": ["SGRQ02-I Have Become Frail"]}, {"conceptId": "C112680", "definition": "St. George's Respiratory Questionnaire Past 4 Weeks Version - Over the past 4 weeks, I have brought up phlegm (sputum).", "preferredTerm": "SGRQ Past 4 Weeks Version - I Have Brought Up Phlegm", "submissionValue": "SGRQ02-I Have Brought Up Phlegm", "synonyms": ["SGRQ02-I Have Brought Up Phlegm"]}, {"conceptId": "C112679", "definition": "St. George's Respiratory Questionnaire Past 4 Weeks Version - Over the past 4 weeks, I have coughed.", "preferredTerm": "SGRQ Past 4 Weeks Version - I Have Coughed", "submissionValue": "SGRQ02-I Have Coughed", "synonyms": ["SGRQ02-I Have Coughed"]}, {"conceptId": "C112681", "definition": "St. George's Respiratory Questionnaire Past 4 Weeks Version - Over the past 4 weeks, I have had shortness of breath.", "preferredTerm": "SGRQ Past 4 Weeks Version - I Have Had Shortness of Breath", "submissionValue": "SGRQ02-I Have Had Shortness of Breath", "synonyms": ["SGRQ02-I Have Had Shortness of Breath"]}, {"conceptId": "C112682", "definition": "St. George's Respiratory Questionnaire Past 4 Weeks Version - Over the past 4 weeks, I have had wheezing attacks.", "preferredTerm": "SGRQ Past 4 Weeks Version - I Have Had Wheezing Attacks", "submissionValue": "SGRQ02-I Have Had Wheezing Attacks", "synonyms": ["SGRQ02-I Have Had Wheezing Attacks"]}, {"conceptId": "C112716", "definition": "St. George's Respiratory Questionnaire Past 4 Weeks Version - These are questions about how your activities might be affected by your respiratory problems: I walk slower than other people my age, or I stop to rest.", "preferredTerm": "SGRQ Past 4 Weeks Version - Walk Slower Than Other People My Age", "submissionValue": "SGRQ02-I Walk Slower Than Other People", "synonyms": ["SGRQ02-I Walk Slower Than Other People"]}, {"conceptId": "C112719", "definition": "St. George's Respiratory Questionnaire Past 4 Weeks Version - These are questions about how your activities might be affected by your respiratory problems: If I hurry or walk fast, I have to stop or slow down.", "preferredTerm": "SGRQ Past 4 Weeks Version - If Walk Fast I Have to Stop or Slow Down", "submissionValue": "SGRQ02-If I Hurry, I Have to Stop", "synonyms": ["SGRQ02-If I Hurry, I Have to Stop"]}, {"conceptId": "C112688", "definition": "St. George's Respiratory Questionnaire Past 4 Weeks Version - If you have ever held a job.", "preferredTerm": "SGRQ Past 4 Weeks Version - Held a Job", "submissionValue": "SGRQ02-If You Have Ever Held a Job", "synonyms": ["SGRQ02-If You Have Ever Held a Job"]}, {"conceptId": "C112717", "definition": "St. George's Respiratory Questionnaire Past 4 Weeks Version - These are questions about how your activities might be affected by your respiratory problems: Jobs such as household chores take a long time, or I have to stop to rest.", "preferredTerm": "SGRQ Past 4 Weeks Version - Jobs Take Long Time or I Have to Stop", "submissionValue": "SGRQ02-Jobs Take a Long Time", "synonyms": ["SGRQ02-Jobs Take a Long Time"]}, {"conceptId": "C112706", "definition": "St. George's Respiratory Questionnaire Past 4 Weeks Version - These are questions about other effects that your respiratory problems may have on you these days: I do not expect my respiratory problems to get any better.", "preferredTerm": "SGRQ Past 4 Weeks Version - Not Expect Respiratory Problems Get Better", "submissionValue": "SGRQ02-Not Expect Probs to Get Better", "synonyms": ["SGRQ02-Not Expect Probs to Get Better"]}, {"conceptId": "C112705", "definition": "St. George's Respiratory Questionnaire Past 4 Weeks Version - These are questions about other effects that your respiratory problems may have on you these days: I feel that I am not in control of my respiratory problems.", "preferredTerm": "SGRQ Past 4 Weeks Version - Not in Control of My Respiratory Problems", "submissionValue": "SGRQ02-Not in Control of Resp Problems", "synonyms": ["SGRQ02-Not in Control of Resp Problems"]}, {"conceptId": "C112695", "definition": "St. George's Respiratory Questionnaire Past 4 Weeks Version - These are questions about what activities usually make you feel short of breath these days: Playing sports or other physical activities.", "preferredTerm": "SGRQ Past 4 Weeks Version - Playing Sports or Other Physical Activities", "submissionValue": "SGRQ02-Playing Sports", "synonyms": ["SGRQ02-Playing Sports"]}, {"conceptId": "C112703", "definition": "St. George's Respiratory Questionnaire Past 4 Weeks Version - These are questions about other effects that your respiratory problems may have on you these days: My respiratory problems are a nuisance to my family, friends or neighbors.", "preferredTerm": "SGRQ Past 4 Weeks Version - Respiratory Problems a Nuisance to Family", "submissionValue": "SGRQ02-Respiratory Problems a Nuisance", "synonyms": ["SGRQ02-Respiratory Problems a Nuisance"]}, {"conceptId": "C112699", "definition": "St. George's Respiratory Questionnaire Past 4 Weeks Version - These are more questions about your cough and shortness of breath these days: I am short of breath when I bend over.", "preferredTerm": "SGRQ Past 4 Weeks Version - Short of Breath When Bend Over", "submissionValue": "SGRQ02-Short of Breath When Bend Over", "synonyms": ["SGRQ02-Short of Breath When Bend Over"]}, {"conceptId": "C112698", "definition": "St. George's Respiratory Questionnaire Past 4 Weeks Version - These are more questions about your cough and shortness of breath these days: I am short of breath when I talk.", "preferredTerm": "SGRQ Past 4 Weeks Version - Short of Breath When I Talk", "submissionValue": "SGRQ02-Short of Breath When I Talk", "synonyms": ["SGRQ02-Short of Breath When I Talk"]}, {"conceptId": "C112689", "definition": "St. George's Respiratory Questionnaire Past 4 Weeks Version - These are questions about what activities usually make you feel short of breath these days: Sitting or lying still.", "preferredTerm": "SGRQ Past 4 Weeks Version - Sitting or Lying Still", "submissionValue": "SGRQ02-Sitting or Lying Still", "synonyms": ["SGRQ02-Sitting or Lying Still"]}, {"conceptId": "C112714", "definition": "St. George's Respiratory Questionnaire Past 4 Weeks Version - These are questions about how your activities might be affected by your respiratory problems: I take a long time to get washed or dressed.", "preferredTerm": "SGRQ Past 4 Weeks Version - Take Long Time to Get Washed or Dressed", "submissionValue": "SGRQ02-Take a Long Time to Get Washed", "synonyms": ["SGRQ02-Take a Long Time to Get Washed"]}, {"conceptId": "C112683", "definition": "St. George's Respiratory Questionnaire Past 4 Weeks Version - How many times during the past 4 weeks have you suffered from severe or very unpleasant respiratory attacks?", "preferredTerm": "SGRQ Past 4 Weeks Version - Times Suffered From Severe Respiratory Attacks", "submissionValue": "SGRQ02-Times Suffered Sev Resp Attacks", "synonyms": ["SGRQ02-Times Suffered Sev Resp Attacks"]}, {"conceptId": "C112710", "definition": "St. George's Respiratory Questionnaire Past 4 Weeks Version - These are questions about your respiratory treatment: My treatment does not help me very much.", "preferredTerm": "SGRQ Past 4 Weeks Version - Treatment Does Not Help Me Much", "submissionValue": "SGRQ02-Treatment Does Not Help Me Much", "synonyms": ["SGRQ02-Treatment Does Not Help Me Much"]}, {"conceptId": "C112713", "definition": "St. George's Respiratory Questionnaire Past 4 Weeks Version - These are questions about your respiratory treatment: My treatment interferes with my life a lot.", "preferredTerm": "SGRQ Past 4 Weeks Version - Treatment Interferes With My Life", "submissionValue": "SGRQ02-Treatment Interferes With Life", "synonyms": ["SGRQ02-Treatment Interferes With Life"]}, {"conceptId": "C112712", "definition": "St. George's Respiratory Questionnaire Past 4 Weeks Version - These are questions about your respiratory treatment: I have unpleasant side effects from my medication.", "preferredTerm": "SGRQ Past 4 Weeks Version - Unpleasant Side Effects From Medication", "submissionValue": "SGRQ02-Unpleasant Side Effect From Med", "synonyms": ["SGRQ02-Unpleasant Side Effect From Med"]}, {"conceptId": "C112718", "definition": "St. George's Respiratory Questionnaire Past 4 Weeks Version - These are questions about how your activities might be affected by your respiratory problems: If I walk up one flight of stairs, I have to go slowly or stop.", "preferredTerm": "SGRQ Past 4 Weeks Version - If Walk Up One Flight of Stairs I Have to Go Slow", "submissionValue": "SGRQ02-Walk Up Flight of Stairs Slowly", "synonyms": ["SGRQ02-Walk Up Flight of Stairs Slowly"]}, {"conceptId": "C112691", "definition": "St. George's Respiratory Questionnaire Past 4 Weeks Version - These are questions about what activities usually make you feel short of breath these days: Walking around the house.", "preferredTerm": "SGRQ Past 4 Weeks Version - Walking Around the House", "submissionValue": "SGRQ02-Walking Around the House", "synonyms": ["SGRQ02-Walking Around the House"]}, {"conceptId": "C112692", "definition": "St. George's Respiratory Questionnaire Past 4 Weeks Version - These are questions about what activities usually make you feel short of breath these days: Walking outside on level ground.", "preferredTerm": "SGRQ Past 4 Weeks Version - Walking Outside on Level Ground", "submissionValue": "SGRQ02-Walking Outside on Level Ground", "synonyms": ["SGRQ02-Walking Outside on Level Ground"]}, {"conceptId": "C112694", "definition": "St. George's Respiratory Questionnaire Past 4 Weeks Version - These are questions about what activities usually make you feel short of breath these days: Walking up hills.", "preferredTerm": "SGRQ Past 4 Weeks Version - Walking Up Hills", "submissionValue": "SGRQ02-Walking Up Hills", "synonyms": ["SGRQ02-Walking Up Hills"]}, {"conceptId": "C112693", "definition": "St. George's Respiratory Questionnaire Past 4 Weeks Version - These are questions about what activities usually make you feel short of breath these days: Walking up a flight of stairs.", "preferredTerm": "SGRQ Past 4 Weeks Version - Walking Up a Flight of Stairs", "submissionValue": "SGRQ02-Walking Up a Flight of Stairs", "synonyms": ["SGRQ02-Walking Up a Flight of Stairs"]}, {"conceptId": "C112690", "definition": "St. George's Respiratory Questionnaire Past 4 Weeks Version - These are questions about what activities usually make you feel short of breath these days: Washing or dressing yourself.", "preferredTerm": "SGRQ Past 4 Weeks Version - Washing or Dressing Yourself", "submissionValue": "SGRQ02-Washing or Dressing Yourself", "synonyms": ["SGRQ02-Washing or Dressing Yourself"]}, {"conceptId": "C112686", "definition": "St. George's Respiratory Questionnaire Past 4 Weeks Version - If you wheeze, is it worse when you get up in the morning?", "preferredTerm": "SGRQ Past 4 Weeks Version - Wheeze Worse When Get Up in the Morning", "submissionValue": "SGRQ02-Wheeze Worse in the Morning", "synonyms": ["SGRQ02-Wheeze Worse in the Morning"]}]}