{"_links": {"parentPackage": {"href": "/mdr/ct/packages/sdtmct-2018-06-29", "title": "SDTM Controlled Terminology Package 34 Effective 2018-06-29", "type": "Terminology"}, "priorVersion": {"href": "/mdr/ct/packages/sdtmct-2018-03-30/codelists/C115304", "title": "CDISC Functional Test Category Terminology", "type": "Code List"}, "rootItem": {"href": "/mdr/root/ct/sdtmct/codelists/C115304", "title": "Version-agnostic anchor resource for codelist C115304", "type": "Root Value Domain"}, "self": {"href": "/mdr/ct/packages/sdtmct-2018-06-29/codelists/C115304", "title": "CDISC Functional Test Category Terminology", "type": "Code List"}}, "conceptId": "C115304", "definition": "A grouping of observations within the Functional Tests domain.", "extensible": "true", "name": "Category of Functional Test", "preferredTerm": "CDISC Functional Test Category Terminology", "submissionValue": "FTCAT", "synonyms": ["Category of Functional Test"], "terms": [{"conceptId": "C141689", "definition": "4 Stair Ascend (Mcdonald, C. M., Henricson, E. K., Abresch, R. T., Florence, J. M., Eagle, M., Gappmaier, E., et al. (2013). THE 6-MINUTE WALK TEST AND OTHER ENDPOINTS IN DUCHENNE MUSCULAR DYSTROPHY: LONGITUDINAL NATURAL HISTORY OBSERVATIONS OVER 48 WEEKS FROM A MULTICENTER STUDY. Muscle & Nerve, 48(3), 343-356. http://doi.org/10.1002/mus.23902).", "preferredTerm": "Four Stair Ascend Test Functional Test", "submissionValue": "4 STAIR ASCEND", "synonyms": ["A4STR1"]}, {"conceptId": "C141688", "definition": "Descend 4 Stairs (Mcdonald, C. M., Henricson, E. K., Abresch, R. T., Florence, J. M., Eagle, M., Gappmaier, E., et al. (2013). THE 6-MINUTE WALK TEST AND OTHER ENDPOINTS IN DUCHENNE MUSCULAR DYSTROPHY: LONGITUDINAL NATURAL HISTORY OBSERVATIONS OVER 48 WEEKS FROM A MULTICENTER STUDY. Muscle & Nerve, 48(3), 343-356. http://doi.org/10.1002/mus.23902).", "preferredTerm": "Four Stair Descend Test Functional Test", "submissionValue": "4 STAIR DESCEND", "synonyms": ["D4STR1"]}, {"conceptId": "C102112", "definition": "The Alzheimer's Disease Neuroimaging Initiative's (ADNI) version of the Auditory Verbal Learning Test (AVLT Version A) modified from Rey A. L'examen clinique en psychologie [Clinical tests in psychology]. Paris: Presses Universitaires de France; 1964.", "preferredTerm": "Alzheimer's Disease Neuroimaging Initiative Auditory Verbal Learning Test Functional Test", "submissionValue": "AVLT", "synonyms": ["AVL01"]}, {"conceptId": "C123668", "definition": "Auditory Verbal Learning Test (AVLT-Rey) (Modified from Rey A. L'examen clinique en psychologie [Clinical tests in psychology]. Paris: Presses Universitaires de France; 1964. Test-Retest Reliability of a New Form of Auditory Verbal Learning Test (AVLT); Archives of Clinical Neuropsycology, Vol. 9, No. 4, pp. 303-316, 1994. Performance of Healthy Subjects and Patients with Resection from the Anterior Temporal Lobe on Matched Tests of Verbal and Visuoperceptual Learning; Journal of Clinical and Experimental Neuropsychology 1996, Vol. 18, No. 3, pp. 416-430).", "preferredTerm": "Rey Auditory Verbal Learning Functional Test", "submissionValue": "AVLT-REY", "synonyms": ["AVL02"]}, {"conceptId": "C121004", "definition": "Brief Assessment of Cognition in Schizophrenia (BACS) (Richard Keefe, PhD, Copyright 1999 Duke University Medical Center, Licenses available through Neurocog Trials, Inc.).", "preferredTerm": "Brief Assessment of Cognition in Schizophrenia Functional Test", "submissionValue": "BACS", "synonyms": ["BACS1"]}, {"conceptId": "C114144", "definition": "Controlled Oral Word Association Test (COWAT) (Benton, A.L., Hamsher, K., & Sivan, A.B. (1994). Multilingual Aphasia Examination (3rd ed.). Iowa City, IA: AJA Associates).", "preferredTerm": "Controlled Oral Word Association Test", "submissionValue": "COWAT", "synonyms": ["COWAT1"]}, {"conceptId": "C150909", "definition": "Emotion Recognition (Ekman P, Friesen WV. Measuring facial movement. Environmental Psychology and Nonverbal Behavior. 1976;1(1):56-75).", "preferredTerm": "Emotion Recognition Test Functional Test", "submissionValue": "EMOTION RECOGNITION", "synonyms": ["EMO1"]}, {"conceptId": "C115790", "definition": "Hauser Ambulation Index (AI) (Hauser SL, Dawson DM, Lehrich JR, Beal MF, Kevy SV, Propper RD, Mills JA, Weiner HL. Intensive immunosuppression in progressive multiple sclerosis. A randomized, three-arm study of high-dose intravenous cyclophosphamide, plasma exchange, and ACTH. N Engl J Med. 1983 Jan 27;308(4):173-80).", "preferredTerm": "Hauser Ambulation Index Functional Test", "submissionValue": "HAUSER AMBULATION INDEX", "synonyms": ["HAI01"]}, {"conceptId": "C74982", "definition": "Mini-Mental State Examination (MMSE) (MMSE Copyright 1975, 1998, 2001 by MiniMental, LLC All rights reserved. Published 2001 by Psychological Assessment Resources, Inc. May not be reproduced in whole or in part in any form or by any means without written permission of Psychological Assessment Resources, Inc.).", "preferredTerm": "Mini-Mental Status Exam", "submissionValue": "MMSE", "synonyms": ["MMS1"]}, {"conceptId": "C150910", "definition": "Mini-Mental State Examination 2 Standard Version (MMSE-2 Standard Version) (MMSE Copyright 1975, 1998, 2001 and MMSE-2 Copyright 2010 by MiniMental, LLC. All rights reserved. Published 2001, 2010 by Psychological Assessment Resources, Inc (PAR). May not be reproduced in whole or in part in any form or by any means without written permission of Psychological Assessment Resources, Inc.).", "preferredTerm": "Mini-Mental State Examination 2 Standard Version Functional Test", "submissionValue": "MMSE-2 STANDARD VERSION", "synonyms": ["MMS2"]}, {"conceptId": "C123667", "definition": "Montreal Cognitive Assessment (MoCA) (Copyright Z. Nasreddine MD. Ziad S. Nasreddine, Natalie A. Phillips, Valerie Bedirian, Simon Charbonneau, Victor Whitehead, Isabelle Collin, Jeffrey L. Cummings and Howard Chertkow. The Montreal Cognitive Assessment, MoCA: A Brief Screening Tool For Mild Cognitive Impairment. J Am Geriatr Soc. 2005 Apr;53(4):695-9).", "preferredTerm": "Montreal Cognitive Assessment Functional Test", "submissionValue": "MOCA", "synonyms": ["MOCA01"]}, {"conceptId": "C115791", "definition": "Nine-Hole Peg Test (NHPT) (Copyright 2001, National Multiple Sclerosis Society).", "preferredTerm": "Nine-Hole Peg Functional Test", "submissionValue": "NHPT", "synonyms": ["NHPT01"]}, {"conceptId": "C150911", "definition": "Paced Tapping (Rowe KC, Paulsen JS, Langbehn DR, et al. Self-paced timing detects and tracks change in prodromal Huntington disease. Neuropsychology. 2010;24(4):435-442).", "preferredTerm": "Paced Tapping Test Functional Test", "submissionValue": "PACED TAPPING", "synonyms": ["PTAP1"]}, {"conceptId": "C115792", "definition": "Paced Auditory Serial Addition Test (PASAT) (Copyright 2001, National Multiple Sclerosis Society).", "preferredTerm": "Paced Auditory Serial Addition Functional Test", "submissionValue": "PASAT", "synonyms": ["PASAT1"]}, {"conceptId": "C138334", "definition": "Performance of the Upper Limb Module for DMD Version 1.2 (PUL V1.2) (Mayhew A, Mazzone ES, Eagle M, et al. (2013). Development of the Performance of the Upper Limb module for Duchenne muscular dystrophy. Dev Med Child Neurol; 55:1038-45).", "preferredTerm": "Performance of the Upper Limb Module for DMD 1.2 Functional Test", "submissionValue": "PUL V1.2", "synonyms": ["PUL01"]}, {"conceptId": "C138335", "definition": "Performance of the Upper Limb Module for DMD Version 2.0 (PUL V2.0) (Mayhew A, Mazzone ES, Eagle M, et al. (2013). Development of the Performance of the Upper Limb module for Duchenne muscular dystrophy. Dev Med Child Neurol; 55:1038-45).", "preferredTerm": "Performance of the Upper Limb Module for DMD 2.0 Functional Test", "submissionValue": "PUL V2.0", "synonyms": ["PUL02"]}, {"conceptId": "C141687", "definition": "Rising From Floor (Mcdonald, C. M., Henricson, E. K., Abresch, R. T., Florence, J. M., Eagle, M., Gappmaier, E., et al. (2013). THE 6-MINUTE WALK TEST AND OTHER ENDPOINTS IN DUCHENNE MUSCULAR DYSTROPHY: LONGITUDINAL NATURAL HISTORY OBSERVATIONS OVER 48 WEEKS FROM A MULTICENTER STUDY. Muscle & Nerve, 48(3), 343-356. http://doi.org/10.1002/mus.23902).", "preferredTerm": "Rising From Floor Test Functional Test", "submissionValue": "RISING FROM FLOOR", "synonyms": ["RISEF1"]}, {"conceptId": "C115793", "definition": "Symbol Digit Modalities Test (SDMT) (Copyright 1973 by Western Psychological Services).", "preferredTerm": "Symbol Digit Modalities Functional Test", "submissionValue": "SDMT", "synonyms": ["SDMT01"]}, {"conceptId": "C115789", "definition": "6 Minute Walk Test (6MWT) (Goldman MD, Marrie RA, Cohen JA. Evaluation of the six-minute walk in multiple sclerosis subjects and healthy controls. Multiple Sclerosis 2008; 14: 383-390).", "preferredTerm": "6 Minute Walk Functional Test", "submissionValue": "SIX MINUTE WALK", "synonyms": ["SIXMW1"]}, {"conceptId": "C115794", "definition": "Timed 25-Foot Walk (T25FW) (Copyright 2001, National Multiple Sclerosis Society).", "preferredTerm": "Timed 25-Foot Walk Functional Test", "submissionValue": "T25FW", "synonyms": ["T25FW1"]}, {"conceptId": "C141686", "definition": "Ten Meter Walk/Run (Mcdonald, C. M., Henricson, E. K., Abresch, R. T., Florence, J. M., Eagle, M., Gappmaier, E., et al. (2013). THE 6-MINUTE WALK TEST AND OTHER ENDPOINTS IN DUCHENNE MUSCULAR DYSTROPHY: LONGITUDINAL NATURAL HISTORY OBSERVATIONS OVER 48 WEEKS FROM A MULTICENTER STUDY. Muscle & Nerve, 48(3), 343-356. http://doi.org/10.1002/mus.23902).", "preferredTerm": "Ten Meter Walk/Run Test Functional Test", "submissionValue": "TEN METER WALK/RUN", "synonyms": ["TENMW1"]}, {"conceptId": "C92205", "definition": "Trail Making Test (TMT) [(Copyright Owner: Dr. Jim Hom, The Neuropsychology Center, 500 N. Central Expressway, Suite 272, Plano TX 75074-6877. Ph: 469-429-8890, www.neuropsych.com.)(Manual: Army Individual Test. War Department, The Adjutant General's Office, 1944.)(Reitan RM. The Relation of the Trail Making Test to Organic Brain Damage; Journal of Consulting Psychology 1955 Oct 19(5):393-4.)(Reitan R.M. (1958). The validity of the Trail Making Test as an indicator of organic brain damage; Perceptual and Motor Skills, 8, 271-276.)].", "preferredTerm": "Trail Making Test", "submissionValue": "TMT", "synonyms": ["TMT01"]}, {"conceptId": "C115795", "definition": "Timed Up and Go (TUG) (Podsiadlo D, Richardson S. The Timed 'Up & Go': a test of basic functional mobility for frail elderly persons. J Am Geriatr Soc. 1991; 39:142-148).", "preferredTerm": "Timed Up and Go Functional Test", "submissionValue": "TUG", "synonyms": ["TUG01"]}]}