{"_links": {"parentPackage": {"href": "/mdr/ct/packages/sdtmct-2018-06-29", "title": "SDTM Controlled Terminology Package 34 Effective 2018-06-29", "type": "Terminology"}, "priorVersion": {"href": "/mdr/ct/packages/sdtmct-2018-03-30/codelists/C115395", "title": "CDISC Functional Test SDMT Test Name Terminology", "type": "Code List"}, "rootItem": {"href": "/mdr/root/ct/sdtmct/codelists/C115395", "title": "Version-agnostic anchor resource for codelist C115395", "type": "Root Value Domain"}, "self": {"href": "/mdr/ct/packages/sdtmct-2018-06-29/codelists/C115395", "title": "CDISC Functional Test SDMT Test Name Terminology", "type": "Code List"}}, "conceptId": "C115395", "definition": "Symbol Digit Modalities Test test name.", "extensible": "false", "name": "Symbol Digit Modalities Test Functional Test Test Name", "preferredTerm": "CDISC Functional Test SDMT Test Name Terminology", "submissionValue": "SDMT01TN", "synonyms": ["Symbol Digit Modalities Test Functional Test Test Name"], "terms": [{"conceptId": "C115816", "definition": "Symbol Digit Modalities Test - Total score.", "preferredTerm": "SDMT - Total Score", "submissionValue": "SDMT01-Total Score", "synonyms": ["SDMT01-Total Score"]}]}