{"_links": {"parentPackage": {"href": "/mdr/ct/packages/sdtmct-2018-06-29", "title": "SDTM Controlled Terminology Package 34 Effective 2018-06-29", "type": "Terminology"}, "priorVersion": {"href": "/mdr/ct/packages/sdtmct-2018-03-30/codelists/C119064", "title": "CDISC Questionnaire CCQ 24 Hour Version Test Code Terminology", "type": "Code List"}, "rootItem": {"href": "/mdr/root/ct/sdtmct/codelists/C119064", "title": "Version-agnostic anchor resource for codelist C119064", "type": "Root Value Domain"}, "self": {"href": "/mdr/ct/packages/sdtmct-2018-06-29/codelists/C119064", "title": "CDISC Questionnaire CCQ 24 Hour Version Test Code Terminology", "type": "Code List"}}, "conceptId": "C119064", "definition": "Clinical COPD Questionnaire 24 Hour Version test code.", "extensible": "false", "name": "Clinical COPD Questionnaire 24 Hour Version Questionnaire Test Code", "preferredTerm": "CDISC Questionnaire CCQ 24 Hour Version Test Code Terminology", "submissionValue": "CCQ01TC", "synonyms": ["Clinical COPD Questionnaire 24 Hour Version Questionnaire Test Code"], "terms": [{"conceptId": "C119122", "definition": "Clinical COPD Questionnaire 24 Hour Version - On average, during the past 24 hours, how often did you feel: Short of breath while at rest?", "preferredTerm": "CCQ 24 Hour Version - Short of Breath at Rest", "submissionValue": "CCQ0101", "synonyms": ["CCQ01-Short of Breath at Rest"]}, {"conceptId": "C119123", "definition": "Clinical COPD Questionnaire 24 Hour Version - On average, during the past 24 hours, how often did you feel: Short of breath while doing physical activities?", "preferredTerm": "CCQ 24 Hour Version - Short of Breath Doing Physical Activity", "submissionValue": "CCQ0102", "synonyms": ["CCQ01-Short of Breath Physical Activity"]}, {"conceptId": "C119124", "definition": "Clinical COPD Questionnaire 24 Hour Version - On average, during the past 24 hours, how often did you feel: Concerned about getting a cold or your breathing getting worse?", "preferredTerm": "CCQ 24 Hour Version - Concern About Breathing Get Worse", "submissionValue": "CCQ0103", "synonyms": ["CCQ01-Concern About Breathing Get Worse"]}, {"conceptId": "C119125", "definition": "Clinical COPD Questionnaire 24 Hour Version - On average, during the past 24 hours, how often did you feel: Depressed because of your breathing problems?", "preferredTerm": "CCQ 24 Hour Version - Depressed Because of Breathing Problem", "submissionValue": "CCQ0104", "synonyms": ["CCQ01-Depressed for Breathing Problem"]}, {"conceptId": "C119126", "definition": "Clinical COPD Questionnaire 24 Hour Version - In general, during the past 24 hours, how much of the time: Did you cough?", "preferredTerm": "CCQ 24 Hour Version - Did You Cough", "submissionValue": "CCQ0105", "synonyms": ["CCQ01-Cough"]}, {"conceptId": "C119127", "definition": "Clinical COPD Questionnaire 24 Hour Version - In general, during the past 24 hours, how much of the time: Did you produce sputum or phlegm?", "preferredTerm": "CCQ 24 Hour Version - Produce Sputum or Phlegm", "submissionValue": "CCQ0106", "synonyms": ["CCQ01-Produce Sputum or Phlegm"]}, {"conceptId": "C119128", "definition": "Clinical COPD Questionnaire 24 Hour Version - On average, during the past 24 hours, how limited were you in these activities because of your breathing problems: Strenuous physical activities?", "preferredTerm": "CCQ 24 Hour Version - Breathing Problems Limit Strenuous Activity", "submissionValue": "CCQ0107", "synonyms": ["CCQ01-Breathing Limit Strenuous Activity"]}, {"conceptId": "C119129", "definition": "Clinical COPD Questionnaire 24 Hour Version - On average, during the past 24 hours, how limited were you in these activities because of your breathing problems: Moderate physical activities?", "preferredTerm": "CCQ 24 Hour Version - Breathing Problems Limit Moderate Activity", "submissionValue": "CCQ0108", "synonyms": ["CCQ01-Breathing Limit Moderate Activity"]}, {"conceptId": "C119130", "definition": "Clinical COPD Questionnaire 24 Hour Version - On average, during the past 24 hours, how limited were you in these activities because of your breathing problems: Daily activities at home?", "preferredTerm": "CCQ 24 Hour Version - Breathing Problems Limit Daily Activity", "submissionValue": "CCQ0109", "synonyms": ["CCQ01-Breathing Limit Daily Activity"]}, {"conceptId": "C119131", "definition": "Clinical COPD Questionnaire 24 Hour Version - On average, during the past 24 hours, how limited were you in these activities because of your breathing problems: Social activities?", "preferredTerm": "CCQ 24 Hour Version - Breathing Problems Limit Social Activity", "submissionValue": "CCQ0110", "synonyms": ["CCQ01-Breathing Limit Social Activity"]}]}