{"_links": {"parentPackage": {"href": "/mdr/ct/packages/sdtmct-2018-06-29", "title": "SDTM Controlled Terminology Package 34 Effective 2018-06-29", "type": "Terminology"}, "priorVersion": {"href": "/mdr/ct/packages/sdtmct-2018-03-30/codelists/C119059", "title": "CDISC Questionnaire AUDIT-SR Test Name Terminology", "type": "Code List"}, "rootItem": {"href": "/mdr/root/ct/sdtmct/codelists/C119059", "title": "Version-agnostic anchor resource for codelist C119059", "type": "Root Value Domain"}, "self": {"href": "/mdr/ct/packages/sdtmct-2018-06-29/codelists/C119059", "title": "CDISC Questionnaire AUDIT-SR Test Name Terminology", "type": "Code List"}}, "conceptId": "C119059", "definition": "Alcohol Use Disorder Identification Test: Self-Report Version test name.", "extensible": "false", "name": "Alcohol Use Disorder Identification Test: Self-Report Version Questionnaire Test Name", "preferredTerm": "CDISC Questionnaire AUDIT-SR Test Name Terminology", "submissionValue": "ADT01TN", "synonyms": ["Alcohol Use Disorder Identification Test: Self-Report Version Questionnaire Test Name"], "terms": [{"conceptId": "C119109", "definition": "Alcohol Use Disorder Identification Test: Self-Report Version - How many drinks containing alcohol do you have on a typical day when you are drinking?", "preferredTerm": "AUDIT - How Many Alcohol Drinks on a Typical Day", "submissionValue": "ADT01-Alcohol Drinks on a Typical Day", "synonyms": ["ADT01-Alcohol Drinks on a Typical Day"]}, {"conceptId": "C119112", "definition": "Alcohol Use Disorder Identification Test: Self-Report Version - How often during the last year have you failed to do what was normally expected of you because of drinking?", "preferredTerm": "AUDIT - How Often Last Year You Failed to Do Normally Expected of You", "submissionValue": "ADT01-Failed to Do as Expected", "synonyms": ["ADT01-Failed to Do as Expected"]}, {"conceptId": "C119114", "definition": "Alcohol Use Disorder Identification Test: Self-Report Version - How often during the last year have you had a feeling of guilt or remorse after drinking?", "preferredTerm": "AUDIT - How Often Last Year You Feel Guilt or Remorse After Drinking", "submissionValue": "ADT01-Feeling of Guilt or Remorse", "synonyms": ["ADT01-Feeling of Guilt or Remorse"]}, {"conceptId": "C119108", "definition": "Alcohol Use Disorder Identification Test: Self-Report Version - How often do you have a drink containing alcohol?", "preferredTerm": "AUDIT - How Often Have Alcohol Drink", "submissionValue": "ADT01-How Often Drink Alcohol", "synonyms": ["ADT01-How Often Drink Alcohol"]}, {"conceptId": "C119116", "definition": "Alcohol Use Disorder Identification Test: Self-Report Version - Have you or someone else been injured because of your drinking?", "preferredTerm": "AUDIT - Injured Because of Drinking", "submissionValue": "ADT01-Injured Because of Your Drinking", "synonyms": ["ADT01-Injured Because of Your Drinking"]}, {"conceptId": "C119113", "definition": "Alcohol Use Disorder Identification Test: Self-Report Version - How often during the last year have you needed a first drink in the morning to get yourself going after a heavy drinking session?", "preferredTerm": "AUDIT - How Often Last Year Need a Drink in the Morning to Get Going", "submissionValue": "ADT01-Need Drink Morning After Drinking", "synonyms": ["ADT01-Need Drink Morning After Drinking"]}, {"conceptId": "C119111", "definition": "Alcohol Use Disorder Identification Test: Self-Report Version - How often during the last year have you found that you were not able to stop drinking once you had started?", "preferredTerm": "AUDIT - How Often Last Year You Found Not Able to Stop Drinking", "submissionValue": "ADT01-Not Able Stop Drinking Once Start", "synonyms": ["ADT01-Not Able Stop Drinking Once Start"]}, {"conceptId": "C119110", "definition": "Alcohol Use Disorder Identification Test: Self-Report Version - How often do you have six or more drinks on one occasion?", "preferredTerm": "AUDIT - How Often Have Six or More Drinks", "submissionValue": "ADT01-Six or More Drinks One Occasion", "synonyms": ["ADT01-Six or More Drinks One Occasion"]}, {"conceptId": "C119117", "definition": "Alcohol Use Disorder Identification Test: Self-Report Version - Has a relative, friend, doctor, or other health care worker been concerned about your drinking or suggested you cut down?", "preferredTerm": "AUDIT - Concerned About Your Drinking", "submissionValue": "ADT01-Suggested to Cut Down", "synonyms": ["ADT01-Suggested to Cut Down"]}, {"conceptId": "C119118", "definition": "Alcohol Use Disorder Identification Test: Self-Report Version - Total.", "preferredTerm": "AUDIT - Total", "submissionValue": "ADT01-Total", "synonyms": ["ADT01-Total"]}, {"conceptId": "C119115", "definition": "Alcohol Use Disorder Identification Test: Self-Report Version - How often during the last year have you been unable to remember what happened the night before because of your drinking?", "preferredTerm": "AUDIT - How Often Last Year You Unable to Remember What Happened the Night Before", "submissionValue": "ADT01-Unable to Remember What Happened", "synonyms": ["ADT01-Unable to Remember What Happened"]}]}