{"_links": {"parentPackage": {"href": "/mdr/ct/packages/sdtmct-2018-06-29", "title": "SDTM Controlled Terminology Package 34 Effective 2018-06-29", "type": "Terminology"}, "priorVersion": {"href": "/mdr/ct/packages/sdtmct-2018-03-30/codelists/C120527", "title": "CDISC SDTM Microbiology Test Code Terminology", "type": "Code List"}, "rootItem": {"href": "/mdr/root/ct/sdtmct/codelists/C120527", "title": "Version-agnostic anchor resource for codelist C120527", "type": "Root Value Domain"}, "self": {"href": "/mdr/ct/packages/sdtmct-2018-06-29/codelists/C120527", "title": "CDISC SDTM Microbiology Test Code Terminology", "type": "Code List"}}, "conceptId": "C120527", "definition": "Terminology relevant to the microbiology test codes of the CDISC Study Data Tabulation Model.", "extensible": "true", "name": "Microbiology Test Code", "preferredTerm": "CDISC SDTM Microbiology Test Code Terminology", "submissionValue": "MBTESTCD", "synonyms": ["Microbiology Test Code"], "terms": [{"conceptId": "C128981", "definition": "A measurement of any rod-shaped bacteria that resist decolorizing by acid after accepting an aqueous stain solution, due to the mycolic acids in their cell walls.", "preferredTerm": "Acid-Fast Bacilli Measurement", "submissionValue": "AFB", "synonyms": ["Acid-Fast Bacilli"]}, {"conceptId": "C147456", "definition": "A measurement of the Burkholderia cepacia in a biological specimen.", "preferredTerm": "Burkholderia cepacia Measurement", "submissionValue": "BCEPACIA", "synonyms": ["B. cepacia", "Burkholderia cepacia", "Pseudomonas cepacia"]}, {"conceptId": "C139113", "definition": "A measurement of the organisms that are not assigned to the species level but are assigned to the Burkholderia genus level in a biological specimen.", "preferredTerm": "Burkholderia Measurement", "submissionValue": "BURKHOLD", "synonyms": ["Burkholderia"]}, {"conceptId": "C150639", "definition": "A measurement of the 027/NAP1/BI strain of Clostridium difficile in a biological specimen.", "preferredTerm": "Clostridium difficile 027/NAP1/BI Measurement", "submissionValue": "C150639", "synonyms": ["Clostridium difficile 027/NAP1/BI"]}, {"conceptId": "C150637", "definition": "A measurement of the Clostridium difficile in a biological specimen.", "preferredTerm": "Clostridium difficile Measurement", "submissionValue": "CDF", "synonyms": ["Clostridium difficile"]}, {"conceptId": "C150858", "definition": "A measurement of the Clostridium difficile A and/or B toxin in a biological specimen.", "preferredTerm": "Clostridium difficile A and/or B Toxin Measurement", "submissionValue": "CDFABTOX", "synonyms": ["Clostridium difficile A/B Toxin"]}, {"conceptId": "C150863", "definition": "A measurement of the Clostridium difficile toxin A in a biological specimen.", "preferredTerm": "Clostridium difficile A Toxin Measurement", "submissionValue": "CDFATOX", "synonyms": ["Clostridium difficile A Toxin"]}, {"conceptId": "C150864", "definition": "A measurement of the Clostridium difficile toxin B in a biological specimen.", "preferredTerm": "Clostridium difficile B Toxin Measurement", "submissionValue": "CDFBTOX", "synonyms": ["Clostridium difficile B Toxin"]}, {"conceptId": "C150866", "definition": "A measurement of the Clostridium difficile binary toxin (cdt) DNA in a biological specimen.", "preferredTerm": "Clostridium difficile cdt DNA Measurement", "submissionValue": "CDFCDTD", "synonyms": ["Clostridium difficile cdt DNA"]}, {"conceptId": "C150857", "definition": "A measurement of the Clostridium difficile glutamate dehydrogenase in a biological specimen.", "preferredTerm": "C. difficile Glutamate Dehydrogenase Measurement", "submissionValue": "CDFGDH", "synonyms": ["C. difficile Glutamate Dehydrogenase", "Clostridium difficile Glutamate Dehydrogenase"]}, {"conceptId": "C150859", "definition": "A measurement of the Clostridium difficile toxin A (tcdA) DNA in a biological specimen.", "preferredTerm": "Clostridium difficile tcdA DNA Measurement", "submissionValue": "CDFTCDAD", "synonyms": ["Clostridium difficile tcdA DNA"]}, {"conceptId": "C150860", "definition": "A measurement of the Clostridium difficile toxin B (tcdB) DNA in a biological specimen.", "preferredTerm": "Clostridium difficile tcdB DNA Measurement", "submissionValue": "CDFTCDBD", "synonyms": ["Clostridium difficile tcdB DNA"]}, {"conceptId": "C150861", "definition": "A measurement of the Clostridium difficile regulatory protein (tcdC) DNA in a biological specimen.", "preferredTerm": "Clostridium difficile tcdC DNA Measurement", "submissionValue": "CDFTCDCD", "synonyms": ["Clostridium difficile tcdC DNA"]}, {"conceptId": "C135409", "definition": "A measurement of a targeted deoxyribonucleic acid (DNA) in a biological specimen.", "preferredTerm": "Deoxyribonucleic Acid Measurement", "submissionValue": "DNA", "synonyms": ["Deoxyribonucleic Acid"]}, {"conceptId": "C135410", "definition": "A measurement of the Ebola virus IgM antibodies in a biological specimen.", "preferredTerm": "Ebola Virus IgM Antibody Measurement", "submissionValue": "EBOIGMAB", "synonyms": ["Ebola Virus IgM Antibody"]}, {"conceptId": "C147457", "definition": "A measurement of the Haemophilus influenza virus in a biological specimen.", "preferredTerm": "Haemophilus influenzae Measurement", "submissionValue": "HAEMINF", "synonyms": ["H. influenzae", "Haemophilus influenzae"]}, {"conceptId": "C147458", "definition": "A measurement of the organisms that are not assigned to the species level but are assigned to the Haemophilus genus level in a biological specimen.", "preferredTerm": "Haemophilus Measurement", "submissionValue": "HAEMOPH", "synonyms": ["Haemophilus"]}, {"conceptId": "C142330", "definition": "A measurement of the Hepatitis C virus RNA in a biological specimen.", "preferredTerm": "Hepatitis C Virus RNA Measurement", "submissionValue": "HCRNA", "synonyms": ["Hepatitis C Virus RNA"]}, {"conceptId": "C142331", "definition": "A measurement of the Hepatitis E virus RNA in a biological specimen.", "preferredTerm": "Hepatitis E Virus RNA Measurement", "submissionValue": "HERNA", "synonyms": ["Hepatitis E Virus RNA"]}, {"conceptId": "C120677", "definition": "A measurement of the influenza A antigen in a biological specimen.", "preferredTerm": "Influenza A Antigen Measurement", "submissionValue": "INFAAG", "synonyms": ["Influenza A Antigen"]}, {"conceptId": "C120678", "definition": "A measurement of the influenza A and/or B antigen in a biological specimen.", "preferredTerm": "Influenza A/B Antigen Measurement", "submissionValue": "INFABAG", "synonyms": ["Influenza A/B Antigen"]}, {"conceptId": "C120679", "definition": "A measurement of the influenza B antigen in a biological specimen.", "preferredTerm": "Influenza B Antigen Measurement", "submissionValue": "INFBAG", "synonyms": ["Influenza B Antigen"]}, {"conceptId": "C132416", "definition": "The identification of the type of a microbial organism in a biological specimen.", "preferredTerm": "Microoganism Identification", "submissionValue": "MCORGIDN", "synonyms": ["Microbial Organism Identification"]}, {"conceptId": "C139110", "definition": "A measurement of the methicillin-resistant strain of Staphylococcus aureus in a biological specimen.", "preferredTerm": "Methicillin-resistant Staphylococcus aureus Measurement", "submissionValue": "MRSA", "synonyms": ["S. aureus, Methicillin-Resistant", "Staphylococcus aureus, Methicillin-Resistant"]}, {"conceptId": "C139111", "definition": "A measurement of the methicillin-susceptible strain of Staphylococcus aureus in a biological specimen.", "preferredTerm": "Methicillin-susceptible Staphylococcus aureus Measurement", "submissionValue": "MSSA", "synonyms": ["S. aureus, Methicillin-Susceptible", "Staphylococcus aureus, Methicillin-Susceptible"]}, {"conceptId": "C128982", "definition": "A measurement of the organisms that are assigned to the Mycobacterium tuberculosis species in a biological specimen.", "preferredTerm": "Mycobacterium Tuberculosis Measurement", "submissionValue": "MTB", "synonyms": ["Mycobacterium tuberculosis"]}, {"conceptId": "C128983", "definition": "A measurement of the organisms assignable to the Mycobacterium tuberculosis complex in a biological specimen.", "preferredTerm": "Mycobacterium tuberculosis Complex Measurement", "submissionValue": "MTBCMPLX", "synonyms": ["Mycobacterium tuberculosis Complex"]}, {"conceptId": "C147459", "definition": "A measurement of the organisms that are assigned to the Mycobacterium genus but are not tuberculosis or leprosy-causing in a biological specimen.", "preferredTerm": "Nontuberculous Mycobacteria Measurement", "submissionValue": "NTBMYCO", "synonyms": ["NTM", "Non-tuberculous mycobacteria", "Nontuberculous Mycobacteria"]}, {"conceptId": "C139108", "definition": "A measurement of the mucoid strain of Pseudomonas aeruginosa in a biological specimen.", "preferredTerm": "Mucoid Pseudomonas aeruginosa Measurement", "submissionValue": "PAERGMUC", "synonyms": ["P. aeruginosa, Mucoid", "Pseudomonas aeruginosa, Mucoid"]}, {"conceptId": "C139107", "definition": "A measurement of the non-mucoid strain of Pseudomonas aeruginosa in a biological specimen.", "preferredTerm": "Non-Mucoid Pseudomonas aeruginosa Measurement", "submissionValue": "PAERGNMC", "synonyms": ["P. aeruginosa, Non-Mucoid", "Pseudomonas aeruginosa, Non-Mucoid"]}, {"conceptId": "C139109", "definition": "A measurement of the small-colony variant strain of Pseudomonas aeruginosa in a biological specimen.", "preferredTerm": "Small-Colony Variant Pseudomonas aeruginosa Measurement", "submissionValue": "PAERGSCV", "synonyms": ["P. aeruginosa, Small-colony Variant", "Pseudomonas aeruginosa, SCV", "Pseudomonas aeruginosa, Small-colony Variant"]}, {"conceptId": "C132417", "definition": "A measurement of the Plasmodium knowlesi in an asexual replication stage in a biological specimen.", "preferredTerm": "Asexual Plasmodium knowlesi Measurement", "submissionValue": "PKNOWLA", "synonyms": ["Plasmodium knowlesi, Asexual"]}, {"conceptId": "C132418", "definition": "A measurement of the Plasmodium knowlesi in a sexual replication stage in a biological specimen.", "preferredTerm": "Sexual Plasmodium knowlesi Measurement", "submissionValue": "PKNOWLS", "synonyms": ["Plasmodium knowlesi, Sexual"]}, {"conceptId": "C147460", "definition": "A measurement of the Staphylococcus aureus in a biological specimen.", "preferredTerm": "Staphylococcus aureus Measurement", "submissionValue": "SAUREUS", "synonyms": ["S. aureus", "Staphylococcus aureus"]}, {"conceptId": "C139112", "definition": "A measurement of the organisms that are assigned to the Stenotrophomonas maltophilia species in a biological specimen.", "preferredTerm": "Stenotrophomonas maltophilia Measurement", "submissionValue": "STENMALT", "synonyms": ["Stenotrophomonas maltophilia"]}, {"conceptId": "C150865", "definition": "A measurement of the toxin B-producing strain of Clostridium difficile in a biological specimen.", "preferredTerm": "Toxin B-Producing Clostridium difficile Measurement", "submissionValue": "TOXBPCDF", "synonyms": ["Toxin B-Producing Clostridium difficile"]}, {"conceptId": "C150862", "definition": "A measurement of the toxigenic strain of Clostridium difficile in a biological specimen.", "preferredTerm": "Toxigenic Clostridium difficile Measurement", "submissionValue": "TOXCDF", "synonyms": ["Toxigenic Clostridium difficile"]}, {"conceptId": "C132420", "definition": "A measurement of the Zaire ebolavirus present in a biological specimen.", "preferredTerm": "Zaire Ebolavirus Measurement", "submissionValue": "ZEBOV", "synonyms": ["Zaire Ebolavirus"]}]}