{"_links": {"parentPackage": {"href": "/mdr/ct/packages/sdtmct-2018-06-29", "title": "SDTM Controlled Terminology Package 34 Effective 2018-06-29", "type": "Terminology"}, "priorVersion": {"href": "/mdr/ct/packages/sdtmct-2018-03-30/codelists/C124300", "title": "CDISC SDTM Biospecimen Characteristics Test Code Terminology", "type": "Code List"}, "rootItem": {"href": "/mdr/root/ct/sdtmct/codelists/C124300", "title": "Version-agnostic anchor resource for codelist C124300", "type": "Root Value Domain"}, "self": {"href": "/mdr/ct/packages/sdtmct-2018-06-29/codelists/C124300", "title": "CDISC SDTM Biospecimen Characteristics Test Code Terminology", "type": "Code List"}}, "conceptId": "C124300", "definition": "Terminology relevant to the test codes that describe the characteristics of biospecimens and extracted samples.", "extensible": "true", "name": "Biospecimen Characteristics Test Code", "preferredTerm": "CDISC SDTM Biospecimen Characteristics Test Code Terminology", "submissionValue": "BSTESTCD", "synonyms": ["Biospecimen Characteristics Test Code"], "terms": [{"conceptId": "C139281", "definition": "An assessment of nucleic acid purity that is measured by determining the ratio of light absorbance of the nucleic acid sample at 260nm and 230nm respectively.", "preferredTerm": "A260 to A230 Ratio", "submissionValue": "A260A230", "synonyms": ["A260/A230 Ratio"]}, {"conceptId": "C139280", "definition": "An assessment of nucleic acid purity that is measured by determining the ratio of light absorbance of the nucleic acid sample at 260nm and 280nm respectively.", "preferredTerm": "A260 to A280 Ratio", "submissionValue": "A260A280", "synonyms": ["A260/A280 Ratio"]}, {"conceptId": "C25244", "definition": "The extent of a 2-dimensional surface enclosed within a boundary. (NCI)", "preferredTerm": "Area", "submissionValue": "AREA", "synonyms": ["Area"]}, {"conceptId": "C41185", "definition": "The quantity of a specified substance in a unit volume or weight of another substance.", "preferredTerm": "Concentration", "submissionValue": "CONC", "synonyms": ["Concentration"]}, {"conceptId": "C128948", "definition": "The name of the substance or material that preserves tissues and cells for study.", "preferredTerm": "Name of Fixative", "submissionValue": "FIXNAM", "synonyms": ["Fixative Name"]}, {"conceptId": "C139282", "definition": "The type of fluorescent label or dye that is used in a fluorescence-based assay.", "preferredTerm": "Fluorescent Tag Type", "submissionValue": "FLUORLBL", "synonyms": ["Fluorescent Label"]}, {"conceptId": "C25334", "definition": "The linear extent in space from one end of something to the other end, or the extent of something from beginning to end. (NCI)", "preferredTerm": "Length", "submissionValue": "LENGTH", "synonyms": ["Length"]}, {"conceptId": "C43246", "definition": "The amount of matter in an object.", "preferredTerm": "Mass", "submissionValue": "MASS", "synonyms": ["Mass"]}, {"conceptId": "C25283", "definition": "An assessment of excellence, worth, or fitness for use.", "preferredTerm": "Quality", "submissionValue": "QUALITY", "synonyms": ["Quality"]}, {"conceptId": "C63637", "definition": "A numerical assessment of the integrity of RNA based on the entire electrophoretic trace of the RNA sample, including the presence or absence of degradation products. (NCI)", "preferredTerm": "RNA Integrity Number", "submissionValue": "RIN", "synonyms": ["RNA Integrity Number"]}, {"conceptId": "C25681", "definition": "The physical magnitude of something. (NCI)", "preferredTerm": "Size", "submissionValue": "SIZE", "synonyms": ["Size"]}, {"conceptId": "C106569", "definition": "A measurement of the weight of a biological specimen.", "preferredTerm": "Specimen Weight Measurement", "submissionValue": "SPWEIGHT", "synonyms": ["Specimen Weight"]}, {"conceptId": "C25206", "definition": "The property of a body or region of space that determines whether or not there will be a net flow of heat into it or out of it from a neighboring body or region and in which direction (if any) the heat will flow, perceptible by living organism as a somatic sensation of cold or heat. It is a measure of the average translational kinetic energy associated with the disordered microscopic motion of atoms and molecules. Temperature is measured in one of the three standard temperature scales: Celsius, Kelvin, and Fahrenheit. (NCI)", "preferredTerm": "Temperature", "submissionValue": "TEMP", "synonyms": ["Temperature"]}, {"conceptId": "C41145", "definition": "The dimension between two surfaces of an object, usually the smallest dimension as opposed to the width or the length.", "preferredTerm": "Thickness", "submissionValue": "THICK", "synonyms": ["Thickness"]}, {"conceptId": "C135371", "definition": "A characterization of the tumor tissue sample based upon whether it was taken from a tumor that originated after the disease spread.", "preferredTerm": "Tumor Tissue Origin", "submissionValue": "TUMTORI", "synonyms": ["Tumor Tissue Origin"]}, {"conceptId": "C139279", "definition": "An indication as to whether the sample contains viable (capable of life or normal growth and development) cells or tissues.", "preferredTerm": "Sample Viability Indicator", "submissionValue": "VBLSIND", "synonyms": ["Sample Viability Indicator"]}, {"conceptId": "C139278", "definition": "A measurement of the percent of a sample that is viable (capable of life or normal growth and development) for further processing or testing.", "preferredTerm": "Sample Viability Percent Measurement", "submissionValue": "VBLSPCT", "synonyms": ["Sample Viability Percent"]}, {"conceptId": "C25335", "definition": "The amount of three dimensional space occupied by an object or the capacity of a space or container. (NCI)", "preferredTerm": "Volume", "submissionValue": "VOLUME", "synonyms": ["Volume"]}, {"conceptId": "C25345", "definition": "The extent or measurement of something from side to side. (NCI)", "preferredTerm": "Width", "submissionValue": "WIDTH", "synonyms": ["Width"]}]}