{"_links": {"parentPackage": {"href": "/mdr/ct/packages/sdtmct-2018-06-29", "title": "SDTM Controlled Terminology Package 34 Effective 2018-06-29", "type": "Terminology"}, "priorVersion": {"href": "/mdr/ct/packages/sdtmct-2018-03-30/codelists/C127269", "title": "CDISC SDTM Musculoskeletal System Finding Test Code Terminology", "type": "Code List"}, "rootItem": {"href": "/mdr/root/ct/sdtmct/codelists/C127269", "title": "Version-agnostic anchor resource for codelist C127269", "type": "Root Value Domain"}, "self": {"href": "/mdr/ct/packages/sdtmct-2018-06-29/codelists/C127269", "title": "CDISC SDTM Musculoskeletal System Finding Test Code Terminology", "type": "Code List"}}, "conceptId": "C127269", "definition": "A terminology codelist to describe the test code for a physiological examination of the musculoskeletal system.", "extensible": "true", "name": "Musculoskeletal System Finding Test Code", "preferredTerm": "CDISC SDTM Musculoskeletal System Finding Test Code Terminology", "submissionValue": "MUSCTSCD", "synonyms": ["Musculoskeletal System Finding Test Code"], "terms": [{"conceptId": "C25244", "definition": "The extent of a 2-dimensional surface enclosed within a boundary. (NCI)", "preferredTerm": "Area", "submissionValue": "AREA", "synonyms": ["Area"]}, {"conceptId": "C147472", "definition": "An assessment of the quantity of minerals within a specific bone(s) or segments.", "preferredTerm": "Bone Mineral Content", "submissionValue": "BMC", "synonyms": ["Bone Mineral Content"]}, {"conceptId": "C61545", "definition": "A measurement of the amount of minerals contained in a specified volume or area of bone(s) or segments.", "preferredTerm": "Bone Mineral Density Test", "submissionValue": "BMD", "synonyms": ["Bone Mineral Density"]}, {"conceptId": "C147473", "definition": "The standard deviation of the subject's bone mineral density score in comparison to the normal bone mineral density of a healthy 30-year old adult.", "preferredTerm": "Bone Mineral Density T-Score", "submissionValue": "BMDT", "synonyms": ["Bone Mineral Density T-Score"]}, {"conceptId": "C139217", "definition": "A statistical score representing the number of standard deviations above or below what is expected for an individual's bone mineral density based on his age, sex, weight, and race.", "preferredTerm": "Bone Mineral Density Z-Score", "submissionValue": "BMDZ", "synonyms": ["Bone Mineral Density Z-Score"]}, {"conceptId": "C139223", "definition": "The numerical value that represents the result of a clinical assessment of muscle strength and function during abduction that is based on the Brooke Modified Medical Research Council Manual Muscle Test. (Brooke MH, Griggs RC, Mendell JR, Fenichel GM, et al. Clinical trial in Duchenne dystrophy. I. The design of the protocol. Muscle Nerve. 1981 May-Jun;4(3):186-97. doi:10.1002/mus.880040304).", "preferredTerm": "Brooke Modified Medical Research Council Manual Muscle Test Score, Abduction", "submissionValue": "BMMTABDT", "synonyms": ["Brooke Modified Medical Research Council Manual Muscle Test Score, Abduction", "Brooke mMRC MMT Score, Abduction"]}, {"conceptId": "C139225", "definition": "The numerical value that represents the result of a clinical assessment of muscle strength and function during dorsiflexion that is based on the Brooke Modified Medical Research Council Manual Muscle Test. (Brooke MH, Griggs RC, Mendell JR, Fenichel GM, et al. Clinical trial in Duchenne dystrophy. I. The design of the protocol. Muscle Nerve. 1981 May-Jun;4(3):186-97. doi:10.1002/mus.880040304).", "preferredTerm": "Brooke Modified Medical Research Council Manual Muscle Test Score, Dorsiflexion", "submissionValue": "BMMTDORS", "synonyms": ["Brooke Modified Medical Research Council Manual Muscle Test Score, Dorsiflexion", "Brooke mMRC MMT Score, Dorsiflexion"]}, {"conceptId": "C139227", "definition": "The numerical value that represents the result of a clinical assessment of muscle strength and function during eversion that is based on the Brooke Modified Medical Research Council Manual Muscle Test. (Brooke MH, Griggs RC, Mendell JR, Fenichel GM, et al. Clinical trial in Duchenne dystrophy. I. The design of the protocol. Muscle Nerve. 1981 May-Jun;4(3):186-97. doi:10.1002/mus.880040304).", "preferredTerm": "Brooke Modified Medical Research Council Manual Muscle Test Score, Eversion", "submissionValue": "BMMTEVE", "synonyms": ["Brooke Modified Medical Research Council Manual Muscle Test Score, Eversion", "Brooke mMRC MMT Score, Eversion"]}, {"conceptId": "C139220", "definition": "The numerical value that represents the result of a clinical assessment of muscle strength and function during extension that is based on the Brooke Modified Medical Research Council Manual Muscle Test. (Brooke MH, Griggs RC, Mendell JR, Fenichel GM, et al. Clinical trial in Duchenne dystrophy. I. The design of the protocol. Muscle Nerve. 1981 May-Jun;4(3):186-97. doi:10.1002/mus.880040304).", "preferredTerm": "Brooke Modified Medical Research Council Manual Muscle Test Score, Extension", "submissionValue": "BMMTEXT", "synonyms": ["Brooke Modified Medical Research Council Manual Muscle Test Score, Extension", "Brooke mMRC MMT Score, Extension"]}, {"conceptId": "C139222", "definition": "The numerical value that represents the result of a clinical assessment of muscle strength and function during flexion that is based on the Brooke Modified Medical Research Council Manual Muscle Test. (Brooke MH, Griggs RC, Mendell JR, Fenichel GM, et al. Clinical trial in Duchenne dystrophy. I. The design of the protocol. Muscle Nerve. 1981 May-Jun;4(3):186-97. doi:10.1002/mus.880040304).", "preferredTerm": "Brooke Modified Medical Research Council Manual Muscle Test Score, Flexion", "submissionValue": "BMMTFLX", "synonyms": ["Brooke Modified Medical Research Council Manual Muscle Test Score, Flexion", "Brooke mMRC MMT Score, Flexion"]}, {"conceptId": "C139226", "definition": "The numerical value that represents the result of a clinical assessment of muscle strength and function during inversion that is based on the Brooke Modified Medical Research Council Manual Muscle Test. (Brooke MH, Griggs RC, Mendell JR, Fenichel GM, et al. Clinical trial in Duchenne dystrophy. I. The design of the protocol. Muscle Nerve. 1981 May-Jun;4(3):186-97. doi:10.1002/mus.880040304).", "preferredTerm": "Brooke Modified Medical Research Council Manual Muscle Test Score, Inversion", "submissionValue": "BMMTINV", "synonyms": ["Brooke Modified Medical Research Council Manual Muscle Test Score, Inversion", "Brooke mMRC MMT Score, Inversion"]}, {"conceptId": "C139224", "definition": "The numerical value that represents the result of a clinical assessment of muscle strength and function during lateral rotation that is based on the Brooke Modified Medical Research Council Manual Muscle Test. (Brooke MH, Griggs RC, Mendell JR, Fenichel GM, et al. Clinical trial in Duchenne dystrophy. I. The design of the protocol. Muscle Nerve. 1981 May-Jun;4(3):186-97. doi:10.1002/mus.880040304).", "preferredTerm": "Brooke Modified Medical Research Council Manual Muscle Test Score, Lateral Rotation", "submissionValue": "BMMTLR", "synonyms": ["Brooke Modified Medical Research Council Manual Muscle Test Score, Lateral Rotation", "Brooke mMRC MMT Score, Lat. Rotat."]}, {"conceptId": "C139221", "definition": "The numerical value that represents the result of a clinical assessment of muscle strength and function during plantar flexion that is based on the Brooke Modified Medical Research Council Manual Muscle Test. (Brooke MH, Griggs RC, Mendell JR, Fenichel GM, et al. Clinical trial in Duchenne dystrophy. I. The design of the protocol. Muscle Nerve. 1981 May-Jun;4(3):186-97. doi:10.1002/mus.880040304).", "preferredTerm": "Brooke Modified Medical Research Council Manual Muscle Test Score, Plantar Flexion", "submissionValue": "BMMTPF", "synonyms": ["Brooke Modified Medical Research Council Manual Muscle Test Score, Plantar Flexion", "Brooke mMRC MMT Score, Plantar Flex"]}, {"conceptId": "C139218", "definition": "The amount of an individual's total body mass that is fat, expressed as a percent.", "preferredTerm": "Body Fat Percentage", "submissionValue": "BODYFATP", "synonyms": ["Body Fat Percentage"]}, {"conceptId": "C139210", "definition": "An assessment of muscle strength that measures that force with which one holds or grasps.", "preferredTerm": "Grip Strength", "submissionValue": "GRIPSTR", "synonyms": ["Grip Strength"]}, {"conceptId": "C139215", "definition": "An assessment of muscle strength that measures the force produced by static muscle contraction during the straightening (unbending) movement between body parts. (NCI)", "preferredTerm": "Isometric Muscle Strength, Extension", "submissionValue": "ISOMSEXT", "synonyms": ["Isometric Muscle Strength, Extension"]}, {"conceptId": "C139216", "definition": "An assessment of muscle strength that measures the force produced by static muscle contraction during the bending movement between body parts. (NCI)", "preferredTerm": "Isometric Muscle Strength, Flexion", "submissionValue": "ISOMSFL", "synonyms": ["Isometric Muscle Strength, Flexion"]}, {"conceptId": "C139219", "definition": "The proportion of an individual's lean body mass to his total body weight. Lean body mass is calculated by subtracting body fat from total body weight.", "preferredTerm": "Lean Body Mass to Total Body Mass Ratio", "submissionValue": "LBMTBMR", "synonyms": ["Lean Body Mass to Total Body Mass Ratio"]}, {"conceptId": "C139231", "definition": "The numerical value that represents the result of a clinical assessment of muscle strength and function during abduction that is based on the Medical Research Council Manual Muscle Test. (Medical Research Council. Aids to examination of the peripheral nervous system. Memorandum no. 45, superseding War Memorandum No. 7. London: Her Majesty's Stationary Office; 1976. doi:10.1016/0022-510X(77)90205-2).", "preferredTerm": "Medical Research Council Manual Muscle Test Score, Abduction", "submissionValue": "MMTABDT", "synonyms": ["MRC MMT Score, Abduction", "Medical Research Council Manual Muscle Test Score, Abduction"]}, {"conceptId": "C139233", "definition": "The numerical value that represents the result of a clinical assessment of muscle strength and function during dorsiflexion that is based on the Medical Research Council Manual Muscle Test. (Medical Research Council. Aids to examination of the peripheral nervous system. Memorandum no. 45, superseding War Memorandum No. 7. London: Her Majesty's Stationary Office; 1976. doi:10.1016/0022-510X(77)90205-2).", "preferredTerm": "Medical Research Council Manual Muscle Test Score, Dorsiflexion", "submissionValue": "MMTDORS", "synonyms": ["MRC MMT Score, Dorsiflexion", "Medical Research Council Manual Muscle Test Score, Dorsiflexion"]}, {"conceptId": "C139235", "definition": "The numerical value that represents the result of a clinical assessment of muscle strength and function during eversion that is based on the Medical Research Council Manual Muscle Test. (Medical Research Council. Aids to examination of the peripheral nervous system. Memorandum no. 45, superseding War Memorandum No. 7. London: Her Majesty's Stationary Office; 1976. doi:10.1016/0022-510X(77)90205-2).", "preferredTerm": "Medical Research Council Manual Muscle Test Score, Eversion", "submissionValue": "MMTEVE", "synonyms": ["MRC MMT Score, Eversion", "Medical Research Council Manual Muscle Test Score, Eversion"]}, {"conceptId": "C139228", "definition": "The numerical value that represents the result of a clinical assessment of muscle strength and function during extension that is based on the Medical Research Council Manual Muscle Test. (Medical Research Council. Aids to examination of the peripheral nervous system. Memorandum no. 45, superseding War Memorandum No. 7. London: Her Majesty's Stationary Office; 1976. doi:10.1016/0022-510X(77)90205-2).", "preferredTerm": "Medical Research Council Manual Muscle Test Score, Extension", "submissionValue": "MMTEXT", "synonyms": ["MRC MMT Score, Extension", "Medical Research Council Manual Muscle Test Score, Extension"]}, {"conceptId": "C139230", "definition": "The numerical value that represents the result of a clinical assessment of muscle strength and function during flexion that is based on the Medical Research Council Manual Muscle. (Medical Research Council. Aids to examination of the peripheral nervous system. Memorandum no. 45, superseding War Memorandum No. 7. London: Her Majesty's Stationary Office; 1976. doi:10.1016/0022-510X(77)90205-2).", "preferredTerm": "Medical Research Council Manual Muscle Test Score, Flexion", "submissionValue": "MMTFLX", "synonyms": ["MRC MMT Score, Flexion", "Medical Research Council Manual Muscle Test Score, Flexion"]}, {"conceptId": "C139234", "definition": "The numerical value that represents the result of a clinical assessment of muscle strength and function during inversion that is based on the Medical Research Council Manual Muscle Test. (Medical Research Council. Aids to examination of the peripheral nervous system. Memorandum no. 45, superseding War Memorandum No. 7. London: Her Majesty's Stationary Office; 1976. doi:10.1016/0022-510X(77)90205-2).", "preferredTerm": "Medical Research Council Manual Muscle Test Score, Inversion", "submissionValue": "MMTINV", "synonyms": ["MRC MMT Score, Inversion", "Medical Research Council Manual Muscle Test Score, Inversion"]}, {"conceptId": "C139232", "definition": "The numerical value that represents the result of a clinical assessment of muscle strength and function during lateral rotation that is based on the Medical Research Council Manual Muscle Test. (Medical Research Council. Aids to examination of the peripheral nervous system. Memorandum no. 45, superseding War Memorandum No. 7. London: Her Majesty's Stationary Office; 1976. doi:10.1016/0022-510X(77)90205-2).", "preferredTerm": "Medical Research Council Manual Muscle Test Score, Lateral Rotation", "submissionValue": "MMTLR", "synonyms": ["MRC MMT Score, Lat. Rotat.", "Medical Research Council Manual Muscle Test Score, Lateral Rotation"]}, {"conceptId": "C139229", "definition": "The numerical value that represents the result of a clinical assessment of muscle strength and function during plantar flexion that is based on the Medical Research Council Manual Muscle Test. (Medical Research Council. Aids to examination of the peripheral nervous system. Memorandum no. 45, superseding War Memorandum No. 7. London: Her Majesty's Stationary Office; 1976. doi:10.1016/0022-510X(77)90205-2).", "preferredTerm": "Medical Research Council Manual Muscle Test Score, Plantar Flexion", "submissionValue": "MMTPF", "synonyms": ["MRC MMT Score, Plantar Flex", "Medical Research Council Manual Muscle Test Score, Plantar Flexion"]}, {"conceptId": "C139211", "definition": "An assessment of hand muscle strength that measures the force with which an individual can squeeze or compress an object using his thumb and one or multiple fingers from the same hand.", "preferredTerm": "Pinch Strength", "submissionValue": "PINCHSTR", "synonyms": ["Pinch Strength"]}, {"conceptId": "C139212", "definition": "An assessment of joint flexibility that measures the movement of a body part pulling away from the midline of the body, in number of degrees. (NCI)", "preferredTerm": "Range of Motion, Abduction", "submissionValue": "ROMABDT", "synonyms": ["Range of Motion, Abduction"]}, {"conceptId": "C139214", "definition": "An assessment of joint flexibility that measures the movement of a body part bending towards its dorsal surface, in number of degrees. (NCI)", "preferredTerm": "Range of Motion, Dorsiflexion", "submissionValue": "ROMDORFL", "synonyms": ["Range of Motion, Dorsiflexion"]}, {"conceptId": "C139213", "definition": "An assessment of joint flexibility that measures the straightening (unbending) movement between body parts, in number of degrees. (NCI)", "preferredTerm": "Range of Motion, Extension", "submissionValue": "ROMEXT", "synonyms": ["Range of Motion, Extension"]}, {"conceptId": "C128986", "definition": "The numerical value that represents the result of a clinical assessment of bone erosion based on the Genant modification of the Sharp Joint Erosion Assessment (Genant HK. Methods of assessing radiographic change in rheumatoid arthritis. Am J Med. 1983 Dec 30;75(6A):35-47).", "preferredTerm": "Sharp Genant Bone Erosion Score", "submissionValue": "SGBESCR", "synonyms": ["Sharp/Genant Bone Erosion Score"]}, {"conceptId": "C128987", "definition": "The numerical value that represents the result of a clinical assessment of joint space narrowing based on the Genant modification of the Sharp Joint Space Narrowing Assessment (Genant HK. Methods of assessing radiographic change in rheumatoid arthritis. Am J Med. 1983 Dec 30;75(6A):35-47).", "preferredTerm": "Sharp Genant Joint Space Narrowing Score", "submissionValue": "SGJSNSCR", "synonyms": ["Sharp/Genant JSN Score"]}, {"conceptId": "C128988", "definition": "The numerical value that represents the result of a clinical assessment of bone erosion based on the Van der Heijde modification of the Sharp Joint Erosion Assessment (Van der Heijde DM, van Riel PL, Nuver-Zwart IH, Gribnau FW, van de Putte LB. Effects of hydroxychloroquine and sulphasalazine on progression of joint damage in rheumatoid arthritis. Lancet 1989;1:1036-8).", "preferredTerm": "Sharp van der Heijde Bone Erosion Score", "submissionValue": "SVBESCR", "synonyms": ["Sharp/Van der Heijde Bone Erosion Score"]}, {"conceptId": "C128989", "definition": "The numerical value that represents the result of a clinical assessment of joint space narrowing based on the Van der Heijde modification of the Sharp Joint Space Narrowing Assessment (Van der Heijde DM, van Riel PL, Nuver-Zwart IH, Gribnau FW, van de Putte LB. Effects of hydroxychloroquine and sulphasalazine on progression of joint damage in rheumatoid arthritis. Lancet 1989;1:1036-8).", "preferredTerm": "Sharp van der Heijde Joint Space Narrowing Score", "submissionValue": "SVJSNSCR", "synonyms": ["Sharp/Van der Heijde JSN Score"]}, {"conceptId": "C127774", "definition": "An indication as to whether there are symptoms of swelling.", "preferredTerm": "Swollen Indicator", "submissionValue": "SWLLIND", "synonyms": ["Swollen Indicator"]}, {"conceptId": "C127775", "definition": "An indication as to whether there are symptoms of tenderness.", "preferredTerm": "Tenderness Indicator", "submissionValue": "TNDRIND", "synonyms": ["Tenderness Indicator"]}]}