{"_links": {"parentPackage": {"href": "/mdr/ct/packages/sdtmct-2018-06-29", "title": "SDTM Controlled Terminology Package 34 Effective 2018-06-29", "type": "Terminology"}, "priorVersion": {"href": "/mdr/ct/packages/sdtmct-2018-03-30/codelists/C127262", "title": "CDISC SDTM Environmental Setting Terminology", "type": "Code List"}, "rootItem": {"href": "/mdr/root/ct/sdtmct/codelists/C127262", "title": "Version-agnostic anchor resource for codelist C127262", "type": "Root Value Domain"}, "self": {"href": "/mdr/ct/packages/sdtmct-2018-06-29/codelists/C127262", "title": "CDISC SDTM Environmental Setting Terminology", "type": "Code List"}}, "conceptId": "C127262", "definition": "Terminology relevant to the surroundings or environment.", "extensible": "true", "name": "Environmental Setting", "preferredTerm": "CDISC SDTM Environmental Setting Terminology", "submissionValue": "SETTING", "synonyms": ["Environmental Setting"], "terms": [{"conceptId": "C127785", "definition": "An establishment that provides care for infants and children.", "preferredTerm": "Childcare Center", "submissionValue": "CHILD CARE CENTER"}, {"conceptId": "C48953", "definition": "A tract of land cultivated for the purpose of agricultural production or devoted to the raising and breeding of domestic animals.", "preferredTerm": "Farm", "submissionValue": "FARM"}, {"conceptId": "C102650", "definition": "A setting outside the clinic or a comparable health care facility, e.g. a doctor's office, the subject's home or workplace, a school, a public park, or a restaurant.", "preferredTerm": "In the Field", "submissionValue": "FIELD"}, {"conceptId": "C21541", "definition": "The buildings and organizations where healthcare services are provided.", "preferredTerm": "Healthcare Facility", "submissionValue": "HEALTH FACILITY"}, {"conceptId": "C18002", "definition": "A person's place of residence.", "preferredTerm": "Home", "submissionValue": "HOME"}, {"conceptId": "C16696", "definition": "An institution that provides medical, surgical, or psychiatric care and treatment for the sick or the injured.", "preferredTerm": "Hospital", "submissionValue": "HOSPITAL"}, {"conceptId": "C102647", "definition": "The area in which an individual lives.", "preferredTerm": "Household Environment", "submissionValue": "HOUSEHOLD ENVIRONMENT"}, {"conceptId": "C41206", "definition": "An established society, corporation, foundation or other organization founded and united for a specific purpose, e.g. for health-related research; also used to refer to a building or buildings occupied or used by such organization.", "preferredTerm": "Institution", "submissionValue": "INSTITUTION"}, {"conceptId": "C102679", "definition": "An area outside of that in which an individual lives.", "preferredTerm": "Non-household Environment", "submissionValue": "NON-HOUSEHOLD ENVIRONMENT"}, {"conceptId": "C16281", "definition": "A medical care center that provides healthcare services on an outpatient basis.", "preferredTerm": "Ambulatory Care Facility", "submissionValue": "OUTPATIENT CLINIC"}, {"conceptId": "C85862", "definition": "An institution where persons are confined for punishment and to protect the public.", "preferredTerm": "Correctional Institution", "submissionValue": "PRISON"}, {"conceptId": "C17118", "definition": "An educational institution.", "preferredTerm": "School", "submissionValue": "SCHOOL"}, {"conceptId": "C85863", "definition": "Temporary housing for displaced or at-risk persons.", "preferredTerm": "Shelter", "submissionValue": "SHELTER"}, {"conceptId": "C102712", "definition": "The surroundings or environment in which social activities occur.", "preferredTerm": "Social Setting", "submissionValue": "SOCIAL SETTING"}, {"conceptId": "C17556", "definition": "Place or physical location of work or employment.", "preferredTerm": "Worksite", "submissionValue": "WORKSITE"}]}