{"_links": {"parentPackage": {"href": "/mdr/ct/packages/sdtmct-2018-06-29", "title": "SDTM Controlled Terminology Package 34 Effective 2018-06-29", "type": "Terminology"}, "priorVersion": {"href": "/mdr/ct/packages/sdtmct-2018-03-30/codelists/C127261", "title": "CDISC SDTM Observational Study Time Perspective Terminology", "type": "Code List"}, "rootItem": {"href": "/mdr/root/ct/sdtmct/codelists/C127261", "title": "Version-agnostic anchor resource for codelist C127261", "type": "Root Value Domain"}, "self": {"href": "/mdr/ct/packages/sdtmct-2018-06-29/codelists/C127261", "title": "CDISC SDTM Observational Study Time Perspective Terminology", "type": "Code List"}}, "conceptId": "C127261", "definition": "The terminology relevant to the temporal relationship between the observation period and time of subject enrollment in an observational study.", "extensible": "true", "name": "Observational Study Time Perspective", "preferredTerm": "CDISC SDTM Observational Study Time Perspective Terminology", "submissionValue": "OBSSTP", "synonyms": ["Observational Study Time Perspective"], "terms": [{"conceptId": "C53310", "definition": "Studies in which observations or measurements made at a single point in time, usually at subject enrollment. (clinicaltrials.gov)", "preferredTerm": "Cross-Sectional Study", "submissionValue": "CROSS SECTIONAL"}, {"conceptId": "C15273", "definition": "Studies that look forward using periodic observations collected predominantly following subject enrollment. (clinicaltrials.gov)", "preferredTerm": "Longitudinal Study", "submissionValue": "PROSPECTIVE"}, {"conceptId": "C53312", "definition": "Studies that look back using observations collected predominantly prior to subject selection and enrollment. (clinicaltrials.gov)", "preferredTerm": "Retrospective Study", "submissionValue": "RETROSPECTIVE"}]}