{"_links": {"parentPackage": {"href": "/mdr/ct/packages/sdtmct-2018-06-29", "title": "SDTM Controlled Terminology Package 34 Effective 2018-06-29", "type": "Terminology"}, "priorVersion": {"href": "/mdr/ct/packages/sdtmct-2018-03-30/codelists/C128690", "title": "CDISC SDTM Collected Ethnicity Terminology", "type": "Code List"}, "rootItem": {"href": "/mdr/root/ct/sdtmct/codelists/C128690", "title": "Version-agnostic anchor resource for codelist C128690", "type": "Root Value Domain"}, "self": {"href": "/mdr/ct/packages/sdtmct-2018-06-29/codelists/C128690", "title": "CDISC SDTM Collected Ethnicity Terminology", "type": "Code List"}}, "conceptId": "C128690", "definition": "A terminology codelist relevant to the ethnicity of an individual as collected on the case report form.", "extensible": "true", "name": "Ethnicity As Collected", "preferredTerm": "CDISC SDTM Collected Ethnicity Terminology", "submissionValue": "ETHNICC", "synonyms": ["Ethnicity As Collected"], "terms": [{"conceptId": "C17950", "definition": "A person of Ashkenazi Jewish descent.", "preferredTerm": "Ashkenazi Jew", "submissionValue": "ASHKENAZI JEW"}, {"conceptId": "C67118", "definition": "A person of Central American descent.", "preferredTerm": "Central American", "submissionValue": "CENTRAL AMERICAN"}, {"conceptId": "C107608", "definition": "A person of Cuban descent.", "preferredTerm": "Cuban", "submissionValue": "CUBAN"}, {"conceptId": "C67115", "definition": "A person of Cuban and American descent.", "preferredTerm": "Cuban or Cuban American", "submissionValue": "CUBAN AMERICAN"}, {"conceptId": "C17459", "definition": "A person of Mexican, Puerto Rican, Cuban, Central or South American or other Spanish culture or origin, regardless of race. (NCI)", "preferredTerm": "Hispanic or Latino", "submissionValue": "HISPANIC OR LATINO"}, {"conceptId": "C126531", "definition": "A person of Latin American descent.", "preferredTerm": "Latin American", "submissionValue": "LATIN AMERICAN"}, {"conceptId": "C67113", "definition": "A person of Mexican descent.", "preferredTerm": "Mexican", "submissionValue": "MEXICAN"}, {"conceptId": "C67114", "definition": "A person of Mexican and American descent.", "preferredTerm": "Mexican American", "submissionValue": "MEXICAN AMERICAN"}, {"conceptId": "C41222", "definition": "A person not of Cuban, Mexican, Puerto Rican, South or Central American, or other Spanish culture or origin, regardless of race. An arbitrary ethnic classification. (NCI)", "preferredTerm": "Not Hispanic or Latino", "submissionValue": "NOT HISPANIC OR LATINO"}, {"conceptId": "C67112", "definition": "A person of Puerto Rican descent.", "preferredTerm": "Puerto Rican", "submissionValue": "PUERTO RICAN"}, {"conceptId": "C103283", "definition": "A person of Sephardic Jewish descent.", "preferredTerm": "Sephardic Jew", "submissionValue": "SEPHARDIC JEW"}, {"conceptId": "C126532", "definition": "A person of South American descent.", "preferredTerm": "South American", "submissionValue": "SOUTH AMERICAN"}, {"conceptId": "C67120", "definition": "A person from Spain or of Spanish descent.", "preferredTerm": "Spanish", "submissionValue": "SPANISH"}]}