{"_links": {"parentPackage": {"href": "/mdr/ct/packages/sdtmct-2018-06-29", "title": "SDTM Controlled Terminology Package 34 Effective 2018-06-29", "type": "Terminology"}, "priorVersion": {"href": "/mdr/ct/packages/sdtmct-2018-03-30/codelists/C129938", "title": "CDISC SDTM Device-In-Use Response Terminology", "type": "Code List"}, "rootItem": {"href": "/mdr/root/ct/sdtmct/codelists/C129938", "title": "Version-agnostic anchor resource for codelist C129938", "type": "Root Value Domain"}, "self": {"href": "/mdr/ct/packages/sdtmct-2018-06-29/codelists/C129938", "title": "CDISC SDTM Device-In-Use Response Terminology", "type": "Code List"}}, "conceptId": "C129938", "definition": "A terminology codelist relevant to the device-in-use responses.", "extensible": "true", "name": "Device-In-Use Response", "preferredTerm": "CDISC SDTM Device-In-Use Response Terminology", "submissionValue": "DURS", "synonyms": ["Device-In-Use Response"], "terms": [{"conceptId": "C130058", "definition": "An ultrasound imaging setting that uses a probe with two 2-dimensional (2D) planes set perpendicularly to each other, allowing for better detection and localization of objects/structures.", "preferredTerm": "2-Dimensional Biplane Ultrasound Mode", "submissionValue": "2-DIMENSIONAL BIPLANE MODE"}, {"conceptId": "C130059", "definition": "An ultrasound imaging setting that uses a linear pattern of beams to produce a standard, 2-dimensional (2-D) image.", "preferredTerm": "2-Dimensional Single Plane Ultrasound Mode", "submissionValue": "2-DIMENSIONAL SINGLE PLANE MODE"}, {"conceptId": "C130060", "definition": "An ultrasound imaging setting that reconstructs planar ultrasound data into three dimensional images of the structure being scanned.", "preferredTerm": "3-Dimensional Ultrasound Mode", "submissionValue": "3-DIMENSIONAL MODE"}, {"conceptId": "C130061", "definition": "An ultrasound imaging setting that uses pulsed wave Doppler signals to depict tissue motion direction and velocity in color images that are superimposed over normal, 2-dimensional (2-D) images.", "preferredTerm": "Color Tissue Doppler Ultrasound Mode", "submissionValue": "COLOR TISSUE DOPPLER MODE", "synonyms": ["Color Flow Tissue Doppler Mode"]}, {"conceptId": "C130062", "definition": "An ultrasound imaging setting that uses Doppler signals that are continuously sent and received along a single line to measure both direction and velocity of blood flow.", "preferredTerm": "Continuous-Wave Doppler Ultrasound Mode", "submissionValue": "CONTINUOUS-WAVE DOPPLER MODE", "synonyms": ["CW Doppler", "Continuous Doppler Mode"]}, {"conceptId": "C130063", "definition": "An ultrasound imaging setting that uses a single ultrasound beam to provide high temporal resolution of tissue motion.", "preferredTerm": "M-Mode Ultrasound Mode", "submissionValue": "M-MODE", "synonyms": ["Motion Mode"]}, {"conceptId": "C130064", "definition": "An ultrasound imaging setting that uses intermittent Doppler signals to measure both direction and velocity of blood flow.", "preferredTerm": "Pulsed-Wave Doppler Ultrasound Mode", "submissionValue": "PULSED-WAVE DOPPLER MODE", "synonyms": ["PW Doppler", "Pulsed Doppler Mode"]}, {"conceptId": "C130065", "definition": "An ultrasound imaging setting that uses pulsed wave Doppler signals to measure velocity of tissue movement.", "preferredTerm": "Pulsed-Wave Tissue Doppler Ultrasound Mode", "submissionValue": "PULSED-WAVE TISSUE DOPPLER MODE", "synonyms": ["Pulsed Tissue Doppler Mode"]}, {"conceptId": "C130066", "definition": "An ultrasound imaging setting that uses intermittent Doppler signals to measure velocity of tissue movement.", "preferredTerm": "Tissue Doppler Ultrasound Mode", "submissionValue": "TISSUE DOPPLER MODE"}]}