{"_links": {"parentPackage": {"href": "/mdr/ct/packages/sdtmct-2018-06-29", "title": "SDTM Controlled Terminology Package 34 Effective 2018-06-29", "type": "Terminology"}, "priorVersion": {"href": "/mdr/ct/packages/sdtmct-2018-03-30/codelists/C130258", "title": "CDISC Questionnaire HAM-D6 Self-Report Version Test Name Terminology", "type": "Code List"}, "rootItem": {"href": "/mdr/root/ct/sdtmct/codelists/C130258", "title": "Version-agnostic anchor resource for codelist C130258", "type": "Root Value Domain"}, "self": {"href": "/mdr/ct/packages/sdtmct-2018-06-29/codelists/C130258", "title": "CDISC Questionnaire HAM-D6 Self-Report Version Test Name Terminology", "type": "Code List"}}, "conceptId": "C130258", "definition": "Hamilton Depression Rating Scale - 6 Self-Report test name.", "extensible": "false", "name": "Hamilton Depression Rating Scale - 6 Self-Report Questionnaire Test Name", "preferredTerm": "CDISC Questionnaire HAM-D6 Self-Report Version Test Name Terminology", "submissionValue": "HAMDS1TN", "synonyms": ["Hamilton Depression Rating Scale - 6 Self-Report Questionnaire Test Name"], "terms": [{"conceptId": "C130545", "definition": "Hamilton Depression Rating Scale 6 - Self-Report Version - (1)=Depressed mood per clinician version: How you have been feeling over the past three days, including today.", "preferredTerm": "HAM-D6 Self-Report Version - Depressed Mood", "submissionValue": "HAMDS1-Depressed Mood", "synonyms": ["HAMDS1-Depressed Mood"]}, {"conceptId": "C130546", "definition": "Hamilton Depression Rating Scale 6 - Self-Report Version - (2)=Low self-esteem and guilt per clinician version: How you have been feeling over the past three days, including today.", "preferredTerm": "HAM-D6 Self-Report Version - Low Self-esteem and Guilt", "submissionValue": "HAMDS1-Low Self-esteem and Guilt", "synonyms": ["HAMDS1-Low Self-esteem and Guilt"]}, {"conceptId": "C130549", "definition": "Hamilton Depression Rating Scale 6 - Self-Report Version - (5)=Psychic anxiety per clinician version: How you have been feeling over the past three days, including today.", "preferredTerm": "HAM-D6 Self-Report Version - Psychic Anxiety", "submissionValue": "HAMDS1-Psychic Anxiety", "synonyms": ["HAMDS1-Psychic Anxiety"]}, {"conceptId": "C130548", "definition": "Hamilton Depression Rating Scale 6 - Self-Report Version - (4)=Psychomotor retardation, general per clinician version: How you have been feeling over the past three days, including today.", "preferredTerm": "HAM-D6 Self-Report Version - Psychomotor Retardation", "submissionValue": "HAMDS1-Psychomotor Retardation, General", "synonyms": ["HAMDS1-Psychomotor Retardation, General"]}, {"conceptId": "C130547", "definition": "Hamilton Depression Rating Scale 6 - Self-Report Version - (3)=Social life activities and interests per clinician version: How you have been feeling over the past three days, including today.", "preferredTerm": "HAM-D6 Self-Report Version - Social Life Activities or Interests", "submissionValue": "HAMDS1-Social Life Activities/Interests", "synonyms": ["HAMDS1-Social Life Activities/Interests"]}, {"conceptId": "C130550", "definition": "Hamilton Depression Rating Scale 6 - Self-Report Version - (6)=Tiredness and pains per clinician version: How you have been feeling over the past three days, including today.", "preferredTerm": "HAM-D6 Self-Report Version - Tiredness and Pains", "submissionValue": "HAMDS1-Tiredness and Pains", "synonyms": ["HAMDS1-Tiredness and Pains"]}]}