{"_links": {"parentPackage": {"href": "/mdr/ct/packages/sdtmct-2018-06-29", "title": "SDTM Controlled Terminology Package 34 Effective 2018-06-29", "type": "Terminology"}, "priorVersion": {"href": "/mdr/ct/packages/sdtmct-2018-03-30/codelists/C130262", "title": "CDISC Questionnaire QIDS-SR Test Name Terminology", "type": "Code List"}, "rootItem": {"href": "/mdr/root/ct/sdtmct/codelists/C130262", "title": "Version-agnostic anchor resource for codelist C130262", "type": "Root Value Domain"}, "self": {"href": "/mdr/ct/packages/sdtmct-2018-06-29/codelists/C130262", "title": "CDISC Questionnaire QIDS-SR Test Name Terminology", "type": "Code List"}}, "conceptId": "C130262", "definition": "Quick Inventory of Depressive Symptomatology Self-Report Version test name.", "extensible": "false", "name": "Quick Inventory of Depressive Symptomatology Self-Report Version Questionnaire Test Name", "preferredTerm": "CDISC Questionnaire QIDS-SR Test Name Terminology", "submissionValue": "QIDSR1TN", "synonyms": ["Quick Inventory of Depressive Symptomatology Self-Report Version Questionnaire Test Name"], "terms": [{"conceptId": "C130593", "definition": "Quick Inventory of Depressive Symptomatology - Self-Report - Please circle the one response to each item that best describes you for the past seven days: Concentration/decision making.", "preferredTerm": "QIDS-SR - Concentration or Decision Making", "submissionValue": "QIDSR1-Concentration/Decision Making", "synonyms": ["QIDSR1-Concentration/Decision Making"]}, {"conceptId": "C130589", "definition": "Quick Inventory of Depressive Symptomatology - Self-Report - Please circle the one response to each item that best describes you for the past seven days: Decreased appetite.", "preferredTerm": "QIDS-SR - Decreased Appetite", "submissionValue": "QIDSR1-Decreased Appetite", "synonyms": ["QIDSR1-Decreased Appetite"]}, {"conceptId": "C130591", "definition": "Quick Inventory of Depressive Symptomatology - Self-Report - Please circle the one response to each item that best describes you for the past seven days: within the last two weeks: Decreased weight.", "preferredTerm": "QIDS-SR - Decreased Weight", "submissionValue": "QIDSR1-Decreased Weight", "synonyms": ["QIDSR1-Decreased Weight"]}, {"conceptId": "C130597", "definition": "Quick Inventory of Depressive Symptomatology - Self-Report - Please circle the one response to each item that best describes you for the past seven days: Energy level.", "preferredTerm": "QIDS-SR - Energy Level", "submissionValue": "QIDSR1-Energy Level", "synonyms": ["QIDSR1-Energy Level"]}, {"conceptId": "C130584", "definition": "Quick Inventory of Depressive Symptomatology - Self-Report - Please circle the one response to each item that best describes you for the past seven days: Falling asleep.", "preferredTerm": "QIDS-SR - Falling Asleep", "submissionValue": "QIDSR1-Falling Asleep", "synonyms": ["QIDSR1-Falling Asleep"]}, {"conceptId": "C130599", "definition": "Quick Inventory of Depressive Symptomatology - Self-Report - Please circle the one response to each item that best describes you for the past seven days: Feeling restless.", "preferredTerm": "QIDS-SR - Feeling Restless", "submissionValue": "QIDSR1-Feeling Restless", "synonyms": ["QIDSR1-Feeling Restless"]}, {"conceptId": "C130588", "definition": "Quick Inventory of Depressive Symptomatology - Self-Report - Please circle the one response to each item that best describes you for the past seven days: Feeling sad.", "preferredTerm": "QIDS-SR - Feeling Sad", "submissionValue": "QIDSR1-Feeling Sad", "synonyms": ["QIDSR1-Feeling Sad"]}, {"conceptId": "C130598", "definition": "Quick Inventory of Depressive Symptomatology - Self-Report - Please circle the one response to each item that best describes you for the past seven days: Feeling slowed down.", "preferredTerm": "QIDS-SR - Feeling Slowed Down", "submissionValue": "QIDSR1-Feeling Slowed Down", "synonyms": ["QIDSR1-Feeling Slowed Down"]}, {"conceptId": "C130596", "definition": "Quick Inventory of Depressive Symptomatology - Self-Report - Please circle the one response to each item that best describes you for the past seven days: General interest.", "preferredTerm": "QIDS-SR - General Interest", "submissionValue": "QIDSR1-General Interest", "synonyms": ["QIDSR1-General Interest"]}, {"conceptId": "C130601", "definition": "Quick Inventory of Depressive Symptomatology - Self-Report - Enter the highest score on any 1 of the 4 appetite/weight change items.", "preferredTerm": "QIDS-SR - High Score Appetite or Weight Items", "submissionValue": "QIDSR1-High Score Appetite/Weight Items", "synonyms": ["QIDSR1-High Score Appetite/Weight Items"]}, {"conceptId": "C130602", "definition": "Quick Inventory of Depressive Symptomatology - Self-Report - Enter the highest score on either of the 2 psychomotor items.", "preferredTerm": "QIDS-SR - Highest Score Psychomotor Items", "submissionValue": "QIDSR1-Highest Score Psychomotor Items", "synonyms": ["QIDSR1-Highest Score Psychomotor Items"]}, {"conceptId": "C130600", "definition": "Quick Inventory of Depressive Symptomatology - Self-Report - Enter the highest score on any 1 of the 4 sleep items.", "preferredTerm": "QIDS-SR - Highest Score Sleep Items", "submissionValue": "QIDSR1-Highest Score Sleep Items", "synonyms": ["QIDSR1-Highest Score Sleep Items"]}, {"conceptId": "C130590", "definition": "Quick Inventory of Depressive Symptomatology - Self-Report - Please circle the one response to each item that best describes you for the past seven days: Increased appetite.", "preferredTerm": "QIDS-SR - Increased Appetite", "submissionValue": "QIDSR1-Increased Appetite", "synonyms": ["QIDSR1-Increased Appetite"]}, {"conceptId": "C130592", "definition": "Quick Inventory of Depressive Symptomatology - Self-Report - Please circle the one response to each item that best describes you for the past seven days: within the last two weeks: Increased weight.", "preferredTerm": "QIDS-SR - Increased Weight", "submissionValue": "QIDSR1-Increased Weight", "synonyms": ["QIDSR1-Increased Weight"]}, {"conceptId": "C130585", "definition": "Quick Inventory of Depressive Symptomatology - Self-Report - Please circle the one response to each item that best describes you for the past seven days: Sleep during the night.", "preferredTerm": "QIDS-SR - Sleep During the Night", "submissionValue": "QIDSR1-Sleep During the Night", "synonyms": ["QIDSR1-Sleep During the Night"]}, {"conceptId": "C130587", "definition": "Quick Inventory of Depressive Symptomatology - Self-Report - Please circle the one response to each item that best describes you for the past seven days: Sleeping too much.", "preferredTerm": "QIDS-SR - Sleeping Too Much", "submissionValue": "QIDSR1-Sleeping Too Much", "synonyms": ["QIDSR1-Sleeping Too Much"]}, {"conceptId": "C130595", "definition": "Quick Inventory of Depressive Symptomatology - Self-Report - Please circle the one response to each item that best describes you for the past seven days: Thoughts of death or suicide.", "preferredTerm": "QIDS-SR - Thoughts of Death or Suicide", "submissionValue": "QIDSR1-Thoughts of Death or Suicide", "synonyms": ["QIDSR1-Thoughts of Death or Suicide"]}, {"conceptId": "C130603", "definition": "Quick Inventory of Depressive Symptomatology - Self-Report - Total score.", "preferredTerm": "QIDS-SR - Total Score", "submissionValue": "QIDSR1-Total Score", "synonyms": ["QIDSR1-Total Score"]}, {"conceptId": "C130594", "definition": "Quick Inventory of Depressive Symptomatology - Self-Report - Please circle the one response to each item that best describes you for the past seven days: View of myself.", "preferredTerm": "QIDS-SR - View of Myself", "submissionValue": "QIDSR1-View of Myself", "synonyms": ["QIDSR1-View of Myself"]}, {"conceptId": "C130586", "definition": "Quick Inventory of Depressive Symptomatology - Self-Report - Please circle the one response to each item that best describes you for the past seven days: Waking up too early.", "preferredTerm": "QIDS-SR - Waking Up Too Early", "submissionValue": "QIDSR1-Waking Up Too Early", "synonyms": ["QIDSR1-Waking Up Too Early"]}]}