{"_links": {"parentPackage": {"href": "/mdr/ct/packages/sdtmct-2018-06-29", "title": "SDTM Controlled Terminology Package 34 Effective 2018-06-29", "type": "Terminology"}, "priorVersion": {"href": "/mdr/ct/packages/sdtmct-2018-03-30/codelists/C132519", "title": "CDISC Questionnaire CES Test Code Terminology", "type": "Code List"}, "rootItem": {"href": "/mdr/root/ct/sdtmct/codelists/C132519", "title": "Version-agnostic anchor resource for codelist C132519", "type": "Root Value Domain"}, "self": {"href": "/mdr/ct/packages/sdtmct-2018-06-29/codelists/C132519", "title": "CDISC Questionnaire CES Test Code Terminology", "type": "Code List"}}, "conceptId": "C132519", "definition": "Combat Exposure Scale test code.", "extensible": "false", "name": "Combat Exposure Scale Questionnaire Test Code", "preferredTerm": "CDISC Questionnaire CES Test Code Terminology", "submissionValue": "CES01TC", "synonyms": ["Combat Exposure Scale Questionnaire Test Code"], "terms": [{"conceptId": "C132556", "definition": "Combat Exposure Scale - Did you ever go on combat patrols or have other dangerous duty?", "preferredTerm": "CES - Ever Combat Patrols or Dangerous Duty", "submissionValue": "CES0101", "synonyms": ["CES01-Ever Combat Patrols/Dangerous Duty"]}, {"conceptId": "C132557", "definition": "Combat Exposure Scale - Were you ever under enemy fire?", "preferredTerm": "CES - Were You Ever Under Enemy Fire", "submissionValue": "CES0102", "synonyms": ["CES01-Were You Ever Under Enemy Fire"]}, {"conceptId": "C132558", "definition": "Combat Exposure Scale - Were you ever surrounded by the enemy?", "preferredTerm": "CES - Ever Surrounded by the Enemy", "submissionValue": "CES0103", "synonyms": ["CES01-Ever Surrounded by the Enemy"]}, {"conceptId": "C132559", "definition": "Combat Exposure Scale - What percentage of the soldiers in your unit were killed (KIA), wounded or missing in action (MIA)?", "preferredTerm": "CES - Soldiers in Unit Killed (KIA), Wounded, Missing (MIA)", "submissionValue": "CES0104", "synonyms": ["CES01-Soldiers in Unit KIA, Wounded, MIA"]}, {"conceptId": "C132560", "definition": "Combat Exposure Scale - How often did you fire rounds at the enemy?", "preferredTerm": "CES - How Often Fire Rounds at Enemy", "submissionValue": "CES0105", "synonyms": ["CES01-How Often Fire Rounds at Enemy"]}, {"conceptId": "C132561", "definition": "Combat Exposure Scale - How often did you see someone hit by incoming or outgoing rounds?", "preferredTerm": "CES - See Someone Hit by Rounds", "submissionValue": "CES0106", "synonyms": ["CES01-See Someone Hit by Rounds"]}, {"conceptId": "C132562", "definition": "Combat Exposure Scale - How often were you in danger of being injured or killed (i.e., being pinned down, overrun, ambushed, near miss, etc.)?", "preferredTerm": "CES - In Danger of Being Injured or Killed", "submissionValue": "CES0107", "synonyms": ["CES01-In Danger of Being Injured/Killed"]}]}