{"_links": {"parentPackage": {"href": "/mdr/ct/packages/adamct-2019-03-29", "title": "ADaM Controlled Terminology Package 37 Effective 2019-03-29", "type": "Terminology"}, "priorVersion": {"href": "/mdr/ct/packages/adamct-2018-12-21/codelists/C117744", "title": "CDISC ADaM Analysis Reason Terminology", "type": "Code List"}, "rootItem": {"href": "/mdr/root/ct/adamct/codelists/C117744", "title": "Version-agnostic anchor resource for codelist C117744", "type": "Root Value Domain"}, "self": {"href": "/mdr/ct/packages/adamct-2019-03-29/codelists/C117744", "title": "CDISC ADaM Analysis Reason Terminology", "type": "Code List"}}, "conceptId": "C117744", "definition": "Reason for reporting a specific analysis result described in ADaM analysis results metadata.", "extensible": "true", "name": "Analysis Reason", "preferredTerm": "CDISC ADaM Analysis Reason Terminology", "submissionValue": "ANLREAS", "synonyms": ["Analysis Reason"], "terms": [{"conceptId": "C117750", "definition": "The analysis was triggered by findings in the data.", "preferredTerm": "Data Driven Analysis", "submissionValue": "DATA DRIVEN"}, {"conceptId": "C117751", "definition": "The analysis has been requested by a regulatory agency.", "preferredTerm": "Analysis Requested by Regulatory Agency", "submissionValue": "REQUESTED BY REGULATORY AGENCY"}, {"conceptId": "C117752", "definition": "The analysis is specified in a protocol.", "preferredTerm": "Analysis Specified in Protocol", "submissionValue": "SPECIFIED IN PROTOCOL"}, {"conceptId": "C117753", "definition": "The analysis is specified in a statistical analysis plan.", "preferredTerm": "Analysis Specified in Statistical Analysis Plan", "submissionValue": "SPECIFIED IN SAP"}]}