{"_links": {"parentPackage": {"href": "/mdr/ct/packages/cdashct-2019-06-28", "title": "CDASH Controlled Terminology Package 38 Effective 2019-06-28", "type": "Terminology"}, "priorVersion": {"href": "/mdr/ct/packages/cdashct-2019-03-29/codelists/C128689", "title": "CDISC SDTM Collected Race Terminology", "type": "Code List"}, "rootItem": {"href": "/mdr/root/ct/cdashct/codelists/C128689", "title": "Version-agnostic anchor resource for codelist C128689", "type": "Root Value Domain"}, "self": {"href": "/mdr/ct/packages/cdashct-2019-06-28/codelists/C128689", "title": "CDISC SDTM Collected Race Terminology", "type": "Code List"}}, "conceptId": "C128689", "definition": "A terminology codelist relevant to the race of an individual as collected on the case report form.", "extensible": "true", "name": "Race As Collected", "preferredTerm": "CDISC SDTM Collected Race Terminology", "submissionValue": "RACEC", "synonyms": ["Race As Collected"], "terms": [{"conceptId": "C154875", "definition": "The native people of Australia.", "preferredTerm": "Aboriginal Australian", "submissionValue": "ABORIGINAL AUSTRALIAN"}, {"conceptId": "C42331", "definition": "A person having origins in any of the original peoples of sub-Saharan Africa.", "preferredTerm": "African", "submissionValue": "AFRICAN"}, {"conceptId": "C128937", "definition": "A person having origins in the original peoples of sub-Saharan Africa and the United States.", "preferredTerm": "African American", "submissionValue": "AFRICAN AMERICAN"}, {"conceptId": "C41226", "definition": "A person having origins in the original peoples of sub-Saharan Africa and the Caribbean.", "preferredTerm": "African Caribbean", "submissionValue": "AFRICAN CARIBBEAN"}, {"conceptId": "C18237", "definition": "The native people of Alaska.", "preferredTerm": "Alaska Native", "submissionValue": "ALASKA NATIVE"}, {"conceptId": "C43877", "definition": "The native people of North America.", "preferredTerm": "American Indian", "submissionValue": "AMERICAN INDIAN"}, {"conceptId": "C41259", "definition": "A person having origins in any of the original peoples of North and South America (including Central America), and who maintains tribal affiliation or community attachment. (FDA)", "preferredTerm": "American Indian or Alaska Native", "submissionValue": "AMERICAN INDIAN OR ALASKA NATIVE"}, {"conceptId": "C43876", "definition": "A person having origins in any of the original peoples of the Arabian peninsula and surrounding territories in the Middle East and northern Africa.", "preferredTerm": "Arab", "submissionValue": "ARAB"}, {"conceptId": "C41260", "definition": "A person having origins in any of the original peoples of the Far East, Southeast Asia, or the Indian subcontinent including, for example, Cambodia, China, India, Japan, Korea, Malaysia, Pakistan, the Philippine Islands, Thailand, and Vietnam. (FDA)", "preferredTerm": "Asian", "submissionValue": "ASIAN"}, {"conceptId": "C16310", "definition": "A person having origins in the original peoples of Asia and the United States.", "preferredTerm": "Asian American", "submissionValue": "ASIAN AMERICAN"}, {"conceptId": "C41262", "definition": "A person having origins in any of the original peoples of the Indian subcontinent.", "preferredTerm": "Asian Indian", "submissionValue": "ASIAN INDIAN"}, {"conceptId": "C67271", "definition": "A person having origins in any of the original peoples of the Bahamas.", "preferredTerm": "Bahamian", "submissionValue": "BAHAMIAN"}, {"conceptId": "C43671", "definition": "A person having origins in any of the original peoples of Bangladesh.", "preferredTerm": "Bangladeshi", "submissionValue": "BANGLADESHI"}, {"conceptId": "C43823", "definition": "A person having origins in any of the original peoples of Barbados.", "preferredTerm": "Barbadian", "submissionValue": "BARBADIAN"}, {"conceptId": "C43673", "definition": "A person having origins in any of the original peoples of Bhutan.", "preferredTerm": "Bhutanese", "submissionValue": "BHUTANESE"}, {"conceptId": "C128938", "definition": "A person having origins in the original peoples of sub-Saharan Africa or the Caribbean.", "preferredTerm": "Black", "submissionValue": "BLACK"}, {"conceptId": "C128991", "definition": "A person having origins in the original peoples of sub-Saharan Africa and Central America.", "preferredTerm": "Black Central American", "submissionValue": "BLACK CENTRAL AMERICAN"}, {"conceptId": "C16352", "definition": "A person having origins in any of the black racial groups of Africa. Terms such as \"Haitian\" or \"Negro\" can be used in addition to \"Black or African American.\" (FDA)", "preferredTerm": "Black or African American", "submissionValue": "BLACK OR AFRICAN AMERICAN"}, {"conceptId": "C128992", "definition": "A person having origins in the original peoples of sub-Saharan Africa and South America.", "preferredTerm": "Black South American", "submissionValue": "BLACK SOUTH AMERICAN"}, {"conceptId": "C43830", "definition": "A person having origins in any of the original peoples of Botswana.", "preferredTerm": "Botswanan", "submissionValue": "BOTSWANAN"}, {"conceptId": "C43674", "definition": "A person having origins in any of the original peoples of Myanmar (formerly Burma).", "preferredTerm": "Burmese", "submissionValue": "BURMESE"}, {"conceptId": "C43399", "definition": "A person having origins in any of the original peoples of Cambodia (formerly Kampuchea).", "preferredTerm": "Cambodian", "submissionValue": "CAMBODIAN"}, {"conceptId": "C77810", "definition": "The native people of the Caribbean.", "preferredTerm": "Caribbean Indian", "submissionValue": "CARIBBEAN INDIAN"}, {"conceptId": "C44950", "definition": "The native people of Central America.", "preferredTerm": "Central American Indian", "submissionValue": "CENTRAL AMERICAN INDIAN"}, {"conceptId": "C126534", "definition": "A person having origins in any of the original peoples of Central Asia.", "preferredTerm": "Central Asian", "submissionValue": "CENTRAL ASIAN"}, {"conceptId": "C43391", "definition": "A person having origins in any of the original peoples of China.", "preferredTerm": "Chinese", "submissionValue": "CHINESE"}, {"conceptId": "C43824", "definition": "A person having origins in any of the original peoples of Dominica.", "preferredTerm": "Dominica Islander", "submissionValue": "DOMINICA ISLANDER"}, {"conceptId": "C67117", "definition": "A person having origins in any of the original peoples of the Dominican Republic.", "preferredTerm": "Dominican", "submissionValue": "DOMINICAN"}, {"conceptId": "C161419", "definition": "A person having origins in any of the original peoples of East Asia.", "preferredTerm": "East Asian", "submissionValue": "EAST ASIAN"}, {"conceptId": "C77819", "definition": "A person having origins in any of the original peoples of Eastern Europe.", "preferredTerm": "Eastern European", "submissionValue": "EASTERN EUROPEAN"}, {"conceptId": "C43831", "definition": "A person having origins in any of the original peoples of Ethiopia.", "preferredTerm": "Ethiopian", "submissionValue": "ETHIOPIAN"}, {"conceptId": "C43851", "definition": "A person having origins in any of the original peoples of Europe.", "preferredTerm": "European", "submissionValue": "EUROPEAN"}, {"conceptId": "C43393", "definition": "A person having origins in any of the original peoples of the Philippines.", "preferredTerm": "Filipino", "submissionValue": "FILIPINO"}, {"conceptId": "C44265", "definition": "The native people of Greenland.", "preferredTerm": "Greenland Eskimo", "submissionValue": "GREENLAND INUIT"}, {"conceptId": "C43825", "definition": "A person having origins in any of the original peoples of Haiti.", "preferredTerm": "Haitian", "submissionValue": "HAITIAN"}, {"conceptId": "C43398", "definition": "The native people originating in China around the Yellow River or Hoang Ho.", "preferredTerm": "Hmong", "submissionValue": "HMONG"}, {"conceptId": "C43715", "definition": "A person having origins in any of the original peoples of Indonesia.", "preferredTerm": "Indonesian", "submissionValue": "INDONESIAN"}, {"conceptId": "C44268", "definition": "The native people inhabiting the territory spanning the Norton Sound on the Bering Sea to the Canadian border.", "preferredTerm": "Inupiat Eskimo", "submissionValue": "INUPIAT INUIT"}, {"conceptId": "C43718", "definition": "A person having origins in any of the original peoples of Iwo Jima.", "preferredTerm": "Iwo Jiman", "submissionValue": "IWO JIMAN"}, {"conceptId": "C43826", "definition": "A person having origins in any of the original peoples of Jamaica.", "preferredTerm": "Jamaican", "submissionValue": "JAMAICAN"}, {"conceptId": "C43392", "definition": "A person having origins in any of the original peoples of Japan.", "preferredTerm": "Japanese", "submissionValue": "JAPANESE"}, {"conceptId": "C154874", "definition": "The native people of the Western Cape in southern Africa.", "preferredTerm": "Khoisan", "submissionValue": "KHOISAN"}, {"conceptId": "C43395", "definition": "A person having origins in any of the original peoples of North and South Korea.", "preferredTerm": "Korean", "submissionValue": "KOREAN"}, {"conceptId": "C43397", "definition": "A person having origins in any of the original peoples of Laos.", "preferredTerm": "Laotian", "submissionValue": "LAOTIAN"}, {"conceptId": "C43832", "definition": "A person having origins in any of the original peoples of Liberia.", "preferredTerm": "Liberian", "submissionValue": "LIBERIAN"}, {"conceptId": "C43722", "definition": "A person having origins in any of the original peoples of Madagascar.", "preferredTerm": "Malagasy", "submissionValue": "MALAGASY"}, {"conceptId": "C43716", "definition": "A person having origins in any of the original peoples of Malaysia.", "preferredTerm": "Malaysian", "submissionValue": "MALAYSIAN"}, {"conceptId": "C43719", "definition": "A person having origins in any of the original peoples of the Maldives.", "preferredTerm": "Maldivian", "submissionValue": "MALDIVIAN"}, {"conceptId": "C158274", "definition": "The native people of New Zealand.", "preferredTerm": "Maori", "submissionValue": "MAORI"}, {"conceptId": "C77811", "definition": "A person having origins in any of the original peoples of the countries surrounding the Mediterranean sea.", "preferredTerm": "Mediterranean", "submissionValue": "MEDITERRANEAN"}, {"conceptId": "C43409", "definition": "A person having origins in any of the original peoples of Melanesia.", "preferredTerm": "Melanesian", "submissionValue": "MELANESIAN"}, {"conceptId": "C43402", "definition": "A person having origins in any of the original peoples of Micronesia.", "preferredTerm": "Micronesian", "submissionValue": "MICRONESIAN"}, {"conceptId": "C77820", "definition": "A person having origins in any of the original peoples of the Middle East.", "preferredTerm": "Middle Eastern", "submissionValue": "MIDDLE EASTERN"}, {"conceptId": "C43864", "definition": "A person having origins in any of the original peoples of Mongolia.", "preferredTerm": "Mongolian", "submissionValue": "MONGOLIAN"}, {"conceptId": "C43833", "definition": "A person having origins in any of the original peoples of Namibia.", "preferredTerm": "Namibian", "submissionValue": "NAMIBIAN"}, {"conceptId": "C41219", "definition": "Denotes a person having origins in any of the original peoples of Hawaii, Guam, Samoa, or other Pacific Islands. The term covers particularly people who identify themselves as part-Hawaiian, Native Hawaiian, Guamanian or Chamorro, Carolinian, Samoan, Chuu. (FDA)", "preferredTerm": "Native Hawaiian or Other Pacific Islander", "submissionValue": "NATIVE HAWAIIAN OR OTHER PACIFIC ISLANDER"}, {"conceptId": "C43720", "definition": "A person having origins in any of the original peoples of Nepal.", "preferredTerm": "Nepalese", "submissionValue": "NEPALESE"}, {"conceptId": "C43834", "definition": "A person having origins in any of the original peoples of Nigeria.", "preferredTerm": "Nigerian", "submissionValue": "NIGERIAN"}, {"conceptId": "C77813", "definition": "A person having origins in any of the original peoples of North Africa.", "preferredTerm": "North Coast of Africa", "submissionValue": "NORTH AFRICAN"}, {"conceptId": "C77814", "definition": "A person having origins in any of the original peoples of Northern Europe.", "preferredTerm": "Northern European", "submissionValue": "NORTHERN EUROPEAN"}, {"conceptId": "C43234", "definition": "Not provided or available.", "preferredTerm": "Not Reported", "submissionValue": "NOT REPORTED", "synonyms": ["Not reported"]}, {"conceptId": "C43717", "definition": "A person having origins in any of the original peoples of Okinawa.", "preferredTerm": "Okinawan", "submissionValue": "OKINAWAN"}, {"conceptId": "C43427", "definition": "A person having origins in any of the original peoples of Pakistan.", "preferredTerm": "Pakistani", "submissionValue": "PAKISTANI"}, {"conceptId": "C43405", "definition": "A person having origins in any of the original peoples of Polynesia.", "preferredTerm": "Polynesian", "submissionValue": "POLYNESIAN"}, {"conceptId": "C43860", "definition": "A person having origins in any of the original peoples of Russia.", "preferredTerm": "Russian", "submissionValue": "RUSSIAN"}, {"conceptId": "C44269", "definition": "The native Yupik people inhabiting the coast of the Chukchi Peninsula in the far northeast of the Russian Federation and on St. Lawrence Island in Alaska.", "preferredTerm": "Siberian Eskimo", "submissionValue": "SIBERIAN ESKIMO"}, {"conceptId": "C43721", "definition": "A person having origins in any of the original peoples of Singapore.", "preferredTerm": "Singaporean", "submissionValue": "SINGAPOREAN"}, {"conceptId": "C44953", "definition": "The native people of South America.", "preferredTerm": "South American Indian", "submissionValue": "SOUTH AMERICAN INDIAN"}, {"conceptId": "C41263", "definition": "A person having origins in any of the original peoples of the South Asia.", "preferredTerm": "South Asian", "submissionValue": "SOUTH ASIAN"}, {"conceptId": "C126533", "definition": "A person having origins in any of the original peoples of Southeast Asia.", "preferredTerm": "Southeast Asian", "submissionValue": "SOUTHEAST ASIAN"}, {"conceptId": "C156583", "definition": "A person of mixed race, whose ancestry is from one or more of the naturalized racial groups of Southern Africa (typically Western European, South Asian, or Southeastern Asian) and one or more of the indigenous Southern African peoples.", "preferredTerm": "Southern African Coloured", "submissionValue": "SOUTHERN AFRICAN COLOURED"}, {"conceptId": "C43672", "definition": "A person having origins in any of the original peoples of Sri Lanka.", "preferredTerm": "Sri Lankan", "submissionValue": "SRI LANKAN"}, {"conceptId": "C43675", "definition": "A person having origins in any of the original peoples of Taiwan.", "preferredTerm": "Taiwanese", "submissionValue": "TAIWANESE"}, {"conceptId": "C43400", "definition": "A person having origins in any of the original peoples of Thailand.", "preferredTerm": "Thai", "submissionValue": "THAI"}, {"conceptId": "C43827", "definition": "A person having origins in any of the original peoples of Tobago.", "preferredTerm": "Tobagoan", "submissionValue": "TOBAGOAN"}, {"conceptId": "C43828", "definition": "A person having origins in any of the original peoples of Trinidad.", "preferredTerm": "Trinidadian", "submissionValue": "TRINIDADIAN"}, {"conceptId": "C17998", "definition": "Not known, not observed, not recorded, or refused. (NCI)", "preferredTerm": "Unknown", "submissionValue": "UNKNOWN", "synonyms": ["U", "UNK", "Unknown"]}, {"conceptId": "C43396", "definition": "A person having origins in any of the original peoples of Viet Nam.", "preferredTerm": "Vietnamese", "submissionValue": "VIETNAMESE"}, {"conceptId": "C43829", "definition": "A person having origins in any of the original peoples of the West Indies.", "preferredTerm": "West Indian", "submissionValue": "WEST INDIAN"}, {"conceptId": "C77817", "definition": "A person having origins in any of the original peoples of Western Europe.", "preferredTerm": "Western European", "submissionValue": "WESTERN EUROPEAN"}, {"conceptId": "C41261", "definition": "Denotes a person with European, Middle Eastern, or North African ancestral origin who identifies, or is identified, as White. (FDA)", "preferredTerm": "White", "submissionValue": "WHITE"}, {"conceptId": "C77816", "definition": "A person having origins in the original peoples of Europe, the Middle East, or North Africa, and the Caribbean.", "preferredTerm": "White Caribbean", "submissionValue": "WHITE CARIBBEAN"}, {"conceptId": "C128993", "definition": "A person having origins in the original peoples of Europe, the Middle East, or North Africa, and Central America.", "preferredTerm": "White Central American", "submissionValue": "WHITE CENTRAL AMERICAN"}, {"conceptId": "C128994", "definition": "A person having origins in the original peoples of Europe, the Middle East, or North Africa, and South America.", "preferredTerm": "White South American", "submissionValue": "WHITE SOUTH AMERICAN"}, {"conceptId": "C44270", "definition": "The native people inhabiting western, southwestern, and southcentral Alaska and the Russian Far East.", "preferredTerm": "Yupik Eskimo", "submissionValue": "YUPIK ESKIMO"}, {"conceptId": "C43835", "definition": "A person having origins in any of the original peoples of Zaire.", "preferredTerm": "Zairean", "submissionValue": "ZAIREAN"}]}