{"_links": {"parentPackage": {"href": "/mdr/ct/packages/coact-2014-12-19", "title": "COA Controlled Terminology Package 20 Effective 2014-12-19", "type": "Terminology"}, "rootItem": {"href": "/mdr/root/ct/coact/codelists/C100170", "title": "Version-agnostic anchor resource for codelist C100170", "type": "Root Value Domain"}, "self": {"href": "/mdr/ct/packages/coact-2014-12-19/codelists/C100170", "title": "CDISC Questionnaire KPS Scale Test Code Terminology", "type": "Code List"}}, "conceptId": "C100170", "definition": "Karnofsky Performance Status Scale test code.", "extensible": "false", "name": "QS-Karnofsky Performance Status Scale Test Code", "preferredTerm": "CDISC Questionnaire KPS Scale Test Code Terminology", "submissionValue": "KPS Scale TESTCD", "synonyms": ["QS-Karnofsky Performance Status Scale Test Code"], "terms": [{"conceptId": "C100417", "definition": "Karnofsky Performance Status Scale - Karnofsky Performance Status.", "preferredTerm": "KPS Scale - Karnofsky Performance Status", "submissionValue": "KPSS01", "synonyms": ["KPSS-Karnofsky Performance Status"]}]}