{"_links": {"parentPackage": {"href": "/mdr/ct/packages/coact-2014-12-19", "title": "COA Controlled Terminology Package 20 Effective 2014-12-19", "type": "Terminology"}, "rootItem": {"href": "/mdr/root/ct/coact/codelists/C100169", "title": "Version-agnostic anchor resource for codelist C100169", "type": "Root Value Domain"}, "self": {"href": "/mdr/ct/packages/coact-2014-12-19/codelists/C100169", "title": "CDISC Questionnaire KPS Scale Test Name Terminology", "type": "Code List"}}, "conceptId": "C100169", "definition": "Karnofsky Performance Status Scale test name.", "extensible": "false", "name": "QS-Karnofsky Performance Status Scale Test Name", "preferredTerm": "CDISC Questionnaire KPS Scale Test Name Terminology", "submissionValue": "KPS Scale TEST", "synonyms": ["QS-Karnofsky Performance Status Scale Test Name"], "terms": [{"conceptId": "C100417", "definition": "Karnofsky Performance Status Scale - Karnofsky Performance Status.", "preferredTerm": "KPS Scale - Karnofsky Performance Status", "submissionValue": "KPSS-Karnofsky Performance Status", "synonyms": ["KPSS-Karnofsky Performance Status"]}]}