{"_links": {"parentPackage": {"href": "/mdr/ct/packages/coact-2014-12-19", "title": "COA Controlled Terminology Package 20 Effective 2014-12-19", "type": "Terminology"}, "rootItem": {"href": "/mdr/root/ct/coact/codelists/C100150", "title": "Version-agnostic anchor resource for codelist C100150", "type": "Root Value Domain"}, "self": {"href": "/mdr/ct/packages/coact-2014-12-19/codelists/C100150", "title": "CDISC Questionnaire CGI Test Code Terminology", "type": "Code List"}}, "conceptId": "C100150", "definition": "Clinical Global Impression test code.", "extensible": "false", "name": "QS-Clinical Global Impression Test Code", "preferredTerm": "CDISC Questionnaire CGI Test Code Terminology", "submissionValue": "CGI TESTCD", "synonyms": ["QS-Clinical Global Impression Test Code"], "terms": [{"conceptId": "C100955", "definition": "Clinical Global Impression - Considering your total clinical experience with this particular population, how mentally ill is the patient at this time?", "preferredTerm": "CGI - Severity of Illness", "submissionValue": "CGI0101", "synonyms": ["CGI01-Severity of Illness"]}, {"conceptId": "C100956", "definition": "Clinical Global Impression - Rate total improvement whether or not, in your judgment, it is due entirely to drug treatment. Compared to his condition at admission to the project, how much has he changed?", "preferredTerm": "CGI - Global Improvement", "submissionValue": "CGI0102", "synonyms": ["CGI01-Global Improvement"]}, {"conceptId": "C100957", "definition": "Clinical Global Impression - Rate this item on the basis of drug effect only. Select the terms which best describe the degrees of therapeutic effect and side effects and record the number in the box where the two items intersect.", "preferredTerm": "CGI - Efficacy Index", "submissionValue": "CGI0103", "synonyms": ["CGI01-Efficacy Index"]}]}