{"_links": {"parentPackage": {"href": "/mdr/ct/packages/coact-2014-12-19", "title": "COA Controlled Terminology Package 20 Effective 2014-12-19", "type": "Terminology"}, "rootItem": {"href": "/mdr/root/ct/coact/codelists/C100154", "title": "Version-agnostic anchor resource for codelist C100154", "type": "Root Value Domain"}, "self": {"href": "/mdr/ct/packages/coact-2014-12-19/codelists/C100154", "title": "CDISC Questionnaire FPSR Test Code Terminology", "type": "Code List"}}, "conceptId": "C100154", "definition": "Faces Pain Scale - Revised test code.", "extensible": "false", "name": "QS-Faces Pain Scale - Revised Test Code", "preferredTerm": "CDISC Questionnaire FPSR Test Code Terminology", "submissionValue": "FPSR TESTCD", "synonyms": ["QS-Faces Pain Scale - Revised Test Code"], "terms": [{"conceptId": "C101013", "definition": "Faces Pain Scale - Revised - Point to the face that shows how much you hurt [right now].", "preferredTerm": "FPSR - How Much do You Hurt", "submissionValue": "FPSR101", "synonyms": ["FPSR1-How Much do you Hurt"]}]}