{"_links": {"parentPackage": {"href": "/mdr/ct/packages/coact-2014-12-19", "title": "COA Controlled Terminology Package 20 Effective 2014-12-19", "type": "Terminology"}, "rootItem": {"href": "/mdr/root/ct/coact/codelists/C101831", "title": "Version-agnostic anchor resource for codelist C101831", "type": "Root Value Domain"}, "self": {"href": "/mdr/ct/packages/coact-2014-12-19/codelists/C101831", "title": "CDISC Questionnaire YMRS Test Name Terminology", "type": "Code List"}}, "conceptId": "C101831", "definition": "Young Mania Rating Scale test name.", "extensible": "false", "name": "QS-Young Mania Rating Scale Test Name", "preferredTerm": "CDISC Questionnaire YMRS Test Name Terminology", "submissionValue": "YMRS TEST", "synonyms": ["QS-Young Mania Rating Scale Test Name"], "terms": [{"conceptId": "C102242", "definition": "Young Mania Rating Scale - Appearance.", "preferredTerm": "YMRS - Appearance", "submissionValue": "YMRS01-Appearance", "synonyms": ["YMRS01-Appearance"]}, {"conceptId": "C102240", "definition": "Young Mania Rating Scale - Content.", "preferredTerm": "YMRS - Content", "submissionValue": "YMRS01-Content", "synonyms": ["YMRS01-Content"]}, {"conceptId": "C102241", "definition": "Young Mania Rating Scale - Disruptive-Aggressive Behaviour.", "preferredTerm": "YMRS - Disruptive-Aggressive Behaviour", "submissionValue": "YMRS01-Disruptive-Aggressive Behaviour", "synonyms": ["YMRS01-Disruptive-Aggressive Behaviour"]}, {"conceptId": "C102233", "definition": "Young Mania Rating Scale - Elevated Mood.", "preferredTerm": "YMRS - Elevated Mood", "submissionValue": "YMRS01-Elevated Mood", "synonyms": ["YMRS01-Elevated Mood"]}, {"conceptId": "C102234", "definition": "Young Mania Rating Scale - Increased Motor Activity-Energy.", "preferredTerm": "YMRS - Increased Motor Activity-Energy", "submissionValue": "YMRS01-Increased Motor Activity-Energy", "synonyms": ["YMRS01-Increased Motor Activity-Energy"]}, {"conceptId": "C102243", "definition": "Young Mania Rating Scale - Insight.", "preferredTerm": "YMRS - Insight", "submissionValue": "YMRS01-Insight", "synonyms": ["YMRS01-Insight"]}, {"conceptId": "C102237", "definition": "Young Mania Rating Scale - Irritability.", "preferredTerm": "YMRS - Irritability", "submissionValue": "YMRS01-Irritability", "synonyms": ["YMRS01-Irritability"]}, {"conceptId": "C102239", "definition": "Young Mania Rating Scale - Language-Thought Disorder.", "preferredTerm": "YMRS - Language-Thought Disorder", "submissionValue": "YMRS01-Language-Thought Disorder", "synonyms": ["YMRS01-Language-Thought Disorder"]}, {"conceptId": "C102235", "definition": "Young Mania Rating Scale - Sexual Interest.", "preferredTerm": "YMRS - Sexual Interest", "submissionValue": "YMRS01-Sexual Interest", "synonyms": ["YMRS01-Sexual Interest"]}, {"conceptId": "C102236", "definition": "Young Mania Rating Scale - Sleep.", "preferredTerm": "YMRS - Sleep", "submissionValue": "YMRS01-Sleep", "synonyms": ["YMRS01-Sleep"]}, {"conceptId": "C102238", "definition": "Young Mania Rating Scale - Speech (Rate and Amount).", "preferredTerm": "YMRS - Speech (Rate and Amount)", "submissionValue": "YMRS01-Speech (Rate and Amount)", "synonyms": ["YMRS01-Speech (Rate and Amount)"]}]}