{"_links": {"parentPackage": {"href": "/mdr/ct/packages/coact-2014-12-19", "title": "COA Controlled Terminology Package 20 Effective 2014-12-19", "type": "Terminology"}, "rootItem": {"href": "/mdr/root/ct/coact/codelists/C101830", "title": "Version-agnostic anchor resource for codelist C101830", "type": "Root Value Domain"}, "self": {"href": "/mdr/ct/packages/coact-2014-12-19/codelists/C101830", "title": "CDISC Questionnaire YMRS Test Code Terminology", "type": "Code List"}}, "conceptId": "C101830", "definition": "Young Mania Rating Scale test code.", "extensible": "false", "name": "QS-Young Mania Rating Scale Test Code", "preferredTerm": "CDISC Questionnaire YMRS Test Code Terminology", "submissionValue": "YMRS TESTCD", "synonyms": ["QS-Young Mania Rating Scale Test Code"], "terms": [{"conceptId": "C102233", "definition": "Young Mania Rating Scale - Elevated Mood.", "preferredTerm": "YMRS - Elevated Mood", "submissionValue": "YMRS0101", "synonyms": ["YMRS01-Elevated Mood"]}, {"conceptId": "C102234", "definition": "Young Mania Rating Scale - Increased Motor Activity-Energy.", "preferredTerm": "YMRS - Increased Motor Activity-Energy", "submissionValue": "YMRS0102", "synonyms": ["YMRS01-Increased Motor Activity-Energy"]}, {"conceptId": "C102235", "definition": "Young Mania Rating Scale - Sexual Interest.", "preferredTerm": "YMRS - Sexual Interest", "submissionValue": "YMRS0103", "synonyms": ["YMRS01-Sexual Interest"]}, {"conceptId": "C102236", "definition": "Young Mania Rating Scale - Sleep.", "preferredTerm": "YMRS - Sleep", "submissionValue": "YMRS0104", "synonyms": ["YMRS01-Sleep"]}, {"conceptId": "C102237", "definition": "Young Mania Rating Scale - Irritability.", "preferredTerm": "YMRS - Irritability", "submissionValue": "YMRS0105", "synonyms": ["YMRS01-Irritability"]}, {"conceptId": "C102238", "definition": "Young Mania Rating Scale - Speech (Rate and Amount).", "preferredTerm": "YMRS - Speech (Rate and Amount)", "submissionValue": "YMRS0106", "synonyms": ["YMRS01-Speech (Rate and Amount)"]}, {"conceptId": "C102239", "definition": "Young Mania Rating Scale - Language-Thought Disorder.", "preferredTerm": "YMRS - Language-Thought Disorder", "submissionValue": "YMRS0107", "synonyms": ["YMRS01-Language-Thought Disorder"]}, {"conceptId": "C102240", "definition": "Young Mania Rating Scale - Content.", "preferredTerm": "YMRS - Content", "submissionValue": "YMRS0108", "synonyms": ["YMRS01-Content"]}, {"conceptId": "C102241", "definition": "Young Mania Rating Scale - Disruptive-Aggressive Behaviour.", "preferredTerm": "YMRS - Disruptive-Aggressive Behaviour", "submissionValue": "YMRS0109", "synonyms": ["YMRS01-Disruptive-Aggressive Behaviour"]}, {"conceptId": "C102242", "definition": "Young Mania Rating Scale - Appearance.", "preferredTerm": "YMRS - Appearance", "submissionValue": "YMRS0110", "synonyms": ["YMRS01-Appearance"]}, {"conceptId": "C102243", "definition": "Young Mania Rating Scale - Insight.", "preferredTerm": "YMRS - Insight", "submissionValue": "YMRS0111", "synonyms": ["YMRS01-Insight"]}]}