{"_links": {"parentPackage": {"href": "/mdr/ct/packages/coact-2014-12-19", "title": "COA Controlled Terminology Package 20 Effective 2014-12-19", "type": "Terminology"}, "rootItem": {"href": "/mdr/root/ct/coact/codelists/C103459", "title": "Version-agnostic anchor resource for codelist C103459", "type": "Root Value Domain"}, "self": {"href": "/mdr/ct/packages/coact-2014-12-19/codelists/C103459", "title": "CDISC Questionnaire ADCS-CGIC Test Code Terminology", "type": "Code List"}}, "conceptId": "C103459", "definition": "Alzheimer's Disease Cooperative Study-Clinical Global Impression of Change test code.", "extensible": "false", "name": "QS-Alzheimer's Disease Cooperative Study-Clinical Global Impression of Change Questionnaire Test Code", "preferredTerm": "CDISC Questionnaire ADCS-CGIC Test Code Terminology", "submissionValue": "ADCS-CGIC TESTCD", "synonyms": ["QS-Alzheimer's Disease Cooperative Study-Clinical Global Impression of Change Questionnaire Test Code"], "terms": [{"conceptId": "C103531", "definition": "Alzheimer's Disease Cooperative Study-Clinical Global Impression of Change - Clinical impression of change from baseline.", "preferredTerm": "ADCS-CGIC - Clinical Impression of Change from Baseline", "submissionValue": "ACGC0101", "synonyms": ["ACGC01-Clinical Impression of Change"]}]}