{"_links": {"parentPackage": {"href": "/mdr/ct/packages/coact-2014-12-19", "title": "COA Controlled Terminology Package 20 Effective 2014-12-19", "type": "Terminology"}, "rootItem": {"href": "/mdr/root/ct/coact/codelists/C103486", "title": "Version-agnostic anchor resource for codelist C103486", "type": "Root Value Domain"}, "self": {"href": "/mdr/ct/packages/coact-2014-12-19/codelists/C103486", "title": "CDISC Questionnaire SOWS Short Test Name Terminology", "type": "Code List"}}, "conceptId": "C103486", "definition": "Short Opiate Withdrawal Scale test name.", "extensible": "false", "name": "QS-Short Opiate Withdrawal Scale Questionnaire Test Name", "preferredTerm": "CDISC Questionnaire SOWS Short Test Name Terminology", "submissionValue": "SOWS Short TEST", "synonyms": ["QS-Short Opiate Withdrawal Scale Questionnaire Test Name"], "terms": [{"conceptId": "C103757", "definition": "Short Opiate Withdrawal Scale - Aches and pains.", "preferredTerm": "SOWS Short - Aches and Pains", "submissionValue": "SOWSB1-Aches and Pains", "synonyms": ["SOWSB1-Aches and Pains"]}, {"conceptId": "C103751", "definition": "Short Opiate Withdrawal Scale - Feeling sick.", "preferredTerm": "SOWS Short - Feeling Sick", "submissionValue": "SOWSB1-Feeling Sick", "synonyms": ["SOWSB1-Feeling Sick"]}, {"conceptId": "C103754", "definition": "Short Opiate Withdrawal Scale - Feelings of coldness.", "preferredTerm": "SOWS Short - Feelings of Coldness", "submissionValue": "SOWSB1-Feelings of Coldness", "synonyms": ["SOWSB1-Feelings of Coldness"]}, {"conceptId": "C103755", "definition": "Short Opiate Withdrawal Scale - Heart pounding.", "preferredTerm": "SOWS Short - Heart Pounding", "submissionValue": "SOWSB1-Heart Pounding", "synonyms": ["SOWSB1-Heart Pounding"]}, {"conceptId": "C103760", "definition": "Short Opiate Withdrawal Scale - Insomnia/problems sleeping.", "preferredTerm": "SOWS Short - Insomnia/Problems Sleeping", "submissionValue": "SOWSB1-Insomnia/Problems Sleeping", "synonyms": ["SOWSB1-Insomnia/Problems Sleeping"]}, {"conceptId": "C103753", "definition": "Short Opiate Withdrawal Scale - Muscle spasms/twitching.", "preferredTerm": "SOWS Short - Muscle Spasms/Twitching", "submissionValue": "SOWSB1-Muscle Spasms/Twitching", "synonyms": ["SOWSB1-Muscle Spasms/Twitching"]}, {"conceptId": "C103756", "definition": "Short Opiate Withdrawal Scale - Muscular tension.", "preferredTerm": "SOWS Short - Muscular Tension", "submissionValue": "SOWSB1-Muscular Tension", "synonyms": ["SOWSB1-Muscular Tension"]}, {"conceptId": "C103759", "definition": "Short Opiate Withdrawal Scale - Runny eyes.", "preferredTerm": "SOWS Short - Runny Eyes", "submissionValue": "SOWSB1-Runny Eyes", "synonyms": ["SOWSB1-Runny Eyes"]}, {"conceptId": "C103752", "definition": "Short Opiate Withdrawal Scale - Stomach cramps.", "preferredTerm": "SOWS Short - Stomach Cramps", "submissionValue": "SOWSB1-Stomach Cramps", "synonyms": ["SOWSB1-Stomach Cramps"]}, {"conceptId": "C103758", "definition": "Short Opiate Withdrawal Scale - Yawning.", "preferredTerm": "SOWS Short - Yawning", "submissionValue": "SOWSB1-Yawning", "synonyms": ["SOWSB1-Yawning"]}]}