{"_links": {"parentPackage": {"href": "/mdr/ct/packages/coact-2014-12-19", "title": "COA Controlled Terminology Package 20 Effective 2014-12-19", "type": "Terminology"}, "rootItem": {"href": "/mdr/root/ct/coact/codelists/C105137", "title": "Version-agnostic anchor resource for codelist C105137", "type": "Root Value Domain"}, "self": {"href": "/mdr/ct/packages/coact-2014-12-19/codelists/C105137", "title": "CDISC Questionnaire GCGI v1 Test Name Terminology", "type": "Code List"}}, "conceptId": "C105137", "definition": "General Clinical Global Impressions test name.", "extensible": "false", "name": "QS-General Clinical Global Impressions Questionnaire Test Name", "preferredTerm": "CDISC Questionnaire GCGI v1 Test Name Terminology", "submissionValue": "GCGI TEST", "synonyms": ["QS-General Clinical Global Impressions Questionnaire Test Name"], "terms": [{"conceptId": "C105280", "definition": "General Clinical Global Impressions - Global disease status of pain.", "preferredTerm": "GCGI - Global Disease Status of Pain", "submissionValue": "GCGI01-Global Disease Status of Pain", "synonyms": ["GCGI01-Global Disease Status of Pain"]}, {"conceptId": "C105279", "definition": "General Clinical Global Impressions - Global improvement of pain.", "preferredTerm": "GCGI - Global Improvement of Pain", "submissionValue": "GCGI01-Global Improvement of Pain", "synonyms": ["GCGI01-Global Improvement of Pain"]}, {"conceptId": "C105282", "definition": "General Clinical Global Impressions - Global rating of pain medication.", "preferredTerm": "GCGI - Global Rating of Pain Medication", "submissionValue": "GCGI01-Global Rating of Pain Mediation", "synonyms": ["GCGI01-Global Rating of Pain Mediation"]}, {"conceptId": "C105278", "definition": "General Clinical Global Impressions - Global severity of pain.", "preferredTerm": "GCGI - Global Severity of Pain", "submissionValue": "GCGI01-Global Severity of Pain", "synonyms": ["GCGI01-Global Severity of Pain"]}, {"conceptId": "C105281", "definition": "General Clinical Global Impressions - Pain treatment preference.", "preferredTerm": "GCGI - Pain Treatment Preference", "submissionValue": "GCGI01-Pain Treatment Preference", "synonyms": ["GCGI01-Pain Treatment Preference"]}]}