{"_links": {"parentPackage": {"href": "/mdr/ct/packages/coact-2014-12-19", "title": "COA Controlled Terminology Package 20 Effective 2014-12-19", "type": "Terminology"}, "rootItem": {"href": "/mdr/root/ct/coact/codelists/C106657", "title": "Version-agnostic anchor resource for codelist C106657", "type": "Root Value Domain"}, "self": {"href": "/mdr/ct/packages/coact-2014-12-19/codelists/C106657", "title": "CDISC Questionnaire TDI Test Code Terminology", "type": "Code List"}}, "conceptId": "C106657", "definition": "Transition Dyspnea Index test code.", "extensible": "false", "name": "QS-Transition Dyspnea Index Questionnaire Test Code", "preferredTerm": "CDISC Questionnaire TDI Test Code Terminology", "submissionValue": "TDI TESTCD", "synonyms": ["QS-Transition Dyspnea Index Questionnaire Test Code"], "terms": [{"conceptId": "C106704", "definition": "Transition Dyspnea Index - Change in functional impairment.", "preferredTerm": "TDI - Change in Functional Impairment", "submissionValue": "TDI0101", "synonyms": ["TDI01-Change in Functional Impairment"]}, {"conceptId": "C106705", "definition": "Transition Dyspnea Index - Change in magnitude of task.", "preferredTerm": "TDI - Change in Magnitude of Task", "submissionValue": "TDI0102", "synonyms": ["TDI01-Change in Magnitude of Task"]}, {"conceptId": "C106706", "definition": "Transition Dyspnea Index - Change in magnitude of effort.", "preferredTerm": "TDI - Change in Magnitude of Effort", "submissionValue": "TDI0103", "synonyms": ["TDI01-Change in Magnitude of Effort"]}]}