{"_links": {"parentPackage": {"href": "/mdr/ct/packages/coact-2014-12-19", "title": "COA Controlled Terminology Package 20 Effective 2014-12-19", "type": "Terminology"}, "rootItem": {"href": "/mdr/root/ct/coact/codelists/C112446", "title": "Version-agnostic anchor resource for codelist C112446", "type": "Root Value Domain"}, "self": {"href": "/mdr/ct/packages/coact-2014-12-19/codelists/C112446", "title": "CDISC Questionnaire PDDS Test Name Terminology", "type": "Code List"}}, "conceptId": "C112446", "definition": "Patient Determined Disease Steps test name.", "extensible": "false", "name": "QS-Patient Determined Disease Steps Questionnaire Test Name", "preferredTerm": "CDISC Questionnaire PDDS Test Name Terminology", "submissionValue": "PDDS TEST", "synonyms": ["QS-Patient Determined Disease Steps Questionnaire Test Name"], "terms": [{"conceptId": "C112626", "definition": "Patient Determined Disease Steps - This scale focuses mainly on how well you walk. You might not find a description that reflects your condition exactly, but please mark the one category that describes your situation the closest.", "preferredTerm": "PDDS - Category Describing Situation", "submissionValue": "PDDS01-Category Describing Situation", "synonyms": ["PDDS01-Category Describing Situation"]}]}