{"_links": {"parentPackage": {"href": "/mdr/ct/packages/coact-2014-12-19", "title": "COA Controlled Terminology Package 20 Effective 2014-12-19", "type": "Terminology"}, "rootItem": {"href": "/mdr/root/ct/coact/codelists/C112438", "title": "Version-agnostic anchor resource for codelist C112438", "type": "Root Value Domain"}, "self": {"href": "/mdr/ct/packages/coact-2014-12-19/codelists/C112438", "title": "CDISC Questionnaire EDSS Test Name Terminology", "type": "Code List"}}, "conceptId": "C112438", "definition": "Kurtzke Expanded Disability Status Scale test name.", "extensible": "false", "name": "QS-Kurtzke Expanded Disability Status Scale Questionnaire Test Name", "preferredTerm": "CDISC Questionnaire EDSS Test Name Terminology", "submissionValue": "EDSS TEST", "synonyms": ["QS-Kurtzke Expanded Disability Status Scale Questionnaire Test Name"], "terms": [{"conceptId": "C112550", "definition": "Kurtzke Expanded Disability Status Scale - Expanded disability score.", "preferredTerm": "EDSS - Expanded Disability Score", "submissionValue": "EDSS01-Expanded Disability Score", "synonyms": ["EDSS01-Expanded Disability Score"]}]}