{"_links": {"parentPackage": {"href": "/mdr/ct/packages/coact-2014-12-19", "title": "COA Controlled Terminology Package 20 Effective 2014-12-19", "type": "Terminology"}, "rootItem": {"href": "/mdr/root/ct/coact/codelists/C113846", "title": "Version-agnostic anchor resource for codelist C113846", "type": "Root Value Domain"}, "self": {"href": "/mdr/ct/packages/coact-2014-12-19/codelists/C113846", "title": "CDISC Questionnaire Borg CR-10 Test Code Terminology", "type": "Code List"}}, "conceptId": "C113846", "definition": "Borg CR-10 scale test code.", "extensible": "false", "name": "QS-Borg CR-10 Scale Test Code", "preferredTerm": "CDISC Questionnaire Borg CR-10 Test Code Terminology", "submissionValue": "Borg CR-10 Scale TESTCD", "synonyms": ["QS-Borg CR-10 Scale Test Code"], "terms": [{"conceptId": "C113888", "definition": "Borg CR10 Scale - Rating of breathlessness.", "preferredTerm": "Borg CR10 - Rating of Breathlessness", "submissionValue": "BCR10101", "synonyms": ["BCR101-Rating of Breathlessness"]}]}