{"_links": {"parentPackage": {"href": "/mdr/ct/packages/coact-2014-12-19", "title": "COA Controlled Terminology Package 20 Effective 2014-12-19", "type": "Terminology"}, "rootItem": {"href": "/mdr/root/ct/coact/codelists/C115396", "title": "Version-agnostic anchor resource for codelist C115396", "type": "Root Value Domain"}, "self": {"href": "/mdr/ct/packages/coact-2014-12-19/codelists/C115396", "title": "CDISC Functional Test SDMT Test Code Terminology", "type": "Code List"}}, "conceptId": "C115396", "definition": "Symbol Digit Modalities Test test code.", "extensible": "false", "name": "FT-Symbol Digit Modalities Functional Test Test Code", "preferredTerm": "CDISC Functional Test SDMT Test Code Terminology", "submissionValue": "SDMT TESTCD", "synonyms": ["FT-Symbol Digit Modalities Functional Test Test Code"], "terms": [{"conceptId": "C115816", "definition": "Symbol Digit Modalities Test - Total score.", "preferredTerm": "SDMT - Total Score", "submissionValue": "SDMT0101", "synonyms": ["SDMT01-Total Score"]}]}