{"_links": {"parentPackage": {"href": "/mdr/ct/packages/coact-2014-12-19", "title": "COA Controlled Terminology Package 20 Effective 2014-12-19", "type": "Terminology"}, "rootItem": {"href": "/mdr/root/ct/coact/codelists/C115392", "title": "Version-agnostic anchor resource for codelist C115392", "type": "Root Value Domain"}, "self": {"href": "/mdr/ct/packages/coact-2014-12-19/codelists/C115392", "title": "CDISC Functional Test NHPT Test Code Terminology", "type": "Code List"}}, "conceptId": "C115392", "definition": "Nine-Hole Peg Test test code.", "extensible": "false", "name": "FT-Nine-Hole Peg Functional Test Test Code", "preferredTerm": "CDISC Functional Test NHPT Test Code Terminology", "submissionValue": "NHPT TESTCD", "synonyms": ["FT-Nine-Hole Peg Functional Test Test Code"], "terms": [{"conceptId": "C115807", "definition": "Nine-Hole Peg Test - Time in seconds to complete 9-Hole Peg Test.", "preferredTerm": "NHPT - Time to Complete 9-Hole Peg Test", "submissionValue": "NHPT0101", "synonyms": ["NHPT01-Time to Complete 9-Hole Peg Test"]}, {"conceptId": "C115808", "definition": "Nine-Hole Peg Test - Did it take more than two attempts to get two successful trials?", "preferredTerm": "NHPT - More Than Two Attempts", "submissionValue": "NHPT0102", "synonyms": ["NHPT01-More Than Two Attempts"]}]}