{"_links": {"parentPackage": {"href": "/mdr/ct/packages/coact-2014-12-19", "title": "COA Controlled Terminology Package 20 Effective 2014-12-19", "type": "Terminology"}, "rootItem": {"href": "/mdr/root/ct/coact/codelists/C115304", "title": "Version-agnostic anchor resource for codelist C115304", "type": "Root Value Domain"}, "self": {"href": "/mdr/ct/packages/coact-2014-12-19/codelists/C115304", "title": "CDISC Functional Test Category Terminology", "type": "Code List"}}, "conceptId": "C115304", "definition": "A grouping of observations within the Functional Test domain.", "extensible": "true", "name": "Category of Functional Test", "preferredTerm": "CDISC Functional Test Category Terminology", "submissionValue": "FTCAT", "synonyms": ["Category of Functional Test"], "terms": [{"conceptId": "C115790", "definition": "Hauser Ambulation Index (AI) (Hauser SL, Dawson DM, Lehrich JR, Beal MF, Kevy SV, Propper RD, Mills JA, Weiner HL. Intensive immunosuppression in progressive multiple sclerosis. A randomized, three-arm study of high-dose intravenous cyclophosphamide, plasma exchange, and ACTH. N Engl J Med. 1983 Jan 27;308(4):173-80).", "preferredTerm": "Hauser Ambulation Index Functional Test", "submissionValue": "HAUSER AMBULATION INDEX", "synonyms": ["HAI01"]}, {"conceptId": "C115791", "definition": "Nine-Hole Peg Test (NHPT) (Copyright 2001, National Multiple Sclerosis Society).", "preferredTerm": "Nine-Hole Peg Functional Test", "submissionValue": "NHPT", "synonyms": ["NHPT01"]}, {"conceptId": "C115792", "definition": "Paced Auditory Serial Addition Test (PASAT) (Copyright 2001, National Multiple Sclerosis Society).", "preferredTerm": "Paced Auditory Serial Addition Functional Test", "submissionValue": "PASAT", "synonyms": ["PASAT1"]}, {"conceptId": "C115793", "definition": "Symbol Digit Modalities Test (SDMT) (Copyright 1973 by Western Psychological Services).", "preferredTerm": "Symbol Digit Modalities Functional Test", "submissionValue": "SDMT", "synonyms": ["SDMT01"]}, {"conceptId": "C115789", "definition": "6 Minute Walk Test (6MWT) (Goldman MD, Marrie RA, Cohen JA. Evaluation of the six-minute walk in multiple sclerosis subjects and healthy controls. Multiple Sclerosis 2008; 14: 383-390).", "preferredTerm": "6 Minute Walk Functional Test", "submissionValue": "SIX MINUTE WALK", "synonyms": ["SIXMW1"]}, {"conceptId": "C115794", "definition": "Timed 25-Foot Walk (T25FW) (Copyright 2001, National Multiple Sclerosis Society).", "preferredTerm": "Timed 25-Foot Walk Functional Test", "submissionValue": "T25FW", "synonyms": ["T25FW1"]}, {"conceptId": "C115795", "definition": "Timed Up and Go (TUG) (Podsiadlo D, Richardson S. The Timed 'Up & Go': a test of basic functional mobility for frail elderly persons. J Am Geriatr Soc. 1991; 39:142-148).", "preferredTerm": "Timed Up and Go Functional Test", "submissionValue": "TUG", "synonyms": ["TUG01"]}]}