{"_links": {"parentPackage": {"href": "/mdr/ct/packages/coact-2014-12-19", "title": "COA Controlled Terminology Package 20 Effective 2014-12-19", "type": "Terminology"}, "rootItem": {"href": "/mdr/root/ct/coact/codelists/C115390", "title": "Version-agnostic anchor resource for codelist C115390", "type": "Root Value Domain"}, "self": {"href": "/mdr/ct/packages/coact-2014-12-19/codelists/C115390", "title": "CDISC Functional Test HAI Test Code Terminology", "type": "Code List"}}, "conceptId": "C115390", "definition": "Hauser Ambulation Index test code.", "extensible": "false", "name": "FT-Hauser Ambulation Index Functional Test Test Code", "preferredTerm": "CDISC Functional Test HAI Test Code Terminology", "submissionValue": "HAI TESTCD", "synonyms": ["FT-Hauser Ambulation Index Functional Test Test Code"], "terms": [{"conceptId": "C115806", "definition": "Hauser Ambulation Index - Ambulation index.", "preferredTerm": "HAI - Ambulation Index", "submissionValue": "HAI0101", "synonyms": ["HAI01-Ambulation Index"]}]}