{"_links": {"parentPackage": {"href": "/mdr/ct/packages/coact-2014-12-19", "title": "COA Controlled Terminology Package 20 Effective 2014-12-19", "type": "Terminology"}, "rootItem": {"href": "/mdr/root/ct/coact/codelists/C115398", "title": "Version-agnostic anchor resource for codelist C115398", "type": "Root Value Domain"}, "self": {"href": "/mdr/ct/packages/coact-2014-12-19/codelists/C115398", "title": "CDISC Functional Test T25FW Test Code Terminology", "type": "Code List"}}, "conceptId": "C115398", "definition": "Timed 25-Foot Walk Test test code.", "extensible": "false", "name": "FT-Timed 25-Foot Walk Functional Test Test Code", "preferredTerm": "CDISC Functional Test T25FW Test Code Terminology", "submissionValue": "T25FW TESTCD", "synonyms": ["FT-Timed 25-Foot Walk Functional Test Test Code"], "terms": [{"conceptId": "C115817", "definition": "Timed 25-Foot Walk - Time in seconds to complete 25-foot walk.", "preferredTerm": "T25FW - Time to Complete 25-Foot Walk", "submissionValue": "T25FW101", "synonyms": ["T25FW1-Time to Complete 25-Foot Walk"]}, {"conceptId": "C115818", "definition": "Timed 25-Foot Walk - Did it take more than two attempts to get two successful trials?", "preferredTerm": "T25FW - More Than Two Attempts", "submissionValue": "T25FW102", "synonyms": ["T25FW1-More Than Two Attempts"]}]}