{"_links": {"parentPackage": {"href": "/mdr/ct/packages/coact-2014-12-19", "title": "COA Controlled Terminology Package 20 Effective 2014-12-19", "type": "Terminology"}, "rootItem": {"href": "/mdr/root/ct/coact/codelists/C119078", "title": "Version-agnostic anchor resource for codelist C119078", "type": "Root Value Domain"}, "self": {"href": "/mdr/ct/packages/coact-2014-12-19/codelists/C119078", "title": "CDISC Clinical Classification ARC STC Timing Test Code Terminology", "type": "Code List"}}, "conceptId": "C119078", "definition": "Stent Thrombosis Coronary ARC Timing test code.", "extensible": "false", "name": "CC-Stent Thrombosis Coronary ARC Timing Clinical Classification Test Code", "preferredTerm": "CDISC Clinical Classification ARC STC Timing Test Code Terminology", "submissionValue": "ARC STC Timing TESTCD", "synonyms": ["CC-Stent Thrombosis Coronary ARC Timing Clinical Classification Test Code"], "terms": [{"conceptId": "C119197", "definition": "Stent Thrombosis Coronary ARC Timing - Categorization of the timing of coronary stent thrombosis occurrence per the classification schema described by the Academic Research Consortium.", "preferredTerm": "ARC STC Timing - Stent Thrombosis Coronary ARC Timing", "submissionValue": "STCT0101", "synonyms": ["STCT01-STC ARC Timing"]}]}