{"_links": {"parentPackage": {"href": "/mdr/ct/packages/coact-2014-12-19", "title": "COA Controlled Terminology Package 20 Effective 2014-12-19", "type": "Terminology"}, "rootItem": {"href": "/mdr/root/ct/coact/codelists/C119075", "title": "Version-agnostic anchor resource for codelist C119075", "type": "Root Value Domain"}, "self": {"href": "/mdr/ct/packages/coact-2014-12-19/codelists/C119075", "title": "CDISC Clinical Classification NHLBI CAD Grade Test Name Terminology", "type": "Code List"}}, "conceptId": "C119075", "definition": "Coronary Artery Dissection NHLBI Grade test name.", "extensible": "false", "name": "CC-Coronary Artery Dissection NHLBI Grade Clinical Classification Test Name", "preferredTerm": "CDISC Clinical Classification NHLBI CAD Grade Test Name Terminology", "submissionValue": "NHLBI CAD Grade TEST", "synonyms": ["CC-Coronary Artery Dissection NHLBI Grade Clinical Classification Test Name"], "terms": [{"conceptId": "C119196", "definition": "Coronary Artery Dissection NHLBI Grade - A grading system to describe coronary artery dissection per the NHLBI, American College of Cardiology, American Heart Association.", "preferredTerm": "NHLBI CAD Grade - Coronary Artery Dissection NHLBI Grade", "submissionValue": "CADG01-Coronary Dissection NHLBI Grade", "synonyms": ["CADG01-Coronary Dissection NHLBI Grade"]}]}