{"_links": {"parentPackage": {"href": "/mdr/ct/packages/sdtmct-2020-03-27", "title": "SDTM Controlled Terminology Package 41 Effective 2020-03-27", "type": "Terminology"}, "priorVersion": {"href": "/mdr/ct/packages/sdtmct-2019-12-20/codelists/C100169", "title": "CDISC Questionnaire KPS Scale Test Name Terminology", "type": "Code List"}, "rootItem": {"href": "/mdr/root/ct/sdtmct/codelists/C100169", "title": "Version-agnostic anchor resource for codelist C100169", "type": "Root Value Domain"}, "self": {"href": "/mdr/ct/packages/sdtmct-2020-03-27/codelists/C100169", "title": "CDISC Questionnaire KPS Scale Test Name Terminology", "type": "Code List"}}, "conceptId": "C100169", "definition": "Karnofsky Performance Status Scale test name.", "extensible": "false", "name": "Karnofsky Performance Status Scale Questionnaire Test Name", "preferredTerm": "CDISC Questionnaire KPS Scale Test Name Terminology", "submissionValue": "KPSSTN", "synonyms": ["Karnofsky Performance Status Scale Questionnaire Test Name"], "terms": [{"conceptId": "C100417", "definition": "Karnofsky Performance Status Scale - Karnofsky Performance Status.", "preferredTerm": "KPS Scale - Karnofsky Performance Status", "submissionValue": "KPSS-Karnofsky Performance Status", "synonyms": ["KPSS-Karnofsky Performance Status"]}]}