{"_links": {"parentPackage": {"href": "/mdr/ct/packages/sdtmct-2020-03-27", "title": "SDTM Controlled Terminology Package 41 Effective 2020-03-27", "type": "Terminology"}, "priorVersion": {"href": "/mdr/ct/packages/sdtmct-2019-12-20/codelists/C101838", "title": "CDISC SDTM Consensus Cardiac Classification Systems Test Code Terminology", "type": "Code List"}, "rootItem": {"href": "/mdr/root/ct/sdtmct/codelists/C101838", "title": "Version-agnostic anchor resource for codelist C101838", "type": "Root Value Domain"}, "self": {"href": "/mdr/ct/packages/sdtmct-2020-03-27/codelists/C101838", "title": "CDISC SDTM Consensus Cardiac Classification Systems Test Code Terminology", "type": "Code List"}}, "conceptId": "C101838", "definition": "Classification system test code for cardiac parameters that are authored or endorsed by organizations.", "extensible": "true", "name": "Consensus Cardiac Classification System Test Code", "preferredTerm": "CDISC SDTM Consensus Cardiac Classification Systems Test Code Terminology", "submissionValue": "CCRCLSCD", "synonyms": ["Consensus Cardiac Classification System Test Code"], "terms": [{"conceptId": "C66910", "definition": "A finding associated with a patient based on the functional classification developed by the Canadian Cardiovascular Society (CCS), for categorizing patients with angina. The classification system comprises four classes, which are defined in terms of the level of physical activity associated with the subject's anginal symptoms.", "preferredTerm": "Canadian Cardiovascular Society Grading Scale Class", "submissionValue": "CCSGRDS", "synonyms": ["Canadian CV Society Grading Scale"]}, {"conceptId": "C66916", "definition": "A finding associated with a patient based on the classification developed by Killip and Kimball, which classifies patients with myocardial infarction based on routine physical examination parameters, such as the presence or absence of rales, or a decreased systolic blood pressure.", "preferredTerm": "Killip Class", "submissionValue": "KILLIPCL", "synonyms": ["Killip Class"]}, {"conceptId": "C100032", "definition": "A classification system for coronary stenosis based upon characteristics that influence the difficulty of percutaneous coronary revascularization.", "preferredTerm": "American College of Cardiology/American Heart Association Lesion Complexity Class", "submissionValue": "LSNCPCLS", "synonyms": ["ACC/AHA Lesion Complexity Class"]}, {"conceptId": "C66909", "definition": "A finding associated with a patient based on the functional classification developed by the New York Heart Association (NYHA), for categorizing patients with defined or presumed cardiac disease. The classification system is based on the ability to engage in physical activity. The classification system comprises four classes, though NYHA Class III and Class IV are often aggregated for the purpose of outcomes analysis.", "preferredTerm": "New York Heart Association Class", "submissionValue": "NYHACLS", "synonyms": ["New York Heart Association Class"]}, {"conceptId": "C100021", "definition": "A grading system for coronary blood flow based on the classification developed by the Thrombolysis in Myocardial Infarction Group. It classifies coronary blood flow into four classes based upon the angiographic appearance of the blood vessels.", "preferredTerm": "Thrombolysis in Myocardial Infarction Flow", "submissionValue": "TIMIFLOW", "synonyms": ["TIMI Flow"]}]}