{"_links": {"parentPackage": {"href": "/mdr/ct/packages/sdtmct-2020-03-27", "title": "SDTM Controlled Terminology Package 41 Effective 2020-03-27", "type": "Terminology"}, "priorVersion": {"href": "/mdr/ct/packages/sdtmct-2019-12-20/codelists/C101811", "title": "CDISC Questionnaire CDR Test Code Terminology", "type": "Code List"}, "rootItem": {"href": "/mdr/root/ct/sdtmct/codelists/C101811", "title": "Version-agnostic anchor resource for codelist C101811", "type": "Root Value Domain"}, "self": {"href": "/mdr/ct/packages/sdtmct-2020-03-27/codelists/C101811", "title": "CDISC Questionnaire CDR Test Code Terminology", "type": "Code List"}}, "conceptId": "C101811", "definition": "Clinical Dementia Rating test code.", "extensible": "false", "name": "Clinical Dementia Rating Questionnaire Test Code", "preferredTerm": "CDISC Questionnaire CDR Test Code Terminology", "submissionValue": "CDR01TC", "synonyms": ["Clinical Dementia Rating Questionnaire Test Code"], "terms": [{"conceptId": "C102050", "definition": "Clinical Dementia Rating - Memory.", "preferredTerm": "CDR - Memory", "submissionValue": "CDR0101", "synonyms": ["CDR01-Memory"]}, {"conceptId": "C102051", "definition": "Clinical Dementia Rating - Orientation.", "preferredTerm": "CDR - Orientation", "submissionValue": "CDR0102", "synonyms": ["CDR01-Orientation"]}, {"conceptId": "C102052", "definition": "Clinical Dementia Rating - Judgment and problem solving.", "preferredTerm": "CDR - Judgment and Problem Solving", "submissionValue": "CDR0103", "synonyms": ["CDR01-Judgment and Problem Solving"]}, {"conceptId": "C102053", "definition": "Clinical Dementia Rating - Community affairs.", "preferredTerm": "CDR - Community Affairs", "submissionValue": "CDR0104", "synonyms": ["CDR01-Community Affairs"]}, {"conceptId": "C102054", "definition": "Clinical Dementia Rating - Home and hobbies.", "preferredTerm": "CDR - Home and Hobbies", "submissionValue": "CDR0105", "synonyms": ["CDR01-Home and Hobbies"]}, {"conceptId": "C102055", "definition": "Clinical Dementia Rating - Personal care.", "preferredTerm": "CDR - Personal Care", "submissionValue": "CDR0106", "synonyms": ["CDR01-Personal Care"]}, {"conceptId": "C113880", "definition": "Clinical Dementia Rating - Sum of Boxes.", "preferredTerm": "CDR - Sum of Boxes", "submissionValue": "CDR0107", "synonyms": ["CDR01-Sum of Boxes"]}, {"conceptId": "C113881", "definition": "Clinical Dementia Rating - Global CDR.", "preferredTerm": "CDR - Global CDR", "submissionValue": "CDR0108", "synonyms": ["CDR01-Global CDR"]}]}