{"_links": {"parentPackage": {"href": "/mdr/ct/packages/sdtmct-2020-03-27", "title": "SDTM Controlled Terminology Package 41 Effective 2020-03-27", "type": "Terminology"}, "priorVersion": {"href": "/mdr/ct/packages/sdtmct-2019-12-20/codelists/C101819", "title": "CDISC Clinical Classification HAMA Test Code Terminology", "type": "Code List"}, "rootItem": {"href": "/mdr/root/ct/sdtmct/codelists/C101819", "title": "Version-agnostic anchor resource for codelist C101819", "type": "Root Value Domain"}, "self": {"href": "/mdr/ct/packages/sdtmct-2020-03-27/codelists/C101819", "title": "CDISC Clinical Classification HAMA Test Code Terminology", "type": "Code List"}}, "conceptId": "C101819", "definition": "Hamilton Anxiety Rating Scale test code.", "extensible": "false", "name": "Hamilton Anxiety Rating Scale Clinical Classification Test Code", "preferredTerm": "CDISC Clinical Classification HAMA Test Code Terminology", "submissionValue": "HAMA1TC", "synonyms": ["Hamilton Anxiety Rating Scale Clinical Classification Test Code"], "terms": [{"conceptId": "C102073", "definition": "Hamilton Anxiety Rating Scale - Anxious mood: worries, anticipation of the worst, fearful anticipation, irritability.", "preferredTerm": "HAMA - Anxious Mood", "submissionValue": "HAMA101", "synonyms": ["HAMA1-Anxious Mood"]}, {"conceptId": "C102074", "definition": "Hamilton Anxiety Rating Scale - Tension: feelings of tension, fatigability, startle response, moved to tears easily, trembling, feelings of restlessness, inability to relax.", "preferredTerm": "HAMA - Tension", "submissionValue": "HAMA102", "synonyms": ["HAMA1-Tension"]}, {"conceptId": "C102075", "definition": "Hamilton Anxiety Rating Scale - Fears: of dark, of strangers, of being left alone, of animals, of traffic, of crowds.", "preferredTerm": "HAMA - Fears", "submissionValue": "HAMA103", "synonyms": ["HAMA1-Fears"]}, {"conceptId": "C102076", "definition": "Hamilton Anxiety Rating Scale - Insomnia: difficulty falling asleep, broken sleep, unsatisfying sleep and fatigue on waking, dreams, nightmares, night terrors.", "preferredTerm": "HAMA - Insomnia", "submissionValue": "HAMA104", "synonyms": ["HAMA1-Insomnia"]}, {"conceptId": "C102077", "definition": "Hamilton Anxiety Rating Scale - Intellectual: difficulty in concentration, poor memory.", "preferredTerm": "HAMA - Intellectual", "submissionValue": "HAMA105", "synonyms": ["HAMA1-Intellectual"]}, {"conceptId": "C102078", "definition": "Hamilton Anxiety Rating Scale - Depressed mood: loss of interest, lack of pleasure in hobbies, depression, early waking, diurnal swing.", "preferredTerm": "HAMA - Depressed Mood", "submissionValue": "HAMA106", "synonyms": ["HAMA1-Depressed Mood"]}, {"conceptId": "C102079", "definition": "Hamilton Anxiety Rating Scale - Somatic (muscular): pains and aches, twitching, stiffness, myoclonic jerks, grinding of teeth, unsteady voice, increased muscular tone.", "preferredTerm": "HAMA - Somatic (Muscular)", "submissionValue": "HAMA107", "synonyms": ["HAMA1-Somatic (Muscular)"]}, {"conceptId": "C102080", "definition": "Hamilton Anxiety Rating Scale - Somatic (sensory): tinnitus, blurring of vision, hot and cold flushes, feelings of weakness, pricking sensation.", "preferredTerm": "HAMA - Somatic (Sensory)", "submissionValue": "HAMA108", "synonyms": ["HAMA1-Somatic (Sensory)"]}, {"conceptId": "C102081", "definition": "Hamilton Anxiety Rating Scale - Cardiovascular symptoms: tachycardia, palpitations, pain in chest, throbbing of vessels, fainting feelings, missing beat.", "preferredTerm": "HAMA - Cardiovascular Symptoms", "submissionValue": "HAMA109", "synonyms": ["HAMA1-Cardiovascular Symptoms"]}, {"conceptId": "C102082", "definition": "Hamilton Anxiety Rating Scale - Respiratory symptoms: pressure or constriction in chest, choking feelings, sighing, dyspnea.", "preferredTerm": "HAMA - Respiratory Symptoms", "submissionValue": "HAMA110", "synonyms": ["HAMA1-Respiratory Symptoms"]}, {"conceptId": "C102083", "definition": "Hamilton Anxiety Rating Scale - Gastrointestinal symptoms: difficulty swallowing, wind abdominal pain, burning sensations, abdominal fullness, nausea, vomiting, borborygmi, looseness of bowels, loss of weight, constipation.", "preferredTerm": "HAMA - Gastrointestinal Symptoms", "submissionValue": "HAMA111", "synonyms": ["HAMA1-Gastrointestinal Symptoms"]}, {"conceptId": "C102084", "definition": "Hamilton Anxiety Rating Scale - Genitourinary symptoms: frequency of micturition, urgency of micturition, amenorrhea, menorrhagia, development of frigidity, premature ejaculation, loss of libido, impotence.", "preferredTerm": "HAMA - Genitourinary Symptoms", "submissionValue": "HAMA112", "synonyms": ["HAMA1-Genitourinary Symptoms"]}, {"conceptId": "C102085", "definition": "Hamilton Anxiety Rating Scale - Autonomic symptoms: dry mouth, flushing, pallor, tendency to sweat, giddiness, tension, headache, raising of hair.", "preferredTerm": "HAMA - Autonomic Symptoms", "submissionValue": "HAMA113", "synonyms": ["HAMA1-Autonomic Symptoms"]}, {"conceptId": "C102086", "definition": "Hamilton Anxiety Rating Scale - Behavior at interview: fidgeting, restlessness or pacing, tremor of hands, furrowed brow, strained face, sighing or rapid respiration, facial pallor, swallowing, etc.", "preferredTerm": "HAMA - Behavior at Interview", "submissionValue": "HAMA114", "synonyms": ["HAMA1-Behavior at Interview"]}, {"conceptId": "C155646", "definition": "Hamilton Anxiety Rating Scale - Total score.", "preferredTerm": "HAMA - Total Score", "submissionValue": "HAMA115", "synonyms": ["HAMA1-Total Score"]}]}