{"_links": {"parentPackage": {"href": "/mdr/ct/packages/sdtmct-2020-03-27", "title": "SDTM Controlled Terminology Package 41 Effective 2020-03-27", "type": "Terminology"}, "priorVersion": {"href": "/mdr/ct/packages/sdtmct-2019-12-20/codelists/C102582", "title": "CDISC SDTM Priority of Tuberculosis Contact Terminology", "type": "Code List"}, "rootItem": {"href": "/mdr/root/ct/sdtmct/codelists/C102582", "title": "Version-agnostic anchor resource for codelist C102582", "type": "Root Value Domain"}, "self": {"href": "/mdr/ct/packages/sdtmct-2020-03-27/codelists/C102582", "title": "CDISC SDTM Priority of Tuberculosis Contact Terminology", "type": "Code List"}}, "conceptId": "C102582", "definition": "Terminology relevant to the prioritization of tuberculosis contacts.", "extensible": "true", "name": "Priority of Tuberculosis Contact", "preferredTerm": "CDISC SDTM Priority of Tuberculosis Contact Terminology", "submissionValue": "PRITBCON", "synonyms": ["Priority of Tuberculosis Contact"], "terms": [{"conceptId": "C102644", "definition": "An individual that has tested positive for pulmonary, laryngeal, or pleural tuberculosis and may or may not present with cavitary disease.", "preferredTerm": "High-priority Tuberculosis Subject", "submissionValue": "HIGH-PRIORITY TUBERCULOSIS CONTACT"}, {"conceptId": "C102662", "definition": "An individual that has had limited exposure to an individual with tuberculosis and has a low probability of having had a recent infection.", "preferredTerm": "Low-priority Tuberculosis Subject", "submissionValue": "LOW-PRIORITY TUBERCULOSIS CONTACT"}, {"conceptId": "C102665", "definition": "An individual that has tested negative for pulmonary, laryngeal, or pleural tuberculosis but has had a non-cavitary chest x-ray that is consistent with tuberculosis.", "preferredTerm": "Medium-priority Tuberculosis Subject", "submissionValue": "MEDIUM-PRIORITY TUBERCULOSIS CONTACT"}]}