{"_links": {"parentPackage": {"href": "/mdr/ct/packages/sdtmct-2020-03-27", "title": "SDTM Controlled Terminology Package 41 Effective 2020-03-27", "type": "Terminology"}, "priorVersion": {"href": "/mdr/ct/packages/sdtmct-2019-12-20/codelists/C103463", "title": "CDISC Questionnaire ESS Test Code Terminology", "type": "Code List"}, "rootItem": {"href": "/mdr/root/ct/sdtmct/codelists/C103463", "title": "Version-agnostic anchor resource for codelist C103463", "type": "Root Value Domain"}, "self": {"href": "/mdr/ct/packages/sdtmct-2020-03-27/codelists/C103463", "title": "CDISC Questionnaire ESS Test Code Terminology", "type": "Code List"}}, "conceptId": "C103463", "definition": "Epworth Sleepiness Scale test code.", "extensible": "false", "name": "Epworth Sleepiness Scale Questionnaire Test Code", "preferredTerm": "CDISC Questionnaire ESS Test Code Terminology", "submissionValue": "ESS01TC", "synonyms": ["Epworth Sleepiness Scale Questionnaire Test Code"], "terms": [{"conceptId": "C103536", "definition": "Epworth Sleepiness Scale - Sitting and reading.", "preferredTerm": "ESS - Sitting and Reading", "submissionValue": "ESS0101", "synonyms": ["ESS01-Sitting and Reading"]}, {"conceptId": "C103537", "definition": "Epworth Sleepiness Scale - Watching TV.", "preferredTerm": "ESS - Watching TV", "submissionValue": "ESS0102", "synonyms": ["ESS01-Watching TV"]}, {"conceptId": "C103538", "definition": "Epworth Sleepiness Scale - Sitting, inactive in a public place (e.g. a theatre or a meeting).", "preferredTerm": "ESS - Sitting, Inactive in a Public Place", "submissionValue": "ESS0103", "synonyms": ["ESS01-Sitting Inactive in a Public Place"]}, {"conceptId": "C103539", "definition": "Epworth Sleepiness Scale - As a passenger in a car for an hour without a break.", "preferredTerm": "ESS - As a Passenger in a Car for an Hour Without a Break", "submissionValue": "ESS0104", "synonyms": ["ESS01-Passenger for Hour Without Break"]}, {"conceptId": "C103540", "definition": "Epworth Sleepiness Scale - Lying down to rest in the afternoon when circumstances permit.", "preferredTerm": "ESS - Lying Down to Rest in the Afternoon When Circumstances Permit", "submissionValue": "ESS0105", "synonyms": ["ESS01-Lying Down to Rest In Afternoon"]}, {"conceptId": "C103541", "definition": "Epworth Sleepiness Scale - Sitting and talking to someone.", "preferredTerm": "ESS - Sitting and Talking to Someone", "submissionValue": "ESS0106", "synonyms": ["ESS01-Sitting and Talking to Someone"]}, {"conceptId": "C103542", "definition": "Epworth Sleepiness Scale - Sitting quietly after a lunch without alcohol.", "preferredTerm": "ESS - Sitting Quietly After a Lunch without Alcohol", "submissionValue": "ESS0107", "synonyms": ["ESS01-Sitting Quietly After Lunch"]}, {"conceptId": "C103543", "definition": "Epworth Sleepiness Scale - In a car, while stopped for a few minutes in the traffic.", "preferredTerm": "ESS - In a car, While Stopped for a Few Minutes in the Traffic", "submissionValue": "ESS0108", "synonyms": ["ESS01-In Car Stopped Few Minutes Traffic"]}, {"conceptId": "C157731", "definition": "Epworth Sleepiness Scale - Total score.", "preferredTerm": "ESS - Total Score", "submissionValue": "ESS0109", "synonyms": ["ESS01-Total Score"]}]}