{"_links": {"parentPackage": {"href": "/mdr/ct/packages/sdtmct-2020-03-27", "title": "SDTM Controlled Terminology Package 41 Effective 2020-03-27", "type": "Terminology"}, "priorVersion": {"href": "/mdr/ct/packages/sdtmct-2019-12-20/codelists/C105136", "title": "CDISC Questionnaire PR v1 Test Code Terminology", "type": "Code List"}, "rootItem": {"href": "/mdr/root/ct/sdtmct/codelists/C105136", "title": "Version-agnostic anchor resource for codelist C105136", "type": "Root Value Domain"}, "self": {"href": "/mdr/ct/packages/sdtmct-2020-03-27/codelists/C105136", "title": "CDISC Questionnaire PR v1 Test Code Terminology", "type": "Code List"}}, "conceptId": "C105136", "definition": "Pain Relief test code.", "extensible": "false", "name": "Pain Relief Questionnaire Test Code", "preferredTerm": "CDISC Questionnaire PR v1 Test Code Terminology", "submissionValue": "PR01TC", "synonyms": ["Pain Relief Questionnaire Test Code"], "terms": [{"conceptId": "C105267", "definition": "Pain Relief - Pain relief for various time periods of evaluation.", "preferredTerm": "PR - Pain Relief For Various Time Periods of Evaluation", "submissionValue": "PR0101", "synonyms": ["PR01-Pain Relief"]}, {"conceptId": "C105268", "definition": "Pain Relief - Average pain relief for various time periods of evaluation.", "preferredTerm": "PR - Average Pain Relief For Various Time Periods of Evaluation", "submissionValue": "PR0102", "synonyms": ["PR01-Average Pain Relief"]}, {"conceptId": "C105269", "definition": "Pain Relief - Minimum pain relief for various time periods of evaluation.", "preferredTerm": "PR - Minimum Pain Relief For Various Time Periods of Evaluation", "submissionValue": "PR0103", "synonyms": ["PR01-Minimum Pain Relief"]}, {"conceptId": "C105270", "definition": "Pain Relief - Maximum pain relief for various time periods of evaluation.", "preferredTerm": "PR - Maximum Pain Relief For Various Time Periods of Evaluation", "submissionValue": "PR0104", "synonyms": ["PR01-Maximum Pain Relief"]}, {"conceptId": "C105271", "definition": "Pain Relief - Least pain relief for various time periods of evaluation.", "preferredTerm": "PR - Least Pain Relief For Various Time Periods of Evaluation", "submissionValue": "PR0105", "synonyms": ["PR01-Least Pain Relief"]}, {"conceptId": "C105272", "definition": "Pain Relief - Worst pain relief for various time periods of evaluation.", "preferredTerm": "PR - Worst Pain Relief For Various Time Periods of Evaluation", "submissionValue": "PR0106", "synonyms": ["PR01-Worst Pain Relief"]}, {"conceptId": "C105273", "definition": "Pain Relief - Starting pain at least 1/2 Gone?", "preferredTerm": "PR - Starting Pain Half Gone", "submissionValue": "PR0107", "synonyms": ["PR01-Starting Pain at Least 1/2 Gone"]}, {"conceptId": "C105274", "definition": "Pain Relief - Was there perceptible pain relief?", "preferredTerm": "PR - Was There Perceptible Pain Relief", "submissionValue": "PR0108", "synonyms": ["PR01-Was there Perceptible Pain Relief"]}, {"conceptId": "C105275", "definition": "Pain Relief - Time to perceptible pain relief.", "preferredTerm": "PR - Time to Perceptible Pain Relief", "submissionValue": "PR0109", "synonyms": ["PR01-Time to Perceptible Pain Relief"]}, {"conceptId": "C105276", "definition": "Pain Relief - Was there meaningful pain relief?", "preferredTerm": "PR - Was There Meaningful Pain Relief", "submissionValue": "PR0110", "synonyms": ["PR01-Was there Meaningful Pain Relief"]}, {"conceptId": "C105277", "definition": "Pain Relief - Time to meaningful pain relief.", "preferredTerm": "PR - Time to Meaningful Pain Relief", "submissionValue": "PR0111", "synonyms": ["PR01-Time to Meaningful Pain Relief"]}]}