{"_links": {"parentPackage": {"href": "/mdr/ct/packages/sdtmct-2020-03-27", "title": "SDTM Controlled Terminology Package 41 Effective 2020-03-27", "type": "Terminology"}, "priorVersion": {"href": "/mdr/ct/packages/sdtmct-2019-12-20/codelists/C106482", "title": "CDISC SDTM Device-In-Use Test Name Terminology", "type": "Code List"}, "rootItem": {"href": "/mdr/root/ct/sdtmct/codelists/C106482", "title": "Version-agnostic anchor resource for codelist C106482", "type": "Root Value Domain"}, "self": {"href": "/mdr/ct/packages/sdtmct-2020-03-27/codelists/C106482", "title": "CDISC SDTM Device-In-Use Test Name Terminology", "type": "Code List"}}, "conceptId": "C106482", "definition": "A terminology codelist for the test name of the test or examination used to obtain the measurement or finding of the device in use.", "extensible": "true", "name": "Device-In-Use Test Name", "preferredTerm": "CDISC SDTM Device-In-Use Test Name Terminology", "submissionValue": "DUTEST", "synonyms": ["Device-In-Use Test Name"], "terms": [{"conceptId": "C102516", "definition": "The position and orientation of the image slice relative to the patient-based coordinate system. (NCI)", "preferredTerm": "Image Plane", "submissionValue": "Anatomical Plane", "synonyms": ["Anatomical Plane"]}, {"conceptId": "C94862", "definition": "The adjustment for the effect of tissue thicknesses through which gamma's travel from an activity concentration origin to the scanner's detectors. The count rates of a detector are adjusted to values as if there were no attenuation along the gamma's path. This makes possible accurate quantitation in image analysis. (NCI)", "preferredTerm": "Attenuation Correction", "submissionValue": "Attenuation Correction Type", "synonyms": ["Attenuation Correction Type"]}, {"conceptId": "C163418", "definition": "A setting on a device that specifies the ratio of the carbohydrates to insulin in the administered product.", "preferredTerm": "Carbohydrate to Insulin Ratio Device Setting", "submissionValue": "Carbohydrate to Insulin Ratio Setting", "synonyms": ["Carbohydrate to Insulin Ratio Setting"]}, {"conceptId": "C117759", "definition": "A visual stimulus that uses a checkerboard pattern which reverses every half-second (or other specified frequency). The check size can be changed to allow for testing of specific segments of the visual pathway.", "preferredTerm": "Checkerboard Square Size", "submissionValue": "Checkerboard Square Size", "synonyms": ["Checkerboard Square Size"]}, {"conceptId": "C106510", "definition": "The maximum voltage allowable to pass through an electromagnetic coil. (NCI)", "preferredTerm": "Coil Strength", "submissionValue": "Coil Strength", "synonyms": ["Coil Strength"]}, {"conceptId": "C142236", "definition": "An indication as to whether a continuous audio recording is made during the assessment.", "preferredTerm": "Continuous Audio Recording Made Indicator", "submissionValue": "Continuous Audio Recording Indicator", "synonyms": ["Continuous Audio Recording Indicator"]}, {"conceptId": "C116127", "definition": "An indication as to whether the image reconstruction took into account the time-activity curve during which the radiolabeled tracer decayed as it spread through the body during the image acquisition.", "preferredTerm": "Decay Correction Indicator", "submissionValue": "Decay Correction Indicator", "synonyms": ["Decay Correction Indicator"]}, {"conceptId": "C82331", "definition": "The time in milliseconds between the application of the excitation pulse and the recording of the peak echo signal. (NCI)", "preferredTerm": "Echo Time", "submissionValue": "Echo Time", "synonyms": ["Echo Time"]}, {"conceptId": "C74298", "definition": "The extent of an area that is visible. (NCI)", "preferredTerm": "Field of View", "submissionValue": "Field of View", "synonyms": ["Field of View"]}, {"conceptId": "C73792", "definition": "In magnetic resonance imaging, the rotation of the average axis of the protons, relative to the main magnetic field direction, induced by radiofrequency signals. (NCI)", "preferredTerm": "Flip Angle", "submissionValue": "Flip Angle", "synonyms": ["Flip Angle"]}, {"conceptId": "C170566", "definition": "A setting on a device that triggers the onset of an alarm when a pre-specified value of glucose level has been reached.", "preferredTerm": "Glucose Alert Threshold", "submissionValue": "Glucose Alert Threshold", "synonyms": ["Glucose Alert Threshold"]}, {"conceptId": "C170565", "definition": "A setting on a device where one can set and adjust the target value of blood glucose level.", "preferredTerm": "Glucose Target Level", "submissionValue": "Glucose Target Level", "synonyms": ["Glucose Target Level"]}, {"conceptId": "C116126", "definition": "The number of dimensions that the acquired image(s) are presented in.", "preferredTerm": "Image Acquisition Dimensionality", "submissionValue": "Image Acquisition Dimensionality", "synonyms": ["Image Acquisition Dimensionality"]}, {"conceptId": "C106533", "definition": "A measurement of the number of data fields, pixels or data points assigned to each linear dimension in a digital image. (NCI)", "preferredTerm": "Image Acquisition Matrix Size", "submissionValue": "Image Acquisition Matrix Size", "synonyms": ["Image Acquisition Matrix Size"]}, {"conceptId": "C116122", "definition": "A classification of the technique used to enhance image contrast based on differences in magnetic resonance tissue properties. This can be achieved by changing the echo time or repetition time after the tissue has returned to its equilibrium state.", "preferredTerm": "Image Weighting Type", "submissionValue": "Image Weighting Type", "synonyms": ["Image Weighting Type"]}, {"conceptId": "C116123", "definition": "A measurement of the distance between slices within an image sequence, calculated by subtracting the nominal slice thickness from the couch increment.", "preferredTerm": "Interslice Distance Measurement", "submissionValue": "Interslice Distance", "synonyms": ["Interslice Distance"]}, {"conceptId": "C116124", "definition": "The time between the inversion and excitation pulses in an inversion recovery pulse sequence.", "preferredTerm": "Inversion Time", "submissionValue": "Inversion Time", "synonyms": ["Inversion Time"]}, {"conceptId": "C165872", "definition": "A setting and safety feature on a device to control the maximum amount of a substance delivered in a single bolus.", "preferredTerm": "Maximum Bolus Device Setting", "submissionValue": "Maximum Bolus", "synonyms": ["Max Bolus", "Maximum Bolus"]}, {"conceptId": "C112364", "definition": "The number of channels, or elements, in the coil component of the device.", "preferredTerm": "Number of Coil Channels", "submissionValue": "Number of Coil Channels", "synonyms": ["Number of Coil Channels"]}, {"conceptId": "C154906", "definition": "The number of electrocardiogram electrodes used in the assessment.", "preferredTerm": "Number of Electrocardiogram Electrodes", "submissionValue": "Number of ECG Electrodes", "synonyms": ["Number of ECG Electrodes", "Number of EKG Electrodes", "Number of Electrocardiogram Electrodes"]}, {"conceptId": "C154713", "definition": "The number of electroencephalogram electrodes used in the assessment.", "preferredTerm": "Number of Electroencephalogram Electrodes", "submissionValue": "Number of EEG Electrodes", "synonyms": ["Number of EEG Electrodes", "Number of Electroencephalogram Electrodes"]}, {"conceptId": "C154908", "definition": "The number of electromyogram electrodes used in the assessment.", "preferredTerm": "Number of Electromyogram Electrodes", "submissionValue": "Number of EMG Electrodes", "synonyms": ["Number of EMG Electrodes", "Number of Electromyogram Electrodes"]}, {"conceptId": "C154907", "definition": "The number of electrooculogram electrodes used in the assessment.", "preferredTerm": "Number of Electrooculogram Electrodes", "submissionValue": "Number of EOG Electrodes", "synonyms": ["Number of EOG Electrodes", "Number of Electrooculogram Electrodes"]}, {"conceptId": "C116125", "definition": "The number of planar cross-sections in an imaging sequence; each slice corresponds to a single image.", "preferredTerm": "Number of Slices", "submissionValue": "Number of Slices", "synonyms": ["Number of Slices"]}, {"conceptId": "C156495", "definition": "The number of averages of the unsuppressed water spectrum signal that are captured during imaging.", "preferredTerm": "Number of Unsuppressed Water Averages", "submissionValue": "Number of Unsuppressed Water Averages", "synonyms": ["Number of Unsuppressed Water Averages"]}, {"conceptId": "C142237", "definition": "An indication as to whether a pulse oximeter is used in the assessment.", "preferredTerm": "Pulse Oximeter Use Indicator", "submissionValue": "Pulse Oximeter Indicator", "synonyms": ["Pulse Oximeter Indicator"]}, {"conceptId": "C106562", "definition": "A serially recurrent arrangement of radiofrequency pulses that are applied to the sample. (NCI)", "preferredTerm": "Pulse Sequence", "submissionValue": "Pulse Sequence", "synonyms": ["Pulse Sequence"]}, {"conceptId": "C116128", "definition": "An indication as to whether the device was set to correct for random noise generated by deflected positrons.", "preferredTerm": "Randoms Correction Indicator", "submissionValue": "Randoms Correction Indicator", "synonyms": ["Randoms Correction Indicator"]}, {"conceptId": "C106563", "definition": "The range between the minimum and maximum cut-off frequencies for a particular receiver, commonly measured in Hertz. (NCI)", "preferredTerm": "Receiver Bandwidth", "submissionValue": "Receiver Bandwidth", "synonyms": ["Receiver Bandwidth"]}, {"conceptId": "C106564", "definition": "A classification of the reconstruction filter used to suppress noise, enhance edges, resolution recovery and smooth an image.", "preferredTerm": "Reconstruction Filter Type", "submissionValue": "Reconstruction Filter Type", "synonyms": ["Reconstruction Filter Type"]}, {"conceptId": "C111303", "definition": "The type of mathematical process used to produce the displayed image from the raw k-space data obtained from the receiver circuitry. (NCI)", "preferredTerm": "Reconstruction of Raw Data Type", "submissionValue": "Reconstruction of Raw Data Type", "synonyms": ["Reconstruction of Raw Data Type"]}, {"conceptId": "C154716", "definition": "A mathematical formula to predict measured outcomes based on values of associated parameters determined to be related to a test. Reference equations are typically derived via regression analysis of parameters postulated to be relevant to the outcome over sample cohorts from large populations, and verified by comparing measured outcomes to predictions over out-of-sample cohorts.", "preferredTerm": "Reference Equation", "submissionValue": "Reference Equation", "synonyms": ["Reference Equation"]}, {"conceptId": "C82330", "definition": "The amount of time in milliseconds between successive pulse sequences applied to the same slice.", "preferredTerm": "Repetition Time", "submissionValue": "Repetition Time", "synonyms": ["Repetition Time"]}, {"conceptId": "C156501", "definition": "The time elapsed between the second and third pulses of the stimulated echo acquisition mode (STEAM) pulse sequence.", "preferredTerm": "STEAM Pulse Sequence Mixing Time", "submissionValue": "STEAM Pulse Sequence Mixing Time", "synonyms": ["STEAM Pulse Sequence Mixing Time", "Stimulated Echo Acquisition Mode Pulse Sequence Mixing Time"]}, {"conceptId": "C112416", "definition": "A measurement of the height of the signal.", "preferredTerm": "Signal Amplitude", "submissionValue": "Signal Amplitude", "synonyms": ["Signal Amplitude"]}, {"conceptId": "C112417", "definition": "A measurement of the number of cycles of a periodic wave or pulse per unit of time.", "preferredTerm": "Signal Frequency", "submissionValue": "Signal Frequency", "synonyms": ["Signal Frequency"]}, {"conceptId": "C112418", "definition": "A measurement of the range of values seen in the time interval between the beginning and end of the pulse wave.", "preferredTerm": "Signal Width", "submissionValue": "Signal Width", "synonyms": ["Signal Width"]}, {"conceptId": "C111314", "definition": "The numeric identifier used to identify an image slice. (NCI)", "preferredTerm": "Slice Number", "submissionValue": "Slice Number", "synonyms": ["Slice Number"]}, {"conceptId": "C106534", "definition": "The dimension between two surfaces of an imaging plane. (NCI)", "preferredTerm": "Image Slice Thickness", "submissionValue": "Slice Thickness", "synonyms": ["Slice Thickness"]}, {"conceptId": "C111093", "definition": "A form or variant of software; one of a sequence of copies of a software program, each incorporating new modifications. (NCI)", "preferredTerm": "Software Version", "submissionValue": "Software Version", "synonyms": ["Software Version"]}, {"conceptId": "C156496", "definition": "The width of the wavelength interval at half maximum amplitude.", "preferredTerm": "Spectral Width", "submissionValue": "Spectral Width", "synonyms": ["Spectral Width"]}, {"conceptId": "C114145", "definition": "The type of electrode (monopolar or bipolar) used on the subject during electrical stimulation of the body or organ.", "preferredTerm": "Electrical Stimulation Electrode Type", "submissionValue": "Stimulation Parameter", "synonyms": ["Stimulation Parameter"]}, {"conceptId": "C158156", "definition": "The concentration or quantity of the treatment.", "preferredTerm": "Treatment Amount", "submissionValue": "Treatment Amount", "synonyms": ["Treatment Amount"]}, {"conceptId": "C130045", "definition": "The image acquisition settings of an ultrasound-based imaging modality, based on parameters including transducer design, ultrasound frequency, and ultrasound signal processing.", "preferredTerm": "Ultrasound Mode", "submissionValue": "Ultrasound Mode", "synonyms": ["Ultrasound Mode"]}, {"conceptId": "C156500", "definition": "The angle of the voxel relative to the coordinate system of the scanner.", "preferredTerm": "Voxel Orientation", "submissionValue": "Voxel Orientation", "synonyms": ["Voxel Angle", "Voxel Orientation"]}, {"conceptId": "C156661", "definition": "The technique used to mitigate the signal that is generated from body water during imaging.", "preferredTerm": "Water Signal Suppression Method", "submissionValue": "Water Signal Suppression Method", "synonyms": ["Water Signal Suppression Method"]}, {"conceptId": "C156497", "definition": "The linear measurement of a voxel along the X-axis.", "preferredTerm": "X-Axis Voxel Dimension", "submissionValue": "X-Axis Voxel Dimension", "synonyms": ["X-Axis Voxel Dimension"]}, {"conceptId": "C69201", "definition": "A measurement of the distance between the centers of two adjacent pixels located along the X-axis.", "preferredTerm": "Horizontal Pixel Spacing", "submissionValue": "X-axis Pixel Spacing", "synonyms": ["X-axis Pixel Spacing"]}, {"conceptId": "C156498", "definition": "The linear measurement of a voxel along the Y-axis.", "preferredTerm": "Y-Axis Voxel Dimension", "submissionValue": "Y-Axis Voxel Dimension", "synonyms": ["Y-Axis Voxel Dimension"]}, {"conceptId": "C69210", "definition": "A measurement of the distance between the centers of two adjacent pixels located along the Y-axis.", "preferredTerm": "Vertical Pixel Spacing", "submissionValue": "Y-axis Pixel Spacing", "synonyms": ["Y-axis Pixel Spacing"]}, {"conceptId": "C156499", "definition": "The linear measurement of a voxel along the Z-axis.", "preferredTerm": "Z-Axis Voxel Dimension", "submissionValue": "Z-Axis Voxel Dimension", "synonyms": ["Z-Axis Voxel Dimension"]}]}