{"_links": {"parentPackage": {"href": "/mdr/ct/packages/sdtmct-2020-03-27", "title": "SDTM Controlled Terminology Package 41 Effective 2020-03-27", "type": "Terminology"}, "priorVersion": {"href": "/mdr/ct/packages/sdtmct-2019-12-20/codelists/C112447", "title": "CDISC Questionnaire PDDS Test Code Terminology", "type": "Code List"}, "rootItem": {"href": "/mdr/root/ct/sdtmct/codelists/C112447", "title": "Version-agnostic anchor resource for codelist C112447", "type": "Root Value Domain"}, "self": {"href": "/mdr/ct/packages/sdtmct-2020-03-27/codelists/C112447", "title": "CDISC Questionnaire PDDS Test Code Terminology", "type": "Code List"}}, "conceptId": "C112447", "definition": "Patient Determined Disease Steps test code.", "extensible": "false", "name": "Patient Determined Disease Steps Questionnaire Test Code", "preferredTerm": "CDISC Questionnaire PDDS Test Code Terminology", "submissionValue": "PDDS01TC", "synonyms": ["Patient Determined Disease Steps Questionnaire Test Code"], "terms": [{"conceptId": "C112626", "definition": "Patient Determined Disease Steps - This scale focuses mainly on how well you walk. You might not find a description that reflects your condition exactly, but please mark the one category that describes your situation the closest.", "preferredTerm": "PDDS - Category Describing Situation", "submissionValue": "PDDS0101", "synonyms": ["PDDS01-Category Describing Situation"]}]}