{"_links": {"parentPackage": {"href": "/mdr/ct/packages/sdtmct-2020-03-27", "title": "SDTM Controlled Terminology Package 41 Effective 2020-03-27", "type": "Terminology"}, "priorVersion": {"href": "/mdr/ct/packages/sdtmct-2019-12-20/codelists/C112441", "title": "CDISC Questionnaire FAMS Test Code Terminology", "type": "Code List"}, "rootItem": {"href": "/mdr/root/ct/sdtmct/codelists/C112441", "title": "Version-agnostic anchor resource for codelist C112441", "type": "Root Value Domain"}, "self": {"href": "/mdr/ct/packages/sdtmct-2020-03-27/codelists/C112441", "title": "CDISC Questionnaire FAMS Test Code Terminology", "type": "Code List"}}, "conceptId": "C112441", "definition": "Functional Assessment of Multiple Sclerosis Version 4 test code.", "extensible": "false", "name": "Functional Assessment of Multiple Sclerosis Version 4 Questionnaire Test Code", "preferredTerm": "CDISC Questionnaire FAMS Test Code Terminology", "submissionValue": "FAMS01TC", "synonyms": ["Functional Assessment of Multiple Sclerosis Version 4 Questionnaire Test Code"], "terms": [{"conceptId": "C112551", "definition": "Functional Assessment of Multiple Sclerosis - Mobility: Because of my physical condition, I have trouble meeting the needs of my family.", "preferredTerm": "FAMS - Have Trouble Meeting Needs of Family Because of My Condition", "submissionValue": "FAMS0101", "synonyms": ["FAMS01-Trouble Meeting Needs of Family"]}, {"conceptId": "C112552", "definition": "Functional Assessment of Multiple Sclerosis - Mobility: I am able to work (include work at home).", "preferredTerm": "FAMS - I Am Able to Work", "submissionValue": "FAMS0102", "synonyms": ["FAMS01-I Am Able to Work"]}, {"conceptId": "C112553", "definition": "Functional Assessment of Multiple Sclerosis - Mobility: I have trouble walking.", "preferredTerm": "FAMS - I Have Trouble Walking", "submissionValue": "FAMS0103", "synonyms": ["FAMS01-I Have Trouble Walking"]}, {"conceptId": "C112554", "definition": "Functional Assessment of Multiple Sclerosis - Mobility: I have to limit my social activity because of my condition.", "preferredTerm": "FAMS - Limit Social Activity Because of Condition", "submissionValue": "FAMS0104", "synonyms": ["FAMS01-Limit My Social Activity"]}, {"conceptId": "C112555", "definition": "Functional Assessment of Multiple Sclerosis - Mobility: I have strength in my legs.", "preferredTerm": "FAMS - I Have Strength in My Legs", "submissionValue": "FAMS0105", "synonyms": ["FAMS01-I Have Strength in My Legs"]}, {"conceptId": "C112556", "definition": "Functional Assessment of Multiple Sclerosis - Mobility: I have trouble getting around in public places.", "preferredTerm": "FAMS - Trouble Getting Around in Public Places", "submissionValue": "FAMS0106", "synonyms": ["FAMS01-Trouble Getting Around in Public"]}, {"conceptId": "C112557", "definition": "Functional Assessment of Multiple Sclerosis - Mobility: I have to take my condition into account when making plans.", "preferredTerm": "FAMS - Have to Take Condition Into Account When Making Plans", "submissionValue": "FAMS0107", "synonyms": ["FAMS01-Take My Condition Into Account"]}, {"conceptId": "C112558", "definition": "Functional Assessment of Multiple Sclerosis - Symptoms: I have nausea.", "preferredTerm": "FAMS - I Have Nausea", "submissionValue": "FAMS0108", "synonyms": ["FAMS01-I Have Nausea"]}, {"conceptId": "C112559", "definition": "Functional Assessment of Multiple Sclerosis - Symptoms: I have pain.", "preferredTerm": "FAMS - I Have Pain", "submissionValue": "FAMS0109", "synonyms": ["FAMS01-I Have Pain"]}, {"conceptId": "C112560", "definition": "Functional Assessment of Multiple Sclerosis - Symptoms: I feel ill.", "preferredTerm": "FAMS - I Feel Ill", "submissionValue": "FAMS0110", "synonyms": ["FAMS01-I Feel Ill"]}, {"conceptId": "C112561", "definition": "Functional Assessment of Multiple Sclerosis - Symptoms: I feel weak all over.", "preferredTerm": "FAMS - I Feel Weak All Over", "submissionValue": "FAMS0111", "synonyms": ["FAMS01-I Feel Weak All Over"]}, {"conceptId": "C112562", "definition": "Functional Assessment of Multiple Sclerosis - Symptoms: I have pain in my joints.", "preferredTerm": "FAMS - I Have Pain in My Joints", "submissionValue": "FAMS0112", "synonyms": ["FAMS01-I Have Pain in My Joints"]}, {"conceptId": "C112563", "definition": "Functional Assessment of Multiple Sclerosis - Symptoms: I am bothered by headaches.", "preferredTerm": "FAMS - Bothered by Headaches", "submissionValue": "FAMS0113", "synonyms": ["FAMS01-I Am Bothered by Headaches"]}, {"conceptId": "C112564", "definition": "Functional Assessment of Multiple Sclerosis - Symptoms: I am bothered by muscle pains.", "preferredTerm": "FAMS - Bothered by Muscle Pains", "submissionValue": "FAMS0114", "synonyms": ["FAMS01-I Am Bothered by Muscle Pains"]}, {"conceptId": "C112565", "definition": "Functional Assessment of Multiple Sclerosis - Emotional Well-Being: I feel sad.", "preferredTerm": "FAMS - I Feel Sad", "submissionValue": "FAMS0115", "synonyms": ["FAMS01-I Feel Sad"]}, {"conceptId": "C112566", "definition": "Functional Assessment of Multiple Sclerosis - Emotional Well-Being: I am losing hope in the fight against my illness.", "preferredTerm": "FAMS - Losing Hope in Fight Against My Illness", "submissionValue": "FAMS0116", "synonyms": ["FAMS01-Losing Hope Against Illness"]}, {"conceptId": "C112567", "definition": "Functional Assessment of Multiple Sclerosis - Emotional Well-Being: I am able to enjoy life.", "preferredTerm": "FAMS - I Am Able to Enjoy Life", "submissionValue": "FAMS0117", "synonyms": ["FAMS01-I Am Able to Enjoy Life"]}, {"conceptId": "C112568", "definition": "Functional Assessment of Multiple Sclerosis - Emotional Well-Being: I feel trapped by my condition.", "preferredTerm": "FAMS - Feel Trapped by My Condition", "submissionValue": "FAMS0118", "synonyms": ["FAMS01-I Feel Trapped by My Condition"]}, {"conceptId": "C112569", "definition": "Functional Assessment of Multiple Sclerosis - Emotional Well-Being: I am depressed about my condition.", "preferredTerm": "FAMS - Depressed About My Condition", "submissionValue": "FAMS0119", "synonyms": ["FAMS01-I Am Depressed About My Condition"]}, {"conceptId": "C112570", "definition": "Functional Assessment of Multiple Sclerosis - Emotional Well-Being: I feel useless.", "preferredTerm": "FAMS - I Feel Useless", "submissionValue": "FAMS0120", "synonyms": ["FAMS01-I Feel Useless"]}, {"conceptId": "C112571", "definition": "Functional Assessment of Multiple Sclerosis - Emotional Well-Being: I feel overwhelmed by my condition.", "preferredTerm": "FAMS - Feel Overwhelmed by My Condition", "submissionValue": "FAMS0121", "synonyms": ["FAMS01-Feel Overwhelmed by My Condition"]}, {"conceptId": "C112572", "definition": "Functional Assessment of Multiple Sclerosis - General Contentment: My work (include work at home) is fulfilling.", "preferredTerm": "FAMS - My Work is Fulfilling", "submissionValue": "FAMS0122", "synonyms": ["FAMS01-My Work Is Fulfilling"]}, {"conceptId": "C112573", "definition": "Functional Assessment of Multiple Sclerosis - General Contentment: I have accepted my illness.", "preferredTerm": "FAMS - I Have Accepted My Illness", "submissionValue": "FAMS0123", "synonyms": ["FAMS01-I Have Accepted My Illness"]}, {"conceptId": "C112574", "definition": "Functional Assessment of Multiple Sclerosis - General Contentment: I am enjoying the things I usually do for fun.", "preferredTerm": "FAMS - Enjoying Things I Usually Do for Fun", "submissionValue": "FAMS0124", "synonyms": ["FAMS01-Enjoy Things I Usually Do for Fun"]}, {"conceptId": "C112575", "definition": "Functional Assessment of Multiple Sclerosis - General Contentment: I am content with the quality of my life right now.", "preferredTerm": "FAMS - Content With Quality of My Life Now", "submissionValue": "FAMS0125", "synonyms": ["FAMS01-Content With Quality of My Life"]}, {"conceptId": "C112576", "definition": "Functional Assessment of Multiple Sclerosis - General Contentment: I am frustrated by my condition.", "preferredTerm": "FAMS - I Am Frustrated by My Condition", "submissionValue": "FAMS0126", "synonyms": ["FAMS01-I Am Frustrated by My Condition"]}, {"conceptId": "C112577", "definition": "Functional Assessment of Multiple Sclerosis - General Contentment: I feel a sense of purpose in my life.", "preferredTerm": "FAMS - Feel Sense of Purpose in My Life", "submissionValue": "FAMS0127", "synonyms": ["FAMS01-Feel Sense of Purpose in My Life"]}, {"conceptId": "C112578", "definition": "Functional Assessment of Multiple Sclerosis - General Contentment: I feel motivated to do things.", "preferredTerm": "FAMS - Feel Motivated to Do Things", "submissionValue": "FAMS0128", "synonyms": ["FAMS01-I Feel Motivated to Do Things"]}, {"conceptId": "C112579", "definition": "Functional Assessment of Multiple Sclerosis - Thinking and Fatigue: I have a lack of energy.", "preferredTerm": "FAMS - Have a Lack of Energy", "submissionValue": "FAMS0129", "synonyms": ["FAMS01-I Have a Lack of Energy"]}, {"conceptId": "C112580", "definition": "Functional Assessment of Multiple Sclerosis - Thinking and Fatigue: I feel tired.", "preferredTerm": "FAMS - I Feel Tired", "submissionValue": "FAMS0130", "synonyms": ["FAMS01-I Feel Tired"]}, {"conceptId": "C112581", "definition": "Functional Assessment of Multiple Sclerosis - Thinking and Fatigue: I have trouble starting things because I am tired.", "preferredTerm": "FAMS - Trouble Starting Things Because I Am Tired", "submissionValue": "FAMS0131", "synonyms": ["FAMS01-Trouble Starting Things"]}, {"conceptId": "C112582", "definition": "Functional Assessment of Multiple Sclerosis - Thinking and Fatigue: I have trouble finishing things because I am tired.", "preferredTerm": "FAMS - Trouble Finishing Things Because I Am Tired", "submissionValue": "FAMS0132", "synonyms": ["FAMS01-Trouble Finishing Things"]}, {"conceptId": "C112583", "definition": "Functional Assessment of Multiple Sclerosis - Thinking and Fatigue: I need to rest during the day.", "preferredTerm": "FAMS - Need to Rest During the Day", "submissionValue": "FAMS0133", "synonyms": ["FAMS01-I Need to Rest During the Day"]}, {"conceptId": "C112584", "definition": "Functional Assessment of Multiple Sclerosis - Thinking and Fatigue: I have trouble remembering things.", "preferredTerm": "FAMS - Trouble Remembering Things", "submissionValue": "FAMS0134", "synonyms": ["FAMS01-I Have Trouble Remembering Things"]}, {"conceptId": "C112585", "definition": "Functional Assessment of Multiple Sclerosis - Thinking and Fatigue: I have trouble concentrating.", "preferredTerm": "FAMS - Trouble Concentrating", "submissionValue": "FAMS0135", "synonyms": ["FAMS01-I Have Trouble Concentrating"]}, {"conceptId": "C112586", "definition": "Functional Assessment of Multiple Sclerosis - Thinking and Fatigue: My thinking is slower than before.", "preferredTerm": "FAMS - My Thinking is Slower Than Before", "submissionValue": "FAMS0136", "synonyms": ["FAMS01-My Thinking Is Slower Than Before"]}, {"conceptId": "C112587", "definition": "Functional Assessment of Multiple Sclerosis - Thinking and Fatigue: I have trouble learning new tasks or directions.", "preferredTerm": "FAMS - Trouble Learning New Tasks or Directions", "submissionValue": "FAMS0137", "synonyms": ["FAMS01-I Have Trouble Learning New Tasks"]}, {"conceptId": "C112588", "definition": "Functional Assessment of Multiple Sclerosis - Family/Social Well-Being: I feel close to my friends.", "preferredTerm": "FAMS - Feel Close to My Friends", "submissionValue": "FAMS0138", "synonyms": ["FAMS01-I Feel Close to My Friends"]}, {"conceptId": "C112589", "definition": "Functional Assessment of Multiple Sclerosis - Family/Social Well-Being: I get emotional support from my family.", "preferredTerm": "FAMS - Get Emotional Support From Family", "submissionValue": "FAMS0139", "synonyms": ["FAMS01-Get Emotional Support From Family"]}, {"conceptId": "C112590", "definition": "Functional Assessment of Multiple Sclerosis - Family/Social Well-Being: I get support from my friends.", "preferredTerm": "FAMS - Get Support From Friends", "submissionValue": "FAMS0140", "synonyms": ["FAMS01-I Get Support From My Friends"]}, {"conceptId": "C112591", "definition": "Functional Assessment of Multiple Sclerosis - Family/Social Well-Being: My family has accepted my illness.", "preferredTerm": "FAMS - Family Has Accepted My Illness", "submissionValue": "FAMS0141", "synonyms": ["FAMS01-My Family Has Accepted My Illness"]}, {"conceptId": "C112592", "definition": "Functional Assessment of Multiple Sclerosis - Family/Social Well-Being: I am satisfied with family communication about my illness.", "preferredTerm": "FAMS - Satisfied With Family Communication About My Illness", "submissionValue": "FAMS0142", "synonyms": ["FAMS01-Satisfied Communication Illness"]}, {"conceptId": "C112593", "definition": "Functional Assessment of Multiple Sclerosis - Family/Social Well-Being: My family has trouble understanding when my condition gets worse.", "preferredTerm": "FAMS - Family Has Trouble Understanding When My Condition Gets Worse", "submissionValue": "FAMS0143", "synonyms": ["FAMS01-Trouble Understanding Worsening"]}, {"conceptId": "C112594", "definition": "Functional Assessment of Multiple Sclerosis - Family/Social Well-Being: I feel 'left out' of things.", "preferredTerm": "FAMS - Feel Left Out of Things", "submissionValue": "FAMS0144", "synonyms": ["FAMS01-I Feel Left Out of Things"]}, {"conceptId": "C112595", "definition": "Functional Assessment of Multiple Sclerosis - Additional Concerns: I am bothered by side effects of treatment.", "preferredTerm": "FAMS - Bothered by Side Effects of Treatment", "submissionValue": "FAMS0145", "synonyms": ["FAMS01-Bothered by Treatment Side Effect"]}, {"conceptId": "C112596", "definition": "Functional Assessment of Multiple Sclerosis - Additional Concerns: I am forced to spend time in bed.", "preferredTerm": "FAMS - Forced to Spend Time in Bed", "submissionValue": "FAMS0146", "synonyms": ["FAMS01-I Am Forced to Spend Time in Bed"]}, {"conceptId": "C112597", "definition": "Functional Assessment of Multiple Sclerosis - Additional Concerns: I feel close to my partner (or the person who is my main support).", "preferredTerm": "FAMS - Feel Close to My Partner", "submissionValue": "FAMS0147", "synonyms": ["FAMS01-I Feel Close to My Partner"]}, {"conceptId": "C112598", "definition": "Functional Assessment of Multiple Sclerosis - Additional Concerns: I am satisfied with my sex life.", "preferredTerm": "FAMS - Satisfied With My Sex Life", "submissionValue": "FAMS0148", "synonyms": ["FAMS01-I Am Satisfied With My Sex Life"]}, {"conceptId": "C112599", "definition": "Functional Assessment of Multiple Sclerosis - Additional Concerns: I am satisfied with how I am coping with my illness.", "preferredTerm": "FAMS - Satisfied With How I Am Coping With Illness", "submissionValue": "FAMS0149", "synonyms": ["FAMS01-Satisfied With How I Am Coping"]}, {"conceptId": "C112600", "definition": "Functional Assessment of Multiple Sclerosis - Additional Concerns: I feel nervous.", "preferredTerm": "FAMS - I Feel Nervous", "submissionValue": "FAMS0150", "synonyms": ["FAMS01-I Feel Nervous"]}, {"conceptId": "C112601", "definition": "Functional Assessment of Multiple Sclerosis - Additional Concerns: I worry that my condition will get worse.", "preferredTerm": "FAMS - Worry My Condition Will Get Worse", "submissionValue": "FAMS0151", "synonyms": ["FAMS01-Worry My Condition Will Get Worse"]}, {"conceptId": "C112602", "definition": "Functional Assessment of Multiple Sclerosis - Additional Concerns: I am sleeping well.", "preferredTerm": "FAMS - I Am Sleeping Well", "submissionValue": "FAMS0152", "synonyms": ["FAMS01-I Am Sleeping Well"]}, {"conceptId": "C112603", "definition": "Functional Assessment of Multiple Sclerosis - Additional Concerns: Heat worsens my symptoms.", "preferredTerm": "FAMS - Heat Worsens My Symptoms", "submissionValue": "FAMS0153", "synonyms": ["FAMS01-Heat Worsens My Symptoms"]}, {"conceptId": "C112604", "definition": "Functional Assessment of Multiple Sclerosis - Additional Concerns: I have trouble controlling my urine.", "preferredTerm": "FAMS - Trouble Controlling My Urine", "submissionValue": "FAMS0154", "synonyms": ["FAMS01-Have Trouble Controlling My Urine"]}, {"conceptId": "C112605", "definition": "Functional Assessment of Multiple Sclerosis - Additional Concerns: I urinate more frequently than usual.", "preferredTerm": "FAMS - Urinate More Frequently Than Usual", "submissionValue": "FAMS0155", "synonyms": ["FAMS01-I Urinate More Frequently"]}, {"conceptId": "C112606", "definition": "Functional Assessment of Multiple Sclerosis - Additional Concerns: I am bothered by the chills.", "preferredTerm": "FAMS - Bothered by Chills", "submissionValue": "FAMS0156", "synonyms": ["FAMS01-I Am Bothered by the Chills"]}, {"conceptId": "C112607", "definition": "Functional Assessment of Multiple Sclerosis - Additional Concerns: I am bothered by fevers (episodes of high body temperature).", "preferredTerm": "FAMS - Bothered by Fevers", "submissionValue": "FAMS0157", "synonyms": ["FAMS01-I Am Bothered by Fevers"]}, {"conceptId": "C112608", "definition": "Functional Assessment of Multiple Sclerosis - Additional Concerns: I am bothered by muscle spasms.", "preferredTerm": "FAMS - Bothered by Muscle Spasms", "submissionValue": "FAMS0158", "synonyms": ["FAMS01-I Am Bothered by Muscle Spasms"]}]}