{"_links": {"parentPackage": {"href": "/mdr/ct/packages/sdtmct-2020-03-27", "title": "SDTM Controlled Terminology Package 41 Effective 2020-03-27", "type": "Terminology"}, "priorVersion": {"href": "/mdr/ct/packages/sdtmct-2019-12-20/codelists/C113847", "title": "CDISC Questionnaire C-SSRS Pediatric/Cognitively Impaired Lifetime/Recent Test Name Terminology", "type": "Code List"}, "rootItem": {"href": "/mdr/root/ct/sdtmct/codelists/C113847", "title": "Version-agnostic anchor resource for codelist C113847", "type": "Root Value Domain"}, "self": {"href": "/mdr/ct/packages/sdtmct-2020-03-27/codelists/C113847", "title": "CDISC Questionnaire C-SSRS Pediatric/Cognitively Impaired Lifetime/Recent Test Name Terminology", "type": "Code List"}}, "conceptId": "C113847", "definition": "Columbia-Suicide Severity Rating Scale Pediatric/Cognitively Impaired Lifetime/Recent test name.", "extensible": "false", "name": "Columbia-Suicide Severity Rating Scale Pediatric/Cognitively Impaired Lifetime/Recent Questionnaire Test Name", "preferredTerm": "CDISC Questionnaire C-SSRS Pediatric/Cognitively Impaired Lifetime/Recent Test Name Terminology", "submissionValue": "CSS10TN", "synonyms": ["Columbia-Suicide Severity Rating Scale Pediatric/Cognitively Impaired Lifetime/Recent Questionnaire Test Name"], "terms": [{"conceptId": "C113929", "definition": "Columbia-Suicide Severity Rating Scale Pediatric/Cognitively Impaired Lifetime/Recent - Description of aborted or self-interrupted attempt.", "preferredTerm": "C-SSRS Pediatric/Cognitively Impaired Lifetime/Recent - Description of Aborted Suicide Attempt", "submissionValue": "CSS10-Aborted Attempt, Describe", "synonyms": ["CSS10-Aborted Attempt, Describe"]}, {"conceptId": "C113925", "definition": "Columbia-Suicide Severity Rating Scale Pediatric/Cognitively Impaired Lifetime/Recent - Has there been a time when you started to do something to make yourself not alive anymore (end your life or kill yourself) but you changed your mind (stopped yourself) before you actually did anything? What did you do? (Lifetime).", "preferredTerm": "C-SSRS Pediatric/Cognitively Impaired Lifetime/Recent - Aborted or Self-interrupted Suicide Attempt (Lifetime)", "submissionValue": "CSS10-Aborted Attempt-Life", "synonyms": ["CSS10-Aborted Attempt-Life"]}, {"conceptId": "C113926", "definition": "Columbia-Suicide Severity Rating Scale Pediatric/Cognitively Impaired Lifetime/Recent - Has there been a time when you started to do something to make yourself not alive anymore (end your life or kill yourself) but you changed your mind (stopped yourself) before you actually did anything? What did you do? (Past 3 Months).", "preferredTerm": "C-SSRS Pediatric/Cognitively Impaired Lifetime/Recent - Aborted or Self-interrupted Suicide Attempt (Past 3 Months)", "submissionValue": "CSS10-Aborted Attempt-P3M", "synonyms": ["CSS10-Aborted Attempt-P3M"]}, {"conceptId": "C113915", "definition": "Columbia-Suicide Severity Rating Scale Pediatric/Cognitively Impaired Lifetime/Recent - Description of actual attempt.", "preferredTerm": "C-SSRS Pediatric/Cognitively Impaired Lifetime/Recent - Description of Actual Suicide Attempt", "submissionValue": "CSS10-Actual Attempt, Describe", "synonyms": ["CSS10-Actual Attempt, Describe"]}, {"conceptId": "C113911", "definition": "Columbia-Suicide Severity Rating Scale Pediatric/Cognitively Impaired Lifetime/Recent - Did you ever do anything to try to kill yourself or make yourself not alive anymore? What did you do? Did you ever hurt yourself on purpose? Why did you do that? (Lifetime).", "preferredTerm": "C-SSRS Pediatric/Cognitively Impaired Lifetime/Recent - Actual Suicide Attempt (Lifetime)", "submissionValue": "CSS10-Actual Attempt-Life", "synonyms": ["CSS10-Actual Attempt-Life"]}, {"conceptId": "C113912", "definition": "Columbia-Suicide Severity Rating Scale Pediatric/Cognitively Impaired Lifetime/Recent - Did you ever do anything to try to kill yourself or make yourself not alive anymore? What did you do? Did you ever hurt yourself on purpose? Why did you do that? (Past 3 Months).", "preferredTerm": "C-SSRS Pediatric/Cognitively Impaired Lifetime/Recent - Actual Suicide Attempt (Past 3 Month)", "submissionValue": "CSS10-Actual Attempt-P3M", "synonyms": ["CSS10-Actual Attempt-P3M"]}, {"conceptId": "C113942", "definition": "Columbia-Suicide Severity Rating Scale Pediatric/Cognitively Impaired Lifetime/Recent - Initial/first attempt actual lethality/medical damage.", "preferredTerm": "C-SSRS Pediatric/Cognitively Impaired Lifetime/Recent - First Suicide Attempt Actual Lethality/Medical Damage", "submissionValue": "CSS10-First Attempt Damage", "synonyms": ["CSS10-First Attempt Damage"]}, {"conceptId": "C113941", "definition": "Columbia-Suicide Severity Rating Scale Pediatric/Cognitively Impaired Lifetime/Recent - Initial/first attempt date.", "preferredTerm": "C-SSRS Pediatric/Cognitively Impaired Lifetime/Recent - First Suicide Attempt Date", "submissionValue": "CSS10-First Attempt Date", "synonyms": ["CSS10-First Attempt Date"]}, {"conceptId": "C113943", "definition": "Columbia-Suicide Severity Rating Scale Pediatric/Cognitively Impaired Lifetime/Recent - Initial/first attempt potential lethality.", "preferredTerm": "C-SSRS Pediatric/Cognitively Impaired Lifetime/Recent - First Suicide Attempt Potential Lethality", "submissionValue": "CSS10-First Attempt Potential", "synonyms": ["CSS10-First Attempt Potential"]}, {"conceptId": "C113910", "definition": "Columbia-Suicide Severity Rating Scale Pediatric/Cognitively Impaired Lifetime/Recent - Frequency, write response.", "preferredTerm": "C-SSRS Pediatric/Cognitively Impaired Lifetime/Recent - Frequency Write Response", "submissionValue": "CSS10-Frequency, Write Response", "synonyms": ["CSS10-Frequency, Write Response"]}, {"conceptId": "C113900", "definition": "Columbia-Suicide Severity Rating Scale Pediatric/Cognitively Impaired Lifetime/Recent - Description of active suicidal ideation with some intent to act, without specific plan.", "preferredTerm": "C-SSRS Pediatric/Cognitively Impaired Lifetime/Recent - Description of Active Suicidal Ideation With Some Intent to Act, Without Specific Plan", "submissionValue": "CSS10-Idea, Intent, No Plan, Describe", "synonyms": ["CSS10-Idea, Intent, No Plan, Describe"]}, {"conceptId": "C113898", "definition": "Columbia-Suicide Severity Rating Scale Pediatric/Cognitively Impaired Lifetime/Recent - When you thought about making yourself not alive anymore (or killing yourself), did you think that this was something you might actually do? This is different from (as opposed to) having the thoughts but knowing you wouldn't do anything about it. (Lifetime).", "preferredTerm": "C-SSRS Pediatric/Cognitively Impaired Lifetime/Recent - Active Suicidal Ideation With Some Intent to Act, Without Specific Plan (Lifetime)", "submissionValue": "CSS10-Idea, Intent, No Plan-Life", "synonyms": ["CSS10-Idea, Intent, No Plan-Life"]}, {"conceptId": "C113899", "definition": "Columbia-Suicide Severity Rating Scale Pediatric/Cognitively Impaired Lifetime/Recent - When you thought about making yourself not alive anymore (or killing yourself), did you think that this was something you might actually do? This is different from (as opposed to) having the thoughts but knowing you wouldn't do anything about it. (Past 1 Month).", "preferredTerm": "C-SSRS Pediatric/Cognitively Impaired Lifetime/Recent - Active Suicidal Ideation With Some Intent to Act, Without Specific Plan (Past 1 Month)", "submissionValue": "CSS10-Idea, Intent, No Plan-P1M", "synonyms": ["CSS10-Idea, Intent, No Plan-P1M"]}, {"conceptId": "C113897", "definition": "Columbia-Suicide Severity Rating Scale Pediatric/Cognitively Impaired Lifetime/Recent - Description of active suicidal ideation with any methods (not plan) without intent to act.", "preferredTerm": "C-SSRS Pediatric/Cognitively Impaired Lifetime/Recent - Description of Active Suicidal Ideation With Any Methods (Not Plan) Without Intent to Act", "submissionValue": "CSS10-Idea, No Intent, No Plan, Describe", "synonyms": ["CSS10-Idea, No Intent, No Plan, Describe"]}, {"conceptId": "C113895", "definition": "Columbia-Suicide Severity Rating Scale Pediatric/Cognitively Impaired Lifetime/Recent - Have you thought about how you would do that or how you would make yourself not alive anymore (kill yourself)? What did you think about? (Lifetime).", "preferredTerm": "C-SSRS Pediatric/Cognitively Impaired Lifetime/Recent - Active Suicidal Ideation With Any Methods (Not Plan) Without Intent to Act (Lifetime)", "submissionValue": "CSS10-Idea, No Intent, No Plan-Life", "synonyms": ["CSS10-Idea, No Intent, No Plan-Life"]}, {"conceptId": "C113896", "definition": "Columbia-Suicide Severity Rating Scale Pediatric/Cognitively Impaired Lifetime/Recent - Have you thought about how you would do that or how you would make yourself not alive anymore (kill yourself)? What did you think about? (Past 1 Month).", "preferredTerm": "C-SSRS Pediatric/Cognitively Impaired Lifetime/Recent - Active Suicidal Ideation With Any Methods (Not Plan) Without Intent to Act (Past 1 Month)", "submissionValue": "CSS10-Idea, No Intent, No Plan-P1M", "synonyms": ["CSS10-Idea, No Intent, No Plan-P1M"]}, {"conceptId": "C113903", "definition": "Columbia-Suicide Severity Rating Scale Pediatric/Cognitively Impaired Lifetime/Recent - Description of active suicidal ideation with specific plan and intent.", "preferredTerm": "C-SSRS Pediatric/Cognitively Impaired Lifetime/Recent - Description of Active Suicidal Ideation With Specific Plan and Intent", "submissionValue": "CSS10-Idea, Plan, Intent, Describe", "synonyms": ["CSS10-Idea, Plan, Intent, Describe"]}, {"conceptId": "C113901", "definition": "Columbia-Suicide Severity Rating Scale Pediatric/Cognitively Impaired Lifetime/Recent - Have you ever decided how or when you would make yourself not alive anymore/kill yourself? Have you ever planned out (worked out the details of) how you would do it? What was your plan? When you made this plan (or worked out these details), was any part of you thinking about actually doing it? (Lifetime).", "preferredTerm": "C-SSRS Pediatric/Cognitively Impaired Lifetime/Recent - Active Suicidal Ideation With Specific Plan and Intent (Lifetime)", "submissionValue": "CSS10-Idea, Plan, Intent-Life", "synonyms": ["CSS10-Idea, Plan, Intent-Life"]}, {"conceptId": "C113902", "definition": "Columbia-Suicide Severity Rating Scale Pediatric/Cognitively Impaired Lifetime/Recent - Have you ever decided how or when you would make yourself not alive anymore/kill yourself? Have you ever planned out (worked out the details of) how you would do it? What was your plan? When you made this plan (or worked out these details), was any part of you thinking about actually doing it? (Past 1 Month).", "preferredTerm": "C-SSRS Pediatric/Cognitively Impaired Lifetime/Recent - Active Suicidal Ideation With Specific Plan and Intent (Past 1 Month)", "submissionValue": "CSS10-Idea, Plan, Intent-P1M", "synonyms": ["CSS10-Idea, Plan, Intent-P1M"]}, {"conceptId": "C113924", "definition": "Columbia-Suicide Severity Rating Scale Pediatric/Cognitively Impaired Lifetime/Recent - Description of interrupted attempt.", "preferredTerm": "C-SSRS Pediatric/Cognitively Impaired Lifetime/Recent - Description of Interrupted Suicide Attempt", "submissionValue": "CSS10-Interrupted Attempt, Describe", "synonyms": ["CSS10-Interrupted Attempt, Describe"]}, {"conceptId": "C113920", "definition": "Columbia-Suicide Severity Rating Scale Pediatric/Cognitively Impaired Lifetime/Recent - Has there been a time when you started to do something to make yourself not alive anymore (end your life or kill yourself) but someone or something stopped you before you actually did anything? What did you do? (Lifetime).", "preferredTerm": "C-SSRS Pediatric/Cognitively Impaired Lifetime/Recent - Interrupted Suicide Attempt (Lifetime)", "submissionValue": "CSS10-Interrupted Attempt-Life", "synonyms": ["CSS10-Interrupted Attempt-Life"]}, {"conceptId": "C113921", "definition": "Columbia-Suicide Severity Rating Scale Pediatric/Cognitively Impaired Lifetime/Recent - Has there been a time when you started to do something to make yourself not alive anymore (end your life or kill yourself) but someone or something stopped you before you actually did anything? What did you do? (Past 3 Months).", "preferredTerm": "C-SSRS Pediatric/Cognitively Impaired Lifetime/Recent - Interrupted Suicide Attempt (Past 3 Months)", "submissionValue": "CSS10-Interrupted Attempt-P3M", "synonyms": ["CSS10-Interrupted Attempt-P3M"]}, {"conceptId": "C113939", "definition": "Columbia-Suicide Severity Rating Scale Pediatric/Cognitively Impaired Lifetime/Recent - Most lethal attempt actual lethality/medical damage.", "preferredTerm": "C-SSRS Pediatric/Cognitively Impaired Lifetime/Recent - Most Lethal Suicide Attempt Actual Lethality/Medical Damage", "submissionValue": "CSS10-Most Lethal Attempt Damage", "synonyms": ["CSS10-Most Lethal Attempt Damage"]}, {"conceptId": "C113938", "definition": "Columbia-Suicide Severity Rating Scale Pediatric/Cognitively Impaired Lifetime/Recent - Most lethal attempt date.", "preferredTerm": "C-SSRS Pediatric/Cognitively Impaired Lifetime/Recent - Most Lethal Suicide Attempt Date", "submissionValue": "CSS10-Most Lethal Attempt Date", "synonyms": ["CSS10-Most Lethal Attempt Date"]}, {"conceptId": "C113940", "definition": "Columbia-Suicide Severity Rating Scale Pediatric/Cognitively Impaired Lifetime/Recent - Most lethal attempt potential lethality.", "preferredTerm": "C-SSRS Pediatric/Cognitively Impaired Lifetime/Recent - Most Lethal Suicide Attempt Potential Lethality", "submissionValue": "CSS10-Most Lethal Attempt Potential", "synonyms": ["CSS10-Most Lethal Attempt Potential"]}, {"conceptId": "C113936", "definition": "Columbia-Suicide Severity Rating Scale Pediatric/Cognitively Impaired Lifetime/Recent - Most recent attempt actual lethality/medical damage.", "preferredTerm": "C-SSRS Pediatric/Cognitively Impaired Lifetime/Recent - Most Recent Suicide Attempt Actual Lethality/Medical Damage", "submissionValue": "CSS10-Most Recent Attempt Damage", "synonyms": ["CSS10-Most Recent Attempt Damage"]}, {"conceptId": "C113935", "definition": "Columbia-Suicide Severity Rating Scale Pediatric/Cognitively Impaired Lifetime/Recent - Most recent attempt date.", "preferredTerm": "C-SSRS Pediatric/Cognitively Impaired Lifetime/Recent - Most Recent Suicide Attempt Date", "submissionValue": "CSS10-Most Recent Attempt Date", "synonyms": ["CSS10-Most Recent Attempt Date"]}, {"conceptId": "C113937", "definition": "Columbia-Suicide Severity Rating Scale Pediatric/Cognitively Impaired Lifetime/Recent - Most recent attempt potential lethality.", "preferredTerm": "C-SSRS Pediatric/Cognitively Impaired Lifetime/Recent - Most Recent Suicide Attempt Potential Lethality", "submissionValue": "CSS10-Most Recent Attempt Potential", "synonyms": ["CSS10-Most Recent Attempt Potential"]}, {"conceptId": "C113905", "definition": "Columbia-Suicide Severity Rating Scale Pediatric/Cognitively Impaired Lifetime/Recent - Description of most severe ideation. (Lifetime).", "preferredTerm": "C-SSRS Pediatric/Cognitively Impaired Lifetime/Recent - Describe Most Severe Ideation (Lifetime)", "submissionValue": "CSS10-Most Severe Idea, Desc-Life", "synonyms": ["CSS10-Most Severe Idea, Desc-Life"]}, {"conceptId": "C113907", "definition": "Columbia-Suicide Severity Rating Scale Pediatric/Cognitively Impaired Lifetime/Recent - Description of most severe ideation. (Past 1 Month).", "preferredTerm": "C-SSRS Pediatric/Cognitively Impaired Lifetime/Recent - Describe Most Severe Ideation (Past 1 Month)", "submissionValue": "CSS10-Most Severe Idea, Desc-P1M", "synonyms": ["CSS10-Most Severe Idea, Desc-P1M"]}, {"conceptId": "C113908", "definition": "Columbia-Suicide Severity Rating Scale Pediatric/Cognitively Impaired Lifetime/Recent - How many times have you had these thoughts? (Lifetime).", "preferredTerm": "C-SSRS Pediatric/Cognitively Impaired Lifetime/Recent - Frequency (Lifetime)", "submissionValue": "CSS10-Most Severe Idea, Frequency-Life", "synonyms": ["CSS10-Most Severe Idea, Frequency-Life"]}, {"conceptId": "C113909", "definition": "Columbia-Suicide Severity Rating Scale Pediatric/Cognitively Impaired Lifetime/Recent - How many times have you had these thoughts? (Past 1 Month).", "preferredTerm": "C-SSRS Pediatric/Cognitively Impaired Lifetime/Recent - Frequency (Past 1 Month)", "submissionValue": "CSS10-Most Severe Idea, Frequency-P1M", "synonyms": ["CSS10-Most Severe Idea, Frequency-P1M"]}, {"conceptId": "C113904", "definition": "Columbia-Suicide Severity Rating Scale Pediatric/Cognitively Impaired Lifetime/Recent - Most severe ideation. (Lifetime).", "preferredTerm": "C-SSRS Pediatric/Cognitively Impaired Lifetime/Recent - Most Severe Ideation (Lifetime)", "submissionValue": "CSS10-Most Severe Idea-Life", "synonyms": ["CSS10-Most Severe Idea-Life"]}, {"conceptId": "C113906", "definition": "Columbia-Suicide Severity Rating Scale Pediatric/Cognitively Impaired Lifetime/Recent - Most severe ideation. (Past 1 Month).", "preferredTerm": "C-SSRS Pediatric/Cognitively Impaired Lifetime/Recent - Most Severe Ideation (Past 1 Month)", "submissionValue": "CSS10-Most Severe Idea-P1M", "synonyms": ["CSS10-Most Severe Idea-P1M"]}, {"conceptId": "C113894", "definition": "Columbia-Suicide Severity Rating Scale Pediatric/Cognitively Impaired Lifetime/Recent - Description of non-specific active suicidal thoughts.", "preferredTerm": "C-SSRS Pediatric/Cognitively Impaired Lifetime/Recent - Description of Non-Specific Active Suicidal Thoughts", "submissionValue": "CSS10-Non-Spec Suicid Thought, Describe", "synonyms": ["CSS10-Non-Spec Suicid Thought, Describe"]}, {"conceptId": "C113892", "definition": "Columbia-Suicide Severity Rating Scale Pediatric/Cognitively Impaired Lifetime/Recent - Have you thought about doing something to make yourself not alive anymore? Have you had any thoughts about killing yourself? (Lifetime).", "preferredTerm": "C-SSRS Pediatric/Cognitively Impaired Lifetime/Recent - Non-Specific Active Suicidal Thoughts (Lifetime)", "submissionValue": "CSS10-Non-Spec Suicid Thought-Life", "synonyms": ["CSS10-Non-Spec Suicid Thought-Life"]}, {"conceptId": "C113893", "definition": "Columbia-Suicide Severity Rating Scale Pediatric/Cognitively Impaired Lifetime/Recent - Have you thought about doing something to make yourself not alive anymore? Have you had any thoughts about killing yourself? (Past 1 Month).", "preferredTerm": "C-SSRS Pediatric/Cognitively Impaired Lifetime/Recent - Non-Specific Active Suicidal Thoughts (Past 1 Month)", "submissionValue": "CSS10-Non-Spec Suicid Thought-P1M", "synonyms": ["CSS10-Non-Spec Suicid Thought-P1M"]}, {"conceptId": "C113916", "definition": "Columbia-Suicide Severity Rating Scale Pediatric/Cognitively Impaired Lifetime/Recent - Has subject engaged in non-suicidal self-injurious behavior? (Lifetime).", "preferredTerm": "C-SSRS Pediatric/Cognitively Impaired Lifetime/Recent - Non-suicidal Self-injurious Behavior (Lifetime)", "submissionValue": "CSS10-Non-suicidal Self-injur Behav-Life", "synonyms": ["CSS10-Non-suicidal Self-injur Behav-Life"]}, {"conceptId": "C113917", "definition": "Columbia-Suicide Severity Rating Scale Pediatric/Cognitively Impaired Lifetime/Recent - Has subject engaged in non-suicidal self-injurious behavior? (Past 3 Months).", "preferredTerm": "C-SSRS Pediatric/Cognitively Impaired Lifetime/Recent - Non-suicidal Self-injurious Behavior (Past 3 Months)", "submissionValue": "CSS10-Non-suicidal Self-injur Behav-P3M", "synonyms": ["CSS10-Non-suicidal Self-injur Behav-P3M"]}, {"conceptId": "C113927", "definition": "Columbia-Suicide Severity Rating Scale Pediatric/Cognitively Impaired Lifetime/Recent - Total number of aborted or self-interrupted attempts. (Lifetime).", "preferredTerm": "C-SSRS Pediatric/Cognitively Impaired Lifetime/Recent - Number of Aborted or Self-interrupted Suicide Attempt (Lifetime)", "submissionValue": "CSS10-Number of Aborted Attempts-Life", "synonyms": ["CSS10-Number of Aborted Attempts-Life"]}, {"conceptId": "C113928", "definition": "Columbia-Suicide Severity Rating Scale Pediatric/Cognitively Impaired Lifetime/Recent - Total number of aborted or self-interrupted attempts. (Past 3 Months).", "preferredTerm": "C-SSRS Pediatric/Cognitively Impaired Lifetime/Recent - Number of Aborted or Self-interrupted Suicide Attempt (Past 3 Months)", "submissionValue": "CSS10-Number of Aborted Attempts-P3M", "synonyms": ["CSS10-Number of Aborted Attempts-P3M"]}, {"conceptId": "C113913", "definition": "Columbia-Suicide Severity Rating Scale Pediatric/Cognitively Impaired Lifetime/Recent - Total number of actual attempts. (Lifetime).", "preferredTerm": "C-SSRS Pediatric/Cognitively Impaired Lifetime/Recent - Number of Actual Suicide Attempts (Lifetime)", "submissionValue": "CSS10-Number of Actual Attempts-Life", "synonyms": ["CSS10-Number of Actual Attempts-Life"]}, {"conceptId": "C113914", "definition": "Columbia-Suicide Severity Rating Scale Pediatric/Cognitively Impaired Lifetime/Recent - Total number of actual attempts. (Past 3 Months).", "preferredTerm": "C-SSRS Pediatric/Cognitively Impaired Lifetime/Recent - Number of Actual Suicide Attempts (Past 3 Months)", "submissionValue": "CSS10-Number of Actual Attempts-P3M", "synonyms": ["CSS10-Number of Actual Attempts-P3M"]}, {"conceptId": "C113922", "definition": "Columbia-Suicide Severity Rating Scale Pediatric/Cognitively Impaired Lifetime/Recent - Total number of interrupted attempts. (Lifetime).", "preferredTerm": "C-SSRS Pediatric/Cognitively Impaired Lifetime/Recent - Number of Interrupted Suicide Attempts (Lifetime)", "submissionValue": "CSS10-Number of Interrupt Attempts-Life", "synonyms": ["CSS10-Number of Interrupt Attempts-Life"]}, {"conceptId": "C113923", "definition": "Columbia-Suicide Severity Rating Scale Pediatric/Cognitively Impaired Lifetime/Recent - Total number of interrupted attempts. (Past 3 Months).", "preferredTerm": "C-SSRS Pediatric/Cognitively Impaired Lifetime/Recent - Number of Interrupted Suicide Attempts (Past 3 Months)", "submissionValue": "CSS10-Number of Interrupt Attempts-P3M", "synonyms": ["CSS10-Number of Interrupt Attempts-P3M"]}, {"conceptId": "C113932", "definition": "Columbia-Suicide Severity Rating Scale Pediatric/Cognitively Impaired Lifetime/Recent - Description of preparatory acts or behavior.", "preferredTerm": "C-SSRS Pediatric/Cognitively Impaired Lifetime/Recent - Description of Preparatory Acts or Behaviors Toward Suicide Attempt", "submissionValue": "CSS10-Preparatory Acts/Behavior, Descr", "synonyms": ["CSS10-Preparatory Acts/Behavior, Descr"]}, {"conceptId": "C113930", "definition": "Columbia-Suicide Severity Rating Scale Pediatric/Cognitively Impaired Lifetime/Recent - Have you done anything to get ready to make yourself not alive anymore (to end your life or kill yourself) - like giving things away, writing a goodbye note, getting things you need to kill yourself? (Lifetime).", "preferredTerm": "C-SSRS Pediatric/Cognitively Impaired Lifetime/Recent - Preparatory Acts or Behaviors Toward Suicide Attempt (Lifetime)", "submissionValue": "CSS10-Preparatory Acts/Behavior-Life", "synonyms": ["CSS10-Preparatory Acts/Behavior-Life"]}, {"conceptId": "C113931", "definition": "Columbia-Suicide Severity Rating Scale Pediatric/Cognitively Impaired Lifetime/Recent - Have you done anything to get ready to make yourself not alive anymore (to end your life or kill yourself) - like giving things away, writing a goodbye note, getting things you need to kill yourself? (Past 3 Months).", "preferredTerm": "C-SSRS Pediatric/Cognitively Impaired Lifetime/Recent - Preparatory Acts or Behaviors Toward Suicide Attempt (Past 3 Months)", "submissionValue": "CSS10-Preparatory Acts/Behavior-P3M", "synonyms": ["CSS10-Preparatory Acts/Behavior-P3M"]}, {"conceptId": "C113918", "definition": "Columbia-Suicide Severity Rating Scale Pediatric/Cognitively Impaired Lifetime/Recent - Has subject engaged in self-injurious behavior, intent unknown? (Lifetime).", "preferredTerm": "C-SSRS Pediatric/Cognitively Impaired Lifetime/Recent - Self-injurious Behavior, Intent Unknown (Lifetime)", "submissionValue": "CSS10-Self-injur Behav, Intent Unk-Life", "synonyms": ["CSS10-Self-injur Behav, Intent Unk-Life"]}, {"conceptId": "C113919", "definition": "Columbia-Suicide Severity Rating Scale Pediatric/Cognitively Impaired Lifetime/Recent - Has subject engaged in self-injurious behavior, intent unknown? (Past 3 Months).", "preferredTerm": "C-SSRS Pediatric/Cognitively Impaired Lifetime/Recent - Self-injurious Behavior, Intent Unknown (Past 3 Months)", "submissionValue": "CSS10-Self-injur Behav, Intent Unk-P3M", "synonyms": ["CSS10-Self-injur Behav, Intent Unk-P3M"]}, {"conceptId": "C113933", "definition": "Columbia-Suicide Severity Rating Scale Pediatric/Cognitively Impaired Lifetime/Recent - Suicidal behavior was present during the assessment period? (Lifetime).", "preferredTerm": "C-SSRS Pediatric/Cognitively Impaired Lifetime/Recent - Suicidal Behavior (Lifetime)", "submissionValue": "CSS10-Suicidal Behavior-Life", "synonyms": ["CSS10-Suicidal Behavior-Life"]}, {"conceptId": "C113934", "definition": "Columbia-Suicide Severity Rating Scale Pediatric/Cognitively Impaired Lifetime/Recent - Suicidal behavior was present during the assessment period? (Past 3 Months).", "preferredTerm": "C-SSRS Pediatric/Cognitively Impaired Lifetime/Recent - Suicidal Behavior (Past 3 Months)", "submissionValue": "CSS10-Suicidal Behavior-P3M", "synonyms": ["CSS10-Suicidal Behavior-P3M"]}, {"conceptId": "C113891", "definition": "Columbia-Suicide Severity Rating Scale Pediatric/Cognitively Impaired Lifetime/Recent - Description of wishing to be dead.", "preferredTerm": "C-SSRS Pediatric/Cognitively Impaired Lifetime/Recent - Description of Wish to be Dead", "submissionValue": "CSS10-Wish to be Dead, Describe", "synonyms": ["CSS10-Wish to be Dead, Describe"]}, {"conceptId": "C113889", "definition": "Columbia-Suicide Severity Rating Scale Pediatric/Cognitively Impaired Lifetime/Recent - Have you thought about being dead or what it would be like to be dead? Have you wished you were dead or wished you could go to sleep and never wake up? Do you ever wish you weren't alive anymore? (Lifetime).", "preferredTerm": "C-SSRS Pediatric/Cognitively Impaired Lifetime/Recent - Wish to be Dead (Lifetime)", "submissionValue": "CSS10-Wish to be Dead-Life", "synonyms": ["CSS10-Wish to be Dead-Life"]}, {"conceptId": "C113890", "definition": "Columbia-Suicide Severity Rating Scale Pediatric/Cognitively Impaired Lifetime/Recent - Have you thought about being dead or what it would be like to be dead? Have you wished you were dead or wished you could go to sleep and never wake up? Do you ever wish you weren't alive anymore? (Past 1 Month).", "preferredTerm": "C-SSRS Pediatric/Cognitively Impaired Lifetime/Recent - Wish to be Dead (Past 1 Month)", "submissionValue": "CSS10-Wish to be Dead-P1M", "synonyms": ["CSS10-Wish to be Dead-P1M"]}]}