{"_links": {"parentPackage": {"href": "/mdr/ct/packages/sdtmct-2020-03-27", "title": "SDTM Controlled Terminology Package 41 Effective 2020-03-27", "type": "Terminology"}, "priorVersion": {"href": "/mdr/ct/packages/sdtmct-2019-12-20/codelists/C115399", "title": "CDISC Functional Test TUG Test Name Terminology", "type": "Code List"}, "rootItem": {"href": "/mdr/root/ct/sdtmct/codelists/C115399", "title": "Version-agnostic anchor resource for codelist C115399", "type": "Root Value Domain"}, "self": {"href": "/mdr/ct/packages/sdtmct-2020-03-27/codelists/C115399", "title": "CDISC Functional Test TUG Test Name Terminology", "type": "Code List"}}, "conceptId": "C115399", "definition": "Timed Up and Go Test test name.", "extensible": "false", "name": "Timed Up and Go Test Functional Test Test Name", "preferredTerm": "CDISC Functional Test TUG Test Name Terminology", "submissionValue": "TUG01TN", "synonyms": ["Timed Up and Go Test Functional Test Test Name"], "terms": [{"conceptId": "C115819", "definition": "Timed Up and Go - Time in seconds to complete TUG test.", "preferredTerm": "TUG - Time to Complete TUG Test", "submissionValue": "TUG01-Time to Complete TUG Test", "synonyms": ["TUG01-Time to Complete TUG Test"]}]}