{"_links": {"parentPackage": {"href": "/mdr/ct/packages/sdtmct-2020-03-27", "title": "SDTM Controlled Terminology Package 41 Effective 2020-03-27", "type": "Terminology"}, "priorVersion": {"href": "/mdr/ct/packages/sdtmct-2019-12-20/codelists/C115397", "title": "CDISC Functional Test T25FW Test Name Terminology", "type": "Code List"}, "rootItem": {"href": "/mdr/root/ct/sdtmct/codelists/C115397", "title": "Version-agnostic anchor resource for codelist C115397", "type": "Root Value Domain"}, "self": {"href": "/mdr/ct/packages/sdtmct-2020-03-27/codelists/C115397", "title": "CDISC Functional Test T25FW Test Name Terminology", "type": "Code List"}}, "conceptId": "C115397", "definition": "Timed 25-Foot Walk Test test name.", "extensible": "false", "name": "Timed 25-Foot Walk Test Functional Test Test Name", "preferredTerm": "CDISC Functional Test T25FW Test Name Terminology", "submissionValue": "T25FW1TN", "synonyms": ["Timed 25-Foot Walk Test Functional Test Test Name"], "terms": [{"conceptId": "C151074", "definition": "Timed 25-Foot Walk - Did patient wear an AFO?", "preferredTerm": "T25FW - Did Patient Wear AFO", "submissionValue": "T25FW1-Did Patient Wear AFO", "synonyms": ["T25FW1-Did Patient Wear AFO"]}, {"conceptId": "C115818", "definition": "Timed 25-Foot Walk - Did it take more than two attempts to get two successful trials?", "preferredTerm": "T25FW - More Than Two Attempts", "submissionValue": "T25FW1-More Than Two Attempts", "synonyms": ["T25FW1-More Than Two Attempts"]}, {"conceptId": "C115817", "definition": "Timed 25-Foot Walk - Time in seconds to complete 25-foot walk.", "preferredTerm": "T25FW - Time to Complete 25-Foot Walk", "submissionValue": "T25FW1-Time to Complete 25-Foot Walk", "synonyms": ["T25FW1-Time to Complete 25-Foot Walk"]}, {"conceptId": "C151075", "definition": "Timed 25-Foot Walk - Was assistive device used?", "preferredTerm": "T25FW - Was Assistive Device Used", "submissionValue": "T25FW1-Was Assistive Device Used", "synonyms": ["T25FW1-Was Assistive Device Used"]}]}