{"_links": {"parentPackage": {"href": "/mdr/ct/packages/sdtmct-2020-03-27", "title": "SDTM Controlled Terminology Package 41 Effective 2020-03-27", "type": "Terminology"}, "priorVersion": {"href": "/mdr/ct/packages/sdtmct-2019-12-20/codelists/C117990", "title": "CDISC Clinical Classification ESRS-A Test Name Terminology", "type": "Code List"}, "rootItem": {"href": "/mdr/root/ct/sdtmct/codelists/C117990", "title": "Version-agnostic anchor resource for codelist C117990", "type": "Root Value Domain"}, "self": {"href": "/mdr/ct/packages/sdtmct-2020-03-27/codelists/C117990", "title": "CDISC Clinical Classification ESRS-A Test Name Terminology", "type": "Code List"}}, "conceptId": "C117990", "definition": "Extrapyramidal Symptom Rating Scale-Abbreviated test name.", "extensible": "false", "name": "Extrapyramidal Symptom Rating Scale-Abbreviated Clinical Classification Test Name", "preferredTerm": "CDISC Clinical Classification ESRS-A Test Name Terminology", "submissionValue": "ESRSA1TN", "synonyms": ["Extrapyramidal Symptom Rating Scale-Abbreviated Clinical Classification Test Name"], "terms": [{"conceptId": "C118102", "definition": "Extrapyramidal Symptom Rating Scale-Abbreviated - Akathisia: Objective.", "preferredTerm": "ESRS-A - Akathisia: Objective", "submissionValue": "ESRSA1-Akathisia: Objective", "synonyms": ["ESRSA1-Akathisia: Objective"]}, {"conceptId": "C118101", "definition": "Extrapyramidal Symptom Rating Scale-Abbreviated - Akathisia: Subjective.", "preferredTerm": "ESRS-A - Akathisia: Subjective", "submissionValue": "ESRSA1-Akathisia: Subjective", "synonyms": ["ESRSA1-Akathisia: Subjective"]}, {"conceptId": "C118088", "definition": "Extrapyramidal Symptom Rating Scale-Abbreviated - Parkinsonism-Bradykinesia/hypokinesia.", "preferredTerm": "ESRS-A - Bradykinesia/Hypokinesia", "submissionValue": "ESRSA1-Bradykinesia/Hypokinesia", "synonyms": ["ESRSA1-Bradykinesia/Hypokinesia"]}, {"conceptId": "C118106", "definition": "Extrapyramidal Symptom Rating Scale-Abbreviated - Clinical Global Impression (CGI-S): Akathisia.", "preferredTerm": "ESRS-A - CGI-S Akathisia", "submissionValue": "ESRSA1-CGI-S Akathisia", "synonyms": ["ESRSA1-CGI-S Akathisia"]}, {"conceptId": "C118105", "definition": "Extrapyramidal Symptom Rating Scale-Abbreviated - Clinical Global Impression (CGI-S): Dyskinesia.", "preferredTerm": "ESRS-A - CGI-S Dyskinesia", "submissionValue": "ESRSA1-CGI-S Dyskinesia", "synonyms": ["ESRSA1-CGI-S Dyskinesia"]}, {"conceptId": "C118104", "definition": "Extrapyramidal Symptom Rating Scale-Abbreviated - Clinical Global Impression (CGI-S): Dystonia.", "preferredTerm": "ESRS-A - CGI-S Dystonia", "submissionValue": "ESRSA1-CGI-S Dystonia", "synonyms": ["ESRSA1-CGI-S Dystonia"]}, {"conceptId": "C118103", "definition": "Extrapyramidal Symptom Rating Scale-Abbreviated - Clinical Global Impression (CGI-S): Parkinsonism.", "preferredTerm": "ESRS-A - CGI-S Parkinsonism", "submissionValue": "ESRSA1-CGI-S Parkinsonism", "synonyms": ["ESRSA1-CGI-S Parkinsonism"]}, {"conceptId": "C118097", "definition": "Extrapyramidal Symptom Rating Scale-Abbreviated - Dyskinesia: Eyes, upper face, lower face.", "preferredTerm": "ESRS-A - Dyskinesia: Eyes/Upper Face/Lower Face", "submissionValue": "ESRSA1-Dyskinesia: Eyes/Up Face/Low Face", "synonyms": ["ESRSA1-Dyskinesia: Eyes/Up Face/Low Face"]}, {"conceptId": "C118099", "definition": "Extrapyramidal Symptom Rating Scale-Abbreviated - Dyskinesia: Hips, lower limbs, feet.", "preferredTerm": "ESRS-A - Dyskinesia: Hips/Lower Limbs/Feet", "submissionValue": "ESRSA1-Dyskinesia: Hips/Lower Limbs/Feet", "synonyms": ["ESRSA1-Dyskinesia: Hips/Lower Limbs/Feet"]}, {"conceptId": "C118096", "definition": "Extrapyramidal Symptom Rating Scale-Abbreviated - Dyskinesia: Jaw.", "preferredTerm": "ESRS-A - Dyskinesia: Jaw", "submissionValue": "ESRSA1-Dyskinesia: Jaw", "synonyms": ["ESRSA1-Dyskinesia: Jaw"]}, {"conceptId": "C118098", "definition": "Extrapyramidal Symptom Rating Scale-Abbreviated - Dyskinesia: Shoulders, upper limbs, hands.", "preferredTerm": "ESRS-A - Dyskinesia: Shoulder/Upper Limbs/Hands", "submissionValue": "ESRSA1-Dyskinesia: Shoulder/Up Limb/Hand", "synonyms": ["ESRSA1-Dyskinesia: Shoulder/Up Limb/Hand"]}, {"conceptId": "C118095", "definition": "Extrapyramidal Symptom Rating Scale-Abbreviated - Dyskinesia: Tongue.", "preferredTerm": "ESRS-A - Dyskinesia: Tongue", "submissionValue": "ESRSA1-Dyskinesia: Tongue", "synonyms": ["ESRSA1-Dyskinesia: Tongue"]}, {"conceptId": "C118100", "definition": "Extrapyramidal Symptom Rating Scale-Abbreviated - Dyskinesia: Trunk, neck.", "preferredTerm": "ESRS-A - Dyskinesia: Trunk/Neck", "submissionValue": "ESRSA1-Dyskinesia: Trunk/Neck", "synonyms": ["ESRSA1-Dyskinesia: Trunk/Neck"]}, {"conceptId": "C118091", "definition": "Extrapyramidal Symptom Rating Scale-Abbreviated - Dystonia: Eyes, upper face, lower face, larynx.", "preferredTerm": "ESRS-A - Dystonia: Eyes/Upper and Lower Face/Larynx", "submissionValue": "ESRSA1-Dystonia: Eyes/Face/Larynx", "synonyms": ["ESRSA1-Dystonia: Eyes/Face/Larynx"]}, {"conceptId": "C118093", "definition": "Extrapyramidal Symptom Rating Scale-Abbreviated - Dystonia: Hips, lower limbs, feet.", "preferredTerm": "ESRS-A - Dystonia: Hips/Lower Limbs/Feet", "submissionValue": "ESRSA1-Dystonia: Hips/Lower Limbs/Feet", "synonyms": ["ESRSA1-Dystonia: Hips/Lower Limbs/Feet"]}, {"conceptId": "C118090", "definition": "Extrapyramidal Symptom Rating Scale-Abbreviated - Dystonia: Jaw.", "preferredTerm": "ESRS-A - Dystonia: Jaw", "submissionValue": "ESRSA1-Dystonia: Jaw", "synonyms": ["ESRSA1-Dystonia: Jaw"]}, {"conceptId": "C118092", "definition": "Extrapyramidal Symptom Rating Scale-Abbreviated - Dystonia: Shoulders, upper limbs, hands.", "preferredTerm": "ESRS-A - Dystonia: Shoulder/Upper Limbs/Hands", "submissionValue": "ESRSA1-Dystonia: Shoulder/Up Limb/Hand", "synonyms": ["ESRSA1-Dystonia: Shoulder/Up Limb/Hand"]}, {"conceptId": "C118089", "definition": "Extrapyramidal Symptom Rating Scale-Abbreviated - Dystonia: Tongue.", "preferredTerm": "ESRS-A - Dystonia: Tongue", "submissionValue": "ESRSA1-Dystonia: Tongue", "synonyms": ["ESRSA1-Dystonia: Tongue"]}, {"conceptId": "C118094", "definition": "Extrapyramidal Symptom Rating Scale-Abbreviated - Dystonia: Trunk, neck.", "preferredTerm": "ESRS-A - Dystonia: Trunk/Neck", "submissionValue": "ESRSA1-Dystonia: Trunk/Neck", "synonyms": ["ESRSA1-Dystonia: Trunk/Neck"]}, {"conceptId": "C118086", "definition": "Extrapyramidal Symptom Rating Scale-Abbreviated - Parkinsonism-Impaired gait/posture.", "preferredTerm": "ESRS-A - Impaired Gait/Posture", "submissionValue": "ESRSA1-Impaired Gait/Posture", "synonyms": ["ESRSA1-Impaired Gait/Posture"]}, {"conceptId": "C118087", "definition": "Extrapyramidal Symptom Rating Scale-Abbreviated - Parkinsonism-Postural instability.", "preferredTerm": "ESRS-A - Postural Instability", "submissionValue": "ESRSA1-Postural Instability", "synonyms": ["ESRSA1-Postural Instability"]}, {"conceptId": "C118085", "definition": "Extrapyramidal Symptom Rating Scale-Abbreviated - Parkinsonism-Reduced facial expression/speech.", "preferredTerm": "ESRS-A - Reduced Facial Expression/Speech", "submissionValue": "ESRSA1-Reduced Facial Expression/Speech", "synonyms": ["ESRSA1-Reduced Facial Expression/Speech"]}, {"conceptId": "C118080", "definition": "Extrapyramidal Symptom Rating Scale-Abbreviated - Parkinsonism-Rigidity: Lower limbs.", "preferredTerm": "ESRS-A - Rigidity: Lower Limbs", "submissionValue": "ESRSA1-Rigidity: Lower Limbs", "synonyms": ["ESRSA1-Rigidity: Lower Limbs"]}, {"conceptId": "C118081", "definition": "Extrapyramidal Symptom Rating Scale-Abbreviated - Parkinsonism-Rigidity: Neck.", "preferredTerm": "ESRS-A - Rigidity: Neck", "submissionValue": "ESRSA1-Rigidity: Neck", "synonyms": ["ESRSA1-Rigidity: Neck"]}, {"conceptId": "C118079", "definition": "Extrapyramidal Symptom Rating Scale-Abbreviated - Parkinsonism-Rigidity: Upper limbs.", "preferredTerm": "ESRS-A - Rigidity: Upper Limbs", "submissionValue": "ESRSA1-Rigidity: Upper Limbs", "synonyms": ["ESRSA1-Rigidity: Upper Limbs"]}, {"conceptId": "C118082", "definition": "Extrapyramidal Symptom Rating Scale-Abbreviated - Parkinsonism-Tremor: Face, jaw/chin, lips, head.", "preferredTerm": "ESRS-A - Tremor: Face/Jaw/Chin/Lips/Head", "submissionValue": "ESRSA1-Tremor: Face/Jaw/Chin/Lips/Head", "synonyms": ["ESRSA1-Tremor: Face/Jaw/Chin/Lips/Head"]}, {"conceptId": "C118084", "definition": "Extrapyramidal Symptom Rating Scale-Abbreviated - Parkinsonism-Tremor: Lower limbs/feet.", "preferredTerm": "ESRS-A - Tremor: Lower Limbs/Feet", "submissionValue": "ESRSA1-Tremor: Lower Limbs/Feet", "synonyms": ["ESRSA1-Tremor: Lower Limbs/Feet"]}, {"conceptId": "C118083", "definition": "Extrapyramidal Symptom Rating Scale-Abbreviated - Parkinsonism-Tremor: Upper limbs/hands.", "preferredTerm": "ESRS-A - Tremor: Upper Limbs/Hands", "submissionValue": "ESRSA1-Tremor: Upper Limbs/Hands", "synonyms": ["ESRSA1-Tremor: Upper Limbs/Hands"]}]}