{"_links": {"parentPackage": {"href": "/mdr/ct/packages/sdtmct-2020-03-27", "title": "SDTM Controlled Terminology Package 41 Effective 2020-03-27", "type": "Terminology"}, "priorVersion": {"href": "/mdr/ct/packages/sdtmct-2019-12-20/codelists/C119076", "title": "CDISC Clinical Classification NHLBI CAD Grade Test Code Terminology", "type": "Code List"}, "rootItem": {"href": "/mdr/root/ct/sdtmct/codelists/C119076", "title": "Version-agnostic anchor resource for codelist C119076", "type": "Root Value Domain"}, "self": {"href": "/mdr/ct/packages/sdtmct-2020-03-27/codelists/C119076", "title": "CDISC Clinical Classification NHLBI CAD Grade Test Code Terminology", "type": "Code List"}}, "conceptId": "C119076", "definition": "Coronary Artery Dissection NHLBI Grade test code.", "extensible": "false", "name": "Coronary Artery Dissection NHLBI Grade Clinical Classification Test Code", "preferredTerm": "CDISC Clinical Classification NHLBI CAD Grade Test Code Terminology", "submissionValue": "CADG01TC", "synonyms": ["Coronary Artery Dissection NHLBI Grade Clinical Classification Test Code"], "terms": [{"conceptId": "C119196", "definition": "Coronary Artery Dissection NHLBI Grade - A grading system to describe coronary artery dissection per the NHLBI, American College of Cardiology, American Heart Association.", "preferredTerm": "NHLBI CAD Grade - Coronary Artery Dissection NHLBI Grade", "submissionValue": "CADG0101", "synonyms": ["CADG01-Coronary Dissection NHLBI Grade"]}]}