{"_links": {"parentPackage": {"href": "/mdr/ct/packages/sdtmct-2020-03-27", "title": "SDTM Controlled Terminology Package 41 Effective 2020-03-27", "type": "Terminology"}, "priorVersion": {"href": "/mdr/ct/packages/sdtmct-2019-12-20/codelists/C120993", "title": "CDISC Clinical Classification NSA-16 Test Code Terminology", "type": "Code List"}, "rootItem": {"href": "/mdr/root/ct/sdtmct/codelists/C120993", "title": "Version-agnostic anchor resource for codelist C120993", "type": "Root Value Domain"}, "self": {"href": "/mdr/ct/packages/sdtmct-2020-03-27/codelists/C120993", "title": "CDISC Clinical Classification NSA-16 Test Code Terminology", "type": "Code List"}}, "conceptId": "C120993", "definition": "Negative Symptom Assessment-16 test code.", "extensible": "false", "name": "Negative Symptom Assessment-16 Clinical Classification Test Code", "preferredTerm": "CDISC Clinical Classification NSA-16 Test Code Terminology", "submissionValue": "NSA01TC", "synonyms": ["Negative Symptom Assessment-16 Clinical Classification Test Code"], "terms": [{"conceptId": "C121077", "definition": "Negative Symptom Assessment-16 - Prolonged time to respond.", "preferredTerm": "NSA-16 - Prolonged Time to Respond", "submissionValue": "NSA0101", "synonyms": ["NSA01-Prolonged Time to Respond"]}, {"conceptId": "C121078", "definition": "Negative Symptom Assessment-16 - Restricted speech quantity.", "preferredTerm": "NSA-16 - Restricted Speech Quantity", "submissionValue": "NSA0102", "synonyms": ["NSA01-Restricted Speech Quantity"]}, {"conceptId": "C121079", "definition": "Negative Symptom Assessment-16 - Impoverished speech content.", "preferredTerm": "NSA-16 - Impoverished Speech Content", "submissionValue": "NSA0103", "synonyms": ["NSA01-Impoverished Speech Content"]}, {"conceptId": "C121080", "definition": "Negative Symptom Assessment-16 - Inarticulate speech.", "preferredTerm": "NSA-16 - Inarticulate Speech", "submissionValue": "NSA0104", "synonyms": ["NSA01-Inarticulate Speech"]}, {"conceptId": "C121081", "definition": "Negative Symptom Assessment-16 - Emotion: Reduced range.", "preferredTerm": "NSA-16 - Emotion: Reduced Range", "submissionValue": "NSA0105", "synonyms": ["NSA01-Emotion: Reduced Range"]}, {"conceptId": "C121082", "definition": "Negative Symptom Assessment-16 - Affect: Reduced modulation of intensity.", "preferredTerm": "NSA-16 - Affect: Reduce Modulation Intensity", "submissionValue": "NSA0106", "synonyms": ["NSA01-Affect Reduce Modulation Intensity"]}, {"conceptId": "C121083", "definition": "Negative Symptom Assessment-16 - Affect: Reduced display on demand.", "preferredTerm": "NSA-16 - Affect: Reduced Display on Demand", "submissionValue": "NSA0107", "synonyms": ["NSA01-Affect: Reduced Display on Demand"]}, {"conceptId": "C121084", "definition": "Negative Symptom Assessment-16 - Reduced social drive.", "preferredTerm": "NSA-16 - Reduced Social Drive", "submissionValue": "NSA0108", "synonyms": ["NSA01-Reduced Social Drive"]}, {"conceptId": "C121085", "definition": "Negative Symptom Assessment-16 - Poor rapport with interviewer.", "preferredTerm": "NSA-16 - Poor Rapport With Interviewer", "submissionValue": "NSA0109", "synonyms": ["NSA01-Poor Rapport With Interviewer"]}, {"conceptId": "C121086", "definition": "Negative Symptom Assessment-16 - Interest in emotional and physical intimacy.", "preferredTerm": "NSA-16 - Interest in Emotional and Physical Intimacy", "submissionValue": "NSA0110", "synonyms": ["NSA01-Interest Emotional/Phys Intimacy"]}, {"conceptId": "C121087", "definition": "Negative Symptom Assessment-16 - Poor grooming and hygiene.", "preferredTerm": "NSA-16 - Poor Grooming and Hygiene", "submissionValue": "NSA0111", "synonyms": ["NSA01-Poor Grooming and Hygiene"]}, {"conceptId": "C121088", "definition": "Negative Symptom Assessment-16 - Reduced sense of purpose.", "preferredTerm": "NSA-16 - Reduced Sense of Purpose", "submissionValue": "NSA0112", "synonyms": ["NSA01-Reduced Sense of Purpose"]}, {"conceptId": "C121089", "definition": "Negative Symptom Assessment-16 - Reduced interests.", "preferredTerm": "NSA-16 - Reduced Interests", "submissionValue": "NSA0113", "synonyms": ["NSA01-Reduced Interests"]}, {"conceptId": "C121090", "definition": "Negative Symptom Assessment-16 - Reduced daily activity.", "preferredTerm": "NSA-16 - Reduced Daily Activity", "submissionValue": "NSA0114", "synonyms": ["NSA01-Reduced Daily Activity"]}, {"conceptId": "C121091", "definition": "Negative Symptom Assessment-16 - Reduced expressive gestures.", "preferredTerm": "NSA-16 - Reduced Expressive Gestures", "submissionValue": "NSA0115", "synonyms": ["NSA01-Reduced Expressive Gestures"]}, {"conceptId": "C121092", "definition": "Negative Symptom Assessment-16 - Slowed movements.", "preferredTerm": "NSA-16 - Slowed Movements", "submissionValue": "NSA0116", "synonyms": ["NSA01-Slowed Movements"]}, {"conceptId": "C121093", "definition": "Negative Symptom Assessment-16 - Global negative symptoms rating.", "preferredTerm": "NSA-16 - Global Negative Symptoms Rating", "submissionValue": "NSA0117", "synonyms": ["NSA01-Global Negative Symptoms Rating"]}, {"conceptId": "C121094", "definition": "Negative Symptom Assessment-16 - Global negative symptoms rating - severity.", "preferredTerm": "NSA-16 - Global Negative Symptoms Rating-Severity", "submissionValue": "NSA0118", "synonyms": ["NSA01-Global Neg Symptom Rating-Severity"]}, {"conceptId": "C121095", "definition": "Negative Symptom Assessment-16 - Global level of functioning.", "preferredTerm": "NSA-16 - Global Level of Functioning", "submissionValue": "NSA0119", "synonyms": ["NSA01-Global Level of Functioning"]}]}