{"_links": {"parentPackage": {"href": "/mdr/ct/packages/sdtmct-2020-03-27", "title": "SDTM Controlled Terminology Package 41 Effective 2020-03-27", "type": "Terminology"}, "priorVersion": {"href": "/mdr/ct/packages/sdtmct-2019-12-20/codelists/C125741", "title": "CDISC Questionnaire ASEX-Female Version Test Code Terminology", "type": "Code List"}, "rootItem": {"href": "/mdr/root/ct/sdtmct/codelists/C125741", "title": "Version-agnostic anchor resource for codelist C125741", "type": "Root Value Domain"}, "self": {"href": "/mdr/ct/packages/sdtmct-2020-03-27/codelists/C125741", "title": "CDISC Questionnaire ASEX-Female Version Test Code Terminology", "type": "Code List"}}, "conceptId": "C125741", "definition": "Arizona Sexual Experiences Scale - Female test code.", "extensible": "false", "name": "Arizona Sexual Experiences Scale - Female Questionnaire Test Code", "preferredTerm": "CDISC Questionnaire ASEX-Female Version Test Code Terminology", "submissionValue": "ASEX01TC", "synonyms": ["Arizona Sexual Experiences Scale - Female Questionnaire Test Code"], "terms": [{"conceptId": "C125763", "definition": "Arizona Sexual Experiences Scale Female - How strong is your sex drive?", "preferredTerm": "ASEX-Female Version - Sex Drive", "submissionValue": "ASEX0101", "synonyms": ["ASEX01-Sex Drive"]}, {"conceptId": "C125764", "definition": "Arizona Sexual Experiences Scale Female - How easily are you sexually aroused (turned on)?", "preferredTerm": "ASEX-Female Version - Sexually Aroused", "submissionValue": "ASEX0102", "synonyms": ["ASEX01-Sexually Aroused"]}, {"conceptId": "C125765", "definition": "Arizona Sexual Experiences Scale Female - How easily does your vagina become moist or wet during sex?", "preferredTerm": "ASEX-Female Version - Vagina Become Moist", "submissionValue": "ASEX0103", "synonyms": ["ASEX01-Vagina Become Moist"]}, {"conceptId": "C125766", "definition": "Arizona Sexual Experiences Scale Female - How easily can you reach an orgasm?", "preferredTerm": "ASEX-Female Version - Reach Orgasm", "submissionValue": "ASEX0104", "synonyms": ["ASEX01-Reach Orgasm"]}, {"conceptId": "C125767", "definition": "Arizona Sexual Experiences Scale Female - Are your orgasms satisfying?", "preferredTerm": "ASEX-Female Version - Orgasms Satisfying", "submissionValue": "ASEX0105", "synonyms": ["ASEX01-Orgasms Satisfying"]}, {"conceptId": "C129254", "definition": "Arizona Sexual Experiences Scale Female - Comments.", "preferredTerm": "ASEX-Female Version - Comments", "submissionValue": "ASEX0106", "synonyms": ["ASEX01-Comments"]}]}