{"_links": {"parentPackage": {"href": "/mdr/ct/packages/sdtmct-2020-03-27", "title": "SDTM Controlled Terminology Package 41 Effective 2020-03-27", "type": "Terminology"}, "priorVersion": {"href": "/mdr/ct/packages/sdtmct-2019-12-20/codelists/C132311", "title": "CDISC SDTM Administration Technique Response Terminology", "type": "Code List"}, "rootItem": {"href": "/mdr/root/ct/sdtmct/codelists/C132311", "title": "Version-agnostic anchor resource for codelist C132311", "type": "Root Value Domain"}, "self": {"href": "/mdr/ct/packages/sdtmct-2020-03-27/codelists/C132311", "title": "CDISC SDTM Administration Technique Response Terminology", "type": "Code List"}}, "conceptId": "C132311", "definition": "Terminology relevant to the product administration technique used.", "extensible": "true", "name": "Administration Technique Response", "preferredTerm": "CDISC SDTM Administration Technique Response Terminology", "submissionValue": "ADTNQRS", "synonyms": ["Administration Technique Response"], "terms": [{"conceptId": "C85996", "definition": "A multiple puncture tuberculin skin test in which a Heaf gun (device containing 6 needles arranged in a circular pattern) is dipped into tuberculin purified protein derivative and pushed into the skin of the flexor surface of the left forearm. (NCI)", "preferredTerm": "Heaf Tuberculin Skin Test", "submissionValue": "HEAF"}, {"conceptId": "C85997", "definition": "A single puncture tuberculin skin test in which a standard dose of 5 Tuberculin units of purified protein derivative is injected under the skin of the inner surface of the forearm.", "preferredTerm": "Mantoux Tuberculin Skin Test", "submissionValue": "MANTOUX"}, {"conceptId": "C85998", "definition": "A multiple puncture tuberculin skin test in which tuberculin antigen (either purified protein derivative or old) is pushed into the skin via a device containing 4-6 needles that are coated in tuberculin antigen. (NCI)", "preferredTerm": "Tine Tuberculin Skin Test", "submissionValue": "TINE"}]}