{"_links": {"parentPackage": {"href": "/mdr/ct/packages/sdtmct-2020-03-27", "title": "SDTM Controlled Terminology Package 41 Effective 2020-03-27", "type": "Terminology"}, "priorVersion": {"href": "/mdr/ct/packages/sdtmct-2019-12-20/codelists/C139019", "title": "CDISC SDTM Duchenne Muscular Dystrophy Findings About Test Name Terminology", "type": "Code List"}, "rootItem": {"href": "/mdr/root/ct/sdtmct/codelists/C139019", "title": "Version-agnostic anchor resource for codelist C139019", "type": "Root Value Domain"}, "self": {"href": "/mdr/ct/packages/sdtmct-2020-03-27/codelists/C139019", "title": "CDISC SDTM Duchenne Muscular Dystrophy Findings About Test Name Terminology", "type": "Code List"}}, "conceptId": "C139019", "definition": "Terminology relevant to the test cnames that describe findings about a Duchenne muscular dystrophy event or intervention.", "extensible": "true", "name": "Duchenne Muscular Dystrophy Findings About Test Name", "preferredTerm": "CDISC SDTM Duchenne Muscular Dystrophy Findings About Test Name Terminology", "submissionValue": "DMFATS", "synonyms": ["Duchenne Muscular Dystrophy Findings About Test Name"], "terms": [{"conceptId": "C139175", "definition": "The age at which the full-time use of a pre-specified object first occurred.", "preferredTerm": "Age at Full-Time Use", "submissionValue": "Age at Full-Time Use", "synonyms": ["Age at Full-Time Use"]}]}