{"_links": {"parentPackage": {"href": "/mdr/ct/packages/sdtmct-2020-03-27", "title": "SDTM Controlled Terminology Package 41 Effective 2020-03-27", "type": "Terminology"}, "priorVersion": {"href": "/mdr/ct/packages/sdtmct-2019-12-20/codelists/C147550", "title": "CDISC Questionnaire TSCYC Test Code Terminology", "type": "Code List"}, "rootItem": {"href": "/mdr/root/ct/sdtmct/codelists/C147550", "title": "Version-agnostic anchor resource for codelist C147550", "type": "Root Value Domain"}, "self": {"href": "/mdr/ct/packages/sdtmct-2020-03-27/codelists/C147550", "title": "CDISC Questionnaire TSCYC Test Code Terminology", "type": "Code List"}}, "conceptId": "C147550", "definition": "Trauma Symptom Checklist for Young Children test code.", "extensible": "false", "name": "Trauma Symptom Checklist for Young Children Questionnaire Test Code", "preferredTerm": "CDISC Questionnaire TSCYC Test Code Terminology", "submissionValue": "TSCYC1TC", "synonyms": ["Trauma Symptom Checklist for Young Children Questionnaire Test Code"], "terms": [{"conceptId": "C147753", "definition": "Trauma Symptom Checklist for Young Children - Please indicate how often he or she has done, felt, or experienced each of the following things in the last month: Temper tantrums.", "preferredTerm": "TSCYC - Temper Tantrums", "submissionValue": "TSCYC101", "synonyms": ["TSCYC1-Temper Tantrums"]}, {"conceptId": "C147754", "definition": "Trauma Symptom Checklist for Young Children - Please indicate how often he or she has done, felt, or experienced each of the following things in the last month: Looking sad.", "preferredTerm": "TSCYC - Looking Sad", "submissionValue": "TSCYC102", "synonyms": ["TSCYC1-Looking Sad"]}, {"conceptId": "C147755", "definition": "Trauma Symptom Checklist for Young Children - Please indicate how often he or she has done, felt, or experienced each of the following things in the last month: Telling a lie.", "preferredTerm": "TSCYC - Telling a Lie", "submissionValue": "TSCYC103", "synonyms": ["TSCYC1-Telling a Lie"]}, {"conceptId": "C147756", "definition": "Trauma Symptom Checklist for Young Children - Please indicate how often he or she has done, felt, or experienced each of the following things in the last month: Bad dreams or nightmares.", "preferredTerm": "TSCYC - Bad Dreams or Nightmares", "submissionValue": "TSCYC104", "synonyms": ["TSCYC1-Bad Dreams or Nightmares"]}, {"conceptId": "C147757", "definition": "Trauma Symptom Checklist for Young Children - Please indicate how often he or she has done, felt, or experienced each of the following things in the last month: Living in a fantasy world.", "preferredTerm": "TSCYC - Living in a Fantasy World", "submissionValue": "TSCYC105", "synonyms": ["TSCYC1-Living in a Fantasy World"]}, {"conceptId": "C147758", "definition": "Trauma Symptom Checklist for Young Children - Please indicate how often he or she has done, felt, or experienced each of the following things in the last month: Seeming to know more about sex than he or she should.", "preferredTerm": "TSCYC - Seeming to Know More About Sex", "submissionValue": "TSCYC106", "synonyms": ["TSCYC1-Seeming to Know More About Sex"]}, {"conceptId": "C147759", "definition": "Trauma Symptom Checklist for Young Children - Please indicate how often he or she has done, felt, or experienced each of the following things in the last month: Being easily scared.", "preferredTerm": "TSCYC - Being Easily Scared", "submissionValue": "TSCYC107", "synonyms": ["TSCYC1-Being Easily Scared"]}, {"conceptId": "C147760", "definition": "Trauma Symptom Checklist for Young Children - Please indicate how often he or she has done, felt, or experienced each of the following things in the last month: Not wanting to go somewhere that reminded him or her of a bad thing from the past.", "preferredTerm": "TSCYC - Not Wanting to Go Somewhere", "submissionValue": "TSCYC108", "synonyms": ["TSCYC1-Not Wanting to Go Somewhere"]}, {"conceptId": "C147761", "definition": "Trauma Symptom Checklist for Young Children - Please indicate how often he or she has done, felt, or experienced each of the following things in the last month: Worrying that his or her food was poisoned.", "preferredTerm": "TSCYC - Worrying Food Was Poisoned", "submissionValue": "TSCYC109", "synonyms": ["TSCYC1-Worrying Food Was Poisoned"]}, {"conceptId": "C147762", "definition": "Trauma Symptom Checklist for Young Children - Please indicate how often he or she has done, felt, or experienced each of the following things in the last month: Flinching or jumping when someone moved quickly or there was a loud noise.", "preferredTerm": "TSCYC - Flinching When Someone Moved", "submissionValue": "TSCYC110", "synonyms": ["TSCYC1-Flinching When Someone Moved"]}, {"conceptId": "C147763", "definition": "Trauma Symptom Checklist for Young Children - Please indicate how often he or she has done, felt, or experienced each of the following things in the last month: Being bothered by memories of something that happened to him or her.", "preferredTerm": "TSCYC - Being Bothered by Memories", "submissionValue": "TSCYC111", "synonyms": ["TSCYC1-Being Bothered by Memories"]}, {"conceptId": "C147764", "definition": "Trauma Symptom Checklist for Young Children - Please indicate how often he or she has done, felt, or experienced each of the following things in the last month: Worrying that someone might be sexual with him or her.", "preferredTerm": "TSCYC - Worrying Someone Might Be Sexual", "submissionValue": "TSCYC112", "synonyms": ["TSCYC1-Worrying Someone Might Be Sexual"]}, {"conceptId": "C147765", "definition": "Trauma Symptom Checklist for Young Children - Please indicate how often he or she has done, felt, or experienced each of the following things in the last month: Not wanting to talk about something that happened to him or her.", "preferredTerm": "TSCYC - Not Wanting to Talk", "submissionValue": "TSCYC113", "synonyms": ["TSCYC1-Not Wanting to Talk"]}, {"conceptId": "C147766", "definition": "Trauma Symptom Checklist for Young Children - Please indicate how often he or she has done, felt, or experienced each of the following things in the last month: Not doing something he or she was supposed to do.", "preferredTerm": "TSCYC - Not Do Something Supposed to Do", "submissionValue": "TSCYC114", "synonyms": ["TSCYC1-Not Do Something Supposed to Do"]}, {"conceptId": "C147767", "definition": "Trauma Symptom Checklist for Young Children - Please indicate how often he or she has done, felt, or experienced each of the following things in the last month: Breaking things on purpose.", "preferredTerm": "TSCYC - Breaking Things on Purpose", "submissionValue": "TSCYC115", "synonyms": ["TSCYC1-Breaking Things on Purpose"]}, {"conceptId": "C147768", "definition": "Trauma Symptom Checklist for Young Children - Please indicate how often he or she has done, felt, or experienced each of the following things in the last month: Talking about sexual things.", "preferredTerm": "TSCYC - Talking About Sexual Things", "submissionValue": "TSCYC116", "synonyms": ["TSCYC1-Talking About Sexual Things"]}, {"conceptId": "C147769", "definition": "Trauma Symptom Checklist for Young Children - Please indicate how often he or she has done, felt, or experienced each of the following things in the last month: Having trouble concentrating.", "preferredTerm": "TSCYC - Having Trouble Concentrating", "submissionValue": "TSCYC117", "synonyms": ["TSCYC1-Having Trouble Concentrating"]}, {"conceptId": "C147770", "definition": "Trauma Symptom Checklist for Young Children - Please indicate how often he or she has done, felt, or experienced each of the following things in the last month: Blaming himself or herself for things that weren't his or her fault.", "preferredTerm": "TSCYC - Blaming for Things Weren't Fault", "submissionValue": "TSCYC118", "synonyms": ["TSCYC1-Blaming for Things Weren't Fault"]}, {"conceptId": "C147771", "definition": "Trauma Symptom Checklist for Young Children - Please indicate how often he or she has done, felt, or experienced each of the following things in the last month: Acting frightened when he or she was reminded of something that happened in the past.", "preferredTerm": "TSCYC - Acting Frightened Reminded Past", "submissionValue": "TSCYC119", "synonyms": ["TSCYC1-Acting Frightened Reminded Past"]}, {"conceptId": "C147772", "definition": "Trauma Symptom Checklist for Young Children - Please indicate how often he or she has done, felt, or experienced each of the following things in the last month: Pretending to have sex.", "preferredTerm": "TSCYC - Pretending to Have Sex", "submissionValue": "TSCYC120", "synonyms": ["TSCYC1-Pretending to Have Sex"]}, {"conceptId": "C147773", "definition": "Trauma Symptom Checklist for Young Children - Please indicate how often he or she has done, felt, or experienced each of the following things in the last month: Worrying that bad things would happen in the future.", "preferredTerm": "TSCYC - Worrying Bad Things in Future", "submissionValue": "TSCYC121", "synonyms": ["TSCYC1-Worrying Bad Things in Future"]}, {"conceptId": "C147774", "definition": "Trauma Symptom Checklist for Young Children - Please indicate how often he or she has done, felt, or experienced each of the following things in the last month: Arguing.", "preferredTerm": "TSCYC - Arguing", "submissionValue": "TSCYC122", "synonyms": ["TSCYC1-Arguing"]}, {"conceptId": "C147775", "definition": "Trauma Symptom Checklist for Young Children - Please indicate how often he or she has done, felt, or experienced each of the following things in the last month: Getting into physical fights.", "preferredTerm": "TSCYC - Getting Into Physical Fights", "submissionValue": "TSCYC123", "synonyms": ["TSCYC1-Getting Into Physical Fights"]}, {"conceptId": "C147776", "definition": "Trauma Symptom Checklist for Young Children - Please indicate how often he or she has done, felt, or experienced each of the following things in the last month: Drawing pictures about an upsetting thing that happened to him or her.", "preferredTerm": "TSCYC - Drawing Pictures Upsetting Thing", "submissionValue": "TSCYC124", "synonyms": ["TSCYC1-Drawing Pictures Upsetting Thing"]}, {"conceptId": "C147777", "definition": "Trauma Symptom Checklist for Young Children - Please indicate how often he or she has done, felt, or experienced each of the following things in the last month: Not noticing what he or she was doing.", "preferredTerm": "TSCYC - Not Noticing What He or She Doing", "submissionValue": "TSCYC125", "synonyms": ["TSCYC1-Not Noticing What He or She Doing"]}, {"conceptId": "C147778", "definition": "Trauma Symptom Checklist for Young Children - Please indicate how often he or she has done, felt, or experienced each of the following things in the last month: Having trouble sitting still.", "preferredTerm": "TSCYC - Having Trouble Sitting Still", "submissionValue": "TSCYC126", "synonyms": ["TSCYC1-Having Trouble Sitting Still"]}, {"conceptId": "C147779", "definition": "Trauma Symptom Checklist for Young Children - Please indicate how often he or she has done, felt, or experienced each of the following things in the last month: Playing games about something bad that actually happened to him or her in the past.", "preferredTerm": "TSCYC - Playing Games Something Bad Past", "submissionValue": "TSCYC127", "synonyms": ["TSCYC1-Playing Games Something Bad Past"]}, {"conceptId": "C147780", "definition": "Trauma Symptom Checklist for Young Children - Please indicate how often he or she has done, felt, or experienced each of the following things in the last month: Seeming to be in a daze.", "preferredTerm": "TSCYC - Seeming to Be in a Daze", "submissionValue": "TSCYC128", "synonyms": ["TSCYC1-Seeming to Be in a Daze"]}, {"conceptId": "C147781", "definition": "Trauma Symptom Checklist for Young Children - Please indicate how often he or she has done, felt, or experienced each of the following things in the last month: Having trouble remembering an upsetting thing that happened in the past.", "preferredTerm": "TSCYC - Trouble Remember Upsetting Thing", "submissionValue": "TSCYC129", "synonyms": ["TSCYC1-Trouble Remember Upsetting Thing"]}, {"conceptId": "C147782", "definition": "Trauma Symptom Checklist for Young Children - Please indicate how often he or she has done, felt, or experienced each of the following things in the last month: Using drugs.", "preferredTerm": "TSCYC - Using Drugs", "submissionValue": "TSCYC130", "synonyms": ["TSCYC1-Using Drugs"]}, {"conceptId": "C147783", "definition": "Trauma Symptom Checklist for Young Children - Please indicate how often he or she has done, felt, or experienced each of the following things in the last month: Fear of the dark.", "preferredTerm": "TSCYC - Fear of the Dark", "submissionValue": "TSCYC131", "synonyms": ["TSCYC1-Fear of the Dark"]}, {"conceptId": "C147784", "definition": "Trauma Symptom Checklist for Young Children - Please indicate how often he or she has done, felt, or experienced each of the following things in the last month: Being afraid to be alone.", "preferredTerm": "TSCYC - Being Afraid to Be Alone", "submissionValue": "TSCYC132", "synonyms": ["TSCYC1-Being Afraid to Be Alone"]}, {"conceptId": "C147785", "definition": "Trauma Symptom Checklist for Young Children - Please indicate how often he or she has done, felt, or experienced each of the following things in the last month: Spacing out.", "preferredTerm": "TSCYC - Spacing Out", "submissionValue": "TSCYC133", "synonyms": ["TSCYC1-Spacing Out"]}, {"conceptId": "C147786", "definition": "Trauma Symptom Checklist for Young Children - Please indicate how often he or she has done, felt, or experienced each of the following things in the last month: Being too aggressive.", "preferredTerm": "TSCYC - Being Too Aggressive", "submissionValue": "TSCYC134", "synonyms": ["TSCYC1-Being Too Aggressive"]}, {"conceptId": "C147787", "definition": "Trauma Symptom Checklist for Young Children - Please indicate how often he or she has done, felt, or experienced each of the following things in the last month: Touching other children's or adults' private parts (under or over clothes).", "preferredTerm": "TSCYC - Touching Other Private Parts", "submissionValue": "TSCYC135", "synonyms": ["TSCYC1-Touching Other Private Parts"]}, {"conceptId": "C147788", "definition": "Trauma Symptom Checklist for Young Children - Please indicate how often the child has done, felt, or experienced each of the following things in the last month: Suddenly seeing, feeling, or hearing something bad that happened in the past.", "preferredTerm": "TSCYC - Seeing Bad Happened in the Past", "submissionValue": "TSCYC136", "synonyms": ["TSCYC1-Seeing Bad Happened in the Past"]}, {"conceptId": "C147789", "definition": "Trauma Symptom Checklist for Young Children - Please indicate how often the child has done, felt, or experienced each of the following things in the last month: Hearing voices telling him or her to hurt someone.", "preferredTerm": "TSCYC - Hearing Voices to Hurt Someone", "submissionValue": "TSCYC137", "synonyms": ["TSCYC1-Hearing Voices to Hurt Someone"]}, {"conceptId": "C147790", "definition": "Trauma Symptom Checklist for Young Children - Please indicate how often the child has done, felt, or experienced each of the following things in the last month: Staring off into space.", "preferredTerm": "TSCYC - Staring Off Into Space", "submissionValue": "TSCYC138", "synonyms": ["TSCYC1-Staring Off Into Space"]}, {"conceptId": "C147791", "definition": "Trauma Symptom Checklist for Young Children - Please indicate how often the child has done, felt, or experienced each of the following things in the last month: Changing the subject or not answering when he or she was asked about a bad thing that happened to him or her.", "preferredTerm": "TSCYC - Changing Subject About Bad Thing", "submissionValue": "TSCYC139", "synonyms": ["TSCYC1-Changing Subject About Bad Thing"]}, {"conceptId": "C147792", "definition": "Trauma Symptom Checklist for Young Children - Please indicate how often the child has done, felt, or experienced each of the following things in the last month: Having a nervous breakdown.", "preferredTerm": "TSCYC - Having a Nervous Breakdown", "submissionValue": "TSCYC140", "synonyms": ["TSCYC1-Having a Nervous Breakdown"]}, {"conceptId": "C147793", "definition": "Trauma Symptom Checklist for Young Children - Please indicate how often the child has done, felt, or experienced each of the following things in the last month: Not laughing or being happy like other children.", "preferredTerm": "TSCYC - Not Happy Like Other Children", "submissionValue": "TSCYC141", "synonyms": ["TSCYC1-Not Happy Like Other Children"]}, {"conceptId": "C147794", "definition": "Trauma Symptom Checklist for Young Children - Please indicate how often the child has done, felt, or experienced each of the following things in the last month: Crying at night because he or she was frightened.", "preferredTerm": "TSCYC - Crying at Night Frightened", "submissionValue": "TSCYC142", "synonyms": ["TSCYC1-Crying at Night Frightened"]}, {"conceptId": "C147795", "definition": "Trauma Symptom Checklist for Young Children - Please indicate how often the child has done, felt, or experienced each of the following things in the last month: Hitting adults (including parents).", "preferredTerm": "TSCYC - Hitting Adults", "submissionValue": "TSCYC143", "synonyms": ["TSCYC1-Hitting Adults"]}, {"conceptId": "C147796", "definition": "Trauma Symptom Checklist for Young Children - Please indicate how often the child has done, felt, or experienced each of the following things in the last month: Being frightened of men.", "preferredTerm": "TSCYC - Being Frightened of Men", "submissionValue": "TSCYC144", "synonyms": ["TSCYC1-Being Frightened of Men"]}, {"conceptId": "C147797", "definition": "Trauma Symptom Checklist for Young Children - Please indicate how often the child has done, felt, or experienced each of the following things in the last month: Not being able to pay attention.", "preferredTerm": "TSCYC - Not Being Able to Pay Attention", "submissionValue": "TSCYC145", "synonyms": ["TSCYC1-Not Being Able to Pay Attention"]}, {"conceptId": "C147798", "definition": "Trauma Symptom Checklist for Young Children - Please indicate how often the child has done, felt, or experienced each of the following things in the last month: Seeming to be a million miles away.", "preferredTerm": "TSCYC - Seeming to Be Million Miles Away", "submissionValue": "TSCYC146", "synonyms": ["TSCYC1-Seeming to Be Million Miles Away"]}, {"conceptId": "C147799", "definition": "Trauma Symptom Checklist for Young Children - Please indicate how often the child has done, felt, or experienced each of the following things in the last month: Being easily startled.", "preferredTerm": "TSCYC - Being Easily Startled", "submissionValue": "TSCYC147", "synonyms": ["TSCYC1-Being Easily Startled"]}, {"conceptId": "C147800", "definition": "Trauma Symptom Checklist for Young Children - Please indicate how often the child has done, felt, or experienced each of the following things in the last month: Watching out everywhere for possible danger.", "preferredTerm": "TSCYC - Watching Out for Possible Danger", "submissionValue": "TSCYC148", "synonyms": ["TSCYC1-Watching Out for Possible Danger"]}, {"conceptId": "C147801", "definition": "Trauma Symptom Checklist for Young Children - Please indicate how often the child has done, felt, or experienced each of the following things in the last month: No longer doing things that he or she used to enjoy.", "preferredTerm": "TSCYC - No Longer Doing Things Enjoy", "submissionValue": "TSCYC149", "synonyms": ["TSCYC1-No Longer Doing Things Enjoy"]}, {"conceptId": "C147802", "definition": "Trauma Symptom Checklist for Young Children - Please indicate how often the child has done, felt, or experienced each of the following things in the last month: Becoming frightened or disturbed when something sexual was mentioned or seen.", "preferredTerm": "TSCYC - Frightened Something Sexual Seen", "submissionValue": "TSCYC150", "synonyms": ["TSCYC1-Frightened Something Sexual Seen"]}, {"conceptId": "C147803", "definition": "Trauma Symptom Checklist for Young Children - Please indicate how often the child has done, felt, or experienced each of the following things in the last month: Not sleeping for two or more days.", "preferredTerm": "TSCYC - Not Sleeping for Two or More Days", "submissionValue": "TSCYC151", "synonyms": ["TSCYC1-Not Sleeping for Two or More Days"]}, {"conceptId": "C147804", "definition": "Trauma Symptom Checklist for Young Children - Please indicate how often the child has done, felt, or experienced each of the following things in the last month: Not paying attention because he or she was in his or her own world.", "preferredTerm": "TSCYC - Not Paying Attention in Own World", "submissionValue": "TSCYC152", "synonyms": ["TSCYC1-Not Paying Attention in Own World"]}, {"conceptId": "C147805", "definition": "Trauma Symptom Checklist for Young Children - Please indicate how often the child has done, felt, or experienced each of the following things in the last month: Making mistakes.", "preferredTerm": "TSCYC - Making Mistakes", "submissionValue": "TSCYC153", "synonyms": ["TSCYC1-Making Mistakes"]}, {"conceptId": "C147806", "definition": "Trauma Symptom Checklist for Young Children - Please indicate how often the child has done, felt, or experienced each of the following things in the last month: Crying for no obvious reason.", "preferredTerm": "TSCYC - Crying for No Obvious Reason", "submissionValue": "TSCYC154", "synonyms": ["TSCYC1-Crying for No Obvious Reason"]}, {"conceptId": "C147807", "definition": "Trauma Symptom Checklist for Young Children - Please indicate how often the child has done, felt, or experienced each of the following things in the last month: Not wanting to be around someone who did something bad to him or her or reminded him or her of something bad.", "preferredTerm": "TSCYC - Not Wanting to Be Around Someone", "submissionValue": "TSCYC155", "synonyms": ["TSCYC1-Not Wanting to Be Around Someone"]}, {"conceptId": "C147808", "definition": "Trauma Symptom Checklist for Young Children - Please indicate how often the child has done, felt, or experienced each of the following things in the last month: Being tense.", "preferredTerm": "TSCYC - Being Tense", "submissionValue": "TSCYC156", "synonyms": ["TSCYC1-Being Tense"]}, {"conceptId": "C147809", "definition": "Trauma Symptom Checklist for Young Children - Please indicate how often the child has done, felt, or experienced each of the following things in the last month: Worrying about other people's safety.", "preferredTerm": "TSCYC - Worrying About People's Safety", "submissionValue": "TSCYC157", "synonyms": ["TSCYC1-Worrying About People's Safety"]}, {"conceptId": "C147810", "definition": "Trauma Symptom Checklist for Young Children - Please indicate how often the child has done, felt, or experienced each of the following things in the last month: Becoming very angry over a little thing.", "preferredTerm": "TSCYC - Very Angry Over a Little Thing", "submissionValue": "TSCYC158", "synonyms": ["TSCYC1-Very Angry Over a Little Thing"]}, {"conceptId": "C147811", "definition": "Trauma Symptom Checklist for Young Children - Please indicate how often the child has done, felt, or experienced each of the following things in the last month: Drawing pictures about sexual things.", "preferredTerm": "TSCYC - Drawing Pictures About Sex Things", "submissionValue": "TSCYC159", "synonyms": ["TSCYC1-Drawing Pictures About Sex Things"]}, {"conceptId": "C147812", "definition": "Trauma Symptom Checklist for Young Children - Please indicate how often the child has done, felt, or experienced each of the following things in the last month: Pulling his or her hair out.", "preferredTerm": "TSCYC - Pulling His or Her Hair Out", "submissionValue": "TSCYC160", "synonyms": ["TSCYC1-Pulling His or Her Hair Out"]}, {"conceptId": "C147813", "definition": "Trauma Symptom Checklist for Young Children - Please indicate how often the child has done, felt, or experienced each of the following things in the last month: Calling himself or herself bad, stupid, or ugly.", "preferredTerm": "TSCYC - Calling Himself or Herself Bad", "submissionValue": "TSCYC161", "synonyms": ["TSCYC1-Calling Himself or Herself Bad"]}, {"conceptId": "C147814", "definition": "Trauma Symptom Checklist for Young Children - Please indicate how often the child has done, felt, or experienced each of the following things in the last month: Throwing things at friends or family members.", "preferredTerm": "TSCYC - Throwing Things at Friends/Family", "submissionValue": "TSCYC162", "synonyms": ["TSCYC1-Throwing Things at Friends/Family"]}, {"conceptId": "C147815", "definition": "Trauma Symptom Checklist for Young Children - Please indicate how often the child has done, felt, or experienced each of the following things in the last month: Getting upset about something in the past.", "preferredTerm": "TSCYC - Getting Upset About the Past", "submissionValue": "TSCYC163", "synonyms": ["TSCYC1-Getting Upset About the Past"]}, {"conceptId": "C147816", "definition": "Trauma Symptom Checklist for Young Children - Please indicate how often the child has done, felt, or experienced each of the following things in the last month: Temporary blindness or paralysis.", "preferredTerm": "TSCYC - Temporary Blindness or Paralysis", "submissionValue": "TSCYC164", "synonyms": ["TSCYC1-Temporary Blindness or Paralysis"]}, {"conceptId": "C147817", "definition": "Trauma Symptom Checklist for Young Children - Please indicate how often the child has done, felt, or experienced each of the following things in the last month: Getting upset about something sexual.", "preferredTerm": "TSCYC - Getting Upset Something Sexual", "submissionValue": "TSCYC165", "synonyms": ["TSCYC1-Getting Upset Something Sexual"]}, {"conceptId": "C147818", "definition": "Trauma Symptom Checklist for Young Children - Please indicate how often the child has done, felt, or experienced each of the following things in the last month: Not going to bed at night the first time he or she was asked.", "preferredTerm": "TSCYC - Not Going to Bed First Time Asked", "submissionValue": "TSCYC166", "synonyms": ["TSCYC1-Not Going to Bed First Time Asked"]}, {"conceptId": "C147819", "definition": "Trauma Symptom Checklist for Young Children - Please indicate how often the child has done, felt, or experienced each of the following things in the last month: Fear that he or she would be killed by someone.", "preferredTerm": "TSCYC - Fear He or She Killed by Someone", "submissionValue": "TSCYC167", "synonyms": ["TSCYC1-Fear He or She Killed by Someone"]}, {"conceptId": "C147820", "definition": "Trauma Symptom Checklist for Young Children - Please indicate how often the child has done, felt, or experienced each of the following things in the last month: Saying that nobody liked him or her.", "preferredTerm": "TSCYC - Saying Nobody Liked Him or Her", "submissionValue": "TSCYC168", "synonyms": ["TSCYC1-Saying Nobody Liked Him or Her"]}, {"conceptId": "C147821", "definition": "Trauma Symptom Checklist for Young Children - Please indicate how often the child has done, felt, or experienced each of the following things in the last month: Crying when he or she was reminded of something from the past.", "preferredTerm": "TSCYC - Crying When Reminded From Past", "submissionValue": "TSCYC169", "synonyms": ["TSCYC1-Crying When Reminded From Past"]}, {"conceptId": "C147822", "definition": "Trauma Symptom Checklist for Young Children - Please indicate how often the child has done, felt, or experienced each of the following things in the last month: Saying that something bad didn't happen to him or her even though it did happen.", "preferredTerm": "TSCYC - Saying Bad Didn't Happen", "submissionValue": "TSCYC170", "synonyms": ["TSCYC1-Saying Bad Didn't Happen"]}, {"conceptId": "C147823", "definition": "Trauma Symptom Checklist for Young Children - Please indicate how often the child has done, felt, or experienced each of the following things in the last month: Saying he or she wanted to die or be killed.", "preferredTerm": "TSCYC - Saying He or She Wanted to Die", "submissionValue": "TSCYC171", "synonyms": ["TSCYC1-Saying He or She Wanted to Die"]}, {"conceptId": "C147824", "definition": "Trauma Symptom Checklist for Young Children - Please indicate how often the child has done, felt, or experienced each of the following things in the last month: Acting as if he or she didn't have any feelings about something bad that happened to him or her.", "preferredTerm": "TSCYC - Acting as If Didn't Have Feelings", "submissionValue": "TSCYC172", "synonyms": ["TSCYC1-Acting as If Didn't Have Feelings"]}, {"conceptId": "C147825", "definition": "Trauma Symptom Checklist for Young Children - Please indicate how often the child has done, felt, or experienced each of the following things in the last month: Whining.", "preferredTerm": "TSCYC - Whining", "submissionValue": "TSCYC173", "synonyms": ["TSCYC1-Whining"]}, {"conceptId": "C147826", "definition": "Trauma Symptom Checklist for Young Children - Please indicate how often the child has done, felt, or experienced each of the following things in the last month: Not sleeping well.", "preferredTerm": "TSCYC - Not Sleeping Well", "submissionValue": "TSCYC174", "synonyms": ["TSCYC1-Not Sleeping Well"]}, {"conceptId": "C147827", "definition": "Trauma Symptom Checklist for Young Children - Please indicate how often the child has done, felt, or experienced each of the following things in the last month: Worrying about sexual things.", "preferredTerm": "TSCYC - Worrying About Sexual Things", "submissionValue": "TSCYC175", "synonyms": ["TSCYC1-Worrying About Sexual Things"]}, {"conceptId": "C147828", "definition": "Trauma Symptom Checklist for Young Children - Please indicate how often the child has done, felt, or experienced each of the following things in the last month: Being frightened by things that didn't used to scare him or her.", "preferredTerm": "TSCYC - Being Frightened by Things", "submissionValue": "TSCYC176", "synonyms": ["TSCYC1-Being Frightened by Things"]}, {"conceptId": "C147829", "definition": "Trauma Symptom Checklist for Young Children - Please indicate how often the child has done, felt, or experienced each of the following things in the last month: Hallucinating.", "preferredTerm": "TSCYC - Hallucinating", "submissionValue": "TSCYC177", "synonyms": ["TSCYC1-Hallucinating"]}, {"conceptId": "C147830", "definition": "Trauma Symptom Checklist for Young Children - Please indicate how often the child has done, felt, or experienced each of the following things in the last month: Acting like he or she was in a trance.", "preferredTerm": "TSCYC - Acting Like He or She Was in Trance", "submissionValue": "TSCYC178", "synonyms": ["TSCYC1-Acting Like He/She Was in Trance"]}, {"conceptId": "C147831", "definition": "Trauma Symptom Checklist for Young Children - Please indicate how often the child has done, felt, or experienced each of the following things in the last month: Forgetting his or her own name.", "preferredTerm": "TSCYC - Forgetting His or Her Own Name", "submissionValue": "TSCYC179", "synonyms": ["TSCYC1-Forgetting His or Her Own Name"]}, {"conceptId": "C147832", "definition": "Trauma Symptom Checklist for Young Children - Please indicate how often the child has done, felt, or experienced each of the following things in the last month: Getting upset when he or she was reminded of something bad that happened.", "preferredTerm": "TSCYC - Upset When Reminded Bad Happened", "submissionValue": "TSCYC180", "synonyms": ["TSCYC1-Upset When Reminded Bad Happened"]}, {"conceptId": "C147833", "definition": "Trauma Symptom Checklist for Young Children - Please indicate how often the child has done, felt, or experienced each of the following things in the last month: Avoiding things that reminded him or her of a bad thing that had happened in the past.", "preferredTerm": "TSCYC - Avoiding Bad Happened in Past", "submissionValue": "TSCYC181", "synonyms": ["TSCYC1-Avoiding Bad Happened in Past"]}, {"conceptId": "C147834", "definition": "Trauma Symptom Checklist for Young Children - Please indicate how often the child has done, felt, or experienced each of the following things in the last month: Acting jumpy.", "preferredTerm": "TSCYC - Acting Jumpy", "submissionValue": "TSCYC182", "synonyms": ["TSCYC1-Acting Jumpy"]}, {"conceptId": "C147835", "definition": "Trauma Symptom Checklist for Young Children - Please indicate how often the child has done, felt, or experienced each of the following things in the last month: Making a mess.", "preferredTerm": "TSCYC - Making a Mess", "submissionValue": "TSCYC183", "synonyms": ["TSCYC1-Making a Mess"]}, {"conceptId": "C147836", "definition": "Trauma Symptom Checklist for Young Children - Please indicate how often the child has done, felt, or experienced each of the following things in the last month: Acting sad or depressed.", "preferredTerm": "TSCYC - Acting Sad or Depressed", "submissionValue": "TSCYC184", "synonyms": ["TSCYC1-Acting Sad or Depressed"]}, {"conceptId": "C147837", "definition": "Trauma Symptom Checklist for Young Children - Please indicate how often the child has done, felt, or experienced each of the following things in the last month: Being so absent-minded that he or she didn't notice what was going on around him or her.", "preferredTerm": "TSCYC - Being Absent-minded", "submissionValue": "TSCYC185", "synonyms": ["TSCYC1-Being Absent-minded"]}, {"conceptId": "C147838", "definition": "Trauma Symptom Checklist for Young Children - Please indicate how often the child has done, felt, or experienced each of the following things in the last month: Not wanting to eat certain foods.", "preferredTerm": "TSCYC - Not Wanting to Eat Certain Foods", "submissionValue": "TSCYC186", "synonyms": ["TSCYC1-Not Wanting to Eat Certain Foods"]}, {"conceptId": "C147839", "definition": "Trauma Symptom Checklist for Young Children - Please indicate how often the child has done, felt, or experienced each of the following things in the last month: Yelling at family, friends, or teachers.", "preferredTerm": "TSCYC - Yelling at Family, Friends or Teachers", "submissionValue": "TSCYC187", "synonyms": ["TSCYC1-Yelling at Family/Friend/Teachers"]}, {"conceptId": "C147840", "definition": "Trauma Symptom Checklist for Young Children - Please indicate how often the child has done, felt, or experienced each of the following things in the last month: Not playing because he or she was depressed.", "preferredTerm": "TSCYC - Not Playing Because Depressed", "submissionValue": "TSCYC188", "synonyms": ["TSCYC1-Not Playing Because Depressed"]}, {"conceptId": "C147841", "definition": "Trauma Symptom Checklist for Young Children - Please indicate how often the child has done, felt, or experienced each of the following things in the last month: Being disobedient.", "preferredTerm": "TSCYC - Being Disobedient", "submissionValue": "TSCYC189", "synonyms": ["TSCYC1-Being Disobedient"]}, {"conceptId": "C147842", "definition": "Trauma Symptom Checklist for Young Children - Please indicate how often the child has done, felt, or experienced each of the following things in the last month: Intentionally hurting other children or family members.", "preferredTerm": "TSCYC - Intentionally Hurt Other Children", "submissionValue": "TSCYC190", "synonyms": ["TSCYC1-Intentionally Hurt Other Children"]}]}