{"_links": {"parentPackage": {"href": "/mdr/ct/packages/sdtmct-2020-03-27", "title": "SDTM Controlled Terminology Package 41 Effective 2020-03-27", "type": "Terminology"}, "priorVersion": {"href": "/mdr/ct/packages/sdtmct-2019-12-20/codelists/C150789", "title": "CDISC Questionnaire SIQ Test Name Terminology", "type": "Code List"}, "rootItem": {"href": "/mdr/root/ct/sdtmct/codelists/C150789", "title": "Version-agnostic anchor resource for codelist C150789", "type": "Root Value Domain"}, "self": {"href": "/mdr/ct/packages/sdtmct-2020-03-27/codelists/C150789", "title": "CDISC Questionnaire SIQ Test Name Terminology", "type": "Code List"}}, "conceptId": "C150789", "definition": "Suicidal Ideation Questionnaire test name.", "extensible": "false", "name": "Suicidal Ideation Questionnaire Test Name", "preferredTerm": "CDISC Questionnaire SIQ Test Name Terminology", "submissionValue": "SIQ01TN", "synonyms": ["Suicidal Ideation Questionnaire Test Name"], "terms": [{"conceptId": "C151361", "definition": "Suicidal Ideation Questionnaire - Critical item 1.", "preferredTerm": "SIQ - Critical Item 1", "submissionValue": "SIQ01-Critical Item 1", "synonyms": ["SIQ01-Critical Item 1"]}, {"conceptId": "C151362", "definition": "Suicidal Ideation Questionnaire - Critical item 2.", "preferredTerm": "SIQ - Critical Item 2", "submissionValue": "SIQ01-Critical Item 2", "synonyms": ["SIQ01-Critical Item 2"]}, {"conceptId": "C151363", "definition": "Suicidal Ideation Questionnaire - Critical item 3.", "preferredTerm": "SIQ - Critical Item 3", "submissionValue": "SIQ01-Critical Item 3", "synonyms": ["SIQ01-Critical Item 3"]}, {"conceptId": "C151364", "definition": "Suicidal Ideation Questionnaire - Critical item 4.", "preferredTerm": "SIQ - Critical Item 4", "submissionValue": "SIQ01-Critical Item 4", "synonyms": ["SIQ01-Critical Item 4"]}, {"conceptId": "C151365", "definition": "Suicidal Ideation Questionnaire - Critical item 5.", "preferredTerm": "SIQ - Critical Item 5", "submissionValue": "SIQ01-Critical Item 5", "synonyms": ["SIQ01-Critical Item 5"]}, {"conceptId": "C151366", "definition": "Suicidal Ideation Questionnaire - Critical item 6.", "preferredTerm": "SIQ - Critical Item 6", "submissionValue": "SIQ01-Critical Item 6", "synonyms": ["SIQ01-Critical Item 6"]}, {"conceptId": "C151367", "definition": "Suicidal Ideation Questionnaire - Critical item 7.", "preferredTerm": "SIQ - Critical Item 7", "submissionValue": "SIQ01-Critical Item 7", "synonyms": ["SIQ01-Critical Item 7"]}, {"conceptId": "C151368", "definition": "Suicidal Ideation Questionnaire - Critical item 8.", "preferredTerm": "SIQ - Critical Item 8", "submissionValue": "SIQ01-Critical Item 8", "synonyms": ["SIQ01-Critical Item 8"]}, {"conceptId": "C151338", "definition": "Suicidal Ideation Questionnaire - I thought about how easy it would be to end it all.", "preferredTerm": "SIQ - How Easy It Would Be to End It All", "submissionValue": "SIQ01-How Easy It Would Be to End It All", "synonyms": ["SIQ01-How Easy It Would Be to End It All"]}, {"conceptId": "C151336", "definition": "Suicidal Ideation Questionnaire - I thought about how people would feel if I killed myself.", "preferredTerm": "SIQ - How People Feel If I Killed Myself", "submissionValue": "SIQ01-How People Feel If I Killed Myself", "synonyms": ["SIQ01-How People Feel If I Killed Myself"]}, {"conceptId": "C151352", "definition": "Suicidal Ideation Questionnaire - I thought about hurting myself but not really killing myself.", "preferredTerm": "SIQ - Hurting Myself but Not Kill Myself", "submissionValue": "SIQ01-Hurting Myself but Not Kill Myself", "synonyms": ["SIQ01-Hurting Myself but Not Kill Myself"]}, {"conceptId": "C151331", "definition": "Suicidal Ideation Questionnaire - I thought about death.", "preferredTerm": "SIQ - I Thought About Death", "submissionValue": "SIQ01-I Thought About Death", "synonyms": ["SIQ01-I Thought About Death"]}, {"conceptId": "C151327", "definition": "Suicidal Ideation Questionnaire - I thought about killing myself.", "preferredTerm": "SIQ - I Thought About Killing Myself", "submissionValue": "SIQ01-I Thought About Killing Myself", "synonyms": ["SIQ01-I Thought About Killing Myself"]}, {"conceptId": "C151330", "definition": "Suicidal Ideation Questionnaire - I thought about people dying.", "preferredTerm": "SIQ - I Thought About People Dying", "submissionValue": "SIQ01-I Thought About People Dying", "synonyms": ["SIQ01-I Thought About People Dying"]}, {"conceptId": "C151333", "definition": "Suicidal Ideation Questionnaire - I thought about writing a will.", "preferredTerm": "SIQ - I Thought About Writing a Will", "submissionValue": "SIQ01-I Thought About Writing a Will", "synonyms": ["SIQ01-I Thought About Writing a Will"]}, {"conceptId": "C151328", "definition": "Suicidal Ideation Questionnaire - I thought about how I would kill myself.", "preferredTerm": "SIQ - I Thought How I Would Kill Myself", "submissionValue": "SIQ01-I Thought How I Would Kill Myself", "synonyms": ["SIQ01-I Thought How I Would Kill Myself"]}, {"conceptId": "C151329", "definition": "Suicidal Ideation Questionnaire - I thought about when I would kill myself.", "preferredTerm": "SIQ - I Thought When I Would Kill Myself", "submissionValue": "SIQ01-I Thought When I Would Kill Myself", "synonyms": ["SIQ01-I Thought When I Would Kill Myself"]}, {"conceptId": "C151337", "definition": "Suicidal Ideation Questionnaire - I wished I were dead.", "preferredTerm": "SIQ - I Wished I Were Dead", "submissionValue": "SIQ01-I Wished I Were Dead", "synonyms": ["SIQ01-I Wished I Were Dead"]}, {"conceptId": "C151343", "definition": "Suicidal Ideation Questionnaire - I thought if I had the chance I would kill myself.", "preferredTerm": "SIQ - If Had Chance I Would Kill Myself", "submissionValue": "SIQ01-If Had Chance I Would Kill Myself", "synonyms": ["SIQ01-If Had Chance I Would Kill Myself"]}, {"conceptId": "C151354", "definition": "Suicidal Ideation Questionnaire - I thought that if things did not get better I would kill myself.", "preferredTerm": "SIQ - If Things Not Better I Kill Myself", "submissionValue": "SIQ01-If Things Not Better I Kill Myself", "synonyms": ["SIQ01-If Things Not Better I Kill Myself"]}, {"conceptId": "C151339", "definition": "Suicidal Ideation Questionnaire - I thought that killing myself would solve my problems.", "preferredTerm": "SIQ - Killing Myself Would Solve Problem", "submissionValue": "SIQ01-Killing Myself Would Solve Problem", "synonyms": ["SIQ01-Killing Myself Would Solve Problem"]}, {"conceptId": "C151348", "definition": "Suicidal Ideation Questionnaire - I thought that my life was too rotten to continue.", "preferredTerm": "SIQ - My Life Was Too Rotten to Continue", "submissionValue": "SIQ01-My Life Was Too Rotten to Continue", "synonyms": ["SIQ01-My Life Was Too Rotten to Continue"]}, {"conceptId": "C151351", "definition": "Suicidal Ideation Questionnaire - I thought that no one cared if I lived or died.", "preferredTerm": "SIQ - No One Cared If I Lived or Died", "submissionValue": "SIQ01-No One Cared If I Lived or Died", "synonyms": ["SIQ01-No One Cared If I Lived or Died"]}, {"conceptId": "C151349", "definition": "Suicidal Ideation Questionnaire - I thought that the only way to be noticed is to kill myself.", "preferredTerm": "SIQ - Only Way Be Noticed Is Kill Myself", "submissionValue": "SIQ01-Only Way Be Noticed Is Kill Myself", "synonyms": ["SIQ01-Only Way Be Noticed Is Kill Myself"]}, {"conceptId": "C151340", "definition": "Suicidal Ideation Questionnaire - I thought others would be better off if I was dead.", "preferredTerm": "SIQ - Others Better Off If I Was Dead", "submissionValue": "SIQ01-Others Better Off If I Was Dead", "synonyms": ["SIQ01-Others Better Off If I Was Dead"]}, {"conceptId": "C151335", "definition": "Suicidal Ideation Questionnaire - I thought that people would be happier if I were not around.", "preferredTerm": "SIQ - People Happier If Not Around", "submissionValue": "SIQ01-People Happier If Not Around", "synonyms": ["SIQ01-People Happier If Not Around"]}, {"conceptId": "C151350", "definition": "Suicidal Ideation Questionnaire - I thought that if I killed myself people would realize I was worth caring about.", "preferredTerm": "SIQ - People Realize Worth Caring About", "submissionValue": "SIQ01-People Realize Worth Caring About", "synonyms": ["SIQ01-People Realize Worth Caring About"]}, {"conceptId": "C151358", "definition": "Suicidal Ideation Questionnaire - Specific standardization %: Sample 1.", "preferredTerm": "SIQ - Specific %: Standard Sample 1", "submissionValue": "SIQ01-Specific %: Standard Sample 1", "synonyms": ["SIQ01-Specific %: Standard Sample 1"]}, {"conceptId": "C151359", "definition": "Suicidal Ideation Questionnaire - Specific standardization %: Sample 2.", "preferredTerm": "SIQ - Specific %: Standard Sample 2", "submissionValue": "SIQ01-Specific %: Standard Sample 2", "synonyms": ["SIQ01-Specific %: Standard Sample 2"]}, {"conceptId": "C151360", "definition": "Suicidal Ideation Questionnaire - Specific standardization %: Sample 3.", "preferredTerm": "SIQ - Specific %: Standard Sample 3", "submissionValue": "SIQ01-Specific %: Standard Sample 3", "synonyms": ["SIQ01-Specific %: Standard Sample 3"]}, {"conceptId": "C151356", "definition": "Suicidal Ideation Questionnaire - TS (total raw score).", "preferredTerm": "SIQ - TS", "submissionValue": "SIQ01-TS", "synonyms": ["SIQ01-TS"]}, {"conceptId": "C151334", "definition": "Suicidal Ideation Questionnaire - I thought about telling people I plan to kill myself.", "preferredTerm": "SIQ - Tell People I Plan to Kill Myself", "submissionValue": "SIQ01-Tell People I Plan to Kill Myself", "synonyms": ["SIQ01-Tell People I Plan to Kill Myself"]}, {"conceptId": "C151346", "definition": "Suicidal Ideation Questionnaire - I thought about having a bad accident.", "preferredTerm": "SIQ - Thought About Having Bad Accident", "submissionValue": "SIQ01-Thought About Having Bad Accident", "synonyms": ["SIQ01-Thought About Having Bad Accident"]}, {"conceptId": "C151345", "definition": "Suicidal Ideation Questionnaire - I thought about killing myself, but would not do it.", "preferredTerm": "SIQ - Thought Killing Myself Not Do It", "submissionValue": "SIQ01-Thought Killing Myself Not Do It", "synonyms": ["SIQ01-Thought Killing Myself Not Do It"]}, {"conceptId": "C151347", "definition": "Suicidal Ideation Questionnaire - I thought that life was not worth living.", "preferredTerm": "SIQ - Thought Life Was Not Worth Living", "submissionValue": "SIQ01-Thought Life Was Not Worth Living", "synonyms": ["SIQ01-Thought Life Was Not Worth Living"]}, {"conceptId": "C151344", "definition": "Suicidal Ideation Questionnaire - I thought about ways people kill themselves.", "preferredTerm": "SIQ - Thought Way People Kill Themselves", "submissionValue": "SIQ01-Thought Way People Kill Themselves", "synonyms": ["SIQ01-Thought Way People Kill Themselves"]}, {"conceptId": "C151357", "definition": "Suicidal Ideation Questionnaire - Total standardization sample %.", "preferredTerm": "SIQ - Total %", "submissionValue": "SIQ01-Total %", "synonyms": ["SIQ01-Total %"]}, {"conceptId": "C151332", "definition": "Suicidal Ideation Questionnaire - I thought about what to write in a suicide note.", "preferredTerm": "SIQ - What to Write in a Suicide Note", "submissionValue": "SIQ01-What to Write in a Suicide Note", "synonyms": ["SIQ01-What to Write in a Suicide Note"]}, {"conceptId": "C151342", "definition": "Suicidal Ideation Questionnaire - I wished that I had never been born.", "preferredTerm": "SIQ - Wished I Had Never Been Born", "submissionValue": "SIQ01-Wished I Had Never Been Born", "synonyms": ["SIQ01-Wished I Had Never Been Born"]}, {"conceptId": "C151355", "definition": "Suicidal Ideation Questionnaire - I wished that I had the right to kill myself.", "preferredTerm": "SIQ - Wished I Had Right to Kill Myself", "submissionValue": "SIQ01-Wished I Had Right to Kill Myself", "synonyms": ["SIQ01-Wished I Had Right to Kill Myself"]}, {"conceptId": "C151341", "definition": "Suicidal Ideation Questionnaire - I wished I had the nerve to kill myself.", "preferredTerm": "SIQ - Wished I Had the Nerve Kill Myself", "submissionValue": "SIQ01-Wished I Had the Nerve Kill Myself", "synonyms": ["SIQ01-Wished I Had the Nerve Kill Myself"]}, {"conceptId": "C151353", "definition": "Suicidal Ideation Questionnaire - I wondered if I had the nerve to kill myself.", "preferredTerm": "SIQ - Wondered If Had Nerve Kill Myself", "submissionValue": "SIQ01-Wondered If Had Nerve Kill Myself", "synonyms": ["SIQ01-Wondered If Had Nerve Kill Myself"]}, {"conceptId": "C151326", "definition": "Suicidal Ideation Questionnaire - I thought it would be better if I was not alive.", "preferredTerm": "SIQ - Would Be Better If I Was Not Alive", "submissionValue": "SIQ01-Would Be Better If I Was Not Alive", "synonyms": ["SIQ01-Would Be Better If I Was Not Alive"]}]}