{"_links": {"parentPackage": {"href": "/mdr/ct/packages/sdtmct-2020-03-27", "title": "SDTM Controlled Terminology Package 41 Effective 2020-03-27", "type": "Terminology"}, "priorVersion": {"href": "/mdr/ct/packages/sdtmct-2019-12-20/codelists/C150811", "title": "CDISC SDTM Other Disposition Event Response Terminology", "type": "Code List"}, "rootItem": {"href": "/mdr/root/ct/sdtmct/codelists/C150811", "title": "Version-agnostic anchor resource for codelist C150811", "type": "Root Value Domain"}, "self": {"href": "/mdr/ct/packages/sdtmct-2020-03-27/codelists/C150811", "title": "CDISC SDTM Other Disposition Event Response Terminology", "type": "Code List"}}, "conceptId": "C150811", "definition": "A terminology codelist relevant to other important events that occur during a trial but are not driven by protocol requirements.", "extensible": "true", "name": "Other Disposition Event Response", "preferredTerm": "CDISC SDTM Other Disposition Event Response Terminology", "submissionValue": "OTHEVENT", "synonyms": ["Other Disposition Event Response"], "terms": [{"conceptId": "C142742", "definition": "A study event during which the treatment assignment is made known to the subject, investigator, and/or other trial personnel.", "preferredTerm": "Unblinding", "submissionValue": "TREATMENT UNBLINDED"}, {"conceptId": "C170610", "definition": "The subject or parent/guardian withdraws their consent for the subject to participate in certain protocol-specified study activities, but does not withdraw consent from participation in the study as a whole.", "preferredTerm": "Withdrawal of Consent From Protocol-Specified Activity", "submissionValue": "WITHDRAWAL OF CONSENT FROM PROTOCOL-SPECIFIED ACTIVITY"}]}