{"_links": {"parentPackage": {"href": "/mdr/ct/packages/sdtmct-2020-03-27", "title": "SDTM Controlled Terminology Package 41 Effective 2020-03-27", "type": "Terminology"}, "priorVersion": {"href": "/mdr/ct/packages/sdtmct-2019-12-20/codelists/C90018", "title": "CDISC SEND Consciousness State Terminology", "type": "Code List"}, "rootItem": {"href": "/mdr/root/ct/sdtmct/codelists/C90018", "title": "Version-agnostic anchor resource for codelist C90018", "type": "Root Value Domain"}, "self": {"href": "/mdr/ct/packages/sdtmct-2020-03-27/codelists/C90018", "title": "CDISC SEND Consciousness State Terminology", "type": "Code List"}}, "conceptId": "C90018", "definition": "Terminology related to the sense of awareness of self and of the environment.", "extensible": "true", "name": "Consciousness State", "preferredTerm": "CDISC SEND Consciousness State Terminology", "submissionValue": "CSTATE", "synonyms": ["Consciousness State"], "terms": [{"conceptId": "C88434", "definition": "A level of awareness that can be described as being alert. (NCI)", "preferredTerm": "Conscious State", "submissionValue": "CONSCIOUS", "synonyms": ["Conscious State"]}, {"conceptId": "C78253", "definition": "A neurologic state characterized by decreased ability to perceive and respond. (NCI)", "preferredTerm": "Depressed Level Of Consciousness", "submissionValue": "DEPRESSED", "synonyms": ["Depressed Level of Consciousness"]}, {"conceptId": "C88440", "definition": "A level of awareness that can be described as varied and intermittent periods of consciousness and unconsciousness.", "preferredTerm": "Semi-conscious", "submissionValue": "SEMI-CONSCIOUS", "synonyms": ["Semi-conscious State"]}, {"conceptId": "C50635", "definition": "The neurologic status characterized by the occurrence of a loss of the ability to perceive and respond.", "preferredTerm": "Loss of Consciousness", "submissionValue": "UNCONSCIOUS", "synonyms": ["Loss of Consciousness", "Unconscious State"]}, {"conceptId": "C90482", "definition": "The state of consciousness is not controlled. The possibility exists for having multiple conscious states over a period of time. (NCI)", "preferredTerm": "Unspecified State of Consciousness", "submissionValue": "UNSPECIFIED", "synonyms": ["Unspecified State of Consciousness"]}]}