{"_links": {"parentPackage": {"href": "/mdr/ct/packages/sendct-2016-09-30", "title": "SEND Controlled Terminology Package 27 Effective 2016-09-30", "type": "Terminology"}, "priorVersion": {"href": "/mdr/ct/packages/sendct-2016-06-24/codelists/C66770", "title": "CDISC SDTM Unit for Vital Sign Result Terminology", "type": "Code List"}, "rootItem": {"href": "/mdr/root/ct/sendct/codelists/C66770", "title": "Version-agnostic anchor resource for codelist C66770", "type": "Root Value Domain"}, "self": {"href": "/mdr/ct/packages/sendct-2016-09-30/codelists/C66770", "title": "CDISC SDTM Unit for Vital Sign Result Terminology", "type": "Code List"}}, "conceptId": "C66770", "definition": "The unit used to record and describe the result of a test investigating a vital sign. (NCI)", "extensible": "true", "name": "Units for Vital Signs Results", "preferredTerm": "CDISC SDTM Unit for Vital Sign Result Terminology", "submissionValue": "VSRESU", "synonyms": ["Units for Vital Signs Results"], "terms": [{"conceptId": "C25613", "definition": "A fraction or ratio with 100 understood as the denominator. (NCI)", "preferredTerm": "Percentage", "submissionValue": "%", "synonyms": ["Percentage"]}, {"conceptId": "C42559", "definition": "A unit of temperature of the temperature scale designed so that the freezing point of water is 0 degrees and the boiling point is 100 degrees at standard atmospheric pressure. The current official definition of the Celsius sets 0.01 C to be at the triple point of water and a degree to be 1/273.16 of the difference in temperature between the triple point of water and absolute zero. One degree Celsius represents the same temperature difference as one Kelvin. (NCI)", "preferredTerm": "Degree Celsius", "submissionValue": "C", "synonyms": ["Degree Celsius"]}, {"conceptId": "C44277", "definition": "The Fahrenheit temperature scale is named after the German physicist Gabriel Fahrenheit (1686-1736), who proposed it in 1724. In this scale, the freezing point of water is 32 degrees Fahrenheit and the boiling point is 212 degrees, placing the boiling and melting points of water 180 degrees apart. In this scale a degree Fahrenheit is 5/9ths of a Kelvin (or of a degree Celsius), and minus 40 degrees Fahrenheit is equal to minus 40 degrees Celsius. (NCI)", "preferredTerm": "Degree Fahrenheit", "submissionValue": "F", "synonyms": ["Degree Fahrenheit"]}, {"conceptId": "C48531", "definition": "A traditional unit of mass. By international agreement, one avoirdupois pound is equal to exactly 0.453 592 37 kilogram, 16 ounces, or 1.215 28 troy pounds. (NCI)", "preferredTerm": "Pound", "submissionValue": "LB", "synonyms": ["Pound"]}, {"conceptId": "C49673", "definition": "The number of heartbeats measured per minute time. (NCI)", "preferredTerm": "Beats per Minute", "submissionValue": "beats/min", "synonyms": ["Beats per Minute"]}, {"conceptId": "C49674", "definition": "The number of breaths (inhalation and exhalation) taken per minute time. (NCI)", "preferredTerm": "Breaths per Minute", "submissionValue": "breaths/min", "synonyms": ["Breaths per Minute"]}, {"conceptId": "C49668", "definition": "A basic unit of length equal to one hundredth of a meter or approximately 0.393700787 inch.", "preferredTerm": "Centimeter", "submissionValue": "cm", "synonyms": ["Centimeter"]}, {"conceptId": "C48155", "definition": "A unit of mass equal to one thousandth (10E-3) of a kilogram, the kilogram being the base unit of mass in the International System of Units (SI).", "preferredTerm": "Gram", "submissionValue": "g", "synonyms": ["Gram"]}, {"conceptId": "C48500", "definition": "A traditional unit of length equal to 2.54 centimeters. (NCI)", "preferredTerm": "Inch", "submissionValue": "in", "synonyms": ["Inch"]}, {"conceptId": "C28252", "definition": "The base unit of mass in the International System of Units (SI) equal to the mass of the international prototype kilogram, a platinum-iridium cylinder in the custody of the International Bureau of Weights and Measures.", "preferredTerm": "Kilogram", "submissionValue": "kg", "synonyms": ["Kilogram"]}, {"conceptId": "C49671", "definition": "A unit expressed as kilogram of mass per square meter of area.(NCI)", "preferredTerm": "Kilogram per Square Meter", "submissionValue": "kg/m2", "synonyms": ["Kilogram per Square Meter"]}, {"conceptId": "C42569", "definition": "The standard derived unit of area in the International System of Units (SI) equal to the area of a square whose sides are one meter long.", "preferredTerm": "Square Meter", "submissionValue": "m2", "synonyms": ["Square Meter"]}, {"conceptId": "C28251", "definition": "A unit of measure equal to one thousandth of a meter. (NCI)", "preferredTerm": "Millimeter", "submissionValue": "mm", "synonyms": ["Millimeter"]}, {"conceptId": "C49670", "definition": "A unit of pressure equal to 0.001316 atmosphere and equal to the pressure indicated by one millimeter rise of mercury in a barometer at the Earth's surface. (NCI)", "preferredTerm": "Millimeter of Mercury", "submissionValue": "mmHg", "synonyms": ["Millimeter of Mercury"]}]}