{"_links": {"parentPackage": {"href": "/mdr/ct/packages/sendct-2016-09-30", "title": "SEND Controlled Terminology Package 27 Effective 2016-09-30", "type": "Terminology"}, "priorVersion": {"href": "/mdr/ct/packages/sendct-2016-06-24/codelists/C89977", "title": "CDISC SEND Organ Measurement Test Code Terminology", "type": "Code List"}, "rootItem": {"href": "/mdr/root/ct/sendct/codelists/C89977", "title": "Version-agnostic anchor resource for codelist C89977", "type": "Root Value Domain"}, "self": {"href": "/mdr/ct/packages/sendct-2016-09-30/codelists/C89977", "title": "CDISC SEND Organ Measurement Test Code Terminology", "type": "Code List"}}, "conceptId": "C89977", "definition": "Terminology for the test codes concerned with the measurement of organs.", "extensible": "true", "name": "Organ Measurement Test Code", "preferredTerm": "CDISC SEND Organ Measurement Test Code Terminology", "submissionValue": "OMTESTCD", "synonyms": ["Organ Measurement Test Code"], "terms": [{"conceptId": "C90427", "definition": "A numeric comparison of the weight of an organ to the weight of the brain.", "preferredTerm": "Organ to Brain Weight Ratio", "submissionValue": "OWBR", "synonyms": ["Organ to Brain Weight Ratio"]}, {"conceptId": "C90426", "definition": "A numeric comparison of the weight of an organ to body weight.", "preferredTerm": "Organ to Body Weight Ratio", "submissionValue": "OWBW", "synonyms": ["Organ to Body Weight Ratio"]}, {"conceptId": "C90428", "definition": "A numeric comparison of the weight of an organ to the weight of the heart.", "preferredTerm": "Organ to Heart Weight Ratio", "submissionValue": "OWHT", "synonyms": ["Organ to Heart Weight Ratio"]}, {"conceptId": "C41145", "definition": "The dimension between two surfaces of an object, usually the smallest dimension as opposed to the width or the length.", "preferredTerm": "Thickness", "submissionValue": "THCKN", "synonyms": ["Thickness"]}, {"conceptId": "C120721", "definition": "The mean number in a group of values that represent the thickness of an object.", "preferredTerm": "Mean Thickness", "submissionValue": "THCKNMN", "synonyms": ["Thickness, Mean"]}, {"conceptId": "C25208", "definition": "The vertical force exerted by a mass as a result of gravity. (NCI)", "preferredTerm": "Weight", "submissionValue": "WEIGHT", "synonyms": ["Weight"]}]}