{"_links": {"parentPackage": {"href": "/mdr/ct/packages/sendct-2020-03-27", "title": "SEND Controlled Terminology Package 41 Effective 2020-03-27", "type": "Terminology"}, "priorVersion": {"href": "/mdr/ct/packages/sendct-2019-12-20/codelists/C163031", "title": "CDISC SEND Microbiology Test Name Terminology", "type": "Code List"}, "rootItem": {"href": "/mdr/root/ct/sendct/codelists/C163031", "title": "Version-agnostic anchor resource for codelist C163031", "type": "Root Value Domain"}, "self": {"href": "/mdr/ct/packages/sendct-2020-03-27/codelists/C163031", "title": "CDISC SEND Microbiology Test Name Terminology", "type": "Code List"}}, "conceptId": "C163031", "definition": "Terminology for the test name relevant to non-clinical microbiology findings.", "extensible": "true", "name": "SEND Microbiology Test Name", "preferredTerm": "CDISC SEND Microbiology Test Name Terminology", "submissionValue": "SMBTST", "synonyms": ["SEND Microbiology Test Name"], "terms": [{"conceptId": "C100452", "definition": "A measurement of the parasites and ova in a biological specimen.", "preferredTerm": "Ova and Parasite Measurement", "submissionValue": "Ova and Parasite", "synonyms": ["Ova and Parasite"]}]}