{"_links": {"parentPackage": {"href": "/mdr/ct/packages/qrsct-2015-06-26", "title": "QRS Controlled Terminology Package 22 Effective 2015-06-26", "type": "Terminology"}, "rootItem": {"href": "/mdr/root/ct/qrsct/codelists/C101818", "title": "Version-agnostic anchor resource for codelist C101818", "type": "Root Value Domain"}, "self": {"href": "/mdr/ct/packages/qrsct-2015-06-26/codelists/C101818", "title": "CDISC Questionnaire EQ-5D-5L Test Name Terminology", "type": "Code List"}}, "conceptId": "C101818", "definition": "European Quality of Life Five Dimension Five Level Scale test name.", "extensible": "false", "name": "QS-European Quality of Life Five Dimension Five Level Scale Test Name", "preferredTerm": "CDISC Questionnaire EQ-5D-5L Test Name Terminology", "submissionValue": "EQ-5D-5L TEST", "synonyms": ["QS-European Quality of Life Five Dimension Five Level Scale Test Name"], "terms": [{"conceptId": "C102071", "definition": "European Quality of Life Five Dimension Five Level Scale - Check the one box that best describes your health today: Anxiety/depression.", "preferredTerm": "EQ-5D-5L - Anxiety or Depression", "submissionValue": "EQ5D02-Anxiety/Depression", "synonyms": ["EQ5D02-Anxiety/Depression"]}, {"conceptId": "C102072", "definition": "European Quality of Life Five Dimension Five Level Scale - Indicate how your health is today.", "preferredTerm": "EQ-5D-5L - EQ VAS Score", "submissionValue": "EQ5D02-EQ VAS Score", "synonyms": ["EQ5D02-EQ VAS Score"]}, {"conceptId": "C102067", "definition": "European Quality of Life Five Dimension Five Level Scale - Check the one box that best describes your health today: Mobility.", "preferredTerm": "EQ-5D-5L - Mobility", "submissionValue": "EQ5D02-Mobility", "synonyms": ["EQ5D02-Mobility"]}, {"conceptId": "C102070", "definition": "European Quality of Life Five Dimension Five Level Scale - Check the one box that best describes your health today: Pain/discomfort.", "preferredTerm": "EQ-5D-5L - Pain or Discomfort", "submissionValue": "EQ5D02-Pain/Discomfort", "synonyms": ["EQ5D02-Pain/Discomfort"]}, {"conceptId": "C102068", "definition": "European Quality of Life Five Dimension Five Level Scale - Check the one box that best describes your health today: Self-care.", "preferredTerm": "EQ-5D-5L - Self-Care", "submissionValue": "EQ5D02-Self-Care", "synonyms": ["EQ5D02-Self-Care"]}, {"conceptId": "C102069", "definition": "European Quality of Life Five Dimension Five Level Scale - Check the one box that best describes your health today: Usual activities.", "preferredTerm": "EQ-5D-5L - Usual Activities", "submissionValue": "EQ5D02-Usual Activities", "synonyms": ["EQ5D02-Usual Activities"]}]}