{"_links": {"parentPackage": {"href": "/mdr/ct/packages/qrsct-2015-06-26", "title": "QRS Controlled Terminology Package 22 Effective 2015-06-26", "type": "Terminology"}, "rootItem": {"href": "/mdr/root/ct/qrsct/codelists/C103489", "title": "Version-agnostic anchor resource for codelist C103489", "type": "Root Value Domain"}, "self": {"href": "/mdr/ct/packages/qrsct-2015-06-26/codelists/C103489", "title": "CDISC Questionnaire UPS Test Code Terminology", "type": "Code List"}}, "conceptId": "C103489", "definition": "Urgency Perception Scale test code.", "extensible": "false", "name": "QS-Urgency Perception Scale Questionnaire Test Code", "preferredTerm": "CDISC Questionnaire UPS Test Code Terminology", "submissionValue": "UPS TESTCD", "synonyms": ["QS-Urgency Perception Scale Questionnaire Test Code"], "terms": [{"conceptId": "C103761", "definition": "Urgency Perception Scale - Which of the following would typically describe your experience when you have a desire to urinate.", "preferredTerm": "UPS - Describe Your Experience When You Desire to Urinate", "submissionValue": "UPS0101", "synonyms": ["UPS01-Describe Your Desire to Urinate"]}]}