{"_links": {"parentPackage": {"href": "/mdr/ct/packages/qrsct-2015-06-26", "title": "QRS Controlled Terminology Package 22 Effective 2015-06-26", "type": "Terminology"}, "rootItem": {"href": "/mdr/root/ct/qrsct/codelists/C103471", "title": "Version-agnostic anchor resource for codelist C103471", "type": "Root Value Domain"}, "self": {"href": "/mdr/ct/packages/qrsct-2015-06-26/codelists/C103471", "title": "CDISC Questionnaire IIEF Test Code Terminology", "type": "Code List"}}, "conceptId": "C103471", "definition": "International Index of Erectile Function test code.", "extensible": "false", "name": "QS-International Index of Erectile Function Questionnaire Test Code", "preferredTerm": "CDISC Questionnaire IIEF Test Code Terminology", "submissionValue": "IIEF TESTCD", "synonyms": ["QS-International Index of Erectile Function Questionnaire Test Code"], "terms": [{"conceptId": "C103587", "definition": "International Index of Erectile Function - Over the past four weeks how often were you able to get an erection during sexual activity?", "preferredTerm": "IIEF - Able to Get an Erection During Sexual Activity", "submissionValue": "IIEF0101", "synonyms": ["IIEF01-Erection During Sexual Activity", "IIEF01-Erection Frequency"]}, {"conceptId": "C103588", "definition": "International Index of Erectile Function - Over the past four weeks when you had erections with sexual stimulation, how often were your erections hard enough for penetration?", "preferredTerm": "IIEF - Erections Hard Enough for Penetration", "submissionValue": "IIEF0102", "synonyms": ["IIEF01-Erection Firmness", "IIEF01-Erection Hard Enough to Penetrate"]}, {"conceptId": "C103589", "definition": "International Index of Erectile Function - Over the past four weeks when you attempted sexual intercourse, how often were you able to penetrate (enter) your partner?", "preferredTerm": "IIEF - Able to Penetrate Your Partner", "submissionValue": "IIEF0103", "synonyms": ["IIEF01-Able to Penetrate Your Partner", "IIEF01-Penetration Ability"]}, {"conceptId": "C103590", "definition": "International Index of Erectile Function - Over the past four weeks during sexual intercourse, how often were you able to maintain your erection after you had penetrated (entered) your partner?", "preferredTerm": "IIEF - Able to Maintain Your Erection After You Had Penetrated Your Partner", "submissionValue": "IIEF0104", "synonyms": ["IIEF01-Maintain Erection After Penetrate", "IIEF01-Maintenance Frequency"]}, {"conceptId": "C103591", "definition": "International Index of Erectile Function - Over the past four weeks during sexual intercourse, how difficult was it to maintain your erection to completion of intercourse?", "preferredTerm": "IIEF - Maintain Your Erection to Completion of Intercourse", "submissionValue": "IIEF0105", "synonyms": ["IIEF01-Maintain Erection to Completion", "IIEF01-Maintenance Ability"]}, {"conceptId": "C103592", "definition": "International Index of Erectile Function - Over the past four weeks how many times have you attempted sexual intercourse?", "preferredTerm": "IIEF - How Many Times Have You Attempted Sexual Intercourse", "submissionValue": "IIEF0106", "synonyms": ["IIEF01-Intercourse Frequency", "IIEF01-Times Attempted Sexual Intercours"]}, {"conceptId": "C103593", "definition": "International Index of Erectile Function - Over the past four weeks when you attempted sexual intercourse, how often was it satisfactory for you?", "preferredTerm": "IIEF - How Often was it Satisfactory for You", "submissionValue": "IIEF0107", "synonyms": ["IIEF01-How Often was it Satisfactory", "IIEF01-Intercourse Satisfaction"]}, {"conceptId": "C103594", "definition": "International Index of Erectile Function - Over the past four weeks how much have you enjoyed sexual intercourse?", "preferredTerm": "IIEF - How Much Have You Enjoyed Sexual Intercourse", "submissionValue": "IIEF0108", "synonyms": ["IIEF01-Enjoyed Sexual Intercourse", "IIEF01-Intercourse Enjoyment"]}, {"conceptId": "C103595", "definition": "International Index of Erectile Function - Over the past four weeks when you had sexual stimulation or intercourse, how often did you ejaculate?", "preferredTerm": "IIEF - How Often Did You Ejaculate", "submissionValue": "IIEF0109", "synonyms": ["IIEF01-Ejaculation Frequency", "IIEF01-How Often Did You Ejaculate"]}, {"conceptId": "C103596", "definition": "International Index of Erectile Function - Over the past four weeks when you had sexual stimulation or intercourse, how often did you have the feeling of orgasm with our without ejaculation?", "preferredTerm": "IIEF - Did You Have Feeling of Orgasm With or Without Ejaculation", "submissionValue": "IIEF0110", "synonyms": ["IIEF01-Did You Have Feeling of Orgasm", "IIEF01-Orgasm Frequency"]}, {"conceptId": "C103597", "definition": "International Index of Erectile Function - Over the past four weeks how often have you felt sexual desire?", "preferredTerm": "IIEF - How Often Have You Felt Sexual Desire", "submissionValue": "IIEF0111", "synonyms": ["IIEF01-Desire Frequency", "IIEF01-Have You Felt Sexual Desire"]}, {"conceptId": "C103598", "definition": "International Index of Erectile Function - Over the past four weeks how would you rate your level of sexual desire?", "preferredTerm": "IIEF - Rate Your Level of Sexual Desire", "submissionValue": "IIEF0112", "synonyms": ["IIEF01-Desire Level", "IIEF01-Rate Your Level of Sexual Desire"]}, {"conceptId": "C103599", "definition": "International Index of Erectile Function - Over the past four weeks how satisfied have you been with your overall sex life?", "preferredTerm": "IIEF - Satisfied with Overall Sex Life", "submissionValue": "IIEF0113", "synonyms": ["IIEF01-Overall Satisfaction", "IIEF01-Satisfied with Overall Sex Life"]}, {"conceptId": "C103600", "definition": "International Index of Erectile Function - Over the past four weeks how satisfied have you been with your sexual relationship with your partner?", "preferredTerm": "IIEF - Satisfied with Your Sexual Relationship with Your Partner", "submissionValue": "IIEF0114", "synonyms": ["IIEF01-Relationship Satisfaction", "IIEF01-Satisfy with Sexual Relationship"]}, {"conceptId": "C103601", "definition": "International Index of Erectile Function - Over the past four weeks how do you rate your confidence that you could get and keep an erection?", "preferredTerm": "IIEF - Your Confidence to Get and Keep an Erection", "submissionValue": "IIEF0115", "synonyms": ["IIEF01-Confidence to Get/Keep Erection", "IIEF01-Erection Confidence"]}]}