{"_links": {"parentPackage": {"href": "/mdr/ct/packages/qrsct-2015-06-26", "title": "QRS Controlled Terminology Package 22 Effective 2015-06-26", "type": "Terminology"}, "rootItem": {"href": "/mdr/root/ct/qrsct/codelists/C106654", "title": "Version-agnostic anchor resource for codelist C106654", "type": "Root Value Domain"}, "self": {"href": "/mdr/ct/packages/qrsct-2015-06-26/codelists/C106654", "title": "CDISC Questionnaire BDI Test Name Terminology", "type": "Code List"}}, "conceptId": "C106654", "definition": "Baseline Dyspnea Index test name.", "extensible": "false", "name": "QS-Baseline Dyspnea Index Questionnaire Test Name", "preferredTerm": "CDISC Questionnaire BDI Test Name Terminology", "submissionValue": "BDI TEST", "synonyms": ["QS-Baseline Dyspnea Index Questionnaire Test Name"], "terms": [{"conceptId": "C106701", "definition": "Baseline Dyspnea Index - Functional impairment.", "preferredTerm": "BDI - Functional Impairment", "submissionValue": "BDI01-Functional Impairment", "synonyms": ["BDI01-Functional Impairment"]}, {"conceptId": "C106703", "definition": "Baseline Dyspnea Index - Magnitude of effort.", "preferredTerm": "BDI - Magnitude of Effort", "submissionValue": "BDI01-Magnitude of Effort", "synonyms": ["BDI01-Magnitude of Effort"]}, {"conceptId": "C106702", "definition": "Baseline Dyspnea Index - Magnitude of task.", "preferredTerm": "BDI - Magnitude of Task", "submissionValue": "BDI01-Magnitude of Task", "synonyms": ["BDI01-Magnitude of Task"]}]}