{"_links": {"parentPackage": {"href": "/mdr/ct/packages/qrsct-2015-06-26", "title": "QRS Controlled Terminology Package 22 Effective 2015-06-26", "type": "Terminology"}, "rootItem": {"href": "/mdr/root/ct/qrsct/codelists/C106656", "title": "Version-agnostic anchor resource for codelist C106656", "type": "Root Value Domain"}, "self": {"href": "/mdr/ct/packages/qrsct-2015-06-26/codelists/C106656", "title": "CDISC Questionnaire TDI Test Name Terminology", "type": "Code List"}}, "conceptId": "C106656", "definition": "Transition Dyspnea Index test name.", "extensible": "false", "name": "QS-Transition Dyspnea Index Questionnaire Test Name", "preferredTerm": "CDISC Questionnaire TDI Test Name Terminology", "submissionValue": "TDI TEST", "synonyms": ["QS-Transition Dyspnea Index Questionnaire Test Name"], "terms": [{"conceptId": "C106704", "definition": "Transition Dyspnea Index - Change in functional impairment.", "preferredTerm": "TDI - Change in Functional Impairment", "submissionValue": "TDI01-Change in Functional Impairment", "synonyms": ["TDI01-Change in Functional Impairment"]}, {"conceptId": "C106706", "definition": "Transition Dyspnea Index - Change in magnitude of effort.", "preferredTerm": "TDI - Change in Magnitude of Effort", "submissionValue": "TDI01-Change in Magnitude of Effort", "synonyms": ["TDI01-Change in Magnitude of Effort"]}, {"conceptId": "C106705", "definition": "Transition Dyspnea Index - Change in magnitude of task.", "preferredTerm": "TDI - Change in Magnitude of Task", "submissionValue": "TDI01-Change in Magnitude of Task", "synonyms": ["TDI01-Change in Magnitude of Task"]}]}