{"_links": {"parentPackage": {"href": "/mdr/ct/packages/qrsct-2015-06-26", "title": "QRS Controlled Terminology Package 22 Effective 2015-06-26", "type": "Terminology"}, "rootItem": {"href": "/mdr/root/ct/qrsct/codelists/C112436", "title": "Version-agnostic anchor resource for codelist C112436", "type": "Root Value Domain"}, "self": {"href": "/mdr/ct/packages/qrsct-2015-06-26/codelists/C112436", "title": "CDISC Questionnaire DS Test Name Terminology", "type": "Code List"}}, "conceptId": "C112436", "definition": "Disease Steps test name.", "extensible": "false", "name": "QS-Disease Steps Questionnaire Test Name", "preferredTerm": "CDISC Questionnaire DS Test Name Terminology", "submissionValue": "Disease Steps TEST", "synonyms": ["QS-Disease Steps Questionnaire Test Name"], "terms": [{"conceptId": "C112549", "definition": "Disease Steps - Methods: For Disease Steps, classification of a patient is determined by history and neurologic examination as well as course of MS.", "preferredTerm": "DS - Disease Steps Classification", "submissionValue": "DS01-Disease Steps Classification", "synonyms": ["DS01-Disease Steps Classification"]}]}