{"_links": {"parentPackage": {"href": "/mdr/ct/packages/qrsct-2015-06-26", "title": "QRS Controlled Terminology Package 22 Effective 2015-06-26", "type": "Terminology"}, "rootItem": {"href": "/mdr/root/ct/qrsct/codelists/C112443", "title": "Version-agnostic anchor resource for codelist C112443", "type": "Root Value Domain"}, "self": {"href": "/mdr/ct/packages/qrsct-2015-06-26/codelists/C112443", "title": "CDISC Questionnaire KFSS Test Code Terminology", "type": "Code List"}}, "conceptId": "C112443", "definition": "Kurtzke Functional Systems Scores test code.", "extensible": "false", "name": "QS-Kurtzke Functional Systems Scores Questionnaire Test Code", "preferredTerm": "CDISC Questionnaire KFSS Test Code Terminology", "submissionValue": "KFSS TESTCD", "synonyms": ["QS-Kurtzke Functional Systems Scores Questionnaire Test Code"], "terms": [{"conceptId": "C112609", "definition": "Kurtzke Functional Systems Scores - Pyramidal functions.", "preferredTerm": "KFSS - Pyramidal Functions", "submissionValue": "KFSS101", "synonyms": ["KFSS1-Pyramidal Functions"]}, {"conceptId": "C112610", "definition": "Kurtzke Functional Systems Scores - Cerebellar functions.", "preferredTerm": "KFSS - Cerebellar Functions", "submissionValue": "KFSS102", "synonyms": ["KFSS1-Cerebellar Functions"]}, {"conceptId": "C112611", "definition": "Kurtzke Functional Systems Scores - Check here when weakness (grade 3 or more on pyramidal) interferes with testing.", "preferredTerm": "KFSS - Weakness Interferes With Testing", "submissionValue": "KFSS102A", "synonyms": ["KFSS1-Weakness Interferes With Testing"]}, {"conceptId": "C112612", "definition": "Kurtzke Functional Systems Scores - Brain stem functions.", "preferredTerm": "KFSS - Brain Stem Functions", "submissionValue": "KFSS103", "synonyms": ["KFSS1-Brain Stem Functions"]}, {"conceptId": "C112613", "definition": "Kurtzke Functional Systems Scores - Sensory functions.", "preferredTerm": "KFSS - Sensory Functions", "submissionValue": "KFSS104", "synonyms": ["KFSS1-Sensory Functions"]}, {"conceptId": "C112614", "definition": "Kurtzke Functional Systems Scores - Bowel and bladder functions.", "preferredTerm": "KFSS - Bowel and Bladder Functions", "submissionValue": "KFSS105", "synonyms": ["KFSS1-Bowel and Bladder Functions"]}, {"conceptId": "C112615", "definition": "Kurtzke Functional Systems Scores - Visual (or optic) functions.", "preferredTerm": "KFSS - Visual (or Optic) Functions", "submissionValue": "KFSS106", "synonyms": ["KFSS1-Visual or Optic Functions"]}, {"conceptId": "C112616", "definition": "Kurtzke Functional Systems Scores - Check here for presence of temporal pallor.", "preferredTerm": "KFSS - Presence of Temporal Pallor", "submissionValue": "KFSS106A", "synonyms": ["KFSS1-Presence of Temporal Pallor"]}, {"conceptId": "C112617", "definition": "Kurtzke Functional Systems Scores - Cerebral (or mental) functions.", "preferredTerm": "KFSS - Cerebral (or Mental) Functions", "submissionValue": "KFSS107", "synonyms": ["KFSS1-Cerebral or Mental Functions"]}, {"conceptId": "C113884", "definition": "Kurtzke Functional Systems Scores - Other functions.", "preferredTerm": "KFSS - Other Functions", "submissionValue": "KFSS108", "synonyms": ["KFSS1-Other Functions"]}, {"conceptId": "C113885", "definition": "Kurtzke Functional Systems Scores - Any other neurologic findings attributed to MS (specify).", "preferredTerm": "KFSS - Other Functions Specify", "submissionValue": "KFSS108A", "synonyms": ["KFSS1-Other Functions Specify"]}]}