{"_links": {"parentPackage": {"href": "/mdr/ct/packages/qrsct-2015-06-26", "title": "QRS Controlled Terminology Package 22 Effective 2015-06-26", "type": "Terminology"}, "rootItem": {"href": "/mdr/root/ct/qrsct/codelists/C115395", "title": "Version-agnostic anchor resource for codelist C115395", "type": "Root Value Domain"}, "self": {"href": "/mdr/ct/packages/qrsct-2015-06-26/codelists/C115395", "title": "CDISC Functional Test SDMT Test Name Terminology", "type": "Code List"}}, "conceptId": "C115395", "definition": "Symbol Digit Modalities Test test name.", "extensible": "false", "name": "FT-Symbol Digit Modalities Functional Test Test Name", "preferredTerm": "CDISC Functional Test SDMT Test Name Terminology", "submissionValue": "SDMT TEST", "synonyms": ["FT-Symbol Digit Modalities Functional Test Test Name"], "terms": [{"conceptId": "C115816", "definition": "Symbol Digit Modalities Test - Total score.", "preferredTerm": "SDMT - Total Score", "submissionValue": "SDMT01-Total Score", "synonyms": ["SDMT01-Total Score"]}]}