{"_links": {"parentPackage": {"href": "/mdr/ct/packages/qrsct-2015-06-26", "title": "QRS Controlled Terminology Package 22 Effective 2015-06-26", "type": "Terminology"}, "rootItem": {"href": "/mdr/root/ct/qrsct/codelists/C115397", "title": "Version-agnostic anchor resource for codelist C115397", "type": "Root Value Domain"}, "self": {"href": "/mdr/ct/packages/qrsct-2015-06-26/codelists/C115397", "title": "CDISC Functional Test T25FW Test Name Terminology", "type": "Code List"}}, "conceptId": "C115397", "definition": "Timed 25-Foot Walk Test test name.", "extensible": "false", "name": "FT-Timed 25-Foot Walk Functional Test Test Name", "preferredTerm": "CDISC Functional Test T25FW Test Name Terminology", "submissionValue": "T25FW TEST", "synonyms": ["FT-Timed 25-Foot Walk Functional Test Test Name"], "terms": [{"conceptId": "C115818", "definition": "Timed 25-Foot Walk - Did it take more than two attempts to get two successful trials?", "preferredTerm": "T25FW - More Than Two Attempts", "submissionValue": "T25FW1-More Than Two Attempts", "synonyms": ["T25FW1-More Than Two Attempts"]}, {"conceptId": "C115817", "definition": "Timed 25-Foot Walk - Time in seconds to complete 25-foot walk.", "preferredTerm": "T25FW - Time to Complete 25-Foot Walk", "submissionValue": "T25FW1-Time to Complete 25-Foot Walk", "synonyms": ["T25FW1-Time to Complete 25-Foot Walk"]}]}