{"_links": {"parentPackage": {"href": "/mdr/ct/packages/qrsct-2015-06-26", "title": "QRS Controlled Terminology Package 22 Effective 2015-06-26", "type": "Terminology"}, "rootItem": {"href": "/mdr/root/ct/qrsct/codelists/C119073", "title": "Version-agnostic anchor resource for codelist C119073", "type": "Root Value Domain"}, "self": {"href": "/mdr/ct/packages/qrsct-2015-06-26/codelists/C119073", "title": "CDISC Clinical Classification TIMI Thrombus Grade Test Name Terminology", "type": "Code List"}}, "conceptId": "C119073", "definition": "Coronary Thrombus TIMI Grade test name.", "extensible": "false", "name": "CC-Coronary Thrombus TIMI Grade Clinical Classification Test Name", "preferredTerm": "CDISC Clinical Classification TIMI Thrombus Grade Test Name Terminology", "submissionValue": "TIMI Thrombus Grade TEST", "synonyms": ["CC-Coronary Thrombus TIMI Grade Clinical Classification Test Name"], "terms": [{"conceptId": "C119195", "definition": "Coronary Thrombus TIMI Grade - Grade corresponding to thrombus development as defined in the grading system by the Thrombolysis in the Myocardial Infarction Group.", "preferredTerm": "TIMI Thrombus Grade - Coronary Thrombus TIMI Grade", "submissionValue": "TIMG01-Coronary Thrombus TIMI Grade", "synonyms": ["TIMG01-Coronary Thrombus TIMI Grade"]}]}