{"_links": {"parentPackage": {"href": "/mdr/ct/packages/qrsct-2015-06-26", "title": "QRS Controlled Terminology Package 22 Effective 2015-06-26", "type": "Terminology"}, "rootItem": {"href": "/mdr/root/ct/qrsct/codelists/C119075", "title": "Version-agnostic anchor resource for codelist C119075", "type": "Root Value Domain"}, "self": {"href": "/mdr/ct/packages/qrsct-2015-06-26/codelists/C119075", "title": "CDISC Clinical Classification NHLBI CAD Grade Test Name Terminology", "type": "Code List"}}, "conceptId": "C119075", "definition": "Coronary Artery Dissection NHLBI Grade test name.", "extensible": "false", "name": "CC-Coronary Artery Dissection NHLBI Grade Clinical Classification Test Name", "preferredTerm": "CDISC Clinical Classification NHLBI CAD Grade Test Name Terminology", "submissionValue": "NHLBI CAD Grade TEST", "synonyms": ["CC-Coronary Artery Dissection NHLBI Grade Clinical Classification Test Name"], "terms": [{"conceptId": "C119196", "definition": "Coronary Artery Dissection NHLBI Grade - A grading system to describe coronary artery dissection per the NHLBI, American College of Cardiology, American Heart Association.", "preferredTerm": "NHLBI CAD Grade - Coronary Artery Dissection NHLBI Grade", "submissionValue": "CADG01-Coronary Dissection NHLBI Grade", "synonyms": ["CADG01-Coronary Dissection NHLBI Grade"]}]}