{"_links": {"parentPackage": {"href": "/mdr/ct/packages/qrsct-2015-06-26", "title": "QRS Controlled Terminology Package 22 Effective 2015-06-26", "type": "Terminology"}, "rootItem": {"href": "/mdr/root/ct/qrsct/codelists/C119074", "title": "Version-agnostic anchor resource for codelist C119074", "type": "Root Value Domain"}, "self": {"href": "/mdr/ct/packages/qrsct-2015-06-26/codelists/C119074", "title": "CDISC Clinical Classification TIMI Thrombus Grade Test Code Terminology", "type": "Code List"}}, "conceptId": "C119074", "definition": "Coronary Thrombus TIMI Grade test code.", "extensible": "false", "name": "CC-Coronary Thrombus TIMI Grade Clinical Classification Test Code", "preferredTerm": "CDISC Clinical Classification TIMI Thrombus Grade Test Code Terminology", "submissionValue": "TIMI Thrombus Grade TESTCD", "synonyms": ["CC-Coronary Thrombus TIMI Grade Clinical Classification Test Code"], "terms": [{"conceptId": "C119195", "definition": "Coronary Thrombus TIMI Grade - Grade corresponding to thrombus development as defined in the grading system by the Thrombolysis in the Myocardial Infarction Group.", "preferredTerm": "TIMI Thrombus Grade - Coronary Thrombus TIMI Grade", "submissionValue": "TIMG0101", "synonyms": ["TIMG01-Coronary Thrombus TIMI Grade"]}]}