{"_links": {"parentPackage": {"href": "/mdr/ct/packages/sendct-2017-03-31", "title": "SEND Controlled Terminology Package 29 Effective 2017-03-31", "type": "Terminology"}, "priorVersion": {"href": "/mdr/ct/packages/sendct-2016-12-16/codelists/C124310", "title": "CDISC SEND Fetal Pathology Findings Result Terminology", "type": "Code List"}, "rootItem": {"href": "/mdr/root/ct/sendct/codelists/C124310", "title": "Version-agnostic anchor resource for codelist C124310", "type": "Root Value Domain"}, "self": {"href": "/mdr/ct/packages/sendct-2017-03-31/codelists/C124310", "title": "CDISC SEND Fetal Pathology Findings Result Terminology", "type": "Code List"}}, "conceptId": "C124310", "definition": "Terminology relevant to the results for fetal gross pathological findings.", "extensible": "true", "name": "Fetal Pathology Findings Result", "preferredTerm": "CDISC SEND Fetal Pathology Findings Result Terminology", "submissionValue": "FXFINDRS", "synonyms": ["Fetal Pathology Findings Result"], "terms": [{"conceptId": "C124485", "definition": "Atypical consistency observed in the contents of a structure.", "preferredTerm": "Altered Consistency", "submissionValue": "ABNORMAL CONSISTENCY", "synonyms": ["Altered Consistency"]}, {"conceptId": "C124486", "definition": "An atypical long narrow slit or groove that divides an organ into lobes, or tissues and bone into parts. (NCI)", "preferredTerm": "Abnormal Fissure", "submissionValue": "ABNORMAL FISSURE"}, {"conceptId": "C124487", "definition": "A flexure that is deviating from the norm or outside the bounds of what is considered normal.", "preferredTerm": "Abnormal Flexure", "submissionValue": "ABNORMAL FLEXURE"}, {"conceptId": "C124488", "definition": "A lobation that is deviating from the norm or outside the bounds of what is considered normal.", "preferredTerm": "Abnormal Lobation", "submissionValue": "ABNORMAL LOBATION"}, {"conceptId": "C124489", "definition": "An origin that is deviating from the norm or outside the bounds of what is considered normal.", "preferredTerm": "Abnormal Origin", "submissionValue": "ABNORMAL ORIGIN"}, {"conceptId": "C124490", "definition": "Skull bones out of alignment causing the suture to deviate from its normal pattern.", "preferredTerm": "Abnormal Suture Line", "submissionValue": "ABNORMAL SUTURE"}, {"conceptId": "C124491", "definition": "Atypical texture observed in the surface of a structure.", "preferredTerm": "Altered Texture", "submissionValue": "ABNORMAL TEXTURE", "synonyms": ["Altered Texture"]}, {"conceptId": "C48190", "definition": "Not existing in a specified place at a specified time. (NCI)", "preferredTerm": "Absent", "submissionValue": "ABSENT"}, {"conceptId": "C124492", "definition": "The lack of a long narrow slit or groove that normally divides an organ into lobes, or tissues and bone into parts. (NCI)", "preferredTerm": "Absent Fissure", "submissionValue": "ABSENT FISSURE"}, {"conceptId": "C124493", "definition": "Absence of the head but with the presence of mouth-like orifice in the neck region. (Makris S, Solomon HM, Clark R, Shiota K, Barbellion S, Buschmann J, Ema M, Fujiwara M, Grote K, Hazelden KP, Hew KW, Horimoto M, Ooshima Y, Parkinson M, Wise LD. Terminology of developmental abnormalities in common laboratory mammals (Version 2). Part B. Birth Defects Res B Dev Reprod Toxicol. 2009 Aug;86(4):227-327.)", "preferredTerm": "Acephalostomia", "submissionValue": "ACEPHALOSTOMIA"}, {"conceptId": "C54685", "definition": "A fibrinous or fibrous connection between two surfaces or tissues, connecting tissues or organs that are not normally attached.", "preferredTerm": "Tissue Adhesion", "submissionValue": "ADHESION"}, {"conceptId": "C124494", "definition": "Fibrous bands from the amnion that may entangle the fetus, causing constriction.", "preferredTerm": "Amniotic Band", "submissionValue": "AMNIOTIC BAND"}, {"conceptId": "C84560", "definition": "Absence of the cranial region of the head, with the brain absent or reduced. (Makris S, Solomon HM, Clark R, Shiota K, Barbellion S, Buschmann J, Ema M, Fujiwara M, Grote K, Hazelden KP, Hew KW, Horimoto M, Ooshima Y, Parkinson M, Wise LD. Terminology of developmental abnormalities in common laboratory mammals (Version 2). Part B. Birth Defects Res B Dev Reprod Toxicol. 2009 Aug;86(4):227-327.)", "preferredTerm": "Anencephaly", "submissionValue": "ANENCEPHALY"}, {"conceptId": "C26693", "definition": "Localized sac formed by dilatation of an artery or vein that is filled with blood. (Makris S, Solomon HM, Clark R, Shiota K, Barbellion S, Buschmann J, Ema M, Fujiwara M, Grote K, Hazelden KP, Hew KW, Horimoto M, Ooshima Y, Parkinson M, Wise LD. Terminology of developmental abnormalities in common laboratory mammals (Version 2). Part B. Birth Defects Res B Dev Reprod Toxicol. 2009 Aug;86(4):227-327.)", "preferredTerm": "Aneurysm", "submissionValue": "ANEURYSM"}, {"conceptId": "C124495", "definition": "Communication between ascending aorta and pulmonary trunk. (Makris S, Solomon HM, Clark R, Shiota K, Barbellion S, Buschmann J, Ema M, Fujiwara M, Grote K, Hazelden KP, Hew KW, Horimoto M, Ooshima Y, Parkinson M, Wise LD. Terminology of developmental abnormalities in common laboratory mammals (Version 2). Part B. Birth Defects Res B Dev Reprod Toxicol. 2009 Aug;86(4):227-327.)", "preferredTerm": "Aorticopulmonary Septal Defect", "submissionValue": "AORTICOPULMONARY SEPTAL DEFECT"}, {"conceptId": "C124496", "definition": "Commonly used for structures arising from two or more primary ossification centers (e.g., sternebrae, vertebral centra). Ossification is greater in one or more of the centers than the other(s). Applies only to ossification sites and does not imply that the structure, as represented by the bone precursor, is asymmetrical. (Makris S, Solomon HM, Clark R, Shiota K, Barbellion S, Buschmann J, Ema M, Fujiwara M, Grote K, Hazelden KP, Hew KW, Horimoto M, Ooshima Y, Parkinson M, Wise LD. Terminology of developmental abnormalities in common laboratory mammals (Version 2). Part B. Birth Defects Res B Dev Reprod Toxicol. 2009 Aug;86(4):227-327.)", "preferredTerm": "Asymmetric Ossification", "submissionValue": "ASYMMETRIC OSSIFICATION", "synonyms": ["Misaligned Ossification"]}, {"conceptId": "C124497", "definition": "Absence or closure of a normal body orifice or tubular organ. (Makris S, Solomon HM, Clark R, Shiota K, Barbellion S, Buschmann J, Ema M, Fujiwara M, Grote K, Hazelden KP, Hew KW, Horimoto M, Ooshima Y, Parkinson M, Wise LD. Terminology of developmental abnormalities in common laboratory mammals (Version 2). Part B. Birth Defects Res B Dev Reprod Toxicol. 2009 Aug;86(4):227-327.)", "preferredTerm": "Atresia", "submissionValue": "ATRESIA", "synonyms": ["Atretic"]}, {"conceptId": "C84473", "definition": "A congenital disorder characterized by the presence of a defect (opening) in the septum that separates the two atria of the heart.", "preferredTerm": "Atrial Septal Defect", "submissionValue": "ATRIAL SEPTAL DEFECT", "synonyms": ["Atrial Septum Defect"]}, {"conceptId": "C101029", "definition": "Inappropriate communication between atrium and ventricle. (Makris S, Solomon HM, Clark R, Shiota K, Barbellion S, Buschmann J, Ema M, Fujiwara M, Grote K, Hazelden KP, Hew KW, Horimoto M, Ooshima Y, Parkinson M, Wise LD. Terminology of developmental abnormalities in common laboratory mammals (Version 2). Part B. Birth Defects Res B Dev Reprod Toxicol. 2009 Aug;86(4):227-327.)", "preferredTerm": "Atrioventricular Septal Defect", "submissionValue": "ATRIOVENTRICULAR SEPTAL DEFECT"}, {"conceptId": "C99673", "definition": "Breakdown of tissue.", "preferredTerm": "Autolysis", "submissionValue": "AUTOLYSIS"}, {"conceptId": "C124498", "definition": "Abnormal curvature. (Makris S, Solomon HM, Clark R, Shiota K, Barbellion S, Buschmann J, Ema M, Fujiwara M, Grote K, Hazelden KP, Hew KW, Horimoto M, Ooshima Y, Parkinson M, Wise LD. Terminology of developmental abnormalities in common laboratory mammals (Version 2). Part B. Birth Defects Res B Dev Reprod Toxicol. 2009 Aug;86(4):227-327.)", "preferredTerm": "Bent", "submissionValue": "BENT", "synonyms": ["Bowed", "Curved"]}, {"conceptId": "C124499", "definition": "Organ that has two lobes or is divided into two lobes.", "preferredTerm": "Bilobular", "submissionValue": "BILOBED"}, {"conceptId": "C124500", "definition": "Ossification centers not fused. Commonly used for structures arising from two or more primary ossification centers (e.g., sternebrae, vertebral centra). Applies only to the ossification sites and does not imply that the structure, as represented by the bone precursor, is divided (split). (Makris S, Solomon HM, Clark R, Shiota K, Barbellion S, Buschmann J, Ema M, Fujiwara M, Grote K, Hazelden KP, Hew KW, Horimoto M, Ooshima Y, Parkinson M, Wise LD. Terminology of developmental abnormalities in common laboratory mammals (Version 2). Part B. Birth Defects Res B Dev Reprod Toxicol. 2009 Aug;86(4):227-327.)", "preferredTerm": "Bipartite Ossification", "submissionValue": "BIPARTITE OSSIFICATION"}, {"conceptId": "C124501", "definition": "A finding indicating that that an anatomic space or cavity is filled with blood.", "preferredTerm": "Blood-Filled", "submissionValue": "BLOOD FILLED"}, {"conceptId": "C124502", "definition": "A tail that is rounded or flat at the end, not tapered. (Makris S, Solomon HM, Clark R, Shiota K, Barbellion S, Buschmann J, Ema M, Fujiwara M, Grote K, Hazelden KP, Hew KW, Horimoto M, Ooshima Y, Parkinson M, Wise LD. Terminology of developmental abnormalities in common laboratory mammals (Version 2). Part B. Birth Defects Res B Dev Reprod Toxicol. 2009 Aug;86(4):227-327.)", "preferredTerm": "Blunt-Tipped Tail", "submissionValue": "BLUNT-TIPPED TAIL"}, {"conceptId": "C61482", "definition": "Having one or more collateral divisions of the structure, resembling the branches of a tree. (Makris S, Solomon HM, Clark R, Shiota K, Barbellion S, Buschmann J, Ema M, Fujiwara M, Grote K, Hazelden KP, Hew KW, Horimoto M, Ooshima Y, Parkinson M, Wise LD. Terminology of developmental abnormalities in common laboratory mammals (Version 2). Part B. Birth Defects Res B Dev Reprod Toxicol. 2009 Aug;86(4):227-327.)", "preferredTerm": "Branch", "submissionValue": "BRANCHED", "synonyms": ["Bifurcated", "Forked"]}, {"conceptId": "C124503", "definition": "A finding referring to incomplete or absent chondrogenesis.", "preferredTerm": "Cartilage Not Fused", "submissionValue": "CARTILAGE NOT FUSED"}, {"conceptId": "C124504", "definition": "Joined together by cartilage.", "preferredTerm": "Cartilaginous Fusion", "submissionValue": "CARTILAGINOUS FUSION"}, {"conceptId": "C124505", "definition": "Severe reduction of caudal structures, including reduction of or absence of hindlimbs, tail, and/or sacral area. (Makris S, Solomon HM, Clark R, Shiota K, Barbellion S, Buschmann J, Ema M, Fujiwara M, Grote K, Hazelden KP, Hew KW, Horimoto M, Ooshima Y, Parkinson M, Wise LD. Terminology of developmental abnormalities in common laboratory mammals (Version 2). Part B. Birth Defects Res B Dev Reprod Toxicol. 2009 Aug;86(4):227-327.)", "preferredTerm": "Caudal Dysplasia", "submissionValue": "CAUDAL DYSPLASIA"}, {"conceptId": "C124506", "definition": "Two orbital cavities and two eyes present, the region between being narrowed. Expected skeletal alterations include fused frontonasal and/or maxillary bones and incisors. (Makris S, Solomon HM, Clark R, Shiota K, Barbellion S, Buschmann J, Ema M, Fujiwara M, Grote K, Hazelden KP, Hew KW, Horimoto M, Ooshima Y, Parkinson M, Wise LD. Terminology of developmental abnormalities in common laboratory mammals (Version 2). Part B. Birth Defects Res B Dev Reprod Toxicol. 2009 Aug;86(4):227-327.)", "preferredTerm": "Cebocephaly", "submissionValue": "CEBOCEPHALY"}, {"conceptId": "C124507", "definition": "A developmental defect characterized by incomplete closure of the anterior body wall, resulting in herniation, to variable degrees, of thoracic and/or abdominal viscera. The sternum, sternal ends of ribs, and muscular body wall are usually defective or poorly developed. (Makris S, Solomon HM, Clark R, Shiota K, Barbellion S, Buschmann J, Ema M, Fujiwara M, Grote K, Hazelden KP, Hew KW, Horimoto M, Ooshima Y, Parkinson M, Wise LD. Terminology of developmental abnormalities in common laboratory mammals (Version 2). Part B. Birth Defects Res B Dev Reprod Toxicol. 2009 Aug;86(4):227-327.)", "preferredTerm": "Celosomy", "submissionValue": "CELOSOMY"}, {"conceptId": "C124508", "definition": "Cleft lip, upper jaw, and palate. (Makris S, Solomon HM, Clark R, Shiota K, Barbellion S, Buschmann J, Ema M, Fujiwara M, Grote K, Hazelden KP, Hew KW, Horimoto M, Ooshima Y, Parkinson M, Wise LD. Terminology of developmental abnormalities in common laboratory mammals (Version 2). Part B. Birth Defects Res B Dev Reprod Toxicol. 2009 Aug;86(4):227-327.)", "preferredTerm": "Cheilognathopalatoschisis", "submissionValue": "CHEILOGNATHOPALATOSCHISIS", "synonyms": ["Cheilognathouranoschisis"]}, {"conceptId": "C124509", "definition": "Cleft lip and jaw. (Makris S, Solomon HM, Clark R, Shiota K, Barbellion S, Buschmann J, Ema M, Fujiwara M, Grote K, Hazelden KP, Hew KW, Horimoto M, Ooshima Y, Parkinson M, Wise LD. Terminology of developmental abnormalities in common laboratory mammals (Version 2). Part B. Birth Defects Res B Dev Reprod Toxicol. 2009 Aug;86(4):227-327.)", "preferredTerm": "Cheilognathoschisis", "submissionValue": "CHEILOGNATHOSCHISIS"}, {"conceptId": "C124510", "definition": "Fissure of the face. (Makris S, Solomon HM, Clark R, Shiota K, Barbellion S, Buschmann J, Ema M, Fujiwara M, Grote K, Hazelden KP, Hew KW, Horimoto M, Ooshima Y, Parkinson M, Wise LD. Terminology of developmental abnormalities in common laboratory mammals (Version 2). Part B. Birth Defects Res B Dev Reprod Toxicol. 2009 Aug;86(4):227-327.)", "preferredTerm": "Facial Cleft", "submissionValue": "CLEFT FACE", "synonyms": ["Facial Cleft", "Prosoposchisis"]}, {"conceptId": "C124511", "definition": "Cleft mandible (lower jaw) or maxilla (upper jaw). (Makris S, Solomon HM, Clark R, Shiota K, Barbellion S, Buschmann J, Ema M, Fujiwara M, Grote K, Hazelden KP, Hew KW, Horimoto M, Ooshima Y, Parkinson M, Wise LD. Terminology of developmental abnormalities in common laboratory mammals (Version 2). Part B. Birth Defects Res B Dev Reprod Toxicol. 2009 Aug;86(4):227-327.)", "preferredTerm": "Cleft Jaw", "submissionValue": "CLEFT JAW", "synonyms": ["Gnathoschisis"]}, {"conceptId": "C87175", "definition": "Fissure or split of the upper lip. (Makris S, Solomon HM, Clark R, Shiota K, Barbellion S, Buschmann J, Ema M, Fujiwara M, Grote K, Hazelden KP, Hew KW, Horimoto M, Ooshima Y, Parkinson M, Wise LD. Terminology of developmental abnormalities in common laboratory mammals (Version 2). Part B. Birth Defects Res B Dev Reprod Toxicol. 2009 Aug;86(4):227-327.)", "preferredTerm": "Cleft Lip", "submissionValue": "CLEFT LIP", "synonyms": ["Cheiloschisis"]}, {"conceptId": "C124512", "definition": "Cleft mandible (lower jaw).", "preferredTerm": "Mandibular Cleft", "submissionValue": "CLEFT MANDIBLE", "synonyms": ["Split Mandible"]}, {"conceptId": "C124513", "definition": "Cleft maxilla (upper jaw).", "preferredTerm": "Cleft Maxilla", "submissionValue": "CLEFT MAXILLA", "synonyms": ["Split Maxilla"]}, {"conceptId": "C87069", "definition": "Fissure or split of the palate. (Makris S, Solomon HM, Clark R, Shiota K, Barbellion S, Buschmann J, Ema M, Fujiwara M, Grote K, Hazelden KP, Hew KW, Horimoto M, Ooshima Y, Parkinson M, Wise LD. Terminology of developmental abnormalities in common laboratory mammals (Version 2). Part B. Birth Defects Res B Dev Reprod Toxicol. 2009 Aug;86(4):227-327.)", "preferredTerm": "Cleft Palate", "submissionValue": "CLEFT PALATE", "synonyms": ["Palatoschisis"]}, {"conceptId": "C124514", "definition": "A finding in which the walls of a tube or tubular organ have contorted or buckled into its cavity or channel. (NCI)", "preferredTerm": "Collapsed Lumen", "submissionValue": "COLLAPSED LUMEN"}, {"conceptId": "C124515", "definition": "Presence of colored substance. (Makris S, Solomon HM, Clark R, Shiota K, Barbellion S, Buschmann J, Ema M, Fujiwara M, Grote K, Hazelden KP, Hew KW, Horimoto M, Ooshima Y, Parkinson M, Wise LD. Terminology of developmental abnormalities in common laboratory mammals (Version 2). Part B. Birth Defects Res B Dev Reprod Toxicol. 2009 Aug;86(4):227-327.)", "preferredTerm": "Red-Brown Material", "submissionValue": "COLORED MATERIAL"}, {"conceptId": "C124516", "definition": "An indication that anatomical structures, typically blood vessels, are arising from the same location.", "preferredTerm": "Vessel Common Origin", "submissionValue": "COMMON ORIGIN"}, {"conceptId": "C98903", "definition": "Monozygotic twins with variable incomplete separation into two during cleavage or early stages of embryogenesis. (Makris S, Solomon HM, Clark R, Shiota K, Barbellion S, Buschmann J, Ema M, Fujiwara M, Grote K, Hazelden KP, Hew KW, Horimoto M, Ooshima Y, Parkinson M, Wise LD. Terminology of developmental abnormalities in common laboratory mammals (Version 2). Part B. Birth Defects Res B Dev Reprod Toxicol. 2009 Aug;86(4):227-327.)", "preferredTerm": "Conjoined Twins", "submissionValue": "CONJOINED TWINS"}, {"conceptId": "C61301", "definition": "Folded, curved and/or tortuous windings.", "preferredTerm": "Convolution", "submissionValue": "CONVOLUTED", "synonyms": ["Coiled", "Twisted"]}, {"conceptId": "C124517", "definition": "Herniation of meninges through a defect in skull. (Makris S, Solomon HM, Clark R, Shiota K, Barbellion S, Buschmann J, Ema M, Fujiwara M, Grote K, Hazelden KP, Hew KW, Horimoto M, Ooshima Y, Parkinson M, Wise LD. Terminology of developmental abnormalities in common laboratory mammals (Version 2). Part B. Birth Defects Res B Dev Reprod Toxicol. 2009 Aug;86(4):227-327.)", "preferredTerm": "Cranial Meningocele", "submissionValue": "CRANIAL MENINGOCELE"}, {"conceptId": "C124518", "definition": "Multiple unossified area(s) of the cranium. (Makris S, Solomon HM, Clark R, Shiota K, Barbellion S, Buschmann J, Ema M, Fujiwara M, Grote K, Hazelden KP, Hew KW, Horimoto M, Ooshima Y, Parkinson M, Wise LD. Terminology of developmental abnormalities in common laboratory mammals (Version 2). Part B. Birth Defects Res B Dev Reprod Toxicol. 2009 Aug;86(4):227-327.)", "preferredTerm": "Craniofenestria", "submissionValue": "CRANIOFENESTRIA"}, {"conceptId": "C98907", "definition": "A congenital fissure of both the skull and vertebral column. (Saunders. (1988). Dorland's illustrated medical dictionary. (27th ed.). Philadelphia)", "preferredTerm": "Craniorachischisis", "submissionValue": "CRANIORACHISCHISIS", "synonyms": ["Cranial Rachischisis"]}, {"conceptId": "C124519", "definition": "Fissure of the cranial region of the head with varying degrees of the brain exposed. (Makris S, Solomon HM, Clark R, Shiota K, Barbellion S, Buschmann J, Ema M, Fujiwara M, Grote K, Hazelden KP, Hew KW, Horimoto M, Ooshima Y, Parkinson M, Wise LD. Terminology of developmental abnormalities in common laboratory mammals (Version 2). Part B. Birth Defects Res B Dev Reprod Toxicol. 2009 Aug;86(4):227-327.)", "preferredTerm": "Cranioschisis", "submissionValue": "CRANIOSCHISIS"}, {"conceptId": "C84655", "definition": "Premature closure of cranial sutures with fusion of bone, resulting in small maldeveloped skull; used to describe multiple skull bone fusions. (Makris S, Solomon HM, Clark R, Shiota K, Barbellion S, Buschmann J, Ema M, Fujiwara M, Grote K, Hazelden KP, Hew KW, Horimoto M, Ooshima Y, Parkinson M, Wise LD. Terminology of developmental abnormalities in common laboratory mammals (Version 2). Part B. Birth Defects Res B Dev Reprod Toxicol. 2009 Aug;86(4):227-327.)", "preferredTerm": "Craniosynostosis", "submissionValue": "CRANIOSYNOSTOSIS"}, {"conceptId": "C124520", "definition": "Skin continuous over eye(s) without formation of eyelid(s). (Makris S, Solomon HM, Clark R, Shiota K, Barbellion S, Buschmann J, Ema M, Fujiwara M, Grote K, Hazelden KP, Hew KW, Horimoto M, Ooshima Y, Parkinson M, Wise LD. Terminology of developmental abnormalities in common laboratory mammals (Version 2). Part B. Birth Defects Res B Dev Reprod Toxicol. 2009 Aug;86(4):227-327.)", "preferredTerm": "Cryptophthalmia", "submissionValue": "CRYPTOPHTHALMIA", "synonyms": ["Cryptophthalmos"]}, {"conceptId": "C124521", "definition": "Tail curved into nearly a full circle, or coiled. (Makris S, Solomon HM, Clark R, Shiota K, Barbellion S, Buschmann J, Ema M, Fujiwara M, Grote K, Hazelden KP, Hew KW, Horimoto M, Ooshima Y, Parkinson M, Wise LD. Terminology of developmental abnormalities in common laboratory mammals (Version 2). Part B. Birth Defects Res B Dev Reprod Toxicol. 2009 Aug;86(4):227-327.)", "preferredTerm": "Curled Tail", "submissionValue": "CURLED TAIL"}, {"conceptId": "C124522", "definition": "Single median orbit; eyeball(s) can be absent, completely or incompletely fused. (Makris S, Solomon HM, Clark R, Shiota K, Barbellion S, Buschmann J, Ema M, Fujiwara M, Grote K, Hazelden KP, Hew KW, Horimoto M, Ooshima Y, Parkinson M, Wise LD. Terminology of developmental abnormalities in common laboratory mammals (Version 2). Part B. Birth Defects Res B Dev Reprod Toxicol. 2009 Aug;86(4):227-327.).", "preferredTerm": "Cyclopia", "submissionValue": "CYCLOPIA", "synonyms": ["Monophthalmia", "Single Eyeball", "Synophthalmia"]}, {"conceptId": "C2978", "definition": "A sac-like closed pocket of tissue that may be empty or may be filled with fluid, gas, semisolid, or amorphous material. It typically has an outer epithelial-lined capsule.", "preferredTerm": "Cyst", "submissionValue": "CYST"}, {"conceptId": "C124523", "definition": "Shortened distance between anus and genital tubercle. (Makris S, Solomon HM, Clark R, Shiota K, Barbellion S, Buschmann J, Ema M, Fujiwara M, Grote K, Hazelden KP, Hew KW, Horimoto M, Ooshima Y, Parkinson M, Wise LD. Terminology of developmental abnormalities in common laboratory mammals (Version 2). Part B. Birth Defects Res B Dev Reprod Toxicol. 2009 Aug;86(4):227-327.)", "preferredTerm": "Anogenital Distance Decreased", "submissionValue": "DECREASED ANOGENITAL DISTANCE"}, {"conceptId": "C124639", "definition": "Nonpatent localized recess in a structure or tissue. (Makris S, Solomon HM, Clark R, Shiota K, Barbellion S, Buschmann J, Ema M, Fujiwara M, Grote K, Hazelden KP, Hew KW, Horimoto M, Ooshima Y, Parkinson M, Wise LD. Terminology of developmental abnormalities in common laboratory mammals (Version 2). Part B. Birth Defects Res B Dev Reprod Toxicol. 2009 Aug;86(4):227-327.)", "preferredTerm": "Depression", "submissionValue": "DEPRESSION"}, {"conceptId": "C124524", "definition": "Physically separated or not connected. (NCI)", "preferredTerm": "Detached", "submissionValue": "DETACHED", "synonyms": ["Floating", "Non-articulated"]}, {"conceptId": "C84669", "definition": "A congenital abnormality in which the heart is located in the right side of the chest.", "preferredTerm": "Dextrocardia", "submissionValue": "DEXTROCARDIA"}, {"conceptId": "C98912", "definition": "Abnormal anterior protrusion of a part of the diaphragm which is thin and covers variably displaced abdominal viscera. (Makris S, Solomon HM, Clark R, Shiota K, Barbellion S, Buschmann J, Ema M, Fujiwara M, Grote K, Hazelden KP, Hew KW, Horimoto M, Ooshima Y, Parkinson M, Wise LD. Terminology of developmental abnormalities in common laboratory mammals (Version 2). Part B. Birth Defects Res B Dev Reprod Toxicol. 2009 Aug;86(4):227-327.)", "preferredTerm": "Diaphragmatic Eventration", "submissionValue": "DIAPHRAGMATIC EVENTRATION"}, {"conceptId": "C113136", "definition": "Expansion of the cavity, ducts or lumen of a hollow organ or vessel.", "preferredTerm": "Dilation", "submissionValue": "DILATATION", "synonyms": ["Dilation"]}, {"conceptId": "C124525", "definition": "Not the normal color. (Makris S, Solomon HM, Clark R, Shiota K, Barbellion S, Buschmann J, Ema M, Fujiwara M, Grote K, Hazelden KP, Hew KW, Horimoto M, Ooshima Y, Parkinson M, Wise LD. Terminology of developmental abnormalities in common laboratory mammals (Version 2). Part B. Birth Defects Res B Dev Reprod Toxicol. 2009 Aug;86(4):227-327.)", "preferredTerm": "Discoloration", "submissionValue": "DISCOLORED"}, {"conceptId": "C124526", "definition": "Enlarged or expanded organ due to an increase of the contents. (Makris S, Solomon HM, Clark R, Shiota K, Barbellion S, Buschmann J, Ema M, Fujiwara M, Grote K, Hazelden KP, Hew KW, Horimoto M, Ooshima Y, Parkinson M, Wise LD. Terminology of developmental abnormalities in common laboratory mammals (Version 2). Part B. Birth Defects Res B Dev Reprod Toxicol. 2009 Aug;86(4):227-327.)", "preferredTerm": "Distended", "submissionValue": "DISTENDED"}, {"conceptId": "C26753", "definition": "A sac-like protrusion in the wall of a hollow organ or tissue.", "preferredTerm": "Diverticulum", "submissionValue": "DIVERTICULUM"}, {"conceptId": "C124527", "definition": "Cranial region of head appears more elevated and rounded than normal. (Makris S, Solomon HM, Clark R, Shiota K, Barbellion S, Buschmann J, Ema M, Fujiwara M, Grote K, Hazelden KP, Hew KW, Horimoto M, Ooshima Y, Parkinson M, Wise LD. Terminology of developmental abnormalities in common laboratory mammals (Version 2). Part B. Birth Defects Res B Dev Reprod Toxicol. 2009 Aug;86(4):227-327.)", "preferredTerm": "Dome-Shaped Head", "submissionValue": "DOMED HEAD"}, {"conceptId": "C98916", "definition": "Pulmonary trunk and aorta arise from the right ventricle. (Makris S, Solomon HM, Clark R, Shiota K, Barbellion S, Buschmann J, Ema M, Fujiwara M, Grote K, Hazelden KP, Hew KW, Horimoto M, Ooshima Y, Parkinson M, Wise LD. Terminology of developmental abnormalities in common laboratory mammals (Version 2). Part B. Birth Defects Res B Dev Reprod Toxicol. 2009 Aug;86(4):227-327.)", "preferredTerm": "Double Outlet Right Ventricle", "submissionValue": "DOUBLE OUTLET RIGHT VENTRICLE"}, {"conceptId": "C62265", "definition": "Consisting of or involving two parts or components, often in pairs. (NCI)", "preferredTerm": "Double", "submissionValue": "DOUBLED"}, {"conceptId": "C124528", "definition": "Two approximately spherical ossification sites attached at or near the mid-line by an ossified bridge. Commonly used for structures arising from two primary centers (e.g., sternebrae, vertebral centra). Applies only to the ossification sites. (Makris S, Solomon HM, Clark R, Shiota K, Barbellion S, Buschmann J, Ema M, Fujiwara M, Grote K, Hazelden KP, Hew KW, Horimoto M, Ooshima Y, Parkinson M, Wise LD. Terminology of developmental abnormalities in common laboratory mammals (Version 2). Part B. Birth Defects Res B Dev Reprod Toxicol. 2009 Aug;86(4):227-327.)", "preferredTerm": "Dumbbell Ossification", "submissionValue": "DUMBBELL OSSIFICATION"}, {"conceptId": "C3002", "definition": "Excessive amount of watery fluid in tissues or cavities, generally characterized microscopically as clear spaces separating tissue components.", "preferredTerm": "Edema", "submissionValue": "EDEMA"}, {"conceptId": "C94569", "definition": "Tooth emerged.", "preferredTerm": "Tooth Eruption", "submissionValue": "ERUPTED TOOTH"}, {"conceptId": "C124529", "definition": "Some degree of cyclopia in which the eyes may be closely set but the snout is small. (Makris S, Solomon HM, Clark R, Shiota K, Barbellion S, Buschmann J, Ema M, Fujiwara M, Grote K, Hazelden KP, Hew KW, Horimoto M, Ooshima Y, Parkinson M, Wise LD. Terminology of developmental abnormalities in common laboratory mammals (Version 2). Part B. Birth Defects Res B Dev Reprod Toxicol. 2009 Aug;86(4):227-327.)", "preferredTerm": "Ethmocephaly", "submissionValue": "ETHMOCEPHALY"}, {"conceptId": "C124530", "definition": "A finding that indicates that an anatomic structure is partially or completely turned inside out.", "preferredTerm": "Evagination", "submissionValue": "EVAGINATION"}, {"conceptId": "C124531", "definition": "Brain protrudes outside the skull due to absence of all or part of the cranial vault. (Makris S, Solomon HM, Clark R, Shiota K, Barbellion S, Buschmann J, Ema M, Fujiwara M, Grote K, Hazelden KP, Hew KW, Horimoto M, Ooshima Y, Parkinson M, Wise LD. Terminology of developmental abnormalities in common laboratory mammals (Version 2). Part B. Birth Defects Res B Dev Reprod Toxicol. 2009 Aug;86(4):227-327.)", "preferredTerm": "Exencephaly", "submissionValue": "EXENCEPHALY"}, {"conceptId": "C124532", "definition": "An opening to a cyst produced by a persistent lateral cervical sinus or reduplicated 1st pharyngeal cleft usually located ventral to the ear. (Makris S, Solomon HM, Clark R, Shiota K, Barbellion S, Buschmann J, Ema M, Fujiwara M, Grote K, Hazelden KP, Hew KW, Horimoto M, Ooshima Y, Parkinson M, Wise LD. Terminology of developmental abnormalities in common laboratory mammals (Version 2). Part B. Birth Defects Res B Dev Reprod Toxicol. 2009 Aug;86(4):227-327.)", "preferredTerm": "External Auditory Canal Fistula", "submissionValue": "EXTERNAL AURAL FISTULA"}, {"conceptId": "C124533", "definition": "Heart displaced outside thoracic cavity. (Makris S, Solomon HM, Clark R, Shiota K, Barbellion S, Buschmann J, Ema M, Fujiwara M, Grote K, Hazelden KP, Hew KW, Horimoto M, Ooshima Y, Parkinson M, Wise LD. Terminology of developmental abnormalities in common laboratory mammals (Version 2). Part B. Birth Defects Res B Dev Reprod Toxicol. 2009 Aug;86(4):227-327.)", "preferredTerm": "Externalized Heart", "submissionValue": "EXTERNALIZED HEART", "synonyms": ["Ectopia Cordis", "Exocardia"]}, {"conceptId": "C75000", "definition": "Absence of one or more, but not all, digit(s). (Makris S, Solomon HM, Clark R, Shiota K, Barbellion S, Buschmann J, Ema M, Fujiwara M, Grote K, Hazelden KP, Hew KW, Horimoto M, Ooshima Y, Parkinson M, Wise LD. Terminology of developmental abnormalities in common laboratory mammals (Version 2). Part B. Birth Defects Res B Dev Reprod Toxicol. 2009 Aug;86(4):227-327.)", "preferredTerm": "Ectrodactyly", "submissionValue": "FEWER DIGITS", "synonyms": ["Ectrodactyly"]}, {"conceptId": "C3045", "definition": "Abnormal passage or communication between two normally unconnected structures, body cavities, or the surface of the body. (Makris S, Solomon HM, Clark R, Shiota K, Barbellion S, Buschmann J, Ema M, Fujiwara M, Grote K, Hazelden KP, Hew KW, Horimoto M, Ooshima Y, Parkinson M, Wise LD. Terminology of developmental abnormalities in common laboratory mammals (Version 2). Part B. Birth Defects Res B Dev Reprod Toxicol. 2009 Aug;86(4):227-327.)", "preferredTerm": "Fistula", "submissionValue": "FISTULA"}, {"conceptId": "C124534", "definition": "Small tag of tissue without bony support.", "preferredTerm": "Fleshy Tab", "submissionValue": "FLESHY TAB"}, {"conceptId": "C124535", "definition": "A finding indicating that that an anatomic space or cavity is filled with fluid.", "preferredTerm": "Fluid-Filled", "submissionValue": "FLUID FILLED"}, {"conceptId": "C124536", "definition": "A division into several small pieces.", "preferredTerm": "Fragmented", "submissionValue": "FRAGMENT"}, {"conceptId": "C124537", "definition": "Joined or blended together. (Makris S, Solomon HM, Clark R, Shiota K, Barbellion S, Buschmann J, Ema M, Fujiwara M, Grote K, Hazelden KP, Hew KW, Horimoto M, Ooshima Y, Parkinson M, Wise LD. Terminology of developmental abnormalities in common laboratory mammals (Version 2). Part B. Birth Defects Res B Dev Reprod Toxicol. 2009 Aug;86(4):227-327.)", "preferredTerm": "Fused", "submissionValue": "FUSED"}, {"conceptId": "C117343", "definition": "An observation in some polyzygotic pregnancies where two placentas are conjoined.", "preferredTerm": "Fused Placenta", "submissionValue": "FUSED PLACENTA"}, {"conceptId": "C124538", "definition": "Shortness or absence of the frenulum of the tongue; tongue fused to the floor of the mouth. (Makris S, Solomon HM, Clark R, Shiota K, Barbellion S, Buschmann J, Ema M, Fujiwara M, Grote K, Hazelden KP, Hew KW, Horimoto M, Ooshima Y, Parkinson M, Wise LD. Terminology of developmental abnormalities in common laboratory mammals (Version 2). Part B. Birth Defects Res B Dev Reprod Toxicol. 2009 Aug;86(4):227-327.)", "preferredTerm": "Ankyloglossia", "submissionValue": "FUSED TO FLOOR OF MOUTH", "synonyms": ["Ankyloglossia"]}, {"conceptId": "C84725", "definition": "Fissure of abdominal wall, not involving the umbilicus, and usually accompanied by protrusion of viscera which may or may not be covered by a membranous sac. (Makris S, Solomon HM, Clark R, Shiota K, Barbellion S, Buschmann J, Ema M, Fujiwara M, Grote K, Hazelden KP, Hew KW, Horimoto M, Ooshima Y, Parkinson M, Wise LD. Terminology of developmental abnormalities in common laboratory mammals (Version 2). Part B. Birth Defects Res B Dev Reprod Toxicol. 2009 Aug;86(4):227-327.)", "preferredTerm": "Gastroschisis", "submissionValue": "GASTROSCHISIS", "synonyms": ["Eventration"]}, {"conceptId": "C124539", "definition": "Absence of either hemicentrum of a centrum. Structural change involving the bone precursor. (Makris S, Solomon HM, Clark R, Shiota K, Barbellion S, Buschmann J, Ema M, Fujiwara M, Grote K, Hazelden KP, Hew KW, Horimoto M, Ooshima Y, Parkinson M, Wise LD. Terminology of developmental abnormalities in common laboratory mammals (Version 2). Part B. Birth Defects Res B Dev Reprod Toxicol. 2009 Aug;86(4):227-327.)", "preferredTerm": "Hemicentric", "submissionValue": "HEMICENTRIC"}, {"conceptId": "C34674", "definition": "Absence or shortening of the distal segment(s) of limbs. (Makris S, Solomon HM, Clark R, Shiota K, Barbellion S, Buschmann J, Ema M, Fujiwara M, Grote K, Hazelden KP, Hew KW, Horimoto M, Ooshima Y, Parkinson M, Wise LD. Terminology of developmental abnormalities in common laboratory mammals (Version 2). Part B. Birth Defects Res B Dev Reprod Toxicol. 2009 Aug;86(4):227-327.)", "preferredTerm": "Hemimelia", "submissionValue": "HEMIMELIA"}, {"conceptId": "C124540", "definition": "Absent sternebral hemicenter. (Makris S, Solomon HM, Clark R, Shiota K, Barbellion S, Buschmann J, Ema M, Fujiwara M, Grote K, Hazelden KP, Hew KW, Horimoto M, Ooshima Y, Parkinson M, Wise LD. Terminology of developmental abnormalities in common laboratory mammals (Version 2). Part B. Birth Defects Res B Dev Reprod Toxicol. 2009 Aug;86(4):227-327.)", "preferredTerm": "Hemisternebra", "submissionValue": "HEMISTERNEBRA"}, {"conceptId": "C124541", "definition": "Absence of a lateral half (arch + hemicentrum) of a vertebra. Structural change involving the bone precursor. (Makris S, Solomon HM, Clark R, Shiota K, Barbellion S, Buschmann J, Ema M, Fujiwara M, Grote K, Hazelden KP, Hew KW, Horimoto M, Ooshima Y, Parkinson M, Wise LD. Terminology of developmental abnormalities in common laboratory mammals (Version 2). Part B. Birth Defects Res B Dev Reprod Toxicol. 2009 Aug;86(4):227-327.)", "preferredTerm": "Hemivertebra", "submissionValue": "HEMIVERTEBRA"}, {"conceptId": "C26791", "definition": "The presence of extravascular erythrocytes.", "preferredTerm": "Hemorrhage", "submissionValue": "HEMORRHAGE"}, {"conceptId": "C85207", "definition": "A rare condition characterized by the unequivocal presence of both testicular and ovarian tissues in a gonad.", "preferredTerm": "True Hermaphroditism", "submissionValue": "HERMAPHRODITISM"}, {"conceptId": "C34685", "definition": "The protrusion of part of an organ or fibroadipose tissue through an abnormal opening. (NCI)", "preferredTerm": "Hernia", "submissionValue": "HERNIA"}, {"conceptId": "C124542", "definition": "Arched structure higher than normal, extends further upward.", "preferredTerm": "High Arch", "submissionValue": "HIGH-ARCHED"}, {"conceptId": "C124640", "definition": "A perforation in a tissue or organ, such as a discrete area of absent ossification and bone precursor.", "preferredTerm": "Hole", "submissionValue": "HOLE"}, {"conceptId": "C124543", "definition": "Fissure of the entire spinal column. (Makris S, Solomon HM, Clark R, Shiota K, Barbellion S, Buschmann J, Ema M, Fujiwara M, Grote K, Hazelden KP, Hew KW, Horimoto M, Ooshima Y, Parkinson M, Wise LD. Terminology of developmental abnormalities in common laboratory mammals (Version 2). Part B. Birth Defects Res B Dev Reprod Toxicol. 2009 Aug;86(4):227-327.)", "preferredTerm": "Holorachischisis", "submissionValue": "HOLORACHISCHISIS"}, {"conceptId": "C124544", "definition": "Approximately 180 degree bend or curve of the tail. (Makris S, Solomon HM, Clark R, Shiota K, Barbellion S, Buschmann J, Ema M, Fujiwara M, Grote K, Hazelden KP, Hew KW, Horimoto M, Ooshima Y, Parkinson M, Wise LD. Terminology of developmental abnormalities in common laboratory mammals (Version 2). Part B. Birth Defects Res B Dev Reprod Toxicol. 2009 Aug;86(4):227-327.)", "preferredTerm": "Hooked Tail", "submissionValue": "HOOKED TAIL"}, {"conceptId": "C98951", "definition": "The excessive extension or straightening of a limb or a joint. (Makris S, Solomon HM, Clark R, Shiota K, Barbellion S, Buschmann J, Ema M, Fujiwara M, Grote K, Hazelden KP, Hew KW, Horimoto M, Ooshima Y, Parkinson M, Wise LD. Terminology of developmental abnormalities in common laboratory mammals (Version 2). Part B. Birth Defects Res B Dev Reprod Toxicol. 2009 Aug;86(4):227-327.)", "preferredTerm": "Hyperextension", "submissionValue": "HYPEREXTENSION"}, {"conceptId": "C124545", "definition": "The excessive flexion or bending of a limb or a joint. (Makris S, Solomon HM, Clark R, Shiota K, Barbellion S, Buschmann J, Ema M, Fujiwara M, Grote K, Hazelden KP, Hew KW, Horimoto M, Ooshima Y, Parkinson M, Wise LD. Terminology of developmental abnormalities in common laboratory mammals (Version 2). Part B. Birth Defects Res B Dev Reprod Toxicol. 2009 Aug;86(4):227-327.)", "preferredTerm": "Hyperflexion", "submissionValue": "HYPERFLEXION"}, {"conceptId": "C120893", "definition": "Incomplete or underdevelopment of a tissue or organ. (NCI)", "preferredTerm": "Hypoplasia", "submissionValue": "HYPOPLASIA"}, {"conceptId": "C40341", "definition": "Urethra opening on the underside of the penis or on the perineum. (Makris S, Solomon HM, Clark R, Shiota K, Barbellion S, Buschmann J, Ema M, Fujiwara M, Grote K, Hazelden KP, Hew KW, Horimoto M, Ooshima Y, Parkinson M, Wise LD. Terminology of developmental abnormalities in common laboratory mammals (Version 2). Part B. Birth Defects Res B Dev Reprod Toxicol. 2009 Aug;86(4):227-327.)", "preferredTerm": "Hypospadias", "submissionValue": "HYPOSPADIAS"}, {"conceptId": "C84784", "definition": "Absence or closure of the anal opening. (Makris S, Solomon HM, Clark R, Shiota K, Barbellion S, Buschmann J, Ema M, Fujiwara M, Grote K, Hazelden KP, Hew KW, Horimoto M, Ooshima Y, Parkinson M, Wise LD. Terminology of developmental abnormalities in common laboratory mammals (Version 2). Part B. Birth Defects Res B Dev Reprod Toxicol. 2009 Aug;86(4):227-327.)", "preferredTerm": "Imperforate Anus", "submissionValue": "IMPERFORATE ANUS"}, {"conceptId": "C124546", "definition": "Incomplete formation of cartilage. (NCI)", "preferredTerm": "Incomplete Chondrogenesis", "submissionValue": "INCOMPLETE CHONDROGENESIS"}, {"conceptId": "C124547", "definition": "Partial ossification at a site that usually has a more advanced degree of ossification. (Makris S, Solomon HM, Clark R, Shiota K, Barbellion S, Buschmann J, Ema M, Fujiwara M, Grote K, Hazelden KP, Hew KW, Horimoto M, Ooshima Y, Parkinson M, Wise LD. Terminology of developmental abnormalities in common laboratory mammals (Version 2). Part B. Birth Defects Res B Dev Reprod Toxicol. 2009 Aug;86(4):227-327.)", "preferredTerm": "Incomplete Ossification", "submissionValue": "INCOMPLETE OSSIFICATION"}, {"conceptId": "C124548", "definition": "Increased distance between anus and genital tubercle. (Makris S, Solomon HM, Clark R, Shiota K, Barbellion S, Buschmann J, Ema M, Fujiwara M, Grote K, Hazelden KP, Hew KW, Horimoto M, Ooshima Y, Parkinson M, Wise LD. Terminology of developmental abnormalities in common laboratory mammals (Version 2). Part B. Birth Defects Res B Dev Reprod Toxicol. 2009 Aug;86(4):227-327.)", "preferredTerm": "Anogenital Distance Increased", "submissionValue": "INCREASED ANOGENITAL DISTANCE"}, {"conceptId": "C124549", "definition": "Exposure of occipital brain and upper spinal cord tissue involving extreme retroflection of the head. (Makris S, Solomon HM, Clark R, Shiota K, Barbellion S, Buschmann J, Ema M, Fujiwara M, Grote K, Hazelden KP, Hew KW, Horimoto M, Ooshima Y, Parkinson M, Wise LD. Terminology of developmental abnormalities in common laboratory mammals (Version 2). Part B. Birth Defects Res B Dev Reprod Toxicol. 2009 Aug;86(4):227-327.)", "preferredTerm": "Iniencephaly", "submissionValue": "INIENCEPHALY"}, {"conceptId": "C124550", "definition": "Discontinuity of a longitudinal structure, e.g., blood vessels, ribs, etc. (Makris S, Solomon HM, Clark R, Shiota K, Barbellion S, Buschmann J, Ema M, Fujiwara M, Grote K, Hazelden KP, Hew KW, Horimoto M, Ooshima Y, Parkinson M, Wise LD. Terminology of developmental abnormalities in common laboratory mammals (Version 2). Part B. Birth Defects Res B Dev Reprod Toxicol. 2009 Aug;86(4):227-327.)", "preferredTerm": "Discontinuous Anatomic Feature", "submissionValue": "INTERRUPTED", "synonyms": ["Discontinuous"]}, {"conceptId": "C124551", "definition": "Ossification site within the margins of a normal bone precursor but separated from the main ossified (alizarin red stained) area. Does not imply any change to the bone precursor. (Makris S, Solomon HM, Clark R, Shiota K, Barbellion S, Buschmann J, Ema M, Fujiwara M, Grote K, Hazelden KP, Hew KW, Horimoto M, Ooshima Y, Parkinson M, Wise LD. Terminology of developmental abnormalities in common laboratory mammals (Version 2). Part B. Birth Defects Res B Dev Reprod Toxicol. 2009 Aug;86(4):227-327.)", "preferredTerm": "Isolated Ossification Site", "submissionValue": "ISOLATED OSSIFICATION SITE"}, {"conceptId": "C124552", "definition": "A localized undulation of the tail.", "preferredTerm": "Kinked Tail", "submissionValue": "KINKED TAIL"}, {"conceptId": "C34754", "definition": "Increased dorsal concavity in the curvature of the spinal column as viewed from the side. (Makris S, Solomon HM, Clark R, Shiota K, Barbellion S, Buschmann J, Ema M, Fujiwara M, Grote K, Hazelden KP, Hew KW, Horimoto M, Ooshima Y, Parkinson M, Wise LD. Terminology of developmental abnormalities in common laboratory mammals (Version 2). Part B. Birth Defects Res B Dev Reprod Toxicol. 2009 Aug;86(4):227-327.)", "preferredTerm": "Kyphosis", "submissionValue": "KYPHOSIS"}, {"conceptId": "C49508", "definition": "Of considerable or relatively great size, extent, or capacity. (NCI)", "preferredTerm": "Large", "submissionValue": "LARGE"}, {"conceptId": "C124553", "definition": "Transposition to the left side, which is considered abnormal.", "preferredTerm": "Left-Sided", "submissionValue": "LEFT-SIDED"}, {"conceptId": "C111647", "definition": "Left-sided heart in the presence of situs inversus.", "preferredTerm": "Levocardia", "submissionValue": "LEVOCARDIA"}, {"conceptId": "C25248", "definition": "Greater than the normal or expected length. (Makris S, Solomon HM, Clark R, Shiota K, Barbellion S, Buschmann J, Ema M, Fujiwara M, Grote K, Hazelden KP, Hew KW, Horimoto M, Ooshima Y, Parkinson M, Wise LD. Terminology of developmental abnormalities in common laboratory mammals (Version 2). Part B. Birth Defects Res B Dev Reprod Toxicol. 2009 Aug;86(4):227-327.)", "preferredTerm": "Long", "submissionValue": "LONG", "synonyms": ["Elongated"]}, {"conceptId": "C34787", "definition": "Increased dorsal convexity in the curvature of the spinal column as viewed from the side. (Makris S, Solomon HM, Clark R, Shiota K, Barbellion S, Buschmann J, Ema M, Fujiwara M, Grote K, Hazelden KP, Hew KW, Horimoto M, Ooshima Y, Parkinson M, Wise LD. Terminology of developmental abnormalities in common laboratory mammals (Version 2). Part B. Birth Defects Res B Dev Reprod Toxicol. 2009 Aug;86(4):227-327.)", "preferredTerm": "Lordosis", "submissionValue": "LORDOSIS"}, {"conceptId": "C35724", "definition": "A displacement of a bone from its normal position in the joint.", "preferredTerm": "Dislocation", "submissionValue": "LUXATED", "synonyms": ["Dislocated"]}, {"conceptId": "C124554", "definition": "Not occurring in the proper position and/or orientation. (Makris S, Solomon HM, Clark R, Shiota K, Barbellion S, Buschmann J, Ema M, Fujiwara M, Grote K, Hazelden KP, Hew KW, Horimoto M, Ooshima Y, Parkinson M, Wise LD. Terminology of developmental abnormalities in common laboratory mammals (Version 2). Part B. Birth Defects Res B Dev Reprod Toxicol. 2009 Aug;86(4):227-327.)", "preferredTerm": "Malpositioned", "submissionValue": "MALPOSITIONED"}, {"conceptId": "C124555", "definition": "Structure rotated from proper position and/or orientation (outward or inward). (Makris S, Solomon HM, Clark R, Shiota K, Barbellion S, Buschmann J, Ema M, Fujiwara M, Grote K, Hazelden KP, Hew KW, Horimoto M, Ooshima Y, Parkinson M, Wise LD. Terminology of developmental abnormalities in common laboratory mammals (Version 2). Part B. Birth Defects Res B Dev Reprod Toxicol. 2009 Aug;86(4):227-327.)", "preferredTerm": "Malrotated", "submissionValue": "MALROTATED"}, {"conceptId": "C124556", "definition": "An opening in the membranous septum between the ventricles. (Makris S, Solomon HM, Clark R, Shiota K, Barbellion S, Buschmann J, Ema M, Fujiwara M, Grote K, Hazelden KP, Hew KW, Horimoto M, Ooshima Y, Parkinson M, Wise LD. Terminology of developmental abnormalities in common laboratory mammals (Version 2). Part B. Birth Defects Res B Dev Reprod Toxicol. 2009 Aug;86(4):227-327.)", "preferredTerm": "Membranous Ventricular Septal Defect", "submissionValue": "MEMBRANOUS VENTRICULAR SEPTAL DEFECT"}, {"conceptId": "C124557", "definition": "Herniation of brain and meninges through a cranial opening. (Makris S, Solomon HM, Clark R, Shiota K, Barbellion S, Buschmann J, Ema M, Fujiwara M, Grote K, Hazelden KP, Hew KW, Horimoto M, Ooshima Y, Parkinson M, Wise LD. Terminology of developmental abnormalities in common laboratory mammals (Version 2). Part B. Birth Defects Res B Dev Reprod Toxicol. 2009 Aug;86(4):227-327.)", "preferredTerm": "Encephalomeningocele", "submissionValue": "MENINGOENCEPHALOCELE", "synonyms": ["Encephalomeningocele"]}, {"conceptId": "C124558", "definition": "Herniation of brain, cerebral ventricle, and meninges through a defect in skull. (Makris S, Solomon HM, Clark R, Shiota K, Barbellion S, Buschmann J, Ema M, Fujiwara M, Grote K, Hazelden KP, Hew KW, Horimoto M, Ooshima Y, Parkinson M, Wise LD. Terminology of developmental abnormalities in common laboratory mammals (Version 2). Part B. Birth Defects Res B Dev Reprod Toxicol. 2009 Aug;86(4):227-327.)", "preferredTerm": "Meningohydroencephalocele", "submissionValue": "MENINGOHYDROENCEPHALOCELE"}, {"conceptId": "C124559", "definition": "Abnormal position of structures in relation to one another on opposite sides of a dividing line or about the center or axis. (Makris S, Solomon HM, Clark R, Shiota K, Barbellion S, Buschmann J, Ema M, Fujiwara M, Grote K, Hazelden KP, Hew KW, Horimoto M, Ooshima Y, Parkinson M, Wise LD. Terminology of developmental abnormalities in common laboratory mammals (Version 2). Part B. Birth Defects Res B Dev Reprod Toxicol. 2009 Aug;86(4):227-327.)", "preferredTerm": "Misalignment", "submissionValue": "MISALIGNED", "synonyms": ["Malaligned"]}, {"conceptId": "C124560", "definition": "Abnormally shaped. (Makris S, Solomon HM, Clark R, Shiota K, Barbellion S, Buschmann J, Ema M, Fujiwara M, Grote K, Hazelden KP, Hew KW, Horimoto M, Ooshima Y, Parkinson M, Wise LD. Terminology of developmental abnormalities in common laboratory mammals (Version 2). Part B. Birth Defects Res B Dev Reprod Toxicol. 2009 Aug;86(4):227-327.)", "preferredTerm": "Misshapen", "submissionValue": "MISSHAPEN"}, {"conceptId": "C87095", "definition": "Spotting with patches of discoloration of an organ or tissue. (Makris S, Solomon HM, Clark R, Shiota K, Barbellion S, Buschmann J, Ema M, Fujiwara M, Grote K, Hazelden KP, Hew KW, Horimoto M, Ooshima Y, Parkinson M, Wise LD. Terminology of developmental abnormalities in common laboratory mammals (Version 2). Part B. Birth Defects Res B Dev Reprod Toxicol. 2009 Aug;86(4):227-327.)", "preferredTerm": "Mottling", "submissionValue": "MOTTLED"}, {"conceptId": "C124561", "definition": "Used when Region/Organ/Structure has multiple malformations and individual descriptions would be unnecessarily complex. (Makris S, Solomon HM, Clark R, Shiota K, Barbellion S, Buschmann J, Ema M, Fujiwara M, Grote K, Hazelden KP, Hew KW, Horimoto M, Ooshima Y, Parkinson M, Wise LD. Terminology of developmental abnormalities in common laboratory mammals (Version 2). Part B. Birth Defects Res B Dev Reprod Toxicol. 2009 Aug;86(4):227-327.)", "preferredTerm": "Multiple Malformations", "submissionValue": "MULTIPLE MALFORMATIONS"}, {"conceptId": "C124562", "definition": "Used when Region/Organ/Structure has multiple variations and individual descriptions would be unnecessarily complex. (Makris S, Solomon HM, Clark R, Shiota K, Barbellion S, Buschmann J, Ema M, Fujiwara M, Grote K, Hazelden KP, Hew KW, Horimoto M, Ooshima Y, Parkinson M, Wise LD. Terminology of developmental abnormalities in common laboratory mammals (Version 2). Part B. Birth Defects Res B Dev Reprod Toxicol. 2009 Aug;86(4):227-327.)", "preferredTerm": "Multiple Abnormalities", "submissionValue": "MULTIPLE VARIATIONS"}, {"conceptId": "C124563", "definition": "An opening in the muscular septum between the ventricles. (Makris S, Solomon HM, Clark R, Shiota K, Barbellion S, Buschmann J, Ema M, Fujiwara M, Grote K, Hazelden KP, Hew KW, Horimoto M, Ooshima Y, Parkinson M, Wise LD. Terminology of developmental abnormalities in common laboratory mammals (Version 2). Part B. Birth Defects Res B Dev Reprod Toxicol. 2009 Aug;86(4):227-327.)", "preferredTerm": "Muscular Ventricular Septal Defect", "submissionValue": "MUSCULAR VENTRICULAR SEPTAL DEFECT"}, {"conceptId": "C124564", "definition": "Less than the normal side to side dimension. (Makris S, Solomon HM, Clark R, Shiota K, Barbellion S, Buschmann J, Ema M, Fujiwara M, Grote K, Hazelden KP, Hew KW, Horimoto M, Ooshima Y, Parkinson M, Wise LD. Terminology of developmental abnormalities in common laboratory mammals (Version 2). Part B. Birth Defects Res B Dev Reprod Toxicol. 2009 Aug;86(4):227-327.)", "preferredTerm": "Narrow", "submissionValue": "NARROW", "synonyms": ["Coarctation", "Constricted"]}, {"conceptId": "C3280", "definition": "A small lump, swelling or collection of tissue. (NCI)", "preferredTerm": "Nodule", "submissionValue": "NODULE"}, {"conceptId": "C124565", "definition": "Tooth not emerged.", "preferredTerm": "Tooth Not Erupted", "submissionValue": "NOT ERUPTED TOOTH"}, {"conceptId": "C124566", "definition": "Not joined to form a single entity.", "preferredTerm": "Not Fused", "submissionValue": "NOT FUSED"}, {"conceptId": "C92839", "definition": "Reduced or less than normal amount of amniotic fluid. (Makris S, Solomon HM, Clark R, Shiota K, Barbellion S, Buschmann J, Ema M, Fujiwara M, Grote K, Hazelden KP, Hew KW, Horimoto M, Ooshima Y, Parkinson M, Wise LD. Terminology of developmental abnormalities in common laboratory mammals (Version 2). Part B. Birth Defects Res B Dev Reprod Toxicol. 2009 Aug;86(4):227-327.)", "preferredTerm": "Oligohydramnios", "submissionValue": "OLIGOHYDRAMNIOS", "synonyms": ["Reduced Amniotic Fluid"]}, {"conceptId": "C98997", "definition": "A defect in the abdominal wall at the umbilicus, through which the intestines and other viscera protrude. These may or may not be covered by a thin, translucent sac. (Makris S, Solomon HM, Clark R, Shiota K, Barbellion S, Buschmann J, Ema M, Fujiwara M, Grote K, Hazelden KP, Hew KW, Horimoto M, Ooshima Y, Parkinson M, Wise LD. Terminology of developmental abnormalities in common laboratory mammals (Version 2). Part B. Birth Defects Res B Dev Reprod Toxicol. 2009 Aug;86(4):227-327.)", "preferredTerm": "Omphalocele", "submissionValue": "OMPHALOCELE", "synonyms": ["Eventration", "Exomphalos"]}, {"conceptId": "C71596", "definition": "The quality of being opaque to a degree; the degree to which something reduces the passage of light. (NCI)", "preferredTerm": "Opacity", "submissionValue": "OPACITY"}, {"conceptId": "C26713", "definition": "Opacity of the crystalline lens. (Makris S, Solomon HM, Clark R, Shiota K, Barbellion S, Buschmann J, Ema M, Fujiwara M, Grote K, Hazelden KP, Hew KW, Horimoto M, Ooshima Y, Parkinson M, Wise LD. Terminology of developmental abnormalities in common laboratory mammals (Version 2). Part B. Birth Defects Res B Dev Reprod Toxicol. 2009 Aug;86(4):227-327.)", "preferredTerm": "Cataract", "submissionValue": "OPACITY OF THE LENS", "synonyms": ["Cataract"]}, {"conceptId": "C124567", "definition": "Eyeball visible. (Makris S, Solomon HM, Clark R, Shiota K, Barbellion S, Buschmann J, Ema M, Fujiwara M, Grote K, Hazelden KP, Hew KW, Horimoto M, Ooshima Y, Parkinson M, Wise LD. Terminology of developmental abnormalities in common laboratory mammals (Version 2). Part B. Birth Defects Res B Dev Reprod Toxicol. 2009 Aug;86(4):227-327.)", "preferredTerm": "Open Eye", "submissionValue": "OPEN EYE"}, {"conceptId": "C124568", "definition": "Absence or extreme underdevelopment of the lower jaw, producing closeness of the ears below the face. (Makris S, Solomon HM, Clark R, Shiota K, Barbellion S, Buschmann J, Ema M, Fujiwara M, Grote K, Hazelden KP, Hew KW, Horimoto M, Ooshima Y, Parkinson M, Wise LD. Terminology of developmental abnormalities in common laboratory mammals (Version 2). Part B. Birth Defects Res B Dev Reprod Toxicol. 2009 Aug;86(4):227-327.)", "preferredTerm": "Otocephaly", "submissionValue": "OTOCEPHALY"}, {"conceptId": "C124569", "definition": "Biventricular origin of the aorta. (Makris S, Solomon HM, Clark R, Shiota K, Barbellion S, Buschmann J, Ema M, Fujiwara M, Grote K, Hazelden KP, Hew KW, Horimoto M, Ooshima Y, Parkinson M, Wise LD. Terminology of developmental abnormalities in common laboratory mammals (Version 2). Part B. Birth Defects Res B Dev Reprod Toxicol. 2009 Aug;86(4):227-327.)", "preferredTerm": "Overriding Aorta", "submissionValue": "OVERRIDING AORTA"}, {"conceptId": "C50685", "definition": "An unusual or extreme paleness, state of decreased coloration.", "preferredTerm": "Pallor", "submissionValue": "PALE"}, {"conceptId": "C84492", "definition": "Open and unobstructed ductus arteriosus postnatally. (Makris S, Solomon HM, Clark R, Shiota K, Barbellion S, Buschmann J, Ema M, Fujiwara M, Grote K, Hazelden KP, Hew KW, Horimoto M, Ooshima Y, Parkinson M, Wise LD. Terminology of developmental abnormalities in common laboratory mammals (Version 2). Part B. Birth Defects Res B Dev Reprod Toxicol. 2009 Aug;86(4):227-327.)", "preferredTerm": "Patent Ductus Arteriosus", "submissionValue": "PATENT DUCTUS ARTERIOSUS"}, {"conceptId": "C124570", "definition": "Retained embryonic structure past the point in development it is normally present.", "preferredTerm": "Persistent Embryonic Structure", "submissionValue": "PERSISTENT"}, {"conceptId": "C34928", "definition": "Reduction or absence of proximal portion of limb, with the paws, hands, or feet being closer to the trunk of the body. (Makris S, Solomon HM, Clark R, Shiota K, Barbellion S, Buschmann J, Ema M, Fujiwara M, Grote K, Hazelden KP, Hew KW, Horimoto M, Ooshima Y, Parkinson M, Wise LD. Terminology of developmental abnormalities in common laboratory mammals (Version 2). Part B. Birth Defects Res B Dev Reprod Toxicol. 2009 Aug;86(4):227-327.)", "preferredTerm": "Phocomelia", "submissionValue": "PHOCOMELIA"}, {"conceptId": "C92848", "definition": "Excessive (increased) amount of amniotic fluid. (Makris S, Solomon HM, Clark R, Shiota K, Barbellion S, Buschmann J, Ema M, Fujiwara M, Grote K, Hazelden KP, Hew KW, Horimoto M, Ooshima Y, Parkinson M, Wise LD. Terminology of developmental abnormalities in common laboratory mammals (Version 2). Part B. Birth Defects Res B Dev Reprod Toxicol. 2009 Aug;86(4):227-327.)", "preferredTerm": "Polyhydramnios", "submissionValue": "POLYHYDRAMNIOS"}, {"conceptId": "C124571", "definition": "Fusion, occlusion, or loss of patency occurring before the usual or proper time.", "preferredTerm": "Premature Closure", "submissionValue": "PREMATURE CLOSURE"}, {"conceptId": "C124572", "definition": "Tubular projection replaces snout. (Makris S, Solomon HM, Clark R, Shiota K, Barbellion S, Buschmann J, Ema M, Fujiwara M, Grote K, Hazelden KP, Hew KW, Horimoto M, Ooshima Y, Parkinson M, Wise LD. Terminology of developmental abnormalities in common laboratory mammals (Version 2). Part B. Birth Defects Res B Dev Reprod Toxicol. 2009 Aug;86(4):227-327.)", "preferredTerm": "Proboscis", "submissionValue": "PROBOSCIS"}, {"conceptId": "C36173", "definition": "A condition in which an organ drops or bulges out of place. (NCI)", "preferredTerm": "Prolapse", "submissionValue": "PROLAPSE"}, {"conceptId": "C124573", "definition": "Fissure of the face from the mouth to the eye.", "preferredTerm": "Prosoposchisis", "submissionValue": "PROSOPOSCHISIS"}, {"conceptId": "C124574", "definition": "Extending outward beyond a surface or boundary.", "preferredTerm": "Protruding", "submissionValue": "PROTRUDING"}, {"conceptId": "C124575", "definition": "Gonads of one sex are present, while the external genital organs resemble in whole or in part those of the opposite sex. (Makris S, Solomon HM, Clark R, Shiota K, Barbellion S, Buschmann J, Ema M, Fujiwara M, Grote K, Hazelden KP, Hew KW, Horimoto M, Ooshima Y, Parkinson M, Wise LD. Terminology of developmental abnormalities in common laboratory mammals (Version 2). Part B. Birth Defects Res B Dev Reprod Toxicol. 2009 Aug;86(4):227-327.)", "preferredTerm": "Pseudohermaphroditism", "submissionValue": "PSEUDOHERMAPHRODITISM"}, {"conceptId": "C124576", "definition": "Descriptive of any tissue into which a red material is observed.", "preferredTerm": "Red Material", "submissionValue": "RED MATERIAL"}, {"conceptId": "C124577", "definition": "A decrease in expected quantity.", "preferredTerm": "Reduced Number", "submissionValue": "REDUCED NUMBER"}, {"conceptId": "C124578", "definition": "Undulation of retinal layers. (Makris S, Solomon HM, Clark R, Shiota K, Barbellion S, Buschmann J, Ema M, Fujiwara M, Grote K, Hazelden KP, Hew KW, Horimoto M, Ooshima Y, Parkinson M, Wise LD. Terminology of developmental abnormalities in common laboratory mammals (Version 2). Part B. Birth Defects Res B Dev Reprod Toxicol. 2009 Aug;86(4):227-327.)", "preferredTerm": "Retinal Fold", "submissionValue": "RETINAL FOLD"}, {"conceptId": "C124579", "definition": "Passing dorsal to the esophagus.", "preferredTerm": "Retroesophageal", "submissionValue": "RETROESOPHAGEAL"}, {"conceptId": "C25660", "definition": "Passing dorsal to the trachea. (Makris S, Solomon HM, Clark R, Shiota K, Barbellion S, Buschmann J, Ema M, Fujiwara M, Grote K, Hazelden KP, Hew KW, Horimoto M, Ooshima Y, Parkinson M, Wise LD. Terminology of developmental abnormalities in common laboratory mammals (Version 2). Part B. Birth Defects Res B Dev Reprod Toxicol. 2009 Aug;86(4):227-327.)", "preferredTerm": "Retrotracheal", "submissionValue": "RETROTRACHEAL"}, {"conceptId": "C124580", "definition": "Proboscis-like nose above partially or completely fused eyes. (Makris S, Solomon HM, Clark R, Shiota K, Barbellion S, Buschmann J, Ema M, Fujiwara M, Grote K, Hazelden KP, Hew KW, Horimoto M, Ooshima Y, Parkinson M, Wise LD. Terminology of developmental abnormalities in common laboratory mammals (Version 2). Part B. Birth Defects Res B Dev Reprod Toxicol. 2009 Aug;86(4):227-327.)", "preferredTerm": "Rhinocephaly", "submissionValue": "RHINOCEPHALY"}, {"conceptId": "C124581", "definition": "Transposition to the right side, which is considered abnormal.", "preferredTerm": "Right-Sided", "submissionValue": "RIGHT-SIDED"}, {"conceptId": "C78603", "definition": "Lateral curvature of the spinal column. (Makris S, Solomon HM, Clark R, Shiota K, Barbellion S, Buschmann J, Ema M, Fujiwara M, Grote K, Hazelden KP, Hew KW, Horimoto M, Ooshima Y, Parkinson M, Wise LD. Terminology of developmental abnormalities in common laboratory mammals (Version 2). Part B. Birth Defects Res B Dev Reprod Toxicol. 2009 Aug;86(4):227-327.)", "preferredTerm": "Scoliosis", "submissionValue": "SCOLIOSIS"}, {"conceptId": "C124582", "definition": "Two fetuses on one placenta. (Makris S, Solomon HM, Clark R, Shiota K, Barbellion S, Buschmann J, Ema M, Fujiwara M, Grote K, Hazelden KP, Hew KW, Horimoto M, Ooshima Y, Parkinson M, Wise LD. Terminology of developmental abnormalities in common laboratory mammals (Version 2). Part B. Birth Defects Res B Dev Reprod Toxicol. 2009 Aug;86(4):227-327.)", "preferredTerm": "Shared Placenta", "submissionValue": "SHARED PLACENTA", "synonyms": ["Placental Twins"]}, {"conceptId": "C25249", "definition": "Less than the normal or expected length. (Makris S, Solomon HM, Clark R, Shiota K, Barbellion S, Buschmann J, Ema M, Fujiwara M, Grote K, Hazelden KP, Hew KW, Horimoto M, Ooshima Y, Parkinson M, Wise LD. Terminology of developmental abnormalities in common laboratory mammals (Version 2). Part B. Birth Defects Res B Dev Reprod Toxicol. 2009 Aug;86(4):227-327.)", "preferredTerm": "Short", "submissionValue": "SHORT"}, {"conceptId": "C48440", "definition": "One.", "preferredTerm": "Single", "submissionValue": "SINGLE"}, {"conceptId": "C124583", "definition": "Consisting of one lobe.", "preferredTerm": "Unilobular", "submissionValue": "SINGLE LOBE", "synonyms": ["Unilobular"]}, {"conceptId": "C118455", "definition": "Any of several degrees of side-to-side fusion of lower extremities and concomitant midline reduction of the pelvis. Soft tissues and long bones, lower paw (feet), and viscera of the pelvis tend to be reduced or absent; anus and external genitalia are often absent. (Makris S, Solomon HM, Clark R, Shiota K, Barbellion S, Buschmann J, Ema M, Fujiwara M, Grote K, Hazelden KP, Hew KW, Horimoto M, Ooshima Y, Parkinson M, Wise LD. Terminology of developmental abnormalities in common laboratory mammals (Version 2). Part B. Birth Defects Res B Dev Reprod Toxicol. 2009 Aug;86(4):227-327.)", "preferredTerm": "Sirenomelia", "submissionValue": "SIRENOMELIA", "synonyms": ["Symmelia"]}, {"conceptId": "C87121", "definition": "Mirror-image transposition of the abdominal and/or thoracic viscera. (Makris S, Solomon HM, Clark R, Shiota K, Barbellion S, Buschmann J, Ema M, Fujiwara M, Grote K, Hazelden KP, Hew KW, Horimoto M, Ooshima Y, Parkinson M, Wise LD. Terminology of developmental abnormalities in common laboratory mammals (Version 2). Part B. Birth Defects Res B Dev Reprod Toxicol. 2009 Aug;86(4):227-327.)", "preferredTerm": "Situs Inversus", "submissionValue": "SITUS INVERSUS"}, {"conceptId": "C3374", "definition": "Small appendage of skin. (Makris S, Solomon HM, Clark R, Shiota K, Barbellion S, Buschmann J, Ema M, Fujiwara M, Grote K, Hazelden KP, Hew KW, Horimoto M, Ooshima Y, Parkinson M, Wise LD. Terminology of developmental abnormalities in common laboratory mammals (Version 2). Part B. Birth Defects Res B Dev Reprod Toxicol. 2009 Aug;86(4):227-327.)", "preferredTerm": "Skin Tag", "submissionValue": "SKIN TAG"}, {"conceptId": "C25376", "definition": "Limited in number, quantity, magnitude or extent. (NCI)", "preferredTerm": "Small", "submissionValue": "SMALL"}, {"conceptId": "C101214", "definition": "A family of defects in the closure of the spinal column. May be covered with skin (spina bifida occulta) or not covered with skin (spinabifida aperta); may involve protrusion of spinal cord and/or meninges. (Makris S, Solomon HM, Clark R, Shiota K, Barbellion S, Buschmann J, Ema M, Fujiwara M, Grote K, Hazelden KP, Hew KW, Horimoto M, Ooshima Y, Parkinson M, Wise LD. Terminology of developmental abnormalities in common laboratory mammals (Version 2). Part B. Birth Defects Res B Dev Reprod Toxicol. 2009 Aug;86(4):227-327.)", "preferredTerm": "Spina Bifida", "submissionValue": "SPINA BIFIDA", "synonyms": ["Rachischisis", "Spinal Meningocele", "Spinal Myelocele", "Spinal Myelomeningocele"]}, {"conceptId": "C124584", "definition": "Paired structures diverge from one another. (Makris S, Solomon HM, Clark R, Shiota K, Barbellion S, Buschmann J, Ema M, Fujiwara M, Grote K, Hazelden KP, Hew KW, Horimoto M, Ooshima Y, Parkinson M, Wise LD. Terminology of developmental abnormalities in common laboratory mammals (Version 2). Part B. Birth Defects Res B Dev Reprod Toxicol. 2009 Aug;86(4):227-327.)", "preferredTerm": "Splayed", "submissionValue": "SPLAYED"}, {"conceptId": "C54572", "definition": "Division of a single structure (usually into two parts) with no intervening structure between the parts. (Makris S, Solomon HM, Clark R, Shiota K, Barbellion S, Buschmann J, Ema M, Fujiwara M, Grote K, Hazelden KP, Hew KW, Horimoto M, Ooshima Y, Parkinson M, Wise LD. Terminology of developmental abnormalities in common laboratory mammals (Version 2). Part B. Birth Defects Res B Dev Reprod Toxicol. 2009 Aug;86(4):227-327.)", "preferredTerm": "Split", "submissionValue": "SPLIT", "synonyms": ["Bifid", "Cleft"]}, {"conceptId": "C63758", "definition": "More than the usual or expected number. (Makris S, Solomon HM, Clark R, Shiota K, Barbellion S, Buschmann J, Ema M, Fujiwara M, Grote K, Hazelden KP, Hew KW, Horimoto M, Ooshima Y, Parkinson M, Wise LD. Terminology of developmental abnormalities in common laboratory mammals (Version 2). Part B. Birth Defects Res B Dev Reprod Toxicol. 2009 Aug;86(4):227-327.)", "preferredTerm": "Supernumerary", "submissionValue": "SUPERNUMERARY", "synonyms": ["Accessory", "Extra"]}, {"conceptId": "C124585", "definition": "An extraneous, additional long narrow slit or groove that divides an organ into lobes, or tissues and bone into parts. (NCI)", "preferredTerm": "Supernumerary Fissure", "submissionValue": "SUPERNUMERARY FISSURE", "synonyms": ["Additional Fissure"]}, {"conceptId": "C84505", "definition": "Defect of the heart which includes all of the following: pulmonary stenosis, interventricular septal defect, dextraposed aorta overriding the ventricular septum, and enlarged right ventricular wall. (Makris S, Solomon HM, Clark R, Shiota K, Barbellion S, Buschmann J, Ema M, Fujiwara M, Grote K, Hazelden KP, Hew KW, Horimoto M, Ooshima Y, Parkinson M, Wise LD. Terminology of developmental abnormalities in common laboratory mammals (Version 2). Part B. Birth Defects Res B Dev Reprod Toxicol. 2009 Aug;86(4):227-327.)", "preferredTerm": "Tetralogy of Fallot", "submissionValue": "TETRALOGY OF FALLOT"}, {"conceptId": "C81186", "definition": "Relatively greater extent or depth than normal from one surface to the other of a tissue or skeletal element. Describes the three dimensional structure.", "preferredTerm": "Thick", "submissionValue": "THICK"}, {"conceptId": "C65127", "definition": "Relatively lesser extent than normal from one surface to the other of a tissue or skeletal element. Describes the three dimensional structure. (Makris S, Solomon HM, Clark R, Shiota K, Barbellion S, Buschmann J, Ema M, Fujiwara M, Grote K, Hazelden KP, Hew KW, Horimoto M, Ooshima Y, Parkinson M, Wise LD. Terminology of developmental abnormalities in common laboratory mammals (Version 2). Part B. Birth Defects Res B Dev Reprod Toxicol. 2009 Aug;86(4):227-327.)", "preferredTerm": "Thin", "submissionValue": "THIN"}, {"conceptId": "C124586", "definition": "Fissure of thoracic and abdominal walls with thoracic and abdominal viscera, or major parts thereof, exposed ventrally. (Makris S, Solomon HM, Clark R, Shiota K, Barbellion S, Buschmann J, Ema M, Fujiwara M, Grote K, Hazelden KP, Hew KW, Horimoto M, Ooshima Y, Parkinson M, Wise LD. Terminology of developmental abnormalities in common laboratory mammals (Version 2). Part B. Birth Defects Res B Dev Reprod Toxicol. 2009 Aug;86(4):227-327.)", "preferredTerm": "Thoracogastroschisis", "submissionValue": "THORACOGASTROSCHISIS", "synonyms": ["Thoracoceloschisis"]}, {"conceptId": "C124587", "definition": "Fissure of thoracic wall. (Makris S, Solomon HM, Clark R, Shiota K, Barbellion S, Buschmann J, Ema M, Fujiwara M, Grote K, Hazelden KP, Hew KW, Horimoto M, Ooshima Y, Parkinson M, Wise LD. Terminology of developmental abnormalities in common laboratory mammals (Version 2). Part B. Birth Defects Res B Dev Reprod Toxicol. 2009 Aug;86(4):227-327.)", "preferredTerm": "Thoracoschisis", "submissionValue": "THORACOSCHISIS"}, {"conceptId": "C124588", "definition": "Resembling a thread or pertaining to thread-like structures.", "preferredTerm": "Thread-Like", "submissionValue": "THREAD-LIKE", "synonyms": ["Filamentous"]}, {"conceptId": "C124589", "definition": "Three-chambered heart with two atria and a ventricle or one atrium and two ventricles. (Makris S, Solomon HM, Clark R, Shiota K, Barbellion S, Buschmann J, Ema M, Fujiwara M, Grote K, Hazelden KP, Hew KW, Horimoto M, Ooshima Y, Parkinson M, Wise LD. Terminology of developmental abnormalities in common laboratory mammals (Version 2). Part B. Birth Defects Res B Dev Reprod Toxicol. 2009 Aug;86(4):227-327.)", "preferredTerm": "Cor Triloculare", "submissionValue": "THREE-CHAMBERED HEART", "synonyms": ["Cor Triloculare"]}, {"conceptId": "C124590", "definition": "Partially undescended horn of thymus. (Makris S, Solomon HM, Clark R, Shiota K, Barbellion S, Buschmann J, Ema M, Fujiwara M, Grote K, Hazelden KP, Hew KW, Horimoto M, Ooshima Y, Parkinson M, Wise LD. Terminology of developmental abnormalities in common laboratory mammals (Version 2). Part B. Birth Defects Res B Dev Reprod Toxicol. 2009 Aug;86(4):227-327.)", "preferredTerm": "Thymic Cord", "submissionValue": "THYMIC CORD", "synonyms": ["Extra Thymic Tissue", "Thymic Remnant in the Neck", "Thymus Long Cranially"]}, {"conceptId": "C84742", "definition": "Origin of aorta from right ventricle and pulmonary trunk from left ventricle. (Makris S, Solomon HM, Clark R, Shiota K, Barbellion S, Buschmann J, Ema M, Fujiwara M, Grote K, Hazelden KP, Hew KW, Horimoto M, Ooshima Y, Parkinson M, Wise LD. Terminology of developmental abnormalities in common laboratory mammals (Version 2). Part B. Birth Defects Res B Dev Reprod Toxicol. 2009 Aug;86(4):227-327.)", "preferredTerm": "Transposition of Great Vessels", "submissionValue": "TRANSPOSITION OF GREAT VESSELS"}, {"conceptId": "C124591", "definition": "Two-chambered heart with an atrium and a ventricle. (Makris S, Solomon HM, Clark R, Shiota K, Barbellion S, Buschmann J, Ema M, Fujiwara M, Grote K, Hazelden KP, Hew KW, Horimoto M, Ooshima Y, Parkinson M, Wise LD. Terminology of developmental abnormalities in common laboratory mammals (Version 2). Part B. Birth Defects Res B Dev Reprod Toxicol. 2009 Aug;86(4):227-327.)", "preferredTerm": "Cor Biloculare", "submissionValue": "TWO-CHAMBERED HEART", "synonyms": ["Cor Biloculare"]}, {"conceptId": "C2888", "definition": "The partial or total collapse of alveoli and/or airways.", "preferredTerm": "Atelectasis", "submissionValue": "UNEXPANDED LUNG"}, {"conceptId": "C124641", "definition": "Absence of ossification (assessed by absence of alizarin red stain) at a site which, in controls of the same age, is usually at least partially ossified. Applies only to the ossification site and does not imply any change to the bone precursor. (Makris S, Solomon HM, Clark R, Shiota K, Barbellion S, Buschmann J, Ema M, Fujiwara M, Grote K, Hazelden KP, Hew KW, Horimoto M, Ooshima Y, Parkinson M, Wise LD. Terminology of developmental abnormalities in common laboratory mammals (Version 2). Part B. Birth Defects Res B Dev Reprod Toxicol. 2009 Aug;86(4):227-327.)", "preferredTerm": "Unossified", "submissionValue": "UNOSSIFIED"}, {"conceptId": "C124642", "definition": "Linear break in ossification with underlying bone precursor present. Usually seen in the intramembranous bones of the skull. (Makris S, Solomon HM, Clark R, Shiota K, Barbellion S, Buschmann J, Ema M, Fujiwara M, Grote K, Hazelden KP, Hew KW, Horimoto M, Ooshima Y, Parkinson M, Wise LD. Terminology of developmental abnormalities in common laboratory mammals (Version 2). Part B. Birth Defects Res B Dev Reprod Toxicol. 2009 Aug;86(4):227-327.)", "preferredTerm": "Supernumerary Cranial Sutures", "submissionValue": "UNOSSIFIED LINE", "synonyms": ["Supernumerary Suture"]}, {"conceptId": "C96301", "definition": "No noteworthy findings.", "preferredTerm": "Unremarkable", "submissionValue": "UNREMARKABLE"}, {"conceptId": "C124592", "definition": "Undulation(s) along the length of a rib. (Makris S, Solomon HM, Clark R, Shiota K, Barbellion S, Buschmann J, Ema M, Fujiwara M, Grote K, Hazelden KP, Hew KW, Horimoto M, Ooshima Y, Parkinson M, Wise LD. Terminology of developmental abnormalities in common laboratory mammals (Version 2). Part B. Birth Defects Res B Dev Reprod Toxicol. 2009 Aug;86(4):227-327.)", "preferredTerm": "Wavy Rib", "submissionValue": "WAVY RIB"}, {"conceptId": "C124593", "definition": "Greater than the normal or expected width. More than the normal side to side dimension. (Makris S, Solomon HM, Clark R, Shiota K, Barbellion S, Buschmann J, Ema M, Fujiwara M, Grote K, Hazelden KP, Hew KW, Horimoto M, Ooshima Y, Parkinson M, Wise LD. Terminology of developmental abnormalities in common laboratory mammals (Version 2). Part B. Birth Defects Res B Dev Reprod Toxicol. 2009 Aug;86(4):227-327.)", "preferredTerm": "Wide", "submissionValue": "WIDE"}]}