{"_links": {"parentPackage": {"href": "/mdr/ct/packages/sendct-2017-03-31", "title": "SEND Controlled Terminology Package 29 Effective 2017-03-31", "type": "Terminology"}, "priorVersion": {"href": "/mdr/ct/packages/sendct-2016-12-16/codelists/C71150", "title": "CDISC SDTM ECG Finding Terminology", "type": "Code List"}, "rootItem": {"href": "/mdr/root/ct/sendct/codelists/C71150", "title": "Version-agnostic anchor resource for codelist C71150", "type": "Root Value Domain"}, "self": {"href": "/mdr/ct/packages/sendct-2017-03-31/codelists/C71150", "title": "CDISC SDTM ECG Finding Terminology", "type": "Code List"}}, "conceptId": "C71150", "definition": "Terminology codelist used with ECG Findings and Abnormalities within CDISC.", "extensible": "true", "name": "ECG Result", "preferredTerm": "CDISC SDTM ECG Finding Terminology", "submissionValue": "EGSTRESC", "synonyms": ["ECG Result"], "terms": [{"conceptId": "C111088", "definition": "An electrocardiographic finding of prolonged PR interval for a specific population. For adults one common threshold is a PR interval greater than 0.20 seconds. Note that other thresholds may be applicable.", "preferredTerm": "AV Block First Degree by ECG Finding", "submissionValue": "1ST DEGREE AV BLOCK", "synonyms": ["1st degree AV block", "PR Prolongation", "Prolonged PR interval"]}, {"conceptId": "C71044", "definition": "An electrocardiographic finding of a supraventricular rhythm where the ratio of impulses generated above the atrioventricular node to the number of impulses conducted through to the ventricles is 2:1. This is manifest on the ECG as 2 P waves per QRS complex.", "preferredTerm": "2:1 Atrioventricular Block by ECG Finding", "submissionValue": "2:1 AV BLOCK", "synonyms": ["2:1 AV block"]}, {"conceptId": "C62016", "definition": "An electrocardiographic finding of intermittent failure of atrial electrical impulse conduction to the ventricles. This is manifest on the ECG by regular P waves which intermittently are not followed by QRS complexes.", "preferredTerm": "AV Block Second Degree by ECG Finding", "submissionValue": "2ND DEGREE AV BLOCK", "synonyms": ["Second Degree AV Block"]}, {"conceptId": "C111091", "definition": "An electrocardiographic finding of complete failure of atrial electrical impulse conduction to the ventricles. This is manifest on the ECG by disassociation of atrial and ventricular rhythms. The atrial rate must be faster than the ventricular rate.", "preferredTerm": "AV Block Third Degree by ECG Finding", "submissionValue": "3RD DEGREE AV BLOCK", "synonyms": ["3rd Degree Heart Block", "AV block, complete (third-degree)", "Complete Heart Block"]}, {"conceptId": "C114165", "definition": "An electrocardiographic recording showing power line interference with the electrocardiographic signal. The artifact amplitude modulation has the same frequency as the AC power system present (50 Hz).", "preferredTerm": "50 Hertz Noise by ECG Finding", "submissionValue": "50 Hz NOISE", "synonyms": ["50 Hz Artifact", "50 Hz Noise"]}, {"conceptId": "C114164", "definition": "An electrocardiographic recording showing power line interference with the electrocardiographic signal. The artifact amplitude modulation has the same frequency as the AC power system present (60 Hz).", "preferredTerm": "60 Hertz Noise by ECG Finding", "submissionValue": "60 Hz NOISE", "synonyms": ["60 Hz Artifact", "60 Hz Noise"]}, {"conceptId": "C116132", "definition": "An electrocardiographic finding of an abnormally wide QRS complex(es) of supraventricular origin with prolonged QRS duration due to aberrant AV conduction.", "preferredTerm": "Aberrantly Conducted Complexes by ECG Finding", "submissionValue": "ABERRANTLY CONDUCTED COMPLEXES", "synonyms": ["Aberrantly Conducted Beats"]}, {"conceptId": "C114149", "definition": "An electrocardiographic recording showing power line interference with the electrocardiographic signal. The artifact amplitude modulation has the same frequency as the AC power system present (usually 50 Hz or 60 Hz).", "preferredTerm": "Alternating Current Noise by ECG Finding", "submissionValue": "AC NOISE", "synonyms": ["AC Noise"]}, {"conceptId": "C62266", "definition": "An electrocardiographic finding of idioventricular rhythm with a rate greater than 50 beats per minute.", "preferredTerm": "Accelerated Idioventricular Rhythm by ECG Finding", "submissionValue": "ACCELERATED IDIOVENTRICULAR RHYTHM", "synonyms": ["Accelerated idioventricular rhythm"]}, {"conceptId": "C71065", "definition": "An electrocardiographic finding of pathologic Q waves with accompanying ST elevation in leads V3 and V4, which is suggestive of acute myocardial infarction of the anterior wall of the left ventricle.", "preferredTerm": "Acute Anterior Myocardial Infarction by ECG Finding", "submissionValue": "ACUTE ANTERIOR WALL MYOCARDIAL INFARCTION", "synonyms": ["Acute Anterior MI", "Acute Anterior Wall Myocardial Infarction"]}, {"conceptId": "C102591", "definition": "An electrocardiographic finding of pathologic Q waves with accompanying ST elevation in leads V3 through V6, which is suggestive of acute myocardial infarction of the anterolateral wall of the left ventricle.", "preferredTerm": "Acute Anterolateral Myocardial Infarction by ECG Finding", "submissionValue": "ACUTE ANTEROLATERAL WALL MYOCARDIAL INFARCTION", "synonyms": ["Acute Anterolateral Wall Myocardial Infarction"]}, {"conceptId": "C102592", "definition": "An electrocardiographic finding of pathologic Q waves with accompanying ST elevation in leads V1 through V4, which is suggestive of acute myocardial infarction of the anteroseptal wall of the left ventricle.", "preferredTerm": "Acute Anteroseptal Myocardial Infarction by ECG Finding", "submissionValue": "ACUTE ANTEROSEPTAL WALL MYOCARDIAL INFARCTION", "synonyms": ["Acute Anteroseptal Wall Myocardial Infarction", "Acute anteroseptal MI"]}, {"conceptId": "C106496", "definition": "An electrocardiographic finding of pathologic Q waves with accompanying ST elevation in leads V1 to V6, I and aVL, which is suggestive of acute myocardial infarction involving the anterior and anterolateral walls of the left ventricle.", "preferredTerm": "Acute Extensive Anterior Wall Myocardial Infarction by ECG Finding", "submissionValue": "ACUTE EXTENSIVE ANTERIOR WALL MYOCARDIAL INFARCTION"}, {"conceptId": "C102593", "definition": "An electrocardiographic finding of pathologic Q waves with accompanying ST elevation in leads I and aVL, which is suggestive of acute myocardial infarction of the high lateral wall of the left ventricle.", "preferredTerm": "Acute High Lateral Myocardial Infarction by ECG Finding", "submissionValue": "ACUTE HIGH LATERAL WALL MYOCARDIAL INFARCTION", "synonyms": ["Acute High Lateral Wall Myocardial Infarction"]}, {"conceptId": "C71066", "definition": "An electrocardiographic finding of pathologic Q waves with accompanying ST elevation in leads III, aVF and often II, which is suggestive of acute myocardial infarction of the inferior wall of the left ventricle.", "preferredTerm": "Acute Inferior Myocardial Infarction by ECG Finding", "submissionValue": "ACUTE INFERIOR WALL MYOCARDIAL INFARCTION", "synonyms": ["Acute Inferior MI", "Acute Inferior Wall Myocardial Infarction"]}, {"conceptId": "C71067", "definition": "An electrocardiographic finding of pathologic Q waves with accompanying ST elevation in leads V5, V6, I and aVL, which is suggestive of acute myocardial infarction of the lateral wall of the left ventricle.", "preferredTerm": "Acute Lateral Myocardial Infarction by ECG Finding", "submissionValue": "ACUTE LATERAL WALL MYOCARDIAL INFARCTION", "synonyms": ["Acute Lateral MI", "Acute Lateral Wall Myocardial Infarction"]}, {"conceptId": "C101596", "definition": "An electrocardiographic finding showing a current of injury with ST elevation. No specification is provided for localization.", "preferredTerm": "Acute Myocardial Infarction by ECG Finding", "submissionValue": "ACUTE MYOCARDIAL INFARCTION", "synonyms": ["Acute Myocardial Infarction"]}, {"conceptId": "C71068", "definition": "An electrocardiographic finding in leads V1 or V2 of an initial R wave duration greater than or equal to 40 ms, R wave greater than S wave, upright T wave, with accompanying ST elevation, which is suggestive of acute myocardial infarction of the posterior wall of the left ventricle. Evidence of inferior or lateral myocardial infarction is usually also present.", "preferredTerm": "Acute Posterior Myocardial Infarction by ECG Finding", "submissionValue": "ACUTE POSTERIOR WALL MYOCARDIAL INFARCTION", "synonyms": ["Acute Posterior MI", "Acute Posterior Wall Myocardial Infarction"]}, {"conceptId": "C102594", "definition": "An electrocardiographic finding in leads V1 or V2 of an initial R wave duration greater than or equal to 40 ms, R wave greater than S wave, upright T wave, with accompanying ST elevation, which is suggestive of acute myocardial infarction of the ventricular wall of the left ventricle. Evidence of inferior or lateral myocardial infarction is usually also present. Additional criteria include ST elevation > 100 microvolts in the right precordial leads V4R through V6R.", "preferredTerm": "Acute Right Ventricular Myocardial Infarction by ECG Finding", "submissionValue": "ACUTE RIGHT VENTRICULAR WALL MYOCARDIAL INFARCTION", "synonyms": ["Acute Right Ventricular Wall Myocardial Infarction", "Acute Right ventricular MI"]}, {"conceptId": "C102595", "definition": "An electrocardiographic finding of pathologic Q waves with accompanying ST elevation in leads V1, V2 and often V3, which is suggestive of acute myocardial infarction of the intraventricular septum.", "preferredTerm": "Acute Septal Myocardial Infarction by ECG Finding", "submissionValue": "ACUTE SEPTAL WALL MYOCARDIAL INFARCTION", "synonyms": ["Acute Septal Wall Myocardial Infarction"]}, {"conceptId": "C102642", "definition": "An electrocardiographic finding of intermittent failure of atrial electrical impulse conduction to the ventricles, characterized by two or more consecutive non-conducted P waves.", "preferredTerm": "High Grade Atrioventricular Block by ECG Finding", "submissionValue": "ADVANCED/HIGH GRADE AV BLOCK", "synonyms": ["Advanced/High Grade AV Block"]}, {"conceptId": "C114159", "definition": "An electrocardiographic recording in which all precordial electrodes are disconnected resulting in missing waveforms (flat line) of all leads V1 - V6.", "preferredTerm": "All Precordial Electrodes Are Disconnected by ECG Finding", "submissionValue": "ALL PRECORDIAL ELECTRODES DISCONNECTED"}, {"conceptId": "C71069", "definition": "An electrocardiographic finding of pathologic Q waves in leads V3 and V4, which is suggestive of myocardial infarction of the anterior wall of the left ventricle.", "preferredTerm": "Anterior Myocardial Infarction by ECG Finding", "submissionValue": "ANTERIOR WALL MYOCARDIAL INFARCTION", "synonyms": ["Anterior MI", "Anterior Wall Myocardial Infarction"]}, {"conceptId": "C35303", "definition": "An electrocardiographic finding of pathologic Q waves in leads V3 through V6, which is suggestive of myocardial infarction of the anterolateral wall of the left ventricle.", "preferredTerm": "Anterolateral Myocardial Infarction by ECG Finding", "submissionValue": "ANTEROLATERAL WALL MYOCARDIAL INFARCTION", "synonyms": ["Anterolateral Wall Myocardial Infarction"]}, {"conceptId": "C35304", "definition": "An electrocardiographic finding of pathologic Q waves in leads V1 through V4, which is suggestive of myocardial infarction of the anteroseptal wall of the left ventricle.", "preferredTerm": "Anteroseptal Myocardial Infarction by ECG Finding", "submissionValue": "ANTEROSEPTAL WALL MYOCARDIAL INFARCTION", "synonyms": ["Anteroseptal MI", "Anteroseptal Wall Myocardial Infarction"]}, {"conceptId": "C114162", "definition": "An electrocardiographic recording in which one or more leads display extraneous signals which do not represent cardiac electrical activity.", "preferredTerm": "Artifact Lead Signal by ECG Finding", "submissionValue": "ARTIFACT"}, {"conceptId": "C116130", "definition": "An electrocardiographic finding showing no cardiac electrical activity on the ECG for the entire duration of the recording.", "preferredTerm": "Asystole by ECG Finding", "submissionValue": "ASYSTOLE"}, {"conceptId": "C102596", "definition": "An electrocardiographic finding of a sinus beat followed by a premature atrial complex for three or more consecutive cycles; a regularly irregular rhythm of normal and abnormal P waves in a 1-1 ratio.", "preferredTerm": "Atrial Bigeminy by ECG Finding", "submissionValue": "ATRIAL BIGEMINY"}, {"conceptId": "C102597", "definition": "An electrocardiographic finding in which two premature atrial complexes occur sequentially.", "preferredTerm": "Atrial Couplet by ECG Finding", "submissionValue": "ATRIAL COUPLETS", "synonyms": ["Atrial Couplets"]}, {"conceptId": "C71039", "definition": "An electrocardiographic finding which comprises left, right or bilateral atrial enlargement. This is may be characterized by prolonged P wave duration, increased P wave amplitude, or multi-component P waves.", "preferredTerm": "Atrial Enlargement by ECG Finding", "submissionValue": "ATRIAL ENLARGEMENT", "synonyms": ["Atrial Enlargement"]}, {"conceptId": "C111092", "definition": "An electrocardiographic finding of a supraventricular arrhythmia characterized by the replacement of consistent P waves by rapid oscillations or fibrillatory waves that vary in size, shape and timing and are accompanied by an irregularly irregular ventricular response.", "preferredTerm": "Atrial Fibrillation by ECG Finding", "submissionValue": "ATRIAL FIBRILLATION", "synonyms": ["Atrial fibrillation"]}, {"conceptId": "C111094", "definition": "An electrocardiographic finding of an organized, regular atrial rhythm with atrial rate of 240-340 beats per minute. Multiple P waves typically appear in the inferior leads in a saw tooth like pattern between the QRS complexes.", "preferredTerm": "Atrial Flutter by ECG Finding", "submissionValue": "ATRIAL FLUTTER", "synonyms": ["Atrial flutter"]}, {"conceptId": "C111105", "definition": "An electrocardiographic finding of an organized, regular atrial rhythm with atrial rate between 101 and 240 beats per minute. The P wave morphology must be distinct from the sinus P wave morphology.", "preferredTerm": "Atrial Tachycardia by ECG Finding", "submissionValue": "ATRIAL TACHYCARDIA", "synonyms": ["Atrial tachycardia"]}, {"conceptId": "C119249", "definition": "An electrocardiographic finding of an atrial tachycardia which does not display 1:1 AV conduction.", "preferredTerm": "Atrial Tachycardia With AV Block by ECG Finding", "submissionValue": "ATRIAL TACHYCARDIA WITH AV BLOCK"}, {"conceptId": "C102598", "definition": "An electrocardiographic finding of two sinus beats followed by a premature atrial complex for 3 or more consecutive cycles; a regularly irregular rhythm of normal and abnormal P waves in a 2-1 ratio.", "preferredTerm": "Atrial Trigeminy by ECG Finding", "submissionValue": "ATRIAL TRIGEMINY", "synonyms": ["Atrial Trigeminy"]}, {"conceptId": "C71045", "definition": "An electrocardiographic finding in which the electrical activity of the atria and ventricles are independent of one another.", "preferredTerm": "Atrioventricular Dissociation by ECG Finding", "submissionValue": "ATRIOVENTRICULAR DISSOCIATION", "synonyms": ["AV Dissociation", "Atrioventricular dissociation"]}, {"conceptId": "C111089", "definition": "An electrocardiographic finding of intermittent failure of atrial electrical impulse conduction to the ventricles, characterized by a progressively lengthening PR interval prior to the block of an atrial impulse.", "preferredTerm": "AV Block Second Degree Mobitz Type I by ECG Finding", "submissionValue": "AV MOBITZ I", "synonyms": ["AV Mobitz I", "Mobitz I Second Degree AV Block", "Second degree AV block- Mobitz type I", "Second-degree AV block, Mobitz type I (Wenckebach)", "Type 1 2nd degree AV Block", "Wenckebach"]}, {"conceptId": "C111090", "definition": "An electrocardiographic finding of intermittent failure of atrial electrical impulse conduction to the ventricles, characterized by a relatively constant PR interval prior to the block of an atrial impulse.", "preferredTerm": "AV Block Second Degree Mobitz Type II by ECG Finding", "submissionValue": "AV MOBITZ II", "synonyms": ["Mobitz II AV Block", "Mobitz II Second Degree AV Block", "Type 2 2nd degree AV Block"]}, {"conceptId": "C35058", "definition": "An electrocardiographic finding of a regular supraventricular tachycardia due to reentry within the AV node. It is characterized by P waves which typically occurs nearly simultaneously with the QRS complex, resulting in a P wave which is obscured by the QRS, merged with the QRS or which may follow the QRS.", "preferredTerm": "Atrioventricular Nodal Reentry Tachycardia by ECG Finding", "submissionValue": "AV NODE RE-ENTRY", "synonyms": ["AV Node Reentrant Supraventricular Tachycardia"]}, {"conceptId": "C62261", "definition": "An electrocardiographic finding of a regular supraventricular tachycardia which utilizes an atrioventricular bypass tract as its retrograde limb (orthodromic tachycardia) or as its antegrade limb (antidromic tachycardia). QRS complexes during sinus rhythm may show preexcitation. During orthodromic tachycardia the preexcitation is not present and a retrograde P wave may appear after the QRS complex. During antidromic tachycardia the QRS complex is preexcited.", "preferredTerm": "Atrioventricular Reentrant Tachycardia by ECG Finding", "submissionValue": "AV RE-ENTRANT TACHYCARDIA", "synonyms": ["AV Reentrant Supraventricular Tachycardia"]}, {"conceptId": "C114147", "definition": "An electrocardiographic recording in which the isoelectric line in one or more leads is vertically displaced resulting in low frequency upward and downward movements of the signal with varying amplitudes.", "preferredTerm": "Baseline Wander by ECG Finding", "submissionValue": "BASELINE WANDER"}, {"conceptId": "C71046", "definition": "An electrocardiographic finding comprising right bundle branch block and left anterior fascicular block, or right bundle branch block and left posterior fascicular block. Defects occurring in two of the three divisions of the conduction system of the heart are considered bifascicular blocks. Technically left bundle branch block may be considered a bifascicular block. (NCI)", "preferredTerm": "Bifascicular Block by ECG Finding", "submissionValue": "BIFASCICULAR BLOCK", "synonyms": ["Bifascicular block"]}, {"conceptId": "C106502", "definition": "An electrocardiographic finding suggestive of enlargement or thickening of both ventricles, with a combination of findings which are related to LVH and RVH, such as voltage criteria for LVH in the presence of marked right axis deviation.", "preferredTerm": "Biventricular Hypertrophy by ECG Finding", "submissionValue": "BIVENTRICULAR HYPERTROPHY"}, {"conceptId": "C92228", "definition": "An electrocardiographic finding in which the QT interval corrected for heart rate using Bazett's formula is slightly prolonged. Thresholds for different age, gender, and patient populations exist.", "preferredTerm": "Borderline QTcB", "submissionValue": "BORDERLINE QTCB", "synonyms": ["Borderline QTcB"]}, {"conceptId": "C92229", "definition": "An electrocardiographic finding in which the QT interval corrected for heart rate using Fridericia's formula is slightly prolonged. Thresholds for different age, gender, and patient populations exist.", "preferredTerm": "Borderline QTcF", "submissionValue": "BORDERLINE QTCF", "synonyms": ["Borderline QTcF"]}, {"conceptId": "C111120", "definition": "An electrocardiographic finding of abnormally slow heart rate. Thresholds for different age, gender, and patient populations exist.", "preferredTerm": "Bradycardia by ECG Finding", "submissionValue": "BRADYCARDIA", "synonyms": ["Bradycardia"]}, {"conceptId": "C106503", "definition": "An electrocardiographic finding of complete or incomplete right bundle branch block accompanied by ST elevation in leads V1-V3. This may be noted at rest or can be provoked by medication challenge.", "preferredTerm": "Brugada Syndrome Pattern by ECG Finding", "submissionValue": "BRUGADA SYNDROME PATTERN"}, {"conceptId": "C116138", "definition": "An electrocardiographic finding, in the absence of left ventricular hypertrophy (LVH) and left bundle branch block pattern on ECG, of either a) new (or presumed new) ST elevation at the J point in two contiguous leads with the following cut-points: >=0.1 mV in all leads other than leads V2-V3 where the following cut points apply: >=0.2 mV in men >=40 years; >=0.25 mV in men <40 years, or >=0.15 mV in women; or b) new (or presumed new) horizontal or down-sloping ST depression >=0.05 mV in two contiguous leads and/or T inversion >=0.1 mV in two contiguous leads with prominent R wave or R/S ratio >1. (Thygesen K, Alpert JS, Jaffe AS, et al.: the Writing Group on behalf of the Joint ESC/ACCF/AHA/WHF Task Force for the Universal Definition of Myocardial Infarction. J Am Coll Cardiol 60(16):1-18, 2012)", "preferredTerm": "ACC/AHA Ischemic ECG Changes", "submissionValue": "CV ENDPOINTS ISCHEMIC ECG CHANGES"}, {"conceptId": "C62258", "definition": "An electrocardiographic finding of initial slurring (delta wave) of the QRS complex due to the presence of an accessory pathway. This characteristic ECG pattern is typically seen in Wolff-Parkinson-White syndrome.", "preferredTerm": "Delta Wave by ECG Finding", "submissionValue": "DELTA WAVE", "synonyms": ["Delta wave"]}, {"conceptId": "C102623", "definition": "An electrocardiographic finding suggestive of dextrocardia with situs inversus, characterized by reversal of normal anterior R wave progression and the appearance of reversal of the right and left arm electrodes.", "preferredTerm": "Dextrocardia by ECG Finding", "submissionValue": "DEXTROCARDIA", "synonyms": ["Dextrocardia"]}, {"conceptId": "C102628", "definition": "An electrocardiographic finding where the amplitude of the R wave becomes greater than the amplitude of the S wave in the QRS complex at an unusually early point in the precordial leads, usually in leads V1 or V2.", "preferredTerm": "Early R Wave Transition by ECG Finding", "submissionValue": "EARLY R WAVE TRANSITION", "synonyms": ["Early R Wave Progression", "Early R Wave Transition"]}, {"conceptId": "C102629", "definition": "An electrocardiographic finding of J point and ST segment elevation in the absence of other signs of acute ischemia or pericarditis.", "preferredTerm": "Early Repolarization", "submissionValue": "EARLY REPOLARIZATION", "synonyms": ["Early Repolarization"]}, {"conceptId": "C114175", "definition": "An electrocardiographic recording in which the precordial electrodes have been placed over the right chest and record a right sided ECG.", "preferredTerm": "ECG Acquired with Precordial Electrodes Placed on the Right Chest", "submissionValue": "ECG ACQUIRED WITH PRECORDIAL ELECTRODES PLACED ON RIGHT CHEST"}, {"conceptId": "C114181", "definition": "A digital electrocardiographic recording which is corrupted (i.e. ECG signal cannot be restored) such that measurements and/or interpretation cannot be performed.", "preferredTerm": "ECG Evaluation Not Performed Due to Corrupted Digital ECG File", "submissionValue": "ECG EVALUATION NOT PERFORMED DUE TO CORRUPTED DIGITAL ECG FILE"}, {"conceptId": "C114180", "definition": "A printed electrocardiographic recording with poor printout quality (e.g. a faded paper ECG tracing or ECG with inconsistent printing speed) such that measurements and/or interpretation cannot be performed.", "preferredTerm": "ECG Evaluation Not Performed Due to Poor Quality of Printed ECG", "submissionValue": "ECG EVALUATION NOT PERFORMED DUE TO POOR QUALITY OF PRINTED ECG"}, {"conceptId": "C114178", "definition": "An electrocardiographic recording in which measurements and/or interpretation are not performed because the ECG amplitude gain and/or recording speed are not known.", "preferredTerm": "ECG Evaluation Not Performed Due to Unknown ECG Amplitude Gain or Recording Speed", "submissionValue": "ECG EVALUATION NOT PERFORMED DUE TO UNKNOWN ECG AMPLITUDE GAIN OR RECORDING SPEED"}, {"conceptId": "C62245", "definition": "An electrocardiographic finding of a regular atrial rhythm with atrial rate of less than 101 beats per minute which does not originate in the sinus node, and which is characterized by P waves whose morphology differs from the P wave morphology during sinus rhythm.", "preferredTerm": "Ectopic Atrial Rhythm by ECG Finding", "submissionValue": "ECTOPIC ATRIAL RHYTHM", "synonyms": ["Ectopic atrial rhythm"]}, {"conceptId": "C71042", "definition": "An electrocardiographic finding of three or more consecutive complexes of ventricular origin. The QRS complexes are wide and have an abnormal morphology.", "preferredTerm": "Ectopic Ventricular Rhythm by ECG Finding", "submissionValue": "ECTOPIC VENTRICULAR RHYTHM", "synonyms": ["Ectopic ventricular rhythm"]}, {"conceptId": "C71035", "definition": "An electrocardiographic finding in which there is an alternating pattern of any of the waveform components. (NCI)", "preferredTerm": "Electrical Alternans by ECG Finding", "submissionValue": "ELECTRICAL ALTERNANS", "synonyms": ["Electrical alternans"]}, {"conceptId": "C106520", "definition": "An electrocardiographic finding of pathologic Q waves in leads V1 to V6, I and aVL, which is suggestive of myocardial infarction involving the anterior and anterolateral walls of the left ventricle.", "preferredTerm": "Extensive Anterior Wall Myocardial Infarction by ECG Finding", "submissionValue": "EXTENSIVE ANTERIOR WALL MYOCARDIAL INFARCTION"}, {"conceptId": "C102639", "definition": "An electrocardiographic finding that occurs when electrical activation of the atria or ventricles occurs from two separate sites. This results in a P wave or QRS complex that displays merged characteristics of beats originating from the two different sites.", "preferredTerm": "Fusion Complex", "submissionValue": "FUSION COMPLEX", "synonyms": ["Fusion Complex", "Fusion complex(es)"]}, {"conceptId": "C102643", "definition": "An electrocardiographic finding of pathologic Q waves in leads I and aVL, which is suggestive of myocardial infarction of the high lateral wall of the left ventricle.", "preferredTerm": "High Lateral Myocardial Infarction by ECG Finding", "submissionValue": "HIGH LATERAL WALL MYOCARDIAL INFARCTION", "synonyms": ["High Lateral Wall Myocardial Infarction"]}, {"conceptId": "C50599", "definition": "An electrocardiographic finding of three or more consecutive complexes of ventricular origin with a rate less than a certain threshold (100 or 120 beats per minute are commonly used). The QRS complexes are wide and have an abnormal morphology.", "preferredTerm": "Idioventricular Rhythm", "submissionValue": "IDIOVENTRICULAR RHYTHM", "synonyms": ["Idioventricular Rhythm"]}, {"conceptId": "C114167", "definition": "An electrocardiographic recording which is limited in duration or which does not display all of the expected leads.", "preferredTerm": "Incomplete ECG", "submissionValue": "INCOMPLETE ECG"}, {"conceptId": "C71047", "definition": "An electrocardiographic finding of a wide QRS complex with evidence of delayed conduction to the left ventricle, manifest as a widened initial portion of the QRS complex in leads V5, V6, I and aVL and with QRS duration less than 120 ms.", "preferredTerm": "Incomplete Left Bundle Branch Block by ECG Finding", "submissionValue": "INCOMPLETE LEFT BUNDLE BRANCH BLOCK", "synonyms": ["Incomplete left bundle branch block"]}, {"conceptId": "C114179", "definition": "An electrocardiographic recording in which measurements (particularly of QRS amplitudes) and/or interpretations are not performed because QRS complexes have been truncated.", "preferredTerm": "Incomplete ECG Measurements Due to Truncation of QRS Complexes", "submissionValue": "INCOMPLETE MEASUREMENTS DUE TO TRUNCATION OF QRS COMPLEXES"}, {"conceptId": "C71048", "definition": "An electrocardiographic finding of a wide QRS complex with evidence of delayed conduction to the right ventricle, manifest by a widened initial portion of the QRS in V1 and V2, a widened S wave in V5, V6, I and aVL, and with QRS duration less than 120 ms.", "preferredTerm": "Incomplete Right Bundle Branch Block by ECG Finding", "submissionValue": "INCOMPLETE RIGHT BUNDLE BRANCH BLOCK", "synonyms": ["Incomplete right bundle branch block", "Incomplete right bundle-branch block"]}, {"conceptId": "C114169", "definition": "A digital electrocardiographic recording which was digitized from paper ECG tracings and which does not contain all leads present on the original paper printout.", "preferredTerm": "Incompletely Digitized ECG Leads", "submissionValue": "INCOMPLETELY DIGITIZED ECG LEAD(S)"}, {"conceptId": "C114168", "definition": "An electrocardiographic recording in which the ECG signal is not displayed at the indicated recording speed and/or amplitude resolution.", "preferredTerm": "Incorrectly Scaled ECG", "submissionValue": "INCORRECTLY SCALED ECG"}, {"conceptId": "C102701", "definition": "An electrocardiographic finding in which the frontal plane QRS axis cannot be calculated.", "preferredTerm": "QRS Axis Indeterminate", "submissionValue": "INDETERMINATE QRS AXIS", "synonyms": ["Indeterminate Axis", "Indeterminate QRS Axis", "QRS Axis Indeterminate"]}, {"conceptId": "C35398", "definition": "An electrocardiographic finding of pathologic Q waves in leads III, aVF and often II, which is suggestive of myocardial infarction of the inferior wall of the left ventricle.", "preferredTerm": "Inferior Myocardial Infarction by ECG Finding", "submissionValue": "INFERIOR WALL MYOCARDIAL INFARCTION", "synonyms": ["Inferior MI", "Inferior Wall Myocardial Infarction"]}, {"conceptId": "C114177", "definition": "An electrocardiographic recording in which fewer than the required number of cardiac complexes are available for measurement and/or interpretation due to a shorter than planned recording or due to cardiac complexes which are present but are not suitable for measurement and/or interpretation.", "preferredTerm": "Insufficient Number of Beats for Complete ECG Evaluation", "submissionValue": "INSUFFICENT NUMBER OF BEATS TO COMPLETELY EVALUATE ECG"}, {"conceptId": "C71073", "definition": "An electrocardiographic finding of a delay in impulse propagation through the atria. This is characterized by broad P waves which are often biphasic in V1.", "preferredTerm": "Intra-Atrial Conduction Delay by ECG Finding", "submissionValue": "INTRAATRIAL CONDUCTION DELAY", "synonyms": ["Intraatrial Conduction Delay"]}, {"conceptId": "C62271", "definition": "An electrocardiographic finding of a widened QRS duration typically greater than 110 ms which does not meet the morphologic criteria for any of the standard bundle branch or fascicular block patterns.", "preferredTerm": "Nonspecific Intraventricular Conduction Delay by ECG Finding", "submissionValue": "INTRAVENTRICULAR CONDUCTION DELAY, NONSPECIFIC", "synonyms": ["Intraventricular Conduction Defect", "Intraventricular conduction delay"]}, {"conceptId": "C114171", "definition": "An electrocardiographic recording for which the displayed leads do not represent the individual's true ECG lead information.", "preferredTerm": "Invalid ECG Waveforms", "submissionValue": "INVALID ECG WAVEFORMS"}, {"conceptId": "C62248", "definition": "An electrocardiographic finding of a type of atrioventricular dissociation characterized by the atria (P waves) and ventricles (QRS complexes) beating at similar rates, although independently.", "preferredTerm": "Isorhythmic Atrioventricular Dissociation", "submissionValue": "ISORHYTHMIC DISSOCIATION", "synonyms": ["Isorhythmic dissociation"]}, {"conceptId": "C71030", "definition": "An electrocardiographic finding of a significant elevation above the baseline of the J point.", "preferredTerm": "J Point Elevation", "submissionValue": "J POINT ELEVATION", "synonyms": ["J point elevation"]}, {"conceptId": "C71074", "definition": "An electrocardiographic finding of a junctional rhythm with a heat rate which is abnormally low.", "preferredTerm": "Junctional Bradycardia by ECG Finding", "submissionValue": "JUNCTIONAL BRADYCARDIA", "synonyms": ["Junctional bradycardia"]}, {"conceptId": "C116129", "definition": "An electrocardiographic finding of an escape beat following a pause which originates in the AV junction. This is manifest as a QRS complex of supraventricular origin not preceded by a P wave.", "preferredTerm": "Junctional Escape Complexes by ECG Finding", "submissionValue": "JUNCTIONAL ESCAPE COMPLEXES", "synonyms": ["Junctional Escape Beats"]}, {"conceptId": "C102652", "definition": "An electrocardiographic finding of an ectopic impulse originating in the AV junction presenting as a QRS complex of supraventricular origin which is not preceded by a P wave.", "preferredTerm": "Junctional Premature Complex by ECG Finding", "submissionValue": "JUNCTIONAL PREMATURE COMPLEX", "synonyms": ["Junctional Extra Beat", "Junctional Premature Complex", "Junctional premature complex(es)"]}, {"conceptId": "C71051", "definition": "An electrocardiographic finding of a rhythm which originates in the AV junction and results in a normal heart rate. It is characterized by retrograde P waves which may be obscured by or may follow the QRS complexes. The QRS complexes may be narrow or may demonstrate aberration.", "preferredTerm": "Junctional Rhythm by ECG Finding", "submissionValue": "JUNCTIONAL RHYTHM", "synonyms": ["Junctional rhythm"]}, {"conceptId": "C35059", "definition": "An electrocardiographic finding of a junctional rhythm with a heart rate which is abnormally elevated.", "preferredTerm": "Junctional Tachycardia by ECG Finding", "submissionValue": "JUNCTIONAL TACHYCARDIA", "synonyms": ["Junctional tachycardia"]}, {"conceptId": "C102653", "definition": "An electrocardiographic finding where the amplitude of the R wave does not become greater than the amplitude of the S wave until an unusually late point in the precordial leads, usually in leads V4 to V6.", "preferredTerm": "Late R Wave Transition by ECG Finding", "submissionValue": "LATE R WAVE TRANSITION", "synonyms": ["Late R Wave Transition"]}, {"conceptId": "C35586", "definition": "An electrocardiographic finding of pathologic Q waves in leads V5, V6, I and aVL, which is suggestive of myocardial infarction of the lateral wall of the left ventricle.", "preferredTerm": "Lateral Myocardial Infarction by ECG Finding", "submissionValue": "LATERAL WALL MYOCARDIAL INFARCTION", "synonyms": ["Lateral MI", "Lateral Wall Myocardial Infarction"]}, {"conceptId": "C62267", "definition": "An electrocardiographic finding of a slightly widened QRS duration (typically less than 120 ms) with leftward frontal plane QRS axis and typically small Q waves in leads I and aVL.", "preferredTerm": "Left Anterior Fascicular Block by ECG Finding", "submissionValue": "LEFT ANTERIOR FASCICULAR BLOCK", "synonyms": ["Left Anterior Hemiblock", "Left anterior fascicular block"]}, {"conceptId": "C71040", "definition": "An electrocardiographic finding suggesting underlying hypertrophy or dilatation of the left atrium. Electrocardiographic criteria used for the diagnosis of left atrial abnormality may include a bifid p wave, a biphasic p wave and/or a p wave duration of greater than 0.12 seconds. (NCI)", "preferredTerm": "P-mitrale by ECG Finding", "submissionValue": "LEFT ATRIAL ABNORMALITY", "synonyms": ["Left Atrial Enlargement", "P-mitrale"]}, {"conceptId": "C62269", "definition": "An electrocardiographic finding of a wide QRS complex with evidence of delayed conduction to the left ventricle, manifest as a widened initial portion of the QRS complex in leads V5, V6, I and aVL and with QRS duration greater than or equal to 120 ms.", "preferredTerm": "Left Bundle Branch Block by ECG Finding", "submissionValue": "LEFT BUNDLE BRANCH BLOCK", "synonyms": ["Complete LBBB", "Left bundle branch block", "Left bundle-branch block"]}, {"conceptId": "C62268", "definition": "An electrocardiographic finding of an S1Q3 pattern and QRS axis greater than or equal to 120 degrees. It is usually seen in association with other abnormalities (e.g. RBBB or RVH).", "preferredTerm": "Left Posterior Fascicular Block by ECG Finding", "submissionValue": "LEFT POSTERIOR FASCICULAR BLOCK", "synonyms": ["Left Posterior Hemiblock", "Left posterior fascicular block"]}, {"conceptId": "C92231", "definition": "An electrocardiographic finding in which there is evidence that electrical transmission through the left ventricle is impaired.", "preferredTerm": "Left Ventricular Conduction Delay by ECG Finding", "submissionValue": "LEFT VENTRICULAR CONDUCTION DELAY", "synonyms": ["Left Ventricular Conduction Delay"]}, {"conceptId": "C71076", "definition": "An electrocardiographic finding suggestive of a hypertrophied left ventricle, characterized by large QRS amplitudes and secondary findings of left atrial enlargement, left axis deviation, or typical pattern of ST depression and T wave inversion.", "preferredTerm": "Left Ventricular Hypertrophy by ECG Finding", "submissionValue": "LEFT VENTRICULAR HYPERTROPHY", "synonyms": ["Left Ventricular Hypertrophy"]}, {"conceptId": "C102655", "definition": "An electrocardiographic finding suggestive of a hypertrophied left ventricle, characterized by large QRS amplitudes, ST depression and T wave inversion.", "preferredTerm": "Left Ventricular Hypertrophy with Strain by ECG Finding", "submissionValue": "LEFT VENTRICULAR HYPERTROPHY WITH STRAIN", "synonyms": ["Left Ventricular Hypertrophy With Strain"]}, {"conceptId": "C114151", "definition": "An electrocardiographic recording in which one or more of the limb electrodes are disconnected resulting in missing waveforms (often flat lines) of the respective leads.", "preferredTerm": "Disconnected Limb Electrodes by ECG Finding", "submissionValue": "LIMB ELECTRODE(S) DISCONNECTED"}, {"conceptId": "C114150", "definition": "An electrocardiographic recording in which two or more of the limb electrodes are switched resulting in improper representation of the affected leads.", "preferredTerm": "Interchanged Limb Electrodes by ECG Finding", "submissionValue": "LIMB ELECTRODES INTERCHANGED", "synonyms": ["Limb Lead Reversal"]}, {"conceptId": "C114166", "definition": "An electrocardiographic recording showing smaller than usual QRS complexes in one or more leads. This may represent a technical issue with the ECG acquisition or characteristics of the individual.", "preferredTerm": "Low Amplitude QRS Complex by ECG Finding", "submissionValue": "LOW AMPLITUDE SIGNAL", "synonyms": ["Low Amplitude QRS Complex"]}, {"conceptId": "C71078", "definition": "An electrocardiographic finding of a QRS amplitude less than or equal to 0.5 mV in the limb leads or QRS amplitude less than or equal to 1 mV in the precordial leads.", "preferredTerm": "Low QRS Voltage by ECG Finding", "submissionValue": "LOW QRS VOLTAGE", "synonyms": ["Low QRS voltage"]}, {"conceptId": "C116133", "definition": "An electrocardiographic finding of small QRS amplitudes (less than 500 microvolts) in all limb leads.", "preferredTerm": "Low Voltage in Limb Leads Only by ECG Finding", "submissionValue": "LOW VOLTAGE - LIMB LEADS ONLY"}, {"conceptId": "C71050", "definition": "An electrocardiographic finding of a supraventricular arrhythmia characterized by 3 or more distinct P wave morphologies with an isoelectric baseline, variable PR intervals and no predominant atrial rhythm. The ventricular rate is typically 100-150 beats per minute.", "preferredTerm": "Multifocal Atrial Tachycardia by ECG Finding", "submissionValue": "MULTIFOCAL ATRIAL TACHYCARDIA", "synonyms": ["Multifocal atrial tachycardia"]}, {"conceptId": "C114148", "definition": "An electrocardiographic recording with intermittent mid to high frequency artifact in one or more leads due to muscular tremor or movement rather than cardiac activity.", "preferredTerm": "Muscle Tremor Artifact", "submissionValue": "MUSCLE TREMOR"}, {"conceptId": "C101589", "definition": "An electrocardiographic finding of pathologic Q waves, which is suggestive of myocardial infarction of one or more regions of the heart. No specification is provided for localization.", "preferredTerm": "Myocardial Infarction by ECG Finding", "submissionValue": "MYOCARDIAL INFARCTION", "synonyms": ["Myocardial Infarction"]}, {"conceptId": "C102732", "definition": "An electrocardiographic finding of pathologic Q waves in leads V3 and V4, which is suggestive of myocardial infarction of the anterior wall of the left ventricle and which is new compared to prior ECGs.", "preferredTerm": "New Anterior Myocardial Infarction by ECG Finding", "submissionValue": "NEW ANTERIOR WALL MYOCARDIAL INFARCTION", "synonyms": ["New Anterior MI", "New Anterior Wall Myocardial Infarction"]}, {"conceptId": "C102733", "definition": "An electrocardiographic finding of pathologic Q waves in leads V3 through V6, which is suggestive of myocardial infarction of the anterolateral wall of the left ventricle and which is new compared to prior ECGs.", "preferredTerm": "New Anterolateral Myocardial Infarction by ECG Finding", "submissionValue": "NEW ANTEROLATERAL WALL MYOCARDIAL INFARCTION", "synonyms": ["New Anterolateral Wall Myocardial Infarction"]}, {"conceptId": "C102734", "definition": "An electrocardiographic finding of pathologic Q waves in leads V1 through V4, which is suggestive of myocardial infarction of the anteroseptal wall of the left ventricle and which is new compared to prior ECGs.", "preferredTerm": "New Anteroseptal Myocardial Infarction by ECG Finding", "submissionValue": "NEW ANTEROSEPTAL WALL MYOCARDIAL INFARCTION", "synonyms": ["New Anteroseptal Wall Myocardial Infarction"]}, {"conceptId": "C102735", "definition": "An electrocardiographic finding of pathologic Q waves in leads V1 to V6, I and aVL, which is suggestive of myocardial infarction involving the anterior and anterolateral walls of the left ventricle and which is new compared to prior ECGs.", "preferredTerm": "New Extensive Anterior Myocardial Infarction by ECG Finding", "submissionValue": "NEW EXTENSIVE ANTERIOR WALL MYOCARDIAL INFARCTION", "synonyms": ["New Extensive Anterior Wall Myocardial Infarction"]}, {"conceptId": "C102736", "definition": "An electrocardiographic finding of pathologic Q waves in leads I and aVL, which is suggestive of myocardial infarction of the high lateral wall of the left ventricle and which is new compared to prior ECGs.", "preferredTerm": "New High Lateral Myocardial Infarction by ECG Finding", "submissionValue": "NEW HIGH LATERAL WALL MYOCARDIAL INFARCTION", "synonyms": ["New High Lateral Wall Myocardial Infarction"]}, {"conceptId": "C102737", "definition": "An electrocardiographic finding of pathologic Q waves in leads III, aVF and often II, which is suggestive of myocardial infarction of the inferior wall of the left ventricle and which is new compared to prior ECGs.", "preferredTerm": "New Inferior Myocardial Infarction by ECG Finding", "submissionValue": "NEW INFERIOR WALL MYOCARDIAL INFARCTION", "synonyms": ["New Inferior Wall Myocardial Infarction"]}, {"conceptId": "C102738", "definition": "An electrocardiographic finding of pathologic Q waves in leads V5, V6, I and aVL, which is suggestive of myocardial infarction of the lateral wall of the left ventricle and which is new compared to prior ECGs.", "preferredTerm": "New Lateral Myocardial Infarction by ECG Finding", "submissionValue": "NEW LATERAL WALL MYOCARDIAL INFARCTION", "synonyms": ["New Lateral Wall Myocardial Infarction"]}, {"conceptId": "C102731", "definition": "An electrocardiographic finding of pathologic Q waves, which is suggestive of myocardial infarction of one or more regions of the heart and which is new compared to prior ECGs. No specification is provided for localization.", "preferredTerm": "New Myocardial Infarction by ECG Finding", "submissionValue": "NEW MYOCARDIAL INFARCTION", "synonyms": ["New Myocardial Infarction"]}, {"conceptId": "C106548", "definition": "An electrocardiographic finding in leads V1 or V2 of an initial R wave duration greater than or equal to 40 ms, R wave greater than S wave, and upright T wave, which is suggestive of myocardial infarction of the posterior wall of the left ventricle, and which is new compared to prior ECGs. Evidence of inferior or lateral myocardial infarction is usually also present.", "preferredTerm": "New Posterior Wall Myocardial Infarction by ECG Finding", "submissionValue": "NEW POSTERIOR WALL MYOCARDIAL INFARCTION"}, {"conceptId": "C102739", "definition": "An electrocardiographic finding of pathologic Q waves in leads V1, V2 and often V3, which is suggestive of myocardial infarction of the intraventricular septum and which is new compared to prior ECGs.", "preferredTerm": "New Septal Myocardial Infarction by ECG Finding", "submissionValue": "NEW SEPTAL WALL MYOCARDIAL INFARCTION", "synonyms": ["New Septal Wall Myocardial Infarction"]}, {"conceptId": "C114163", "definition": "An electrocardiographic recording that displays flat lines (no waveforms are visible) in all leads present.", "preferredTerm": "ECG Waveforms Not Present", "submissionValue": "NO ECG WAVEFORMS PRESENT"}, {"conceptId": "C71080", "definition": "An electrocardiographic finding of ST and T wave abnormalities in the absence of pathologic Q waves, which is suggestive of myocardial infarction in one or more regions of the heart.", "preferredTerm": "Non Q Wave Myocardial Infarction by ECG Finding", "submissionValue": "NON Q WAVE MYOCARDIAL INFARCTION", "synonyms": ["Non Q Wave Myocardial Infarction"]}, {"conceptId": "C116134", "definition": "An electrocardiographic finding of Q waves which are insufficient for the diagnosis of myocardial infarction. In such cases a myocardial infarction may be suspected, even though ECG criteria are not met.", "preferredTerm": "Non-Diagnostic Q Waves by ECG Finding", "submissionValue": "NON-DIAGNOSTIC Q WAVES"}, {"conceptId": "C71031", "definition": "An electrocardiographic finding of changes in the ST segment and T wave that do not meet criteria for ischemia or infarction. (NCI)", "preferredTerm": "Non-Specific ST-T Changes by ECG Finding", "submissionValue": "NON-SPECIFIC ST-T CHANGES", "synonyms": ["Non-specific ST-T changes"]}, {"conceptId": "C102680", "definition": "An electrocardiographic finding of an atrial tachycardia which terminates in less than 30 seconds.", "preferredTerm": "Non-Sustained Atrial Tachycardia by ECG Finding", "submissionValue": "NON-SUSTAINED ATRIAL TACHYCARDIA", "synonyms": ["Non-Sustained Atrial Tachycardia"]}, {"conceptId": "C71053", "definition": "An electrocardiographic finding of ventricular tachycardia less than 30 seconds in duration. (NCI)", "preferredTerm": "Non-Sustained Ventricular Tachycardia by ECG Finding", "submissionValue": "NON-SUSTAINED VENTRICULAR TACHYCARDIA", "synonyms": ["Non-sustained ventricular tachycardia", "Ventricular tachycardia, unsustained"]}, {"conceptId": "C102681", "definition": "An electrocardiographic finding of an atrial rhythm which originates from the sinoatrial node that is considered normal for the population. There are no extra beats or conduction abnormalities.", "preferredTerm": "Normal Sinus Rhythm", "submissionValue": "NORMAL SINUS RHYTHM", "synonyms": ["Normal Sinus Rhythm"]}, {"conceptId": "C102634", "definition": "An electrocardiographic finding of a frontal plane QRS axis from -90 to +180 degrees.", "preferredTerm": "Extreme Right Axis Deviation", "submissionValue": "NORTHWEST AXIS", "synonyms": ["Northwest Axis", "Right superior axis"]}, {"conceptId": "C71032", "definition": "An electrocardiographic finding of an irregular, u or v shaped deflection within the contour of the T wave.", "preferredTerm": "T Wave Notched by ECG Finding", "submissionValue": "NOTCHED T WAVES", "synonyms": ["Notched T Waves"]}, {"conceptId": "C102684", "definition": "An electrocardiographic finding of pathologic Q waves in leads V3 and V4, which is suggestive of myocardial infarction of the anterior wall of the left ventricle, without evidence of current or ongoing acute infarction.", "preferredTerm": "Old or Age Indeterminate Anterior Myocardial Infarction by ECG Finding", "submissionValue": "OLD OR AGE INDETERMINATE ANTERIOR WALL MYOCARDIAL INFARCTION", "synonyms": ["Old Or Age Indeterminate Anterior Wall Myocardial Infarction"]}, {"conceptId": "C102685", "definition": "An electrocardiographic finding of pathologic Q waves in leads V3 through V6, which is suggestive of myocardial infarction of the anterolateral wall of the left ventricle, without evidence of current or ongoing acute infarction.", "preferredTerm": "Old or Age Indeterminate Anterolateral Myocardial Infarction by ECG Finding", "submissionValue": "OLD OR AGE INDETERMINATE ANTEROLATERAL WALL MYOCARDIAL INFARCTION", "synonyms": ["Old Or Age Indeterminate Anterolateral Wall Myocardial Infarction"]}, {"conceptId": "C102686", "definition": "An electrocardiographic finding of pathologic Q waves in leads V1 through V4, which is suggestive of myocardial infarction of the anteroseptal wall of the left ventricle, without evidence of current or ongoing acute infarction.", "preferredTerm": "Old or Age Indeterminate Anteroseptal Myocardial Infarction by ECG Finding", "submissionValue": "OLD OR AGE INDETERMINATE ANTEROSEPTAL WALL MYOCARDIAL INFARCTION", "synonyms": ["Old Or Age Indeterminate Anteroseptal Wall Myocardial Infarction"]}, {"conceptId": "C102687", "definition": "An electrocardiographic finding of pathologic Q waves in leads V1 to V6, I and aVL, which is suggestive of myocardial infarction involving the anterior and anterolateral walls of the left ventricle, without evidence of current or ongoing acute infarction.", "preferredTerm": "Old or Age Indeterminate Extensive Anterior Myocardial Infarction by ECG Finding", "submissionValue": "OLD OR AGE INDETERMINATE EXTENSIVE ANTERIOR WALL MYOCARDIAL INFARCTION", "synonyms": ["Old Or Age Indeterminate Extensive Anterior Wall Myocardial Infarction"]}, {"conceptId": "C102688", "definition": "An electrocardiographic finding of pathologic Q waves in leads I and aVL, which is suggestive of myocardial infarction of the high lateral wall of the left ventricle, without evidence of current or ongoing acute infarction.", "preferredTerm": "Old or Age Indeterminate High Lateral Myocardial Infarction by ECG Finding", "submissionValue": "OLD OR AGE INDETERMINATE HIGH LATERAL WALL MYOCARDIAL INFARCTION", "synonyms": ["Old Or Age Indeterminate High Lateral Wall Myocardial Infarction"]}, {"conceptId": "C102689", "definition": "An electrocardiographic finding of pathologic Q waves in leads III, aVF and often II, which is suggestive of myocardial infarction of the inferior wall of the left ventricle, without evidence of current or ongoing acute infarction.", "preferredTerm": "Old or Age Indeterminate Inferior Myocardial Infarction by ECG Finding", "submissionValue": "OLD OR AGE INDETERMINATE INFERIOR WALL MYOCARDIAL INFARCTION", "synonyms": ["Old Or Age Indeterminate Inferior Wall Myocardial Infarction"]}, {"conceptId": "C102690", "definition": "An electrocardiographic finding of pathologic Q waves in leads V5, V6, I and aVL, which is suggestive of myocardial infarction of the lateral wall of the left ventricle, without evidence of current or ongoing acute infarction.", "preferredTerm": "Old or Age Indeterminate Lateral Myocardial Infarction by ECG Finding", "submissionValue": "OLD OR AGE INDETERMINATE LATERAL WALL MYOCARDIAL INFARCTION", "synonyms": ["Old Or Age Indeterminate Lateral Wall Myocardial Infarction"]}, {"conceptId": "C102691", "definition": "An electrocardiographic finding in leads V1 or V2 of an initial R wave duration greater than or equal to 40 ms, R wave greater than S wave, and upright T wave, which is suggestive of myocardial infarction of the posterior wall of the left ventricle, without evidence of current or ongoing acute infarction. Evidence of inferior or lateral myocardial infarction is usually also present.", "preferredTerm": "Old or Age Indeterminate Posterior Myocardial Infarction by ECG Finding", "submissionValue": "OLD OR AGE INDETERMINATE POSTERIOR WALL MYOCARDIAL INFARCTION", "synonyms": ["Old Or Age Indeterminate Posterior Wall Myocardial Infarction"]}, {"conceptId": "C102693", "definition": "An electrocardiographic finding of pathologic Q waves in leads V1, V2 and often V3, which is suggestive of myocardial infarction of the intraventricular septum, without evidence of current or ongoing acute infarction.", "preferredTerm": "Old or Age Indeterminate Septal Myocardial Infarction by ECG Finding", "submissionValue": "OLD OR AGE INDETERMINATE SEPTAL WALL MYOCARDIAL INFARCTION", "synonyms": ["Old Or Age Indeterminate Septal Wall Myocardial Infarction"]}, {"conceptId": "C101597", "definition": "An electrocardiographic finding of pathologic Q waves, which is suggestive of myocardial infarction of one or more regions of the heart, without evidence of current or ongoing acute infarction. No specification is provided for localization.", "preferredTerm": "Old Myocardial Infarction by ECG Finding", "submissionValue": "OLD OR AGE INDETERMINATE WALL MYOCARDIAL INFARCTION", "synonyms": ["Old Or Age Indeterminate Wall Myocardial Infarction"]}, {"conceptId": "C102692", "definition": "An electrocardiographic finding, in the presence of an old or age indeterminate inferior wall myocardial infarction, of Q waves greater than or equal to 40 ms in duration in the right ventricular leads V4R through V6R.", "preferredTerm": "Old or Age Indeterminate Right Ventricular Myocardial Infarction by ECG Finding", "submissionValue": "OLD OR AGE UNDETERMINED RIGHT VENTRICULAR MYOCARDIAL INFARCTION"}, {"conceptId": "C114176", "definition": "An electrocardiographic recording in which one or more electrodes are incorrectly placed but further details are not provided.", "preferredTerm": "Other Incorrect Electrode Placement", "submissionValue": "OTHER INCORRECT ELECTRODE PLACEMENT"}, {"conceptId": "C90430", "definition": "An electrocardiographic finding for the P wave that is atypical either for the shape, duration, amplitude, axis or polarity. Abnormality of the P wave signifies aberrant propagation of the electrical impulse through the atria. (NCI)", "preferredTerm": "P Wave Abnormality by ECG Finding", "submissionValue": "P WAVE ABNORMALITY", "synonyms": ["P Wave Abnormality"]}, {"conceptId": "C90431", "definition": "An electrocardiographic finding of P waves with two peaks longer in duration than normal and amplitude greater than normal.", "preferredTerm": "P Wave Notched by ECG Finding", "submissionValue": "P WAVE NOTCHED", "synonyms": ["P Wave Notched"]}, {"conceptId": "C92232", "definition": "An electrocardiographic finding in which both the atrial and ventricular rhythm are controlled by an electrical impulse from an artificial cardiac pacemaker.", "preferredTerm": "Paced Atrial And Ventricular Rhythm", "submissionValue": "PACED ATRIAL AND VENTRICULAR RHYTHM", "synonyms": ["AV dual-paced complex(es) or rhythm", "Paced Atrial And Ventricular Rhythm"]}, {"conceptId": "C92233", "definition": "An electrocardiographic finding in which the atrial rhythm is controlled by an electrical impulse from an artificial cardiac pacemaker.", "preferredTerm": "Paced Atrial Rhythm", "submissionValue": "PACED ATRIAL RHYTHM", "synonyms": ["Atrial-paced complex(es) or rhythm", "Paced Atrial Rhythm"]}, {"conceptId": "C88140", "definition": "An electrocardiographic finding in which the cardiac rhythm is controlled by an electrical impulse from an artificial cardiac pacemaker.", "preferredTerm": "Paced Rhythm", "submissionValue": "PACED RHYTHM", "synonyms": ["Atrial and/or Ventricular Paced Rhythm", "Paced Rhythm"]}, {"conceptId": "C92234", "definition": "An electrocardiographic finding in which the ventricular rhythm is controlled by an electrical impulse from an artificial cardiac pacemaker.", "preferredTerm": "Paced Ventricular Rhythm", "submissionValue": "PACED VENTRICULAR RHYTHM", "synonyms": ["Paced Ventricular Rhythm", "Ventricular-paced complex(es) or rhythm"]}, {"conceptId": "C62250", "definition": "An electrocardiographic finding of the sudden onset of transient AV block, which is often associated with preexisting conduction disorders.", "preferredTerm": "Paroxysmal Atrioventricular Block by ECG Finding", "submissionValue": "PAROXYSMAL AV BLOCK", "synonyms": ["Paroxysmal AV block"]}, {"conceptId": "C34902", "definition": "An episodic form of ventricular tachycardia, with abrupt onset and termination. (NCI)", "preferredTerm": "Paroxysmal Ventricular Tachycardia by ECG Finding", "submissionValue": "PAROXYSMAL VENTRICULAR TACHYCARDIA", "synonyms": ["Paroxysmal Ventricular Tachycardia"]}, {"conceptId": "C119250", "definition": "An electrocardiographic finding of an RR interval which exceeds a predefined duration threshold, regardless of the underlying rhythm.", "preferredTerm": "Pause by ECG Finding", "submissionValue": "PAUSE"}, {"conceptId": "C119251", "definition": "An electrocardiographic finding of an RR interval with duration greater than 3.0 seconds, regardless of the underlying rhythm.", "preferredTerm": "Pause Greater Than Three Seconds by ECG Finding", "submissionValue": "PAUSE GREATER THAN 3.0 SECONDS"}, {"conceptId": "C114172", "definition": "An electrocardiographic recording that does not show proper quality for reasons that are not otherwise described.", "preferredTerm": "Poor Quality ECG", "submissionValue": "POOR QUALITY ECG"}, {"conceptId": "C71033", "definition": "An electrocardiographic finding of a lack of progression of R wave height across precordial leads.", "preferredTerm": "Poor R Wave Progression by ECG Finding", "submissionValue": "POOR R WAVE PROGRESSION", "synonyms": ["Poor R Wave Progression"]}, {"conceptId": "C35399", "definition": "An electrocardiographic finding in leads V1 or V2 of an initial R wave duration greater than or equal to 40 ms, R wave greater than S wave, and upright T wave, which is suggestive of myocardial infarction of the posterior wall of the left ventricle. Evidence of inferior or lateral myocardial infarction is usually also present.", "preferredTerm": "Posterior Myocardial Infarction by ECG Finding", "submissionValue": "POSTERIOR WALL MYOCARDIAL INFARCTION", "synonyms": ["Posterior MI", "Posterior Wall Myocardial Infarction"]}, {"conceptId": "C116135", "definition": "An electrocardiographic finding of PR segment depression below the iso-electric line in multiple precordial and/or limb leads.", "preferredTerm": "PR Segment Depression by ECG Finding", "submissionValue": "PR SEGMENT DEPRESSION", "synonyms": ["PR Depression"]}, {"conceptId": "C34940", "definition": "An electrocardiographic finding characterized by a premature activation of the whole or some part of the ventricle. The PR interval is usually shortened and delta waves are frequently present.", "preferredTerm": "Pre-Excitation Syndrome", "submissionValue": "PRE-EXCITATION", "synonyms": ["Pre-excitation", "Ventricular preexcitation"]}, {"conceptId": "C114153", "definition": "An electrocardiographic recording in which the electrode for lead V1 is disconnected resulting in missing waveforms (flat line) for lead V1.", "preferredTerm": "Disconnected Precordial Electrode V1 by ECG Finding", "submissionValue": "PRECORDIAL ELECTRODE V1 DISCONNECTED"}, {"conceptId": "C114154", "definition": "An electrocardiographic recording in which the electrode for lead V2 is disconnected resulting in missing waveforms (flat line) for lead V2.", "preferredTerm": "Disconnected Precordial Electrode V2 by ECG Finding", "submissionValue": "PRECORDIAL ELECTRODE V2 DISCONNECTED"}, {"conceptId": "C114155", "definition": "An electrocardiographic recording in which the electrode for lead V3 is disconnected resulting in missing waveforms (flat line) for lead V3.", "preferredTerm": "Disconnected Precordial Electrode V3 by ECG Finding", "submissionValue": "PRECORDIAL ELECTRODE V3 DISCONNECTED"}, {"conceptId": "C114156", "definition": "An electrocardiographic recording in which the electrode for lead V4 is disconnected resulting in missing waveforms (flat line) for lead V4.", "preferredTerm": "Disconnected Precordial Electrode V4 by ECG Finding", "submissionValue": "PRECORDIAL ELECTRODE V4 DISCONNECTED"}, {"conceptId": "C114157", "definition": "An electrocardiographic recording in which the electrode for lead V5 is disconnected resulting in missing waveforms (flat line) for lead V5.", "preferredTerm": "Disconnected Precordial Electrode V5 by ECG Finding", "submissionValue": "PRECORDIAL ELECTRODE V5 DISCONNECTED"}, {"conceptId": "C114158", "definition": "An electrocardiographic recording in which the electrode for lead V6 is disconnected resulting in missing waveforms (flat line) for lead V6.", "preferredTerm": "Disconnected Precordial Electrode V6 by ECG Finding", "submissionValue": "PRECORDIAL ELECTRODE V6 DISCONNECTED"}, {"conceptId": "C114160", "definition": "An electrocardiographic recording in which one or more precordial electrodes are placed incorrectly with respect to the standard chest electrode positions resulting in improper representation of the affected leads.", "preferredTerm": "Incorrectly Positioned Precordial Electrodes by ECG Finding", "submissionValue": "PRECORDIAL ELECTRODE(S) POSITIONED INCORRECTLY"}, {"conceptId": "C114152", "definition": "An electrocardiographic recording in which two or more of the precordial electrodes are switched resulting in improper representation of the affected leads.", "preferredTerm": "Interchanged Precordial Electrodes by ECG Finding", "submissionValue": "PRECORDIAL ELECTRODES INTERCHANGED", "synonyms": ["Precordial Lead Reversal"]}, {"conceptId": "C62257", "definition": "An electrocardiographic finding of an ectopic impulse originating in the atria and not specifically in the sinus node. The P wave morphology of these complexes is often different from a sinus P wave and the RR intervals preceding these complexes is also shorter than those of the regular beats.", "preferredTerm": "Atrial Premature Complex by ECG Finding", "submissionValue": "PREMATURE ATRIAL COMPLEXES", "synonyms": ["APC", "Atrial premature complex(es)", "PAC", "Premature atrial complex", "SVE", "Supraventricular Extra Beat"]}, {"conceptId": "C102603", "definition": "An electrocardiographic finding of premature atrial complexes which are not conducted to the ventricle, and which are not followed by a QRS complex.", "preferredTerm": "Blocked Atrial Premature Complex by ECG Finding", "submissionValue": "PREMATURE ATRIAL COMPLEXES BLOCKED", "synonyms": ["Atrial premature complexes, nonconducted", "Non-conducted SVE", "Premature Atrial Complexes Blocked", "Premature Atrial Complexes Non-conducted"]}, {"conceptId": "C102672", "definition": "An electrocardiographic finding of premature atrial complexes which have 2 or more distinct morphologies, suggesting origin at more than one atrial site.", "preferredTerm": "Multifocal Atrial Premature Complex by ECG Finding", "submissionValue": "PREMATURE ATRIAL COMPLEXES MULTIFOCAL", "synonyms": ["Multifocal SVE", "Multifocal Supraventricular Extra Beats", "Premature Atrial Complexes Multiform"]}, {"conceptId": "C102724", "definition": "An electrocardiographic finding of premature atrial complexes which have a single distinct morphology, suggesting origin at one atrial site.", "preferredTerm": "Unifocal Atrial Premature Complex by ECG Finding", "submissionValue": "PREMATURE ATRIAL COMPLEXES UNIFOCAL", "synonyms": ["Premature Atrial Complexes Unifocal"]}, {"conceptId": "C62256", "definition": "An electrocardiographic finding of an ectopic impulse originating in the ventricles. The QRS morphology of these complexes is different from those of supraventricular origin. The QRS duration is often longer and the RR interval preceding the complexes is usually shorter than that of supraventricular beats.", "preferredTerm": "Ventricular Premature Complex by ECG Finding", "submissionValue": "PREMATURE VENTRICULAR COMPLEX", "synonyms": ["PVC", "VE", "VPC", "Ventricular Extra Beat", "Ventricular premature complex(es)"]}, {"conceptId": "C107100", "definition": "An electrocardiographic finding of a premature ventricular complex which occurs between two normal QRS complexes which have normal timing.", "preferredTerm": "Interpolated Premature Ventricular Complex by ECG Finding", "submissionValue": "PREMATURE VENTRICULAR COMPLEX INTERPOLATED", "synonyms": ["Interpolated VE", "Interpolated VPC", "Interpolated Ventricular Extra Beat", "Premature Ventricular Complexes Interpolated"]}, {"conceptId": "C102673", "definition": "An electrocardiographic finding of premature ventricular complexes which have two or more distinct morphologies, suggesting origin at more than one ventricular site.", "preferredTerm": "Multifocal Ventricular Premature Complex by ECG Finding", "submissionValue": "PREMATURE VENTRICULAR COMPLEXES MULTIFOCAL", "synonyms": ["Multifocal VES", "Multifocal VPCS", "Multifocal Ventricular Extra Beats", "Premature Ventricular Complexes Multifocal"]}, {"conceptId": "C102725", "definition": "An electrocardiographic finding of premature ventricular complexes which have a single distinct morphology, suggesting origin at one ventricular site.", "preferredTerm": "Unifocal Ventricular Premature Complex by ECG Finding", "submissionValue": "PREMATURE VENTRICULAR COMPLEXES UNIFOCAL", "synonyms": ["Premature Ventricular Complexes Unifocal", "Unifocal VES", "Unifocal VPCS", "Unifocal Ventricular Extra Beats"]}, {"conceptId": "C71034", "definition": "An electrocardiographic finding in which the QT interval not corrected for heart rate is prolonged. Thresholds for different age, gender, and patient populations exist.", "preferredTerm": "Prolonged QT Interval by ECG Finding", "submissionValue": "PROLONGED QT", "synonyms": ["Prolonged QT", "Prolonged QT interval"]}, {"conceptId": "C116137", "definition": "An electrocardiographic finding of a prolonged ST segment, resulting in a long QT interval, without lengthening of the T wave duration.", "preferredTerm": "Prolonged ST Segment by ECG Finding", "submissionValue": "PROLONGED ST SEGMENT"}, {"conceptId": "C71094", "definition": "An electrocardiographic finding of a frontal plane QRS axis from -30 to -90 degrees.", "preferredTerm": "Q Axis Left Axis Deviation", "submissionValue": "Q AXIS, LEFT AXIS DEVIATION", "synonyms": ["Left-axis deviation", "Q Axis, Left axis deviation", "QRS axis, left axis deviation"]}, {"conceptId": "C71095", "definition": "An electrocardiographic finding of a frontal plane QRS axis from +90 to +180 degrees.", "preferredTerm": "Q Axis Right Axis Deviation", "submissionValue": "Q AXIS, RIGHT AXIS DEVIATION", "synonyms": ["Q Axis, Right axis deviation", "QRS axis, right axis deviation", "Right-axis deviation"]}, {"conceptId": "C90440", "definition": "An electrocardiographic finding of a non-specific abnormality of the QRS complex, which is atypical in shape, duration, amplitude, axis or polarity.", "preferredTerm": "QRS Complex Abnormality by ECG Finding", "submissionValue": "QRS COMPLEX ABNORMALITY", "synonyms": ["QRS Complex Abnormality"]}, {"conceptId": "C83817", "definition": "An electrocardiographic finding in which the QTc interval corrected for heart rate is prolonged. Thresholds for different age, gender, and patient populations exist.", "preferredTerm": "Corrected Prolonged QT Interval by ECG Finding", "submissionValue": "QTC PROLONGATION", "synonyms": ["QTc Prolongation"]}, {"conceptId": "C107098", "definition": "An electrocardiographic finding in which the QT interval corrected for heart rate using Bazett's formula is prolonged. Thresholds for different age, gender, and patient populations exist.", "preferredTerm": "QTcB Prolongation", "submissionValue": "QTCB PROLONGATION", "synonyms": ["PROLONGED QTcB"]}, {"conceptId": "C107099", "definition": "An electrocardiographic finding in which the QT interval corrected for heart rate using Fridericia's formula is prolonged. Thresholds for different age, gender, and patient populations exist.", "preferredTerm": "QTcF Prolongation", "submissionValue": "QTCF PROLONGATION", "synonyms": ["PROLONGED QTcF"]}, {"conceptId": "C114161", "definition": "An electrocardiographic artifact or recording error with unknown origin or which is not described otherwise.", "preferredTerm": "Quality Problem Not Otherwise Specified by ECG Finding", "submissionValue": "QUALITY PROBLEM NOT OTHERWISE SPECIFIED", "synonyms": ["Unknown Quality Problem"]}, {"conceptId": "C61395", "definition": "An electrocardiographic finding in which the R wave of a premature ventricular complex occurs on top of the T wave of the preceding beat.", "preferredTerm": "R On T Phenomenon by ECG Finding", "submissionValue": "R ON T PHENOMENON", "synonyms": ["R on T phenomenon"]}, {"conceptId": "C90444", "definition": "An electrocardiographic finding of an R wave variant in which there is a small deflection of the R wave, with changing polarity, within the QRS complex. (NCI)", "preferredTerm": "R Wave Notched by ECG Finding", "submissionValue": "R WAVE NOTCHED", "synonyms": ["R Wave Notched"]}, {"conceptId": "C102574", "definition": "An electrocardiographic finding of an abnormality of T wave duration or morphology or of early repolarization.", "preferredTerm": "Ventricular Repolarization Abnormality", "submissionValue": "REPOLARIZATION ABNORMALITY", "synonyms": ["Repolarization Abnormality"]}, {"conceptId": "C102706", "definition": "An electrocardiographic finding of ST depression and T wave inversion in the presence of increased QRS amplitude which are thought to be due to left ventricular hypertrophy.", "preferredTerm": "Repolarization Abnormality Secondary To Ventricular Hypertrophy", "submissionValue": "REPOLARIZATION ABNORMALITY SECONDARY TO VENTRICULAR HYPERTROPHY", "synonyms": ["Repolarization Abnormality Secondary To Ventricular Hypertrophy", "ST-T change due to ventricular hypertrophy"]}, {"conceptId": "C71041", "definition": "An electrocardiographic finding suggesting underlying hypertrophy or dilatation of the right atrium. Electrocardiographic criteria used for the diagnosis of right atrial abnormality may include a peaked p wave greater than 2.5 millimeters in amplitude in the inferior leads. (NCI)", "preferredTerm": "P-pulmonale by ECG Finding", "submissionValue": "RIGHT ATRIAL ABNORMALITY", "synonyms": ["P-pulmonale", "Right Atrial Enlargement"]}, {"conceptId": "C62270", "definition": "An electrocardiographic finding of a wide QRS complex with evidence of delayed conduction to the right ventricle, manifest by a widened initial portion of the QRS in V1 and V2, a widened S wave in V5, V6, I and aVL, and with QRS duration greater than or equal to 120 ms. An RsR' complex is typically present in leads V1 and V2.", "preferredTerm": "Right Bundle Branch Block by ECG Finding", "submissionValue": "RIGHT BUNDLE BRANCH BLOCK", "synonyms": ["Complete RBBB", "Right bundle branch block", "Right bundle-branch block"]}, {"conceptId": "C92235", "definition": "An electrocardiographic finding in which there is evidence that electrical transmission through the right ventricle is impaired with a maximal QRS duration of 110 ms and which does not meet the criteria for Incomplete Right Bundle Branch Block.", "preferredTerm": "Right Ventricular Conduction Delay by ECG Finding", "submissionValue": "RIGHT VENTRICULAR CONDUCTION DELAY", "synonyms": ["Right Ventricular Conduction Delay", "Right Ventricular Delay"]}, {"conceptId": "C71077", "definition": "An electrocardiographic finding suggestive of a hypertrophied right ventricle, characterized by large R wave amplitudes in the right precordial leads and secondary findings of right atrial enlargement, right axis deviation, and typical pattern of ST depression and T wave inversion in the right precordial leads.", "preferredTerm": "Right Ventricular Hypertrophy by ECG Finding", "submissionValue": "RIGHT VENTRICULAR HYPERTROPHY", "synonyms": ["Right ventricular Hypertrophy"]}, {"conceptId": "C92227", "definition": "An electrocardiographic finding in which there are two R waves, which are two deflections above the baseline resulting from a single ventricular depolarization. The first upward deflection in the complex is the R wave. The S is the first downward deflection. A second upward deflection is called the R-prime wave.", "preferredTerm": "RSR' by ECG Finding", "submissionValue": "RSR PRIME", "synonyms": ["RSR'"]}, {"conceptId": "C35519", "definition": "An electrocardiographic finding suggesting an infarction in the anatomic location of the cardiac septum. (NCI)", "preferredTerm": "Septal Myocardial Infarction by ECG Finding", "submissionValue": "SEPTAL MYOCARDIAL INFARCTION", "synonyms": ["Septal myocardial infarction"]}, {"conceptId": "C62246", "definition": "An electrocardiographic finding of an abnormally short PR interval. Thresholds for different age, gender, and patient populations exist.", "preferredTerm": "Short PR Interval by ECG Finding", "submissionValue": "SHORT PR INTERVAL", "synonyms": ["Short PR interval"]}, {"conceptId": "C102709", "definition": "An electrocardiographic finding of a QT interval corrected for heart rate that is shorter than the lower limit of normal. Thresholds for different age, gender, and patient populations exist.", "preferredTerm": "Short QTc Interval", "submissionValue": "SHORT QTC INTERVAL", "synonyms": ["Short QTc Interval"]}, {"conceptId": "C112402", "definition": "An electrocardiographic finding in which the QT interval corrected for heart rate using Bazett's formula is shortened. Thresholds for different age, gender, and patient populations exist.", "preferredTerm": "QTcB Shortened", "submissionValue": "SHORT QTCB"}, {"conceptId": "C112403", "definition": "An electrocardiographic finding in which the QT interval corrected for heart rate using Fridericia's formula is shortened. Thresholds for different age, gender, and patient populations exist.", "preferredTerm": "QTcF Shortened", "submissionValue": "SHORT QTCF"}, {"conceptId": "C116136", "definition": "An electrocardiographic finding of a short or absent ST segment, resulting in a short QT interval, without changes in T wave morphology.", "preferredTerm": "Short ST Segment by ECG Finding", "submissionValue": "SHORT ST SEGMENT"}, {"conceptId": "C50553", "definition": "An electrocardiographic finding in which impaired conduction or automaticity within the sinus node results in the failure of impulse transmission from the sinoatrial node. This is manifest as dropped P waves during sinus rhythm.", "preferredTerm": "Exit Block by ECG Finding", "submissionValue": "SINOATRIAL EXIT BLOCK", "synonyms": ["SA Block", "Sinoatrial Block", "Sinoatrial exit block"]}, {"conceptId": "C62242", "definition": "An electrocardiographic finding in which a failure of impulse formation or conduction in the sinus node produces prolongation of the P-P interval or dropped P waves. The threshold for the prolongation of the P-P interval is not well defined.", "preferredTerm": "Sinus Arrest by ECG Finding", "submissionValue": "SINUS ARREST/PAUSE", "synonyms": ["Sinus arrest/pause", "Sinus pause or arrest"]}, {"conceptId": "C62239", "definition": "An electrocardiographic finding in which the sinus rate fluctuates with the respiratory cycle.", "preferredTerm": "Sinus Arrhythmia by ECG Finding", "submissionValue": "SINUS ARRHYTHMIA", "synonyms": ["Respiratory Sinus Arrhythmia", "Sinus arrhythmia"]}, {"conceptId": "C111097", "definition": "An electrocardiographic finding of abnormally slow heart rate with its origin in the sinus node. Thresholds for different age, gender, and patient populations exist.", "preferredTerm": "Sinus Bradycardia by ECG Finding", "submissionValue": "SINUS BRADYCARDIA", "synonyms": ["Sinus bradycardia"]}, {"conceptId": "C100076", "definition": "An electrocardiographic finding of an atrial rhythm which originates from the sinoatrial node that is considered normal for the population.", "preferredTerm": "Sinus Rhythm", "submissionValue": "SINUS RHYTHM", "synonyms": ["Sinus Rhythm"]}, {"conceptId": "C111104", "definition": "An electrocardiographic finding of abnormally rapid heart rate with its origin in the sinus node. Thresholds for different age, gender, and patient populations exist.", "preferredTerm": "Sinus Tachycardia by ECG Finding", "submissionValue": "SINUS TACHYCARDIA", "synonyms": ["Sinus tachycardia"]}, {"conceptId": "C41330", "definition": "An electrocardiographic finding of ST segment depression below the baseline, often described as up sloping, down sloping or horizontal. (NCI)", "preferredTerm": "ST Segment Depression by ECG Finding", "submissionValue": "ST DEPRESSION", "synonyms": ["ST depression"]}, {"conceptId": "C50540", "definition": "An electrocardiographic finding of ST segment elevation above the baseline. (NCI)", "preferredTerm": "ST Segment Elevation by ECG Finding", "submissionValue": "ST ELEVATION", "synonyms": ["ST elevation"]}, {"conceptId": "C71029", "definition": "An electrocardiographic finding of ST elevation which is concave upwards, and which is often accompanied by PR segment depression.", "preferredTerm": "ST Elevation Pericarditis by ECG Finding", "submissionValue": "ST ELEVATION PERICARDITIS", "synonyms": ["ST elevation pericarditis"]}, {"conceptId": "C119252", "definition": "An electrocardiographic finding in which two premature atrial complexes occur sequentially.", "preferredTerm": "Supraventricular Couplet by ECG Finding", "submissionValue": "SUPRAVENTRICULAR COUPLET"}, {"conceptId": "C111100", "definition": "An electrocardiographic finding of a tachycardia which does not originate in the ventricles or His Purkinje system. There is an abnormally high heart rate and QRS complexes are typically narrow, but aberration or preexcitation may be present.", "preferredTerm": "Supraventricular Tachycardia by ECG Finding", "submissionValue": "SUPRAVENTRICULAR TACHYCARDIA", "synonyms": ["Supraventricular tachycardia"]}, {"conceptId": "C114173", "definition": "An electrocardiographic recording in which an interchange of one or more limb lead electrodes is suspected, but for which an interpretation is performed as though the lead placement is correct.", "preferredTerm": "Suspicion of Limb Electrodes Reversal But Interpretation Assumes No Reversal by ECG Finding", "submissionValue": "SUSPECT LIMB ELECTRODES REVERSED, INTERPRETATION ASSUMES NO REVERSAL"}, {"conceptId": "C114174", "definition": "An electrocardiographic recording in which an interchange of one or more limb lead electrodes is suspected, and for which an interpretation is performed as though the leads have in fact been interchanged.", "preferredTerm": "Suspicion of Limb Electrodes Reversal But Interpretation Assumes Reversal by ECG Finding", "submissionValue": "SUSPECT LIMB ELECTRODES REVERSED, INTERPRETATION ASSUMES REVERSAL"}, {"conceptId": "C71052", "definition": "An electrocardiographic finding of ventricular tachycardia greater than 30 seconds in duration. (NCI)", "preferredTerm": "Sustained Ventricular Tachycardia by ECG Finding", "submissionValue": "SUSTAINED VENTRICULAR TACHYCARDIA", "synonyms": ["Sustained ventricular tachycardia"]}, {"conceptId": "C102718", "definition": "An electrocardiographic finding in which there are variations in the shape, amplitude, or direction of the T wave from one beat to the next.", "preferredTerm": "T Wave Alternans by ECG Finding", "submissionValue": "T WAVE ALTERNANS", "synonyms": ["T Wave Alternans"]}, {"conceptId": "C71085", "definition": "An electrocardiographic finding of an inversion of the T wave from the expected axis. (NCI)", "preferredTerm": "T Wave Inversion by ECG Finding", "submissionValue": "T WAVE INVERSION", "synonyms": ["T Wave Inversion"]}, {"conceptId": "C71086", "definition": "An electrocardiographic finding in which the T wave appears increased in amplitude and cresting at a point. (NCI)", "preferredTerm": "T Wave Peaked by ECG Finding", "submissionValue": "T WAVE PEAKED", "synonyms": ["T wave peaked"]}, {"conceptId": "C71087", "definition": "An electrocardiographic finding of a T wave with both positive and negative components.", "preferredTerm": "T Waves Biphasic by ECG Finding", "submissionValue": "T WAVES BIPHASIC", "synonyms": ["T waves biphasic"]}, {"conceptId": "C71088", "definition": "An electrocardiographic finding in which the T wave appears decreased in amplitude. (NCI)", "preferredTerm": "T Waves Flat by ECG Finding", "submissionValue": "T WAVES FLAT", "synonyms": ["T waves flat"]}, {"conceptId": "C111121", "definition": "An electrocardiographic finding of abnormally rapid heart rate. Thresholds for different age, gender, and patient populations exist.", "preferredTerm": "Tachycardia by ECG Finding", "submissionValue": "TACHYCARDIA", "synonyms": ["Tachycardia"]}, {"conceptId": "C50779", "definition": "An electrocardiographic finding of an atypical rapid polymorphic ventricular tachycardia with a characteristic rotation of the QRS complex around the isoelectric baseline, occurring in the setting of a prolonged QT interval. In addition, the QRS complex displays a periodic waxing and waning of amplitude on the electrogram.", "preferredTerm": "Torsades De Pointes by ECG Finding", "submissionValue": "TORSADES DE POINTES", "synonyms": ["Torsades de pointes", "Ventricular tachycardia, torsades de pointes"]}, {"conceptId": "C106579", "definition": "An electrocardiographic finding of U waves which have increased amplitude, are inverted, or merged with the preceding T wave.", "preferredTerm": "U Wave Abnormality by ECG Finding", "submissionValue": "U WAVE ABNORMALITY", "synonyms": ["Abnormal U Wave"]}, {"conceptId": "C114170", "definition": "A statement indicating the inability to digitize a paper ECG.", "preferredTerm": "Inability to Digitize ECG Leads", "submissionValue": "UNABLE TO DIGITIZE ECG LEADS"}, {"conceptId": "C116131", "definition": "An electrocardiographic finding of a cardiac rhythm whose mechanism cannot be determined from the ECG.", "preferredTerm": "Undetermined Rhythm by ECG Finding", "submissionValue": "UNDETERMINED RHYTHM"}, {"conceptId": "C120607", "definition": "An electrocardiographic finding of a rhythm which does not originate in the ventricles or His Purkinje system, but whose specific electrophysiologic mechanism cannot be determined from the ECG. The QRS complexes are typically narrow, but aberration or preexcitation may be present.", "preferredTerm": "Undetermined Supraventricular Rhythm by ECG Finding", "submissionValue": "UNDETERMINED SUPRAVENTRICULAR RHYTHM"}, {"conceptId": "C71054", "definition": "An electrocardiographic finding of a normal QRS complex followed by a premature ventricular complex for 3 or more consecutive cycles; a regularly irregular rhythm of normal and abnormal QRS complexes in a 1-1 ratio.", "preferredTerm": "Ventricular Bigeminy by ECG Finding", "submissionValue": "VENTRICULAR BIGEMINY", "synonyms": ["Bigeminy"]}, {"conceptId": "C62259", "definition": "An electrocardiographic finding in which two premature ventricular complexes occur sequentially.", "preferredTerm": "Ventricular Couplet by ECG Finding", "submissionValue": "VENTRICULAR COUPLET", "synonyms": ["Ventricular Pair", "Ventricular couplet"]}, {"conceptId": "C90483", "definition": "An electrocardiographic finding of a compensatory ventricular complex that occurs following a prolonged RR interval.", "preferredTerm": "Ventricular Escape Beat by ECG Finding", "submissionValue": "VENTRICULAR ESCAPE BEAT", "synonyms": ["Ventricular Escape Beat", "Ventricular escape complex(es)"]}, {"conceptId": "C111102", "definition": "An electrocardiographic finding of a rapid grossly irregular ventricular rhythm with marked variability in QRS cycle length, morphology, and amplitude. The rate is typically greater than 300 bpm.", "preferredTerm": "Ventricular Fibrillation by ECG Finding", "submissionValue": "VENTRICULAR FIBRILLATION", "synonyms": ["Ventricular fibrillation"]}, {"conceptId": "C111115", "definition": "A ventricular tachyarrhythmia characterized by a high ventricular rate (180 to 250 beats per minute) with a regular rhythm. The electrocardiogram shows large oscillating sine wave-like complexes occurring as a result of QRS complexes and T waves being merged. The P wave is not visible. (NCI)", "preferredTerm": "Ventricular Flutter by ECG Finding", "submissionValue": "VENTRICULAR FLUTTER", "synonyms": ["Ventricular flutter"]}, {"conceptId": "C102728", "definition": "An electrocardiographic finding of normal sinus rhythm coexisting with a regular ectopic ventricular rhythm.", "preferredTerm": "Ventricular Parasystole by ECG Finding", "submissionValue": "VENTRICULAR PARASYSTOLE", "synonyms": ["Parasystole", "Ventricular Parasystole"]}, {"conceptId": "C111103", "definition": "An electrocardiographic finding of three or more consecutive complexes of ventricular organ with a rate greater than a certain threshold (100 or 120 beats per minute are commonly used). The QRS complexes are wide and have an abnormal morphology.", "preferredTerm": "Ventricular Tachycardia by ECG Finding", "submissionValue": "VENTRICULAR TACHYCARDIA", "synonyms": ["Ventricular tachycardia"]}, {"conceptId": "C62234", "definition": "An electrocardiographic finding of a ventricular tachycardia in which the QRS complexes have a uniform morphology.", "preferredTerm": "Monomorphic Ventricular Tachycardia by ECG Finding", "submissionValue": "VENTRICULAR TACHYCARDIA, MONOMORPHIC", "synonyms": ["Ventricular tachycardia, monomorphic"]}, {"conceptId": "C62236", "definition": "An electrocardiographic finding of a ventricular tachycardia in which the QRS complexes have a variable morphology and often rate.", "preferredTerm": "Polymorphic Ventricular Tachycardia by ECG Finding", "submissionValue": "VENTRICULAR TACHYCARDIA, POLYMORPHIC", "synonyms": ["Ventricular tachycardia, polymorphic", "Ventricular tachycardia, polymorphous"]}, {"conceptId": "C71055", "definition": "An electrocardiographic finding of two normal QRS complexes followed by a premature ventricular complex for 3 or more consecutive cycles; a regularly irregular rhythm of normal and abnormal QRS complexes in a 2-1 ratio.", "preferredTerm": "Ventricular Trigeminy by ECG Finding", "submissionValue": "VENTRICULAR TRIGEMINY", "synonyms": ["Trigeminy"]}, {"conceptId": "C130067", "definition": "An electrocardiographic finding of large QRS amplitudes which may indicate left ventricular hypertrophy, but in the absence of any of the secondary findings which are typical of this diagnosis (left atrial enlargement, left axis deviation, or typical pattern of ST depression and T wave inversion).", "preferredTerm": "Voltage Criteria Suggesting Left Ventricular Hypertrophy, Without Secondary ECG Findings", "submissionValue": "VOLTAGE CRITERIA SUGGESTING LEFT VENTRICULAR HYPERTROPHY, WITHOUT SECONDARY ECG FINDINGS"}, {"conceptId": "C62240", "definition": "An electrocardiographic finding of a supraventricular arrhythmia characterized by 3 or more distinct P wave morphologies with an isoelectric baseline, variable PR intervals and no predominant atrial rhythm. The ventricular rate is typically below 100 beats per minute.", "preferredTerm": "Wandering Atrial Pacemaker by ECG Finding", "submissionValue": "WANDERING ATRIAL PACEMAKER", "synonyms": ["Wandering atrial pacemaker"]}, {"conceptId": "C71090", "definition": "An electrocardiographic finding of three or more consecutive wide QRS complexes of uncertain origin with a rate greater than a certain threshold (100 or 120 beats per minute are commonly used).", "preferredTerm": "Wide QRS Tachycardia by ECG Finding", "submissionValue": "WIDE QRS TACHYCARDIA", "synonyms": ["Wide QRS tachycardia", "Wide-QRS tachycardia"]}, {"conceptId": "C35132", "definition": "An electrocardiographic finding of ventricular pre-excitation. The syndrome is characterized by a short PR interval and a long QRS interval with a delta wave.", "preferredTerm": "Wolff-Parkinson-White Syndrome", "submissionValue": "WOLFF-PARKINSON-WHITE SYNDROME", "synonyms": ["WPW", "Wolff-Parkinson-White syndrome"]}]}