{"_links": {"parentPackage": {"href": "/mdr/ct/packages/sendct-2017-03-31", "title": "SEND Controlled Terminology Package 29 Effective 2017-03-31", "type": "Terminology"}, "priorVersion": {"href": "/mdr/ct/packages/sendct-2016-12-16/codelists/C85839", "title": "CDISC SDTM Pharmacokinetic Parameter Short Name Terminology", "type": "Code List"}, "rootItem": {"href": "/mdr/root/ct/sendct/codelists/C85839", "title": "Version-agnostic anchor resource for codelist C85839", "type": "Root Value Domain"}, "self": {"href": "/mdr/ct/packages/sendct-2017-03-31/codelists/C85839", "title": "CDISC SDTM Pharmacokinetic Parameter Short Name Terminology", "type": "Code List"}}, "conceptId": "C85839", "definition": "Parameter codes used to describe the time-concentration curve.", "extensible": "true", "name": "PK Parameters Code", "preferredTerm": "CDISC SDTM Pharmacokinetic Parameter Short Name Terminology", "submissionValue": "PKPARMCD", "synonyms": ["PK Parameters Code"], "terms": [{"conceptId": "C114234", "definition": "Predicted accumulation ratio for area under the curve (AUC) calculated using the Lambda z estimated from single dose data.", "preferredTerm": "Accumulation Index using Lambda z", "submissionValue": "AILAMZ", "synonyms": ["Accumulation Index using Lambda z"]}, {"conceptId": "C102356", "definition": "The area under the curve (AUCTAU) at steady state divided by the area under the curve (AUCTAU) over the initial dosing interval.", "preferredTerm": "Accumulation Ratio Area Under the Curve", "submissionValue": "ARAUC", "synonyms": ["Accumulation Ratio AUCTAU"]}, {"conceptId": "C132435", "definition": "The area under the curve (AUCTAU) at steady state divided by the area under the curve (AUCTAU) over the initial dosing interval, each divided by the associated dose.", "preferredTerm": "Accumulation Ratio AUC Over Dosing Interval Normalized by Dose", "submissionValue": "ARAUCD", "synonyms": ["Accum Ratio AUCTAU norm by dose"]}, {"conceptId": "C132436", "definition": "The area under the curve from T1 to T2 at steady state divided by the area under the curve from T1 to T2 during the initial dosing interval, each divided by the associated dose.", "preferredTerm": "Accumulation Ratio AUC T1 to T2 Normalized by Dose", "submissionValue": "ARAUCIND", "synonyms": ["Accum Ratio AUC T1 to T2 norm by dose"]}, {"conceptId": "C122329", "definition": "The area under the curve from T1 to T2 at steady state divided by the area under the curve from T1 to T2 during the initial dosing interval.", "preferredTerm": "Accumulation Ratio Area Under the Curve from T1 to T2", "submissionValue": "ARAUCINT", "synonyms": ["Accumulation Ratio AUC from T1 to T2"]}, {"conceptId": "C102357", "definition": "The maximum concentration at steady state divided by the maximum concentration during the initial dosing interval.", "preferredTerm": "Accumulation Ratio Cmax", "submissionValue": "ARCMAX", "synonyms": ["Accumulation Ratio Cmax"]}, {"conceptId": "C132437", "definition": "The maximum concentration at steady state divided by the maximum concentration during the initial dosing interval, each divided by the associated dose.", "preferredTerm": "Accumulation Ratio Cmax Normalized by Dose", "submissionValue": "ARCMAXD", "synonyms": ["Accum Ratio Cmax norm by dose"]}, {"conceptId": "C102358", "definition": "The minimum concentration at steady state divided by the minimum concentration during the initial dosing interval.", "preferredTerm": "Accumulation Ratio Cmin", "submissionValue": "ARCMIN", "synonyms": ["Accumulation Ratio Cmin"]}, {"conceptId": "C132438", "definition": "The minimum concentration at steady state divided by the minimum concentration during the initial dosing interval, each divided by the associated dose.", "preferredTerm": "Accumulation Ratio Cmin Normalized by Dose", "submissionValue": "ARCMIND", "synonyms": ["Accum Ratio Cmin norm by dose"]}, {"conceptId": "C132439", "definition": "The trough concentration at steady state divided by the trough concentration during the initial dosing interval, each divided by the associated dose.", "preferredTerm": "Accumulation Ratio Ctrough Normalized by Dose", "submissionValue": "ARCTROUD", "synonyms": ["Accum Ratio Ctrough norm by dose"]}, {"conceptId": "C102426", "definition": "The trough concentration at steady state divided by the trough concentration during the initial dosing interval.", "preferredTerm": "Accumulation Ratio Ctrough", "submissionValue": "ARCTROUG", "synonyms": ["Accumulation Ratio Ctrough"]}, {"conceptId": "C85564", "definition": "The area under the curve (AUC) from the time of dosing to the time of the last observation, regardless of whether the last concentration is measurable or not.", "preferredTerm": "Area Under the Curve All", "submissionValue": "AUCALL", "synonyms": ["AUC All"]}, {"conceptId": "C92362", "definition": "The area under the curve (AUC) from the time of dosing to the time of the last observation divided by the body mass index, regardless of whether the last concentration is measurable or not.", "preferredTerm": "AUC All Normalized by Body Mass Index", "submissionValue": "AUCALLB", "synonyms": ["AUC All Norm by BMI"]}, {"conceptId": "C92306", "definition": "The area under the curve (AUC) from the time of dosing to the time of the last observation divided by the dose, regardless of whether the last concentration is measurable or not.", "preferredTerm": "AUC All Normalized by Dose", "submissionValue": "AUCALLD", "synonyms": ["AUC All Norm by Dose"]}, {"conceptId": "C92307", "definition": "The area under the curve (AUC) from the time of dosing to the time of the last observation divided by the surface area, regardless of whether the last concentration is measurable or not.", "preferredTerm": "AUC All Normalized by Surface Area", "submissionValue": "AUCALLS", "synonyms": ["AUC All Norm by SA"]}, {"conceptId": "C92308", "definition": "The area under the curve (AUC) from the time of dosing to the time of the last observation divided by the weight, regardless of whether the last concentration is measurable or not.", "preferredTerm": "AUC All Normalized by Weight", "submissionValue": "AUCALLW", "synonyms": ["AUC All Norm by WT"]}, {"conceptId": "C85761", "definition": "The area under the curve (AUC) extrapolated to infinity, calculated using the observed value of the last non-zero concentration.", "preferredTerm": "Observed Area Under the Curve Infinity", "submissionValue": "AUCIFO", "synonyms": ["AUC Infinity Obs"]}, {"conceptId": "C92316", "definition": "The area under the curve (AUC) extrapolated to infinity, calculated using the observed value of the last non-zero concentration, divided by the body mass index.", "preferredTerm": "AUC Infinity Observed Normalized by Body Mass Index", "submissionValue": "AUCIFOB", "synonyms": ["AUC Infinity Obs Norm by BMI"]}, {"conceptId": "C96695", "definition": "The area under the curve (AUC) extrapolated to infinity, calculated using the observed value of the last non-zero concentration, divided by the dose.", "preferredTerm": "AUC Infinity Observed Normalized by Dose", "submissionValue": "AUCIFOD", "synonyms": ["AUC Infinity Obs Norm by Dose"]}, {"conceptId": "C92317", "definition": "The area under the curve (AUC) extrapolated to infinity, calculated using the observed value of the last non-zero concentration, divided by the surface area.", "preferredTerm": "AUC Infinity Observed Normalized by Surface Area", "submissionValue": "AUCIFOS", "synonyms": ["AUC Infinity Obs Norm by SA"]}, {"conceptId": "C92318", "definition": "The area under the curve (AUC) extrapolated to infinity, calculated using the observed value of the last non-zero concentration, divided by the weight.", "preferredTerm": "AUC Infinity Observed Normalized by Weight", "submissionValue": "AUCIFOW", "synonyms": ["AUC Infinity Obs Norm by WT"]}, {"conceptId": "C85785", "definition": "The area under the curve (AUC) extrapolated to infinity, calculated using the predicted value of the last non-zero concentration.", "preferredTerm": "Predicted Area Under the Curve Infinity", "submissionValue": "AUCIFP", "synonyms": ["AUC Infinity Pred"]}, {"conceptId": "C92319", "definition": "The area under the curve (AUC) extrapolated to infinity, calculated using the predicted value of the last non-zero concentration, divided by the body mass index.", "preferredTerm": "AUC Infinity Predicted Normalized by Body Mass Index", "submissionValue": "AUCIFPB", "synonyms": ["AUC Infinity Pred Norm by BMI"]}, {"conceptId": "C85786", "definition": "The area under the curve (AUC) extrapolated to infinity, calculated using the predicted value of the last non-zero concentration, divided by the dose.", "preferredTerm": "Predicted Area Under the Curve Infinity by Dose", "submissionValue": "AUCIFPD", "synonyms": ["AUC Infinity Pred Norm by Dose"]}, {"conceptId": "C92320", "definition": "The area under the curve (AUC) extrapolated to infinity, calculated using the predicted value of the last non-zero concentration, divided by the surface area.", "preferredTerm": "AUC Infinity Predicted Normalized by Surface Area", "submissionValue": "AUCIFPS", "synonyms": ["AUC Infinity Pred Norm by SA"]}, {"conceptId": "C92321", "definition": "The area under the curve (AUC) extrapolated to infinity, calculated using the predicted value of the last non-zero concentration, divided by the weight.", "preferredTerm": "AUC Infinity Predicted Normalized by Weight", "submissionValue": "AUCIFPW", "synonyms": ["AUC Infinity Pred Norm by WT"]}, {"conceptId": "C85566", "definition": "The area under the curve (AUC) over the interval from T1 to T2.", "preferredTerm": "Area Under the Curve from T1 to T2", "submissionValue": "AUCINT", "synonyms": ["AUC from T1 to T2"]}, {"conceptId": "C92312", "definition": "The area under the curve (AUC) over the interval from T1 to T2 divided by the body mass index.", "preferredTerm": "AUC from T1 to T2 Normalized by Body Mass Index", "submissionValue": "AUCINTB", "synonyms": ["AUC from T1 to T2 Norm by BMI"]}, {"conceptId": "C92313", "definition": "The area under the curve (AUC) over the interval from T1 to T2 divided by the dose.", "preferredTerm": "AUC from T1 to T2 Normalized by Dose", "submissionValue": "AUCINTD", "synonyms": ["AUC from T1 to T2 Norm by Dose"]}, {"conceptId": "C92314", "definition": "The area under the curve (AUC) over the interval from T1 to T2 divided by the surface area.", "preferredTerm": "AUC from T1 to T2 Normalized by Surface Area", "submissionValue": "AUCINTS", "synonyms": ["AUC from T1 to T2 Norm by SA"]}, {"conceptId": "C92315", "definition": "The area under the curve (AUC) over the interval from T1 to T2 divided by the weight.", "preferredTerm": "AUC from T1 to T2 Normalized by Weight", "submissionValue": "AUCINTW", "synonyms": ["AUC from T1 to T2 Norm by WT"]}, {"conceptId": "C85565", "definition": "The area under the curve (AUC) from the time of dosing to the last measurable concentration.", "preferredTerm": "Area Under the Curve From Dosing to Last Concentration", "submissionValue": "AUCLST", "synonyms": ["AUC to Last Nonzero Conc"]}, {"conceptId": "C92309", "definition": "The area under the curve (AUC) from the time of dosing to the last measurable concentration divided by the body mass index.", "preferredTerm": "AUC Dosing to Last Concentration Normalized by Body Mass Index", "submissionValue": "AUCLSTB", "synonyms": ["AUC to Last Nonzero Conc Norm by BMI"]}, {"conceptId": "C92310", "definition": "The area under the curve (AUC) from the time of dosing to the last measurable concentration divided by the dose.", "preferredTerm": "AUC Dosing to Last Concentration Normalized by Dose", "submissionValue": "AUCLSTD", "synonyms": ["AUC to Last Nonzero Conc Norm by Dose"]}, {"conceptId": "C92311", "definition": "The area under the curve (AUC) from the time of dosing to the last measurable concentration divided by the surface area.", "preferredTerm": "AUC Dosing to Last Concentration Normalized by Surface Area", "submissionValue": "AUCLSTS", "synonyms": ["AUC to Last Nonzero Conc Norm by SA"]}, {"conceptId": "C92305", "definition": "The area under the curve (AUC) from the time of dosing to the last measurable concentration divided by the weight.", "preferredTerm": "AUC Dosing to Last Concentration Normalized by Weight", "submissionValue": "AUCLSTW", "synonyms": ["AUC to Last Nonzero Conc Norm by WT"]}, {"conceptId": "C85763", "definition": "Applies only for intravascular bolus dosing. The area under the curve (AUC) from the first measured concentration value back extrapolated to the concentration value at time zero as a percentage of the area under the curve extrapolated to infinity using the observed value of the last non-zero concentration.", "preferredTerm": "Observed Area Under the Curve Percent Back Extrapolation", "submissionValue": "AUCPBEO", "synonyms": ["AUC %Back Extrapolation Obs"]}, {"conceptId": "C85787", "definition": "Applies only for intravascular bolus dosing. The area under the curve (AUC) from the first measured concentration value back extrapolated to the concentration value at time zero as a percentage of the area under the curve extrapolated to infinity using the predicted value of the last non-zero concentration.", "preferredTerm": "Predicted Area Under the Curve Percent Back Extrapolation", "submissionValue": "AUCPBEP", "synonyms": ["AUC %Back Extrapolation Pred"]}, {"conceptId": "C85764", "definition": "The area under the curve (AUC) from the last observed non-zero concentration value to infinity as a percentage of the area under the curve extrapolated to infinity.", "preferredTerm": "Observed Area Under the Curve Percent Extrapolation", "submissionValue": "AUCPEO", "synonyms": ["AUC %Extrapolation Obs"]}, {"conceptId": "C85788", "definition": "The area under the curve (AUC) from the last predicted non-zero concentration value to infinity as a percentage of the area under the curve extrapolated to infinity.", "preferredTerm": "Predicted Area Under the Curve Percent Extrapolation", "submissionValue": "AUCPEP", "synonyms": ["AUC %Extrapolation Pred"]}, {"conceptId": "C85567", "definition": "The area under the curve (AUC) for the defined interval between doses (TAU).", "preferredTerm": "Area Under the Curve Over Dosing Interval", "submissionValue": "AUCTAU", "synonyms": ["AUC Over Dosing Interval"]}, {"conceptId": "C92322", "definition": "The area under the curve (AUC) for the defined interval between doses (TAU) divided by the body mass index.", "preferredTerm": "AUC Over Dosing Interval Normalized by Body Mass Index", "submissionValue": "AUCTAUB", "synonyms": ["AUC Over Dosing Interval Norm by BMI"]}, {"conceptId": "C92323", "definition": "The area under the curve (AUC) for the defined interval between doses (TAU) divided by the dose.", "preferredTerm": "AUC Over Dosing Interval Normalized by Dose", "submissionValue": "AUCTAUD", "synonyms": ["AUC Over Dosing Interval Norm by Dose"]}, {"conceptId": "C92324", "definition": "The area under the curve (AUC) for the defined interval between doses (TAU) divided by the surface area.", "preferredTerm": "AUC Over Dosing Interval Normalized by Surface Area", "submissionValue": "AUCTAUS", "synonyms": ["AUC Over Dosing Interval Norm by SA"]}, {"conceptId": "C92325", "definition": "The area under the curve (AUC) for the defined interval between doses (TAU) divided by the weight.", "preferredTerm": "AUC Over Dosing Interval Normalized by Weight", "submissionValue": "AUCTAUW", "synonyms": ["AUC Over Dosing Interval Norm by WT"]}, {"conceptId": "C85765", "definition": "The area under the moment curve (AUMC) extrapolated to infinity, calculated using the observed value of the last non-zero concentration.", "preferredTerm": "Observed Area Under the First Moment Curve Infinity", "submissionValue": "AUMCIFO", "synonyms": ["AUMC Infinity Obs"]}, {"conceptId": "C92330", "definition": "The area under the moment curve (AUMC) extrapolated to infinity, calculated using the observed value of the last non-zero concentration, divided by the body mass index.", "preferredTerm": "AUMC Infinity Observed Normalized by Body Mass Index", "submissionValue": "AUMCIFOB", "synonyms": ["AUMC Infinity Obs Norm by BMI"]}, {"conceptId": "C92331", "definition": "The area under the moment curve (AUMC) extrapolated to infinity, calculated using the observed value of the last non-zero concentration, divided by the dose.", "preferredTerm": "AUMC Infinity Observed Normalized by Dose", "submissionValue": "AUMCIFOD", "synonyms": ["AUMC Infinity Obs Norm by Dose"]}, {"conceptId": "C92332", "definition": "The area under the moment curve (AUMC) extrapolated to infinity, calculated using the observed value of the last non-zero concentration, divided by the surface area.", "preferredTerm": "AUMC Infinity Observed Normalized by Surface Area", "submissionValue": "AUMCIFOS", "synonyms": ["AUMC Infinity Obs Norm by SA"]}, {"conceptId": "C92333", "definition": "The area under the moment curve (AUMC) extrapolated to infinity, calculated using the observed value of the last non-zero concentration, divided by the weight.", "preferredTerm": "AUMC Infinity Observed Normalized by Weight", "submissionValue": "AUMCIFOW", "synonyms": ["AUMC Infinity Obs Norm by WT"]}, {"conceptId": "C85789", "definition": "The area under the moment curve (AUMC) extrapolated to infinity, calculated using the predicted value of the last non-zero concentration.", "preferredTerm": "Predicted Area Under the First Moment Curve Infinity", "submissionValue": "AUMCIFP", "synonyms": ["AUMC Infinity Pred"]}, {"conceptId": "C92334", "definition": "The area under the moment curve (AUMC) extrapolated to infinity, calculated using the predicted value of the last non-zero concentration, divided by the body mass index.", "preferredTerm": "AUMC Infinity Predicted Normalized by Body Mass Index", "submissionValue": "AUMCIFPB", "synonyms": ["AUMC Infinity Pred Norm by BMI"]}, {"conceptId": "C92335", "definition": "The area under the moment curve (AUMC) extrapolated to infinity, calculated using the predicted value of the last non-zero concentration, divided by the dose.", "preferredTerm": "AUMC Infinity Predicted Normalized by Dose", "submissionValue": "AUMCIFPD", "synonyms": ["AUMC Infinity Pred Norm by Dose"]}, {"conceptId": "C92336", "definition": "The area under the moment curve (AUMC) extrapolated to infinity, calculated using the predicted value of the last non-zero concentration, divided by the surface area.", "preferredTerm": "AUMC Infinity Predicted Normalized by Surface Area", "submissionValue": "AUMCIFPS", "synonyms": ["AUMC Infinity Pred Norm by SA"]}, {"conceptId": "C92337", "definition": "The area under the moment curve (AUMC) extrapolated to infinity, calculated using the predicted value of the last non-zero concentration, divided by the weight.", "preferredTerm": "AUMC Infinity Predicted Normalized by Weight", "submissionValue": "AUMCIFPW", "synonyms": ["AUMC Infinity Pred Norm by WT"]}, {"conceptId": "C85569", "definition": "The area under the moment curve (AUMC) from the time of dosing to the last measurable concentration.", "preferredTerm": "Area Under the First Moment Curve From Dosing to Last Concentration", "submissionValue": "AUMCLST", "synonyms": ["AUMC to Last Nonzero Conc"]}, {"conceptId": "C92326", "definition": "The area under the moment curve (AUMC) from the time of dosing to the last measurable concentration divided by the body mass index.", "preferredTerm": "AUMC Dosing to Last Concentration Normalized by Body Mass Index", "submissionValue": "AUMCLSTB", "synonyms": ["AUMC to Last Nonzero Conc Norm by BMI"]}, {"conceptId": "C92327", "definition": "The area under the moment curve (AUMC) from the time of dosing to the last measurable concentration divided by the dose.", "preferredTerm": "AUMC Dosing to Last Concentration Normalized by Dose", "submissionValue": "AUMCLSTD", "synonyms": ["AUMC to Last Nonzero Conc Norm by Dose"]}, {"conceptId": "C92328", "definition": "The area under the moment curve (AUMC) from the time of dosing to the last measurable concentration divided by the surface area.", "preferredTerm": "AUMC Dosing to Last Concentration Normalized by Surface Area", "submissionValue": "AUMCLSTS", "synonyms": ["AUMC to Last Nonzero Conc Norm by SA"]}, {"conceptId": "C92329", "definition": "The area under the moment curve (AUMC) from the time of dosing to the last measurable concentration divided by the weight.", "preferredTerm": "AUMC Dosing to Last Concentration Normalized by Weight", "submissionValue": "AUMCLSTW", "synonyms": ["AUMC to Last Nonzero Conc Norm by WT"]}, {"conceptId": "C85766", "definition": "The area under the moment curve (AUMC) from the last observed non-zero concentration value to infinity as a percentage of the area under the moment curve extrapolated to infinity.", "preferredTerm": "Observed Area Under the First Moment Curve Percent Extrapolation", "submissionValue": "AUMCPEO", "synonyms": ["AUMC % Extrapolation Obs"]}, {"conceptId": "C85790", "definition": "The area under the moment curve (AUMC) from the last predicted non-zero concentration value to infinity as a percentage of the area under the moment curve extrapolated to infinity.", "preferredTerm": "Predicted Area Under the First Moment Curve Percent Extrapolation", "submissionValue": "AUMCPEP", "synonyms": ["AUMC % Extrapolation Pred"]}, {"conceptId": "C85570", "definition": "The area under the first moment curve (AUMC) for the defined interval between doses (TAU).", "preferredTerm": "Area Under the First Moment Curve Over Dosing Interval", "submissionValue": "AUMCTAU", "synonyms": ["AUMC Over Dosing Interval"]}, {"conceptId": "C92338", "definition": "The area under the first moment curve (AUMC) for the defined interval between doses (TAU) divided by the body mass index.", "preferredTerm": "AUMC Over Dosing Interval Normalized by Body Mass Index", "submissionValue": "AUMCTAUB", "synonyms": ["AUMC Over Dosing Interval Norm by BMI"]}, {"conceptId": "C92339", "definition": "The area under the first moment curve (AUMC) for the defined interval between doses (TAU) divided by the dose.", "preferredTerm": "AUMC Over Dosing Interval Normalized by Dose", "submissionValue": "AUMCTAUD", "synonyms": ["AUMC Over Dosing Interval Norm by Dose"]}, {"conceptId": "C92340", "definition": "The area under the first moment curve (AUMC) for the defined interval between doses (TAU) divided by the surface area.", "preferredTerm": "AUMC Over Dosing Interval Normalized by Surface Area", "submissionValue": "AUMCTAUS", "synonyms": ["AUMC Over Dosing Interval Norm by SA"]}, {"conceptId": "C92341", "definition": "The area under the first moment curve (AUMC) for the defined interval between doses (TAU) divided by the weight.", "preferredTerm": "AUMC Over Dosing Interval Normalized by Weight", "submissionValue": "AUMCTAUW", "synonyms": ["AUMC Over Dosing Interval Norm by WT"]}, {"conceptId": "C85841", "definition": "The area under the urinary excretion rate curve (AURC) from time zero to the time of the last observation, regardless of whether the last observation is a measurable concentration or not.", "preferredTerm": "Area Under Urinary Excretion Rate Curve All", "submissionValue": "AURCALL", "synonyms": ["AURC All"]}, {"conceptId": "C92342", "definition": "The area under the urinary excretion rate curve (AURC) from time zero to the last measurable rate divided by the body mass index.", "preferredTerm": "AURC All Normalized by Body Mass Index", "submissionValue": "AURCALLB", "synonyms": ["AURC All Norm by BMI"]}, {"conceptId": "C92343", "definition": "The area under the urinary excretion rate curve (AURC) from time zero to the last measurable rate divided by the dose.", "preferredTerm": "AURC All Normalized by Dose", "submissionValue": "AURCALLD", "synonyms": ["AURC All Norm by Dose"]}, {"conceptId": "C92344", "definition": "The area under the urinary excretion rate curve (AURC) from time zero to the last measurable rate divided by the surface area.", "preferredTerm": "AURC All Normalized by Surface Area", "submissionValue": "AURCALLS", "synonyms": ["AURC All Norm by SA"]}, {"conceptId": "C92345", "definition": "The area under the urinary excretion rate curve (AURC) from time zero to the last measurable rate divided by the weight.", "preferredTerm": "AURC All Normalized by Weight", "submissionValue": "AURCALLW", "synonyms": ["AURC All Norm by WT"]}, {"conceptId": "C85767", "definition": "The area under the urinary excretion rate curve (AURC) extrapolated to infinity, calculated using the observed value of the last excretion rate.", "preferredTerm": "Observed Area Under the Urinary Excretion Rate Curve infinity", "submissionValue": "AURCIFO", "synonyms": ["AURC Infinity Obs"]}, {"conceptId": "C92354", "definition": "The area under the urinary excretion rate curve (AURC) extrapolated to infinity, calculated using the observed value of the last excretion rate, divided by the body mass index.", "preferredTerm": "AURC Infinity Observed Normalized by Body Mass Index", "submissionValue": "AURCIFOB", "synonyms": ["AURC Infinity Obs Norm by BMI"]}, {"conceptId": "C92355", "definition": "The area under the urinary excretion rate curve (AURC) extrapolated to infinity, calculated using the observed value of the last excretion rate, divided by the dose.", "preferredTerm": "AURC Infinity Observed Normalized by Dose", "submissionValue": "AURCIFOD", "synonyms": ["AURC Infinity Obs Norm by Dose"]}, {"conceptId": "C92356", "definition": "The area under the urinary excretion rate curve (AURC) extrapolated to infinity, calculated using the observed value of the last excretion rate, divided by the surface area.", "preferredTerm": "AURC Infinity Observed Normalized by Surface Area", "submissionValue": "AURCIFOS", "synonyms": ["AURC Infinity Obs Norm by SA"]}, {"conceptId": "C92357", "definition": "The area under the urinary excretion rate curve (AURC) extrapolated to infinity, calculated using the observed value of the last excretion rate, divided by the weight.", "preferredTerm": "AURC Infinity Observed Normalized by Weight", "submissionValue": "AURCIFOW", "synonyms": ["AURC Infinity Obs Norm by WT"]}, {"conceptId": "C85791", "definition": "The area under the urinary excretion rate curve (AURC) extrapolated to infinity, calculated using the predicted value of the last non-zero excretion rate.", "preferredTerm": "Predicted Area Under the Urinary Excretion Rate Curve Infinity", "submissionValue": "AURCIFP", "synonyms": ["AURC Infinity Pred"]}, {"conceptId": "C92358", "definition": "The area under the urinary excretion rate curve (AURC) extrapolated to infinity, calculated using the predicted value of the last non-zero excretion rate, divded by the body mass index.", "preferredTerm": "AURC Infinity Predicted Normalized by Body Mass Index", "submissionValue": "AURCIFPB", "synonyms": ["AURC Infinity Pred Norm by BMI"]}, {"conceptId": "C92359", "definition": "The area under the urinary excretion rate curve (AURC) extrapolated to infinity, calculated using the predicted value of the last non-zero excretion rate, divded by the dose.", "preferredTerm": "AURC Infinity Predicted Normalized by Dose", "submissionValue": "AURCIFPD", "synonyms": ["AURC Infinity Pred Norm by Dose"]}, {"conceptId": "C92360", "definition": "The area under the urinary excretion rate curve (AURC) extrapolated to infinity, calculated using the predicted value of the last non-zero excretion rate, divded by the surface area.", "preferredTerm": "AURC Infinity Predicted Normalized by Surface Area", "submissionValue": "AURCIFPS", "synonyms": ["AURC Infinity Pred Norm by SA"]}, {"conceptId": "C92361", "definition": "The area under the urinary excretion rate curve (AURC) extrapolated to infinity, calculated using the predicted value of the last non-zero excretion rate, divded by the weight.", "preferredTerm": "AURC Infinity Predicted Normalized by Weight", "submissionValue": "AURCIFPW", "synonyms": ["AURC Infinity Pred Norm by WT"]}, {"conceptId": "C85572", "definition": "The area under the urinary excretion rate curve (AURC) over the interval from T1 to T2.", "preferredTerm": "Area Under the Urinary Excretion Rate Curve from T1 to T2", "submissionValue": "AURCINT", "synonyms": ["AURC from T1 to T2"]}, {"conceptId": "C92350", "definition": "The area under the urinary excretion rate curve (AURC) over the interval from T1 to T2 divided by the body mass index.", "preferredTerm": "AURC from T1 to T2 Normalized by Body Mass Index", "submissionValue": "AURCINTB", "synonyms": ["AURC from T1 to T2 Norm by BMI"]}, {"conceptId": "C92351", "definition": "The area under the urinary excretion rate curve (AURC) over the interval from T1 to T2 divided by the dose.", "preferredTerm": "AURC from T1 to T2 Normalized by Dose", "submissionValue": "AURCINTD", "synonyms": ["AURC from T1 to T2 Norm by Dose"]}, {"conceptId": "C92352", "definition": "The area under the urinary excretion rate curve (AURC) over the interval from T1 to T2 divided by the surface area.", "preferredTerm": "AURC from T1 to T2 Normalized by Surface Area", "submissionValue": "AURCINTS", "synonyms": ["AURC from T1 to T2 Norm by SA"]}, {"conceptId": "C92353", "definition": "The area under the urinary excretion rate curve (AURC) over the interval from T1 to T2 divided by the weight.", "preferredTerm": "AURC from T1 to T2 Normalized by Weight", "submissionValue": "AURCINTW", "synonyms": ["AURC from T1 to T2 Norm by WT"]}, {"conceptId": "C85571", "definition": "The area under the urinary excretion rate curve (AURC) from time zero to the time of the last measurable concentration.", "preferredTerm": "Area Under the Urinary Excretion Rate Curve From Dosing to Last Concentration", "submissionValue": "AURCLST", "synonyms": ["AURC to Last Nonzero Rate"]}, {"conceptId": "C92346", "definition": "The area under the urinary excretion rate curve (AURC) from time zero to the last measurable rate, divided by the body mass index.", "preferredTerm": "AURC Dosing to Last Concentration Normalized by Body Mass Index", "submissionValue": "AURCLSTB", "synonyms": ["AURC to Last Nonzero Rate Norm by BMI"]}, {"conceptId": "C92347", "definition": "The area under the urinary excretion rate curve (AURC) from time zero to the last measurable rate, divided by the dose.", "preferredTerm": "AURC Dosing to Last Concentration Normalized by Dose", "submissionValue": "AURCLSTD", "synonyms": ["AURC to Last Nonzero Rate Norm by Dose"]}, {"conceptId": "C92348", "definition": "The area under the urinary excretion rate curve (AURC) from time zero to the last measurable rate, divided by the surface area.", "preferredTerm": "AURC Dosing to Last Concentration Normalized by Surface Area", "submissionValue": "AURCLSTS", "synonyms": ["AURC to Last Nonzero Rate Norm by SA"]}, {"conceptId": "C92349", "definition": "The area under the urinary excretion rate curve (AURC) from time zero to the last measurable rate, divided by the weight.", "preferredTerm": "AURC Dosing to Last Concentration Normalized by Weight", "submissionValue": "AURCLSTW", "synonyms": ["AURC to Last Nonzero Rate Norm by WT"]}, {"conceptId": "C85768", "definition": "The area under the urinary excretion rate curve (AURC) from the last observed non-zero rate value to infinity as a percentage of the area under the urinary excretion rate curve extrapolated to infinity.", "preferredTerm": "Observed Area Under the Urinary Excretion Rate Curve Percent Extrapolation", "submissionValue": "AURCPEO", "synonyms": ["AURC % Extrapolation Obs"]}, {"conceptId": "C85792", "definition": "The area under the urinary excretion rate curve (AURC) from the last predicted non-zero rate value to infinity as a percentage of the area under the urinary excretion rate curve extrapolated to infinity.", "preferredTerm": "Predicted Area Under the Urinary Excretion Rate Curve Percent Extrapolation", "submissionValue": "AURCPEP", "synonyms": ["AURC % Extrapolation Pred"]}, {"conceptId": "C85644", "definition": "Initial concentration. Given only for bolus IV models.", "preferredTerm": "Initial Concentration", "submissionValue": "C0", "synonyms": ["Initial Conc"]}, {"conceptId": "C92383", "definition": "Initial concentration divided by the body mass index. Given only for bolus IV models.", "preferredTerm": "Initial Concentration Normalized by Body Mass Index", "submissionValue": "C0B", "synonyms": ["Initial Conc Norm by BMI"]}, {"conceptId": "C92384", "definition": "Initial concentration divided by the dose. Given only for bolus IV models.", "preferredTerm": "Initial Concentration Normalized by Dose", "submissionValue": "C0D", "synonyms": ["Initial Conc Norm by Dose"]}, {"conceptId": "C92385", "definition": "Initial concentration divided by the surface area. Given only for bolus IV models.", "preferredTerm": "Initial Concentration Normalized by Surface Area", "submissionValue": "C0S", "synonyms": ["Initial Conc Norm by SA"]}, {"conceptId": "C92386", "definition": "Initial concentration divided by the weight. Given only for bolus IV models.", "preferredTerm": "Initial Concentration Normalized by Weight", "submissionValue": "C0W", "synonyms": ["Initial Conc Norm by WT"]}, {"conceptId": "C85575", "definition": "AUCTAU divided by TAU.", "preferredTerm": "Average Concentration", "submissionValue": "CAVG", "synonyms": ["Average Concentration"]}, {"conceptId": "C92367", "definition": "AUCTAU divided by TAU and then divided by the body mass index.", "preferredTerm": "Average Concentration Normalized by Body Mass Index", "submissionValue": "CAVGB", "synonyms": ["Average Conc Norm by BMI"]}, {"conceptId": "C92368", "definition": "AUCTAU divided by TAU and then divided by the dose.", "preferredTerm": "Average Concentration Normalized by Dose", "submissionValue": "CAVGD", "synonyms": ["Average Conc Norm by Dose"]}, {"conceptId": "C132302", "definition": "The area under the curve over the interval from T1 to T2 (AUCINT) divided by the length of the interval.", "preferredTerm": "Average Concentration from T1 to T2", "submissionValue": "CAVGINT", "synonyms": ["Average Conc from T1 to T2"]}, {"conceptId": "C132440", "definition": "The area under the curve over the interval from T1 to T2 (AUCINT) divided by the length of the interval and then divided by the body mass index.", "preferredTerm": "Average Concentration from T1 to T2 Normalized by Body Mass Index", "submissionValue": "CAVGINTB", "synonyms": ["Average Conc from T1 to T2 Norm by BMI"]}, {"conceptId": "C132441", "definition": "The area under the curve over the interval from T1 to T2 (AUCINT) divided by the length of the interval and then divided by the dose.", "preferredTerm": "Average Concentration from T1 to T2 Normalized by Dose", "submissionValue": "CAVGINTD", "synonyms": ["Average Conc from T1 to T2 Norm by Dose"]}, {"conceptId": "C132442", "definition": "The area under the curve over the interval from T1 to T2 (AUCINT) divided by the length of the interval and then divided by the surface area.", "preferredTerm": "Average Concentration from T1 to T2 Normalized by Surface Area", "submissionValue": "CAVGINTS", "synonyms": ["Average Conc from T1 to T2 Norm by SA"]}, {"conceptId": "C132443", "definition": "The area under the curve over the interval from T1 to T2 (AUCINT) divided by the length of the interval and then divided by the weight.", "preferredTerm": "Average Concentration from T1 to T2 Normalized by Weight", "submissionValue": "CAVGINTW", "synonyms": ["Average Conc from T1 to T2 Norm by WT"]}, {"conceptId": "C92369", "definition": "AUCTAU divided by TAU and then divided by the surface area.", "preferredTerm": "Average Concentration Normalized by Surface Area", "submissionValue": "CAVGS", "synonyms": ["Average Conc Norm by SA"]}, {"conceptId": "C92370", "definition": "AUCTAU divided by TAU and then divided by the weight.", "preferredTerm": "Average Concentration Normalized by Weight", "submissionValue": "CAVGW", "synonyms": ["Average Conc Norm by WT"]}, {"conceptId": "C85772", "definition": "The total body clearance for extravascular administration divided by the fraction of dose absorbed, calculated using the observed value of the last non-zero concentration.", "preferredTerm": "Observed Total Body Clearance by Fraction of Dose Absorbed", "submissionValue": "CLFO", "synonyms": ["Total CL Obs by F"]}, {"conceptId": "C92399", "definition": "The total body clearance for extravascular administration divided by the fraction of dose absorbed, calculated using the observed value of the last non-zero concentration, divided by the body mass index.", "preferredTerm": "Total Clearance Observed by Fraction Dose Normalized by Body Mass Index", "submissionValue": "CLFOB", "synonyms": ["Total CL Obs by F Norm by BMI"]}, {"conceptId": "C92400", "definition": "The total body clearance for extravascular administration divided by the fraction of dose absorbed, calculated using the observed value of the last non-zero concentration, divided by the dose.", "preferredTerm": "Total Clearance Observed by Fraction Dose Normalized by Dose", "submissionValue": "CLFOD", "synonyms": ["Total CL Obs by F Norm by Dose"]}, {"conceptId": "C92401", "definition": "The total body clearance for extravascular administration divided by the fraction of dose absorbed, calculated using the observed value of the last non-zero concentration, divided by the surface area.", "preferredTerm": "Total Clearance Observed by Fraction Dose Normalized by Surface Area", "submissionValue": "CLFOS", "synonyms": ["Total CL Obs by F Norm by SA"]}, {"conceptId": "C92402", "definition": "The total body clearance for extravascular administration divided by the fraction of dose absorbed, calculated using the observed value of the last non-zero concentration, divided by the weight.", "preferredTerm": "Total Clearance Observed by Fraction Dose Normalized by Weight", "submissionValue": "CLFOW", "synonyms": ["Total CL Obs by F Norm by WT"]}, {"conceptId": "C85796", "definition": "The total body clearance for extravascular administration divided by the fraction of dose absorbed, calculated using the predicted value of the last non-zero concentration.", "preferredTerm": "Predicted Total Body Clearance by Fraction of Dose Absorbed", "submissionValue": "CLFP", "synonyms": ["Total CL Pred by F"]}, {"conceptId": "C92417", "definition": "The total body clearance for extravascular administration divided by the fraction of dose absorbed, calculated using the predicted value of the last non-zero concentration, divided by body mass index.", "preferredTerm": "Total Clearance Predicted by Fraction Dose Normalized by Body Mass Index", "submissionValue": "CLFPB", "synonyms": ["Total CL Pred by F Norm by BMI"]}, {"conceptId": "C92418", "definition": "The total body clearance for extravascular administration divided by the fraction of dose absorbed, calculated using the predicted value of the last non-zero concentration, divided by the dose.", "preferredTerm": "Total Clearance Predicted by Fraction Dose Normalized by Dose", "submissionValue": "CLFPD", "synonyms": ["Total CL Pred by F Norm by Dose"]}, {"conceptId": "C92419", "definition": "The total body clearance for extravascular administration divided by the fraction of dose absorbed, calculated using the predicted value of the last non-zero concentration, divided by the surface area.", "preferredTerm": "Total Clearance Predicted by Fraction Dose Normalized by Surface Area", "submissionValue": "CLFPS", "synonyms": ["Total CL Pred by F Norm by SA"]}, {"conceptId": "C92420", "definition": "The total body clearance for extravascular administration divided by the fraction of dose absorbed, calculated using the predicted value of the last non-zero concentration, divided by the weight.", "preferredTerm": "Total Clearance Predicted by Fraction Dose Normalized by Weight", "submissionValue": "CLFPW", "synonyms": ["Total CL Pred by F Norm by WT"]}, {"conceptId": "C114121", "definition": "The total body clearance for extravascular administration divided by the fraction of dose absorbed, calculated using AUCTAU.", "preferredTerm": "Total Body Clearance by Fraction of Dose for Dose Interval", "submissionValue": "CLFTAU", "synonyms": ["Total CL by F for Dose Int"]}, {"conceptId": "C114227", "definition": "The total body clearance for extravascular administration divided by the fraction of dose absorbed, calculated using AUCTAU, divided by the body mass index.", "preferredTerm": "Total Body Clearance by Fraction of Dose for Dose Interval Normalized by Body Mass Index", "submissionValue": "CLFTAUB", "synonyms": ["Total CL by F for Dose Int Norm by BMI"]}, {"conceptId": "C114226", "definition": "The total body clearance for extravascular administration divided by the fraction of dose absorbed, calculated using AUCTAU, divided by the dose.", "preferredTerm": "Total Body Clearance by Fraction of Dose for Dose Interval Normalized by Dose", "submissionValue": "CLFTAUD", "synonyms": ["Total CL by F for Dose Int Norm by Dose"]}, {"conceptId": "C114228", "definition": "The total body clearance for extravascular administration divided by the fraction of dose absorbed, calculated using AUCTAU, divided by the surface area.", "preferredTerm": "Total Body Clearance by Fraction of Dose for Dose Interval Normalized by Surface Area", "submissionValue": "CLFTAUS", "synonyms": ["Total CL by F for Dose Int Norm by SA"]}, {"conceptId": "C114229", "definition": "The total body clearance for extravascular administration divided by the fraction of dose absorbed, calculated using AUCTAU, divided by the weight.", "preferredTerm": "Total Body Clearance by Fraction of Dose for Dose Interval Normalized by Weight", "submissionValue": "CLFTAUW", "synonyms": ["Total CL by F for Dose Int Norm by WT"]}, {"conceptId": "C85773", "definition": "The total body clearance for intravascular administration, calculated using the observed value of the last non-zero concentration.", "preferredTerm": "Observed Total Body Clearance Rate", "submissionValue": "CLO", "synonyms": ["Total CL Obs"]}, {"conceptId": "C92403", "definition": "The total body clearance for intravascular administration, calculated using the observed value of the last non-zero concentration, divided by the body mass index.", "preferredTerm": "Total Clearance Observed Normalized by Body Mass Index", "submissionValue": "CLOB", "synonyms": ["Total CL Obs Norm by BMI"]}, {"conceptId": "C92404", "definition": "The total body clearance for intravascular administration, calculated using the observed value of the last non-zero concentration, divided by the dose.", "preferredTerm": "Total Clearance Observed Normalized by Dose", "submissionValue": "CLOD", "synonyms": ["Total CL Obs Norm by Dose"]}, {"conceptId": "C92405", "definition": "The total body clearance for intravascular administration, calculated using the observed value of the last non-zero concentration, divided by the surface area.", "preferredTerm": "Total Clearance Observed Normalized by Surface Area", "submissionValue": "CLOS", "synonyms": ["Total CL Obs Norm by SA"]}, {"conceptId": "C92406", "definition": "The total body clearance for intravascular administration, calculated using the observed value of the last non-zero concentration, divided by the weight.", "preferredTerm": "Total Clearance Observed Normalized by Weight", "submissionValue": "CLOW", "synonyms": ["Total CL Obs Norm by WT"]}, {"conceptId": "C85797", "definition": "The total body clearance for intravascular administration, calculated using the predicted value of the last non-zero concentration.", "preferredTerm": "Predicted Total Body Clearance Rate", "submissionValue": "CLP", "synonyms": ["Total CL Pred"]}, {"conceptId": "C92421", "definition": "The total body clearance for intravascular administration, calculated using the predicted value of the last non-zero concentration, divided by the body mass index.", "preferredTerm": "Total Clearance Predicted Normalized by Body Mass Index", "submissionValue": "CLPB", "synonyms": ["Total CL Pred Norm by BMI"]}, {"conceptId": "C92422", "definition": "The total body clearance for intravascular administration, calculated using the predicted value of the last non-zero concentration, divided by the dose.", "preferredTerm": "Total Clearance Predicted Normalized by Dose", "submissionValue": "CLPD", "synonyms": ["Total CL Pred Norm by Dose"]}, {"conceptId": "C92423", "definition": "The total body clearance for intravascular administration, calculated using the predicted value of the last non-zero concentration, divided by the surface area.", "preferredTerm": "Total Clearance Predicted Normalized by Surface Area", "submissionValue": "CLPS", "synonyms": ["Total CL Pred Norm by SA"]}, {"conceptId": "C92424", "definition": "The total body clearance for intravascular administration, calculated using the predicted value of the last non-zero concentration, divided by the weight.", "preferredTerm": "Total Clearance Predicted Normalized by Weight", "submissionValue": "CLPW", "synonyms": ["Total CL Pred Norm by WT"]}, {"conceptId": "C85655", "definition": "The concentration corresponding to Tlast.", "preferredTerm": "Last Concentration", "submissionValue": "CLST", "synonyms": ["Last Nonzero Conc"]}, {"conceptId": "C92387", "definition": "The concentration corresponding to Tlast divided by the body mass index.", "preferredTerm": "Last Concentration Normalized by Body Mass Index", "submissionValue": "CLSTB", "synonyms": ["Last Nonzero Conc Norm by BMI"]}, {"conceptId": "C92388", "definition": "The concentration corresponding to Tlast divided by the dose.", "preferredTerm": "Last Concentration Normalized by Dose", "submissionValue": "CLSTD", "synonyms": ["Last Nonzero Conc Norm by Dose"]}, {"conceptId": "C92389", "definition": "The concentration corresponding to Tlast divided by the surface area.", "preferredTerm": "Last Concentration Normalized by Surface Area", "submissionValue": "CLSTS", "synonyms": ["Last Nonzero Conc Norm by SA"]}, {"conceptId": "C92390", "definition": "The concentration corresponding to Tlast divided by the weight.", "preferredTerm": "Last Concentration Normalized by Weight", "submissionValue": "CLSTW", "synonyms": ["Last Nonzero Conc Norm by WT"]}, {"conceptId": "C114122", "definition": "The total body clearance for intravascular administration, calculated using AUCTAU.", "preferredTerm": "Total Body Clearance for Dose Interval", "submissionValue": "CLTAU", "synonyms": ["Total CL for Dose Int"]}, {"conceptId": "C114231", "definition": "The total body clearance for intravascular administration, calculated using AUCTAU, divided by the body mass index.", "preferredTerm": "Total Body Clearance for Dose Interval Normalized by Body Mass Index", "submissionValue": "CLTAUB", "synonyms": ["Total CL for Dose Int Norm by BMI"]}, {"conceptId": "C114230", "definition": "The total body clearance for intravascular administration, calculated using AUCTAU, divided by the dose.", "preferredTerm": "Total Body Clearance for Dose Interval Normalized by Dose", "submissionValue": "CLTAUD", "synonyms": ["Total CL for Dose Int Norm by Dose"]}, {"conceptId": "C114232", "definition": "The total body clearance for intravascular administration, calculated using AUCTAU, divided by the surface area.", "preferredTerm": "Total Body Clearance for Dose Interval Normalized by Surface Area", "submissionValue": "CLTAUS", "synonyms": ["Total CL for Dose Int Norm by SA"]}, {"conceptId": "C114233", "definition": "The total body clearance for intravascular administration, calculated using AUCTAU, divided by the weight.", "preferredTerm": "Total Body Clearance for Dose Interval Normalized by Weight", "submissionValue": "CLTAUW", "synonyms": ["Total CL for Dose Int Norm by WT"]}, {"conceptId": "C70918", "definition": "The maximum concentration occurring at Tmax.", "preferredTerm": "Cmax", "submissionValue": "CMAX", "synonyms": ["Max Conc"]}, {"conceptId": "C92371", "definition": "The maximum concentration occurring at Tmax, divided by the body mass index.", "preferredTerm": "Maximum Concentration Normalized by Body Mass Index", "submissionValue": "CMAXB", "synonyms": ["Max Conc Norm by BMI"]}, {"conceptId": "C85698", "definition": "The maximum concentration occurring at Tmax, divided by the dose.", "preferredTerm": "Maximum Concentration Dose Normalized", "submissionValue": "CMAXD", "synonyms": ["Max Conc Norm by Dose"]}, {"conceptId": "C92372", "definition": "The maximum concentration occurring at Tmax, divided by the surface area.", "preferredTerm": "Maximum Concentration Normalized by Surface Area", "submissionValue": "CMAXS", "synonyms": ["Max Conc Norm by SA"]}, {"conceptId": "C92373", "definition": "The maximum concentration occurring at Tmax, divided by the weight.", "preferredTerm": "Maximum Concentration Normalized by Weight", "submissionValue": "CMAXW", "synonyms": ["Max Conc Norm by WT"]}, {"conceptId": "C85579", "definition": "The minimum concentration between dose time and dose time plus Tau (at Tmin).", "preferredTerm": "Cmin", "submissionValue": "CMIN", "synonyms": ["Min Conc"]}, {"conceptId": "C92374", "definition": "The minimum concentration between dose time and dose time plus Tau (at Tmin) divided by the body mass index.", "preferredTerm": "Minimum Concentration Normalized by Body Mass Index", "submissionValue": "CMINB", "synonyms": ["Min Conc Norm by BMI"]}, {"conceptId": "C92375", "definition": "The minimum concentration between dose time and dose time plus Tau (at Tmin) divided by the dose.", "preferredTerm": "Minimum Concentration Normalized by Dose", "submissionValue": "CMIND", "synonyms": ["Min Conc Norm by Dose"]}, {"conceptId": "C92376", "definition": "The minimum concentration between dose time and dose time plus Tau (at Tmin) divided by the surface area.", "preferredTerm": "Minimum Concentration Normalized by Surface Area", "submissionValue": "CMINS", "synonyms": ["Min Conc Norm by SA"]}, {"conceptId": "C92377", "definition": "The minimum concentration between dose time and dose time plus Tau (at Tmin) divided by the weight.", "preferredTerm": "Minimum Concentration Normalized by Weight", "submissionValue": "CMINW", "synonyms": ["Min Conc Norm by WT"]}, {"conceptId": "C41185", "definition": "The quantity of a specified substance in a unit volume or weight of another substance.", "preferredTerm": "Concentration", "submissionValue": "CONC", "synonyms": ["Concentration"]}, {"conceptId": "C102367", "definition": "The concentration divided by body mass index.", "preferredTerm": "Concentration Divided by Body Mass Index", "submissionValue": "CONCB", "synonyms": ["Conc by BMI"]}, {"conceptId": "C102368", "definition": "The concentration divided by dose.", "preferredTerm": "Concentration Divided by Dose", "submissionValue": "CONCD", "synonyms": ["Conc by Dose"]}, {"conceptId": "C102369", "definition": "The concentration divided by surface area.", "preferredTerm": "Concentration Divided by Surface Area", "submissionValue": "CONCS", "synonyms": ["Conc by SA"]}, {"conceptId": "C102370", "definition": "The concentration divided by weight.", "preferredTerm": "Concentration Divided by Weight", "submissionValue": "CONCW", "synonyms": ["Conc by WT"]}, {"conceptId": "C85821", "definition": "The correlation between time (X) and log concentration (Y) for the points used in the estimation of lambda z.", "preferredTerm": "Time and Log Concentration Correlation", "submissionValue": "CORRXY", "synonyms": ["Correlation Between TimeX and Log ConcY"]}, {"conceptId": "C102394", "definition": "Concentration at end of dosing interval.", "preferredTerm": "Trough Concentration", "submissionValue": "CTROUGH", "synonyms": ["Conc Trough"]}, {"conceptId": "C102395", "definition": "The trough concentration divided by body mass index.", "preferredTerm": "Trough Concentration Divided by Body Mass Index", "submissionValue": "CTROUGHB", "synonyms": ["Conc Trough by BMI"]}, {"conceptId": "C102396", "definition": "The trough concentration divided by dose.", "preferredTerm": "Trough Concentration Divided by Dose", "submissionValue": "CTROUGHD", "synonyms": ["Conc Trough by Dose"]}, {"conceptId": "C102397", "definition": "The trough concentration divided by surface area.", "preferredTerm": "Trough Concentration Divided by Surface Area", "submissionValue": "CTROUGHS", "synonyms": ["Conc Trough by SA"]}, {"conceptId": "C102398", "definition": "The trough concentration divided by weight.", "preferredTerm": "Trough Concentration Divided by Weight", "submissionValue": "CTROUGHW", "synonyms": ["Conc Trough by WT"]}, {"conceptId": "C95007", "definition": "The drug half-life that quantifies the accumulation ratio of a drug following multiple dosing.", "preferredTerm": "Effective Half-life", "submissionValue": "EFFHL", "synonyms": ["Effective Half-Life"]}, {"conceptId": "C105449", "definition": "The excretion rate over the interval from T1 to T2, determined for the specimen type specified in PPSPEC.", "preferredTerm": "Excretion Rate From T1 to T2", "submissionValue": "ERINT", "synonyms": ["Excret Rate from T1 to T2"]}, {"conceptId": "C105450", "definition": "The excretion rate over the interval from T1 to T2 divided by the body mass index, determined for the specimen type specified in PPSPEC.", "preferredTerm": "Excretion Rate From T1 to T2 Normalized by BMI", "submissionValue": "ERINTB", "synonyms": ["Excret Rate from T1 to T2 Norm by BMI"]}, {"conceptId": "C105451", "definition": "The excretion rate over the interval from T1 to T2 divided by the dose, determined for the specimen type specified in PPSPEC.", "preferredTerm": "Excretion Rate From T1 to T2 Normalized by Dose", "submissionValue": "ERINTD", "synonyms": ["Excret Rate from T1 to T2 Norm by Dose"]}, {"conceptId": "C105452", "definition": "The excretion rate over the interval from T1 to T2 divided by the surface area, determined for the specimen type specified in PPSPEC.", "preferredTerm": "Excretion Rate From T1 to T2 Normalized by SA", "submissionValue": "ERINTS", "synonyms": ["Excret Rate from T1 to T2 Norm by SA"]}, {"conceptId": "C105453", "definition": "The excretion rate over the interval from T1 to T2 divided by the weight, determined for the specimen type specified in PPSPEC.", "preferredTerm": "Excretion Rate From T1 to T2 Normalized by WT", "submissionValue": "ERINTW", "synonyms": ["Excret Rate from T1 to T2 Norm by WT"]}, {"conceptId": "C85656", "definition": "The last measurable (positive) excretion rate determined for the specimen type specified in PPSPEC.", "preferredTerm": "Last Measurable Observed Excretion Rate", "submissionValue": "ERLST", "synonyms": ["Last Meas Excretion Rate"]}, {"conceptId": "C92391", "definition": "The last measurable (positive) excretion rate divided by the body mass index.", "preferredTerm": "Last Measurable Excretion Rate Normalized by Body Mass Index", "submissionValue": "ERLSTB", "synonyms": ["Last Meas Excretion Rate Norm by BMI"]}, {"conceptId": "C92392", "definition": "The last measurable (positive) excretion rate divided by the dose.", "preferredTerm": "Last Measurable Excretion Rate Normalized by Dose", "submissionValue": "ERLSTD", "synonyms": ["Last Meas Excretion Rate Norm by Dose"]}, {"conceptId": "C92393", "definition": "The last measurable (positive) excretion rate divided by the surface area.", "preferredTerm": "Last Measurable Excretion Rate Normalized by Surface Area", "submissionValue": "ERLSTS", "synonyms": ["Last Meas Excretion Rate Norm by SA"]}, {"conceptId": "C92394", "definition": "The last measurable (positive) excretion rate divided by the weight.", "preferredTerm": "Last Measurable Excretion Rate Normalized by Weight", "submissionValue": "ERLSTW", "synonyms": ["Last Meas Excretion Rate Norm by WT"]}, {"conceptId": "C85699", "definition": "The maximum excretion rate determined for the specimen type specified in PPSPEC.", "preferredTerm": "Maximum Observed Excretion Rate", "submissionValue": "ERMAX", "synonyms": ["Max Excretion Rate"]}, {"conceptId": "C92395", "definition": "The maximum excretion rate divided by the body mass index.", "preferredTerm": "Maximum Observed Excretion Rate Normalized by Body Mass Index", "submissionValue": "ERMAXB", "synonyms": ["Max Excretion Rate Norm by BMI"]}, {"conceptId": "C92396", "definition": "The maximum excretion rate divided by the dose.", "preferredTerm": "Maximum Observed Excretion Rate Normalized by Dose", "submissionValue": "ERMAXD", "synonyms": ["Max Excretion Rate Norm by Dose"]}, {"conceptId": "C92397", "definition": "The maximum excretion rate divided by the surface area.", "preferredTerm": "Maximum Observed Excretion Rate Normalized by Surface Area", "submissionValue": "ERMAXS", "synonyms": ["Max Excretion Rate Norm by SA"]}, {"conceptId": "C92398", "definition": "The maximum excretion rate divided by the weight.", "preferredTerm": "Maximum Observed Excretion Rate Normalized by Weight", "submissionValue": "ERMAXW", "synonyms": ["Max Excretion Rate Norm by WT"]}, {"conceptId": "C85580", "definition": "The midpoint of collection interval associated with last measurable excretion rate.", "preferredTerm": "Collection Interval Midpoint", "submissionValue": "ERTLST", "synonyms": ["Midpoint of Interval of Last Nonzero ER"]}, {"conceptId": "C85823", "definition": "The midpoint of collection interval associated with the maximum excretion rate.", "preferredTerm": "Time of Maximum Observed Excretion Rate", "submissionValue": "ERTMAX", "synonyms": ["Midpoint of Interval of Maximum ER"]}, {"conceptId": "C85581", "definition": "The difference between Cmin and Cmax standardized to Cavg, between dose time and Tau.", "preferredTerm": "Concentration Variability Between Dose Time and Tau", "submissionValue": "FLUCP", "synonyms": ["Fluctuation%"]}, {"conceptId": "C112287", "definition": "The clearance of a substance from the blood during a hemodialysis session.", "preferredTerm": "Hemodialysis Clearance", "submissionValue": "HDCL", "synonyms": ["Hemodialysis Clearance"]}, {"conceptId": "C116213", "definition": "The fractional content of a substance removed from the blood during a hemodialysis session.", "preferredTerm": "Hemodialysis Extraction Ratio", "submissionValue": "HDER", "synonyms": ["Hemodialysis Extraction Ratio"]}, {"conceptId": "C85652", "definition": "The first order rate constant associated with the terminal (log-linear) portion of the curve.", "preferredTerm": "Lambda Z", "submissionValue": "LAMZ", "synonyms": ["Lambda z"]}, {"conceptId": "C85818", "definition": "Terminal half-life.", "preferredTerm": "Terminal Half Life", "submissionValue": "LAMZHL", "synonyms": ["Half-Life Lambda z"]}, {"conceptId": "C85653", "definition": "The lower limit on time for values to be included in the calculation of Lambda z.", "preferredTerm": "Lambda Z Time Lower Limit", "submissionValue": "LAMZLL", "synonyms": ["Lambda z Lower Limit"]}, {"conceptId": "C85816", "definition": "The number of time points used in computing Lambda z.", "preferredTerm": "Sum of Lambda Z Timepoints", "submissionValue": "LAMZNPT", "synonyms": ["Number of Points for Lambda z"]}, {"conceptId": "C85654", "definition": "The upper limit on time for values to be included in the calculation of Lambda z.", "preferredTerm": "Lambda Z Time Upper Limit", "submissionValue": "LAMZUL", "synonyms": ["Lambda z Upper Limit"]}, {"conceptId": "C120723", "definition": "Mean absorption time of a substance administered by extravascular dosing.", "preferredTerm": "Mean Absorption Time", "submissionValue": "MAT", "synonyms": ["Mean Absorption Time"]}, {"conceptId": "C120724", "definition": "The mean residence time (MRT) extrapolated to infinity for a substance administered by extravascular dosing, calculated using the observed value of the last non-zero concentration. Extravascular MRT includes Mean Absorption Time (MAT).", "preferredTerm": "Mean Residence Time Infinity Observed by Extravascular Dose", "submissionValue": "MRTEVIFO", "synonyms": ["MRT Extravasc Infinity Obs"]}, {"conceptId": "C120725", "definition": "The mean residence time (MRT) extrapolated to infinity for a substance administered by extravascular dosing, calculated using the predicted value of the last non-zero concentration. Extravascular MRT includes Mean Absorption Time (MAT).", "preferredTerm": "Mean Residence Time Infinity Predicted by Extravascular Dose", "submissionValue": "MRTEVIFP", "synonyms": ["MRT Extravasc Infinity Pred"]}, {"conceptId": "C120726", "definition": "Mean residence time (MRT) from the time of dosing to the time of the last measurable concentration for a substance administered by extravascular dosing. Extravascular MRT includes Mean Absorption Time (MAT).", "preferredTerm": "Mean Residence Time to Last Nonzero Concentration by Extravascular Dose", "submissionValue": "MRTEVLST", "synonyms": ["MRT Extravasc to Last Nonzero Conc"]}, {"conceptId": "C121134", "definition": "The mean residence time (MRT) extrapolated to infinity for a substance administered by intravascular dosing, calculated using the observed value of the last non-zero concentration.", "preferredTerm": "Mean Residence Time Infinity Observed by Intravascular Dose", "submissionValue": "MRTIVIFO", "synonyms": ["MRT Intravasc Infinity Obs"]}, {"conceptId": "C121136", "definition": "The mean residence time (MRT) extrapolated to infinity for a substance administered by intravascular dosing, calculated using the predicted value of the last non-zero concentration.", "preferredTerm": "Mean Residence Time Infinity Predicted by Intravascular Dose", "submissionValue": "MRTIVIFP", "synonyms": ["MRT Intravasc Infinity Pred"]}, {"conceptId": "C121137", "definition": "Mean residence time (MRT) from the time of dosing to the time of the last measurable concentration, for a substance administered by intravascular dosing.", "preferredTerm": "Mean Residence Time to Last Nonzero Concentration by Intravascular Dose", "submissionValue": "MRTIVLST", "synonyms": ["MRT Intravasc to Last Nonzero Conc"]}, {"conceptId": "C102376", "definition": "The total clearance of a substance from the blood less the renal clearance.", "preferredTerm": "Nonrenal Clearance", "submissionValue": "NRENALCL", "synonyms": ["Nonrenal CL"]}, {"conceptId": "C105454", "definition": "The total clearance of a substance from the blood minus the renal clearance divided by the body mass index.", "preferredTerm": "Nonrenal Clearance Normalized by BMI", "submissionValue": "NRENLCLB", "synonyms": ["Nonrenal CL Norm by BMI"]}, {"conceptId": "C105455", "definition": "The total clearance of a substance from the blood minus the renal clearance divided by the dose.", "preferredTerm": "Nonrenal Clearance Normalized by Dose", "submissionValue": "NRENLCLD", "synonyms": ["Nonrenal CL Norm by Dose"]}, {"conceptId": "C105456", "definition": "The total clearance of a substance from the blood minus the renal clearance divided by the surface area.", "preferredTerm": "Nonrenal Clearance Normalized by SA", "submissionValue": "NRENLCLS", "synonyms": ["Nonrenal CL Norm by SA"]}, {"conceptId": "C105457", "definition": "The total clearance of a substance from the blood minus the renal clearance divided by the weight.", "preferredTerm": "Nonrenal Clearance Normalized by WT", "submissionValue": "NRENLCLW", "synonyms": ["Nonrenal CL Norm by WT"]}, {"conceptId": "C102381", "definition": "The maximum concentration during a dosing interval divided by the concentration at the end of the dosing interval.", "preferredTerm": "Peak Trough Ratio", "submissionValue": "PTROUGHR", "synonyms": ["Peak Trough Ratio"]}, {"conceptId": "C85542", "definition": "The goodness of fit statistic for the terminal elimination phase.", "preferredTerm": "R Squared", "submissionValue": "R2", "synonyms": ["R Squared"]}, {"conceptId": "C85553", "definition": "The goodness of fit statistic for the terminal elimination phase, adjusted for the number of time points used in the estimation of Lambda z.", "preferredTerm": "Adjusted R Squared", "submissionValue": "R2ADJ", "synonyms": ["R Squared Adjusted"]}, {"conceptId": "C112032", "definition": "The cumulative amount recovered from the specimen type specified in PPSPEC extrapolated to infinity, calculated using the observed value of the last non-zero concentration.", "preferredTerm": "Amount Recovered Infinity Observed", "submissionValue": "RCAMIFO", "synonyms": ["Amt Rec Infinity Obs"]}, {"conceptId": "C112223", "definition": "The cumulative amount recovered from the specimen type specified in PPSPEC extrapolated to infinity, calculated using the observed value of the last non-zero concentration, divided by the body mass index.", "preferredTerm": "Amount Recovered Infinity Observed Normalized by Body Mass Index", "submissionValue": "RCAMIFOB", "synonyms": ["Amt Rec Infinity Obs Norm by BMI"]}, {"conceptId": "C112224", "definition": "The cumulative amount recovered from the specimen type specified in PPSPEC extrapolated to infinity, calculated using the observed value of the last non-zero concentration, divided by the surface area.", "preferredTerm": "Amount Recovered Infinity Observed Normalized by Surface Area", "submissionValue": "RCAMIFOS", "synonyms": ["Amt Rec Infinity Obs Norm by SA"]}, {"conceptId": "C112225", "definition": "The cumulative amount recovered from the specimen type specified in PPSPEC extrapolated to infinity, calculated using the observed value of the last non-zero concentration, divided by the weight.", "preferredTerm": "Amount Recovered Infinity Observed Normalized by Weight", "submissionValue": "RCAMIFOW", "synonyms": ["Amt Rec Infinity Obs Norm by WT"]}, {"conceptId": "C112033", "definition": "The cumulative amount recovered from the specimen type specified in PPSPEC extrapolated to infinity, calculated using the predicted value of the last non-zero concentration.", "preferredTerm": "Amount Recovered Infinity Predicted", "submissionValue": "RCAMIFP", "synonyms": ["Amt Rec Infinity Pred"]}, {"conceptId": "C112226", "definition": "The cumulative amount recovered from the specimen type specified in PPSPEC extrapolated to infinity, calculated using the predicted value of the last non-zero concentration, divided by the body mass index.", "preferredTerm": "Amount Recovered Infinity Predicted Normalized by Body Mass Index", "submissionValue": "RCAMIFPB", "synonyms": ["Amt Rec Infinity Pred Norm by BMI"]}, {"conceptId": "C112227", "definition": "The cumulative amount recovered from the specimen type specified in PPSPEC extrapolated to infinity, calculated using the predicted value of the last non-zero concentration, divided by the surface area.", "preferredTerm": "Amount Recovered Infinity Predicted Normalized by Surface Area", "submissionValue": "RCAMIFPS", "synonyms": ["Amt Rec Infinity Pred Norm by SA"]}, {"conceptId": "C112228", "definition": "The cumulative amount recovered from the specimen type specified in PPSPEC extrapolated to infinity, calculated using the predicted value of the last non-zero concentration, divided by the weight.", "preferredTerm": "Amount Recovered Infinity Predicted Normalized by Weight", "submissionValue": "RCAMIFPW", "synonyms": ["Amt Rec Infinity Pred Norm by WT"]}, {"conceptId": "C102359", "definition": "The cumulative amount recovered from the specimen type specified in PPSPEC over the interval from T1 to T2.", "preferredTerm": "Amount Recovered from T1 to T2", "submissionValue": "RCAMINT", "synonyms": ["Amt Rec from T1 to T2"]}, {"conceptId": "C102360", "definition": "The cumulative amount recovered from the specimen type specified in PPSPEC over the interval from T1 to T2 divided by body mass index.", "preferredTerm": "Amount Recovered from T1 to T2 Normalized by Body Mass Index", "submissionValue": "RCAMINTB", "synonyms": ["Amt Rec from T1 to T2 Norm by BMI"]}, {"conceptId": "C102361", "definition": "The cumulative amount recovered from the specimen type specified in PPSPEC over the interval from T1 to T2 divided by surface area.", "preferredTerm": "Amount Recovered from T1 to T2 Normalized by Surface Area", "submissionValue": "RCAMINTS", "synonyms": ["Amt Rec from T1 to T2 Norm by SA"]}, {"conceptId": "C102362", "definition": "The cumulative amount recovered from the specimen type specified in PPSPEC over the interval from T1 to T2 divided by weight.", "preferredTerm": "Amount Recovered from T1 to T2 Normalized by Weight", "submissionValue": "RCAMINTW", "synonyms": ["Amt Rec from T1 to T2 Norm by WT"]}, {"conceptId": "C102363", "definition": "The cumulative amount recovered from the specimen type specified in PPSPEC between doses (TAU).", "preferredTerm": "Amount Recovered Over Dosing Interval", "submissionValue": "RCAMTAU", "synonyms": ["Amt Rec Over Dosing Interval"]}, {"conceptId": "C102364", "definition": "The cumulative amount recovered from the specimen type specified in PPSPEC between doses (TAU) divided by body mass index.", "preferredTerm": "Amount Recovered Over Dosing Interval Normalized by Body Mass Index", "submissionValue": "RCAMTAUB", "synonyms": ["Amt Rec Over Dosing Interval Norm by BMI"]}, {"conceptId": "C102365", "definition": "The cumulative amount recovered from the specimen type specified in PPSPEC between doses (TAU) divided by surface area.", "preferredTerm": "Amount Recovered Over Dosing Interval Normalized by Surface Area", "submissionValue": "RCAMTAUS", "synonyms": ["Amt Rec Over Dosing Interval Norm by SA"]}, {"conceptId": "C102366", "definition": "The cumulative amount recovered from the specimen type specified in PPSPEC between doses (TAU) divided by weight.", "preferredTerm": "Amount Recovered Over Dosing Interval Normalized by Weight", "submissionValue": "RCAMTAUW", "synonyms": ["Amt Rec Over Dosing Interval Norm by WT"]}, {"conceptId": "C112034", "definition": "The percentage of the administered dose that is recovered from the specimen type specified in PPSPEC extrapolated to infinity, calculated using the observed value of the last non-zero concentration.", "preferredTerm": "Percent Recovered Infinity Observed", "submissionValue": "RCPCIFO", "synonyms": ["Pct Rec Infinity Obs"]}, {"conceptId": "C112389", "definition": "The percentage of the administered dose that is recovered from the specimen type specified in PPSPEC extrapolated to infinity, calculated using the observed value of the last non-zero concentration, divided by the body mass index.", "preferredTerm": "Percent Recovered Infinity Observed Normalized by Body Mass Index", "submissionValue": "RCPCIFOB", "synonyms": ["Pct Rec Infinity Obs Norm by BMI"]}, {"conceptId": "C112390", "definition": "The percentage of the administered dose that is recovered from the specimen type specified in PPSPEC extrapolated to infinity, calculated using the observed value of the last non-zero concentration, divided by the surface area.", "preferredTerm": "Percent Recovered Infinity Observed Normalized by Surface Area", "submissionValue": "RCPCIFOS", "synonyms": ["Pct Rec Infinity Obs Norm by SA"]}, {"conceptId": "C112391", "definition": "The percentage of the administered dose that is recovered from the specimen type specified in PPSPEC extrapolated to infinity, calculated using the observed value of the last non-zero concentration, divided by the weight.", "preferredTerm": "Percent Recovered Infinity Observed Normalized by Weight", "submissionValue": "RCPCIFOW", "synonyms": ["Pct Rec Infinity Obs Norm by WT"]}, {"conceptId": "C112035", "definition": "The percentage of the administered dose that is recovered from the specimen type specified in PPSPEC extrapolated to infinity, calculated using the predicted value of the last non-zero concentration.", "preferredTerm": "Percent Recovered Infinity Predicted", "submissionValue": "RCPCIFP", "synonyms": ["Pct Rec Infinity Pred"]}, {"conceptId": "C112392", "definition": "The percentage of the administered dose that is recovered from the specimen type specified in PPSPEC extrapolated to infinity, calculated using the predicted value of the last non-zero concentration, divided by the body mass index.", "preferredTerm": "Percent Recovered Infinity Predicted Normalized by Body Mass Index", "submissionValue": "RCPCIFPB", "synonyms": ["Pct Rec Infinity Pred Norm by BMI"]}, {"conceptId": "C112393", "definition": "The percentage of the administered dose that is recovered from the specimen type specified in PPSPEC extrapolated to infinity, calculated using the predicted value of the last non-zero concentration, divided by the surface area.", "preferredTerm": "Percent Recovered Infinity Predicted Normalized by Surface Area", "submissionValue": "RCPCIFPS", "synonyms": ["Pct Rec Infinity Pred Norm by SA"]}, {"conceptId": "C112394", "definition": "The percentage of the administered dose that is recovered from the specimen type specified in PPSPEC extrapolated to infinity, calculated using the predicted value of the last non-zero concentration, divided by the weight.", "preferredTerm": "Percent Recovered Infinity Predicted Normalized by Weight", "submissionValue": "RCPCIFPW", "synonyms": ["Pct Rec Infinity Pred Norm by WT"]}, {"conceptId": "C102382", "definition": "The percentage of the administered dose that is recovered from the specimen type specified in PPSPEC, over the interval between T1 and T2.", "preferredTerm": "Percent Recovered from T1 to T2", "submissionValue": "RCPCINT", "synonyms": ["Pct Rec from T1 to T2"]}, {"conceptId": "C102383", "definition": "The percentage of the administered dose that is recovered from the specimen type specified in PPSPEC, over the interval between T1 and T2 divided by body mass index.", "preferredTerm": "Percent Recovered from T1 to T2 Normalized by Body Mass Index", "submissionValue": "RCPCINTB", "synonyms": ["Pct Rec from T1 to T2 Norm by BMI"]}, {"conceptId": "C102384", "definition": "The percentage of the administered dose that is recovered from the specimen type specified in PPSPEC, over the interval between T1 and T2 divided by surface area.", "preferredTerm": "Percent Recovered from T1 to T2 Normalized by Surface Area", "submissionValue": "RCPCINTS", "synonyms": ["Pct Rec from T1 to T2 Norm by SA"]}, {"conceptId": "C102385", "definition": "The percentage of the administered dose that is recovered from the specimen type specified in PPSPEC, over the interval between T1 and T2 divided by weight.", "preferredTerm": "Percent Recovered from T1 to T2 Normalized by Weight", "submissionValue": "RCPCINTW", "synonyms": ["Pct Rec from T1 to T2 Norm by WT"]}, {"conceptId": "C102386", "definition": "The percentage of the administered dose that is recovered from the specimen type specified in PPSPEC, between doses (TAU).", "preferredTerm": "Percent Recovered Over Dosing Interval", "submissionValue": "RCPCTAU", "synonyms": ["Pct Rec Over Dosing Interval"]}, {"conceptId": "C102387", "definition": "The percentage of the administered dose that is recovered from the specimen type specified in PPSPEC, between doses (TAU) divided by the body mass index.", "preferredTerm": "Percent Recovered Over Dosing Interval Normalized by Body Mass Index", "submissionValue": "RCPCTAUB", "synonyms": ["Pct Rec Over Dosing Interval Norm by BMI"]}, {"conceptId": "C102388", "definition": "The percentage of the administered dose that is recovered from the specimen type specified in PPSPEC, between doses (TAU) divided by surface area.", "preferredTerm": "Percent Recovered Over Dosing Interval Normalized by Surface Area", "submissionValue": "RCPCTAUS", "synonyms": ["Pct Rec Over Dosing Interval Norm by SA"]}, {"conceptId": "C102389", "definition": "The percentage of the administered dose that is recovered from the specimen type specified in PPSPEC, between doses (TAU) divided by weight.", "preferredTerm": "Percent Recovered Over Dosing Interval Normalized by Weight", "submissionValue": "RCPCTAUW", "synonyms": ["Pct Rec Over Dosing Interval Norm by WT"]}, {"conceptId": "C75913", "definition": "The clearance of a substance from the blood by the kidneys.", "preferredTerm": "Renal Clearance", "submissionValue": "RENALCL", "synonyms": ["Renal CL"]}, {"conceptId": "C105458", "definition": "The clearance of a substance from the blood by the kidneys divided by the body mass index.", "preferredTerm": "Renal Clearance Normalized by BMI", "submissionValue": "RENALCLB", "synonyms": ["Renal CL Norm by BMI"]}, {"conceptId": "C105459", "definition": "The clearance of a substance from the blood by the kidneys divided by the dose.", "preferredTerm": "Renal Clearance Normalized by Dose", "submissionValue": "RENALCLD", "synonyms": ["Renal CL Norm by Dose"]}, {"conceptId": "C105460", "definition": "The clearance of a substance from the blood by the kidneys divided by the surface area.", "preferredTerm": "Renal Clearance Normalized by SA", "submissionValue": "RENALCLS", "synonyms": ["Renal CL Norm by SA"]}, {"conceptId": "C105461", "definition": "The clearance of a substance from the blood by the kidneys divided by the weight.", "preferredTerm": "Renal Clearance Normalized by WT", "submissionValue": "RENALCLW", "synonyms": ["Renal CL Norm by WT"]}, {"conceptId": "C122050", "definition": "The clearance of a substance from the blood by the kidneys, calculated using AUCTAU.", "preferredTerm": "Renal Clearance for Dose Interval", "submissionValue": "RENCLTAU", "synonyms": ["Renal CL for Dose Int"]}, {"conceptId": "C122049", "definition": "The clearance of a substance from the blood by the kidneys over the interval from T1 to T2.", "preferredTerm": "Renal Clearance from T1 to T2", "submissionValue": "RNCLINT", "synonyms": ["Renal CL from T1 to T2"]}, {"conceptId": "C122330", "definition": "The clearance of a substance from the blood by the kidneys over the interval from T1 to T2 divided by the body mass index.", "preferredTerm": "Renal Clearance from T1 to T2 Normalized by Body Mass Index", "submissionValue": "RNCLINTB", "synonyms": ["Renal CL from T1 to T2 Norm by BMI"]}, {"conceptId": "C122331", "definition": "The clearance of a substance from the blood by the kidneys over the interval from T1 to T2 divided by the dose.", "preferredTerm": "Renal Clearance from T1 to T2 Normalized by Dose", "submissionValue": "RNCLINTD", "synonyms": ["Renal CL from T1 to T2 Norm by Dose"]}, {"conceptId": "C122332", "definition": "The clearance of a substance from the blood by the kidneys over the interval from T1 to T2 divided by the surface area.", "preferredTerm": "Renal Clearance from T1 to T2 Normalized by Surface Area", "submissionValue": "RNCLINTS", "synonyms": ["Renal CL from T1 to T2 Norm by SA"]}, {"conceptId": "C122333", "definition": "The clearance of a substance from the blood by the kidneys over the interval from T1 to T2 divided by the weight.", "preferredTerm": "Renal Clearance from T1 to T2 Normalized by Weight", "submissionValue": "RNCLINTW", "synonyms": ["Renal CL from T1 to T2 Norm by WT"]}, {"conceptId": "C122334", "definition": "The clearance of a substance from the blood by the kidneys, calculated using AUCTAU, divided by the body mass index.", "preferredTerm": "Renal Clearance for Dose Interval Normalized by Body Mass Index", "submissionValue": "RNCLTAUB", "synonyms": ["Renal CL for Dose Int Norm by BMI"]}, {"conceptId": "C122335", "definition": "The clearance of a substance from the blood by the kidneys, calculated using AUCTAU, divided by the dose.", "preferredTerm": "Renal Clearance for Dose Interval Normalized by Dose", "submissionValue": "RNCLTAUD", "synonyms": ["Renal CL for Dose Int Norm by Dose"]}, {"conceptId": "C122336", "definition": "The clearance of a substance from the blood by the kidneys, calculated using AUCTAU, divided by the surface area.", "preferredTerm": "Renal Clearance for Dose Interval Normalized by Surface Area", "submissionValue": "RNCLTAUS", "synonyms": ["Renal CL for Dose Int Norm by SA"]}, {"conceptId": "C122337", "definition": "The clearance of a substance from the blood by the kidneys, calculated using AUCTAU, divided by the weight.", "preferredTerm": "Renal Clearance for Dose Interval Normalized by Weight", "submissionValue": "RNCLTAUW", "synonyms": ["Renal CL for Dose Int Norm by WT"]}, {"conceptId": "C122338", "definition": "The area under the curve (AUCTAU) at steady state divided by the area under the curve extrapolated to infinity for the initial dosing interval.", "preferredTerm": "Stationarity Ratio Area Under the Curve", "submissionValue": "SRAUC", "synonyms": ["Stationarity Ratio AUC"]}, {"conceptId": "C85824", "definition": "The time prior to the first measurable (non-zero) concentration.", "preferredTerm": "Time until First Nonzero Concentration", "submissionValue": "TLAG", "synonyms": ["Time Until First Nonzero Conc"]}, {"conceptId": "C85822", "definition": "The time of the last measurable (positive) concentration.", "preferredTerm": "Time of Last Nonzero Concentration", "submissionValue": "TLST", "synonyms": ["Time of Last Nonzero Conc"]}, {"conceptId": "C70919", "definition": "The time of maximum observed concentration sampled during a dosing interval.", "preferredTerm": "Tmax", "submissionValue": "TMAX", "synonyms": ["Time of CMAX"]}, {"conceptId": "C85825", "definition": "The time of minimum concentration sampled during a dosing interval.", "preferredTerm": "Tmin", "submissionValue": "TMIN", "synonyms": ["Time of CMIN Observation"]}, {"conceptId": "C122339", "definition": "The concentration at the start of a dosing interval divided by the maximum concentration during the dosing interval.", "preferredTerm": "Trough Peak Ratio", "submissionValue": "TROUGHPR", "synonyms": ["Trough Peak Ratio"]}, {"conceptId": "C102371", "definition": "The initial volume of distribution for a substance administered by bolus intravascular dosing.", "preferredTerm": "Initial Volume of Distribution", "submissionValue": "V0", "synonyms": ["Vol Dist Initial"]}, {"conceptId": "C102372", "definition": "The initial volume of distribution for a substance administered by bolus intravascular dosing divided by the body mass index.", "preferredTerm": "Initial Volume of Distribution Normalized by Body Mass Index", "submissionValue": "V0B", "synonyms": ["Vol Dist Initial Norm by BMI"]}, {"conceptId": "C102373", "definition": "The initial volume of distribution for a substance administered by bolus intravascular dosing divided by the dose.", "preferredTerm": "Initial Volume of Distribution Normalized by Dose", "submissionValue": "V0D", "synonyms": ["Vol Dist Initial Norm by Dose"]}, {"conceptId": "C102374", "definition": "The initial volume of distribution for a substance administered by bolus intravascular dosing divided by the surface area.", "preferredTerm": "Initial Volume of Distribution Normalized by Surface Area", "submissionValue": "V0S", "synonyms": ["Vol Dist Initial Norm by SA"]}, {"conceptId": "C102375", "definition": "The initial volume of distribution for a substance administered by bolus intravascular dosing divided by the weight.", "preferredTerm": "Initial Volume of Distribution Normalized by Weight", "submissionValue": "V0W", "synonyms": ["Vol Dist Initial Norm by WT"]}, {"conceptId": "C85817", "definition": "The sum of urine volumes that are used for PK parameters.", "preferredTerm": "Sum Urine Volume", "submissionValue": "VOLPK", "synonyms": ["Sum of Urine Vol"]}, {"conceptId": "C85770", "definition": "The volume of distribution at steady state based on the observed CLST for a substance administered by intravascular dosing.", "preferredTerm": "Observed Steady State Volume of Distribution", "submissionValue": "VSSO", "synonyms": ["Vol Dist Steady State Obs"]}, {"conceptId": "C102377", "definition": "The volume of distribution at steady state based on the observed CLST for a substance administered by intravascular dosing divided by the body mass index.", "preferredTerm": "Observed Steady State Volume of Distribution Normalized by Body Mass Index", "submissionValue": "VSSOB", "synonyms": ["Vol Dist Steady State Obs Norm by BMI"]}, {"conceptId": "C102378", "definition": "The volume of distribution at steady state based on the observed CLST for a substance administered by intravascular dosing divided by the dose.", "preferredTerm": "Observed Steady State Volume of Distribution Normalized by Dose", "submissionValue": "VSSOD", "synonyms": ["Vol Dist Steady State Obs Norm by Dose"]}, {"conceptId": "C102379", "definition": "The volume of distribution at steady state based on the observed CLST for a substance administered by intravascular dosing divided by the surface area.", "preferredTerm": "Observed Steady State Volume of Distribution Normalized by Surface Area", "submissionValue": "VSSOS", "synonyms": ["Vol Dist Steady State Obs Norm by SA"]}, {"conceptId": "C102380", "definition": "The volume of distribution at steady state based on the observed CLST for a substance administered by intravascular dosing divided by the weight.", "preferredTerm": "Observed Steady State Volume of Distribution Normalized by Weight", "submissionValue": "VSSOW", "synonyms": ["Vol Dist Steady State Obs Norm by WT"]}, {"conceptId": "C85794", "definition": "The volume of distribution at steady state based on the predicted CLST for a substance administered by intravascular dosing.", "preferredTerm": "Predicted Steady State Volume of Distribution", "submissionValue": "VSSP", "synonyms": ["Vol Dist Steady State Pred"]}, {"conceptId": "C102390", "definition": "The volume of distribution at steady state based on the predicted CLST for a substance administered by intravascular dosing divided by the body mass index.", "preferredTerm": "Predicted Steady State Volume of Distribution Normalized by Body Mass Index", "submissionValue": "VSSPB", "synonyms": ["Vol Dist Steady State Pred Norm by BMI"]}, {"conceptId": "C102391", "definition": "The volume of distribution at steady state based on the predicted CLST for a substance administered by intravascular dosing divided by the dose.", "preferredTerm": "Predicted Steady State Volume of Distribution Normalized by Dose", "submissionValue": "VSSPD", "synonyms": ["Vol Dist Steady State Pred Norm by Dose"]}, {"conceptId": "C102392", "definition": "The volume of distribution at steady state based on the predicted CLST for a substance administered by intravascular dosing divided by the surface area.", "preferredTerm": "Predicted Steady State Volume of Distribution Normalized by Surface Area", "submissionValue": "VSSPS", "synonyms": ["Vol Dist Steady State Pred Norm by SA"]}, {"conceptId": "C102393", "definition": "The volume of distribution at steady state based on the predicted CLST for a substance administered by intravascular dosing divided by the weight.", "preferredTerm": "Predicted Steady State Volume of Distribution Normalized by Weight", "submissionValue": "VSSPW", "synonyms": ["Vol Dist Steady State Pred Norm by WT"]}, {"conceptId": "C85775", "definition": "The volume of distribution associated with the terminal slope following extravascular administration divided by the fraction of dose absorbed, calculated using the observed value of the last non-zero concentration.", "preferredTerm": "Observed Volume of Distribution of Absorbed Fraction", "submissionValue": "VZFO", "synonyms": ["Vz Obs by F"]}, {"conceptId": "C92410", "definition": "The volume of distribution associated with the terminal slope following extravascular administration divided by the fraction of dose absorbed, calculated using the observed value of the last non-zero concentration, divided by the body mass index.", "preferredTerm": "Volume of Distribution of Fraction Dose Observed Normalized by Body Mass Index", "submissionValue": "VZFOB", "synonyms": ["Vz Obs by F Norm by BMI"]}, {"conceptId": "C102729", "definition": "The volume of distribution associated with the terminal slope following extravascular administration divided by the fraction of dose absorbed, calculated using the observed value of the last non-zero concentration, divided by the dose.", "preferredTerm": "Volume of Distribution of Fraction Dose Observed Normalized by Dose", "submissionValue": "VZFOD", "synonyms": ["Vz Obs by F Norm by Dose"]}, {"conceptId": "C92411", "definition": "The volume of distribution associated with the terminal slope following extravascular administration divided by the fraction of dose absorbed, calculated using the observed value of the last non-zero concentration, divided by the surface area.", "preferredTerm": "Volume of Distribution of Fraction Dose Observed Normalized by Surface Area", "submissionValue": "VZFOS", "synonyms": ["Vz Obs by F Norm by SA"]}, {"conceptId": "C92412", "definition": "The volume of distribution associated with the terminal slope following extravascular administration divided by the fraction of dose absorbed, calculated using the observed value of the last non-zero concentration, divided by the weight.", "preferredTerm": "Volume of Distribution of Fraction Dose Observed Normalized by Weight", "submissionValue": "VZFOW", "synonyms": ["Vz Obs by F Norm by WT"]}, {"conceptId": "C85799", "definition": "The volume of distribution associated with the terminal slope following extravascular administration divided by the fraction of dose absorbed, calculated using the predicted value of the last non-zero concentration.", "preferredTerm": "Predicted Volume of Distribution of Absorbed Fraction", "submissionValue": "VZFP", "synonyms": ["Vz Pred by F"]}, {"conceptId": "C92428", "definition": "The volume of distribution associated with the terminal slope following extravascular administration divided by the fraction of dose absorbed, calculated using the predicted value of the last non-zero concentration, divided by the body mass index.", "preferredTerm": "Volume of Distribution of Fraction Dose Predicted Normalized by Body Mass Index", "submissionValue": "VZFPB", "synonyms": ["Vz Pred by F Norm by BMI"]}, {"conceptId": "C102730", "definition": "The volume of distribution associated with the terminal slope following extravascular administration divided by the fraction of dose absorbed, calculated using the predicted value of the last non-zero concentration, divided by the dose.", "preferredTerm": "Volume of Distribution of Fraction Dose Predicted Normalized by Dose", "submissionValue": "VZFPD", "synonyms": ["Vz Pred by F Norm by Dose"]}, {"conceptId": "C92429", "definition": "The volume of distribution associated with the terminal slope following extravascular administration divided by the fraction of dose absorbed, calculated using the predicted value of the last non-zero concentration, divided by the surface area.", "preferredTerm": "Volume of Distribution of Fraction Dose Predicted Normalized by Surface Area", "submissionValue": "VZFPS", "synonyms": ["Vz Pred by F Norm by SA"]}, {"conceptId": "C92430", "definition": "The volume of distribution associated with the terminal slope following extravascular administration divided by the fraction of dose absorbed, calculated using the predicted value of the last non-zero concentration, divided by the weight.", "preferredTerm": "Volume of Distribution of Fraction Dose Predicted Normalized by Weight", "submissionValue": "VZFPW", "synonyms": ["Vz Pred by F Norm by WT"]}, {"conceptId": "C111364", "definition": "The volume of distribution associated with the terminal slope following extravascular administration divided by the fraction of dose absorbed, calculated using AUCTAU.", "preferredTerm": "Volume of Distribution for Dosing Interval by Fraction", "submissionValue": "VZFTAU", "synonyms": ["Vz for Dose Int by F"]}, {"conceptId": "C111365", "definition": "The volume of distribution associated with the terminal slope following extravascular administration divided by the fraction of dose absorbed, calculated using AUCTAU, divided by the body mass index.", "preferredTerm": "Volume of Distribution for Dosing Interval by Fraction Normalized by Body Mass Index", "submissionValue": "VZFTAUB", "synonyms": ["Vz for Dose Int by F Norm by BMI"]}, {"conceptId": "C111366", "definition": "The volume of distribution associated with the terminal slope following extravascular administration divided by the fraction of dose absorbed, calculated using AUCTAU, divided by the dose.", "preferredTerm": "Volume of Distribution for Dosing Interval by Fraction Normalized by Dose", "submissionValue": "VZFTAUD", "synonyms": ["Vz for Dose Int by F Norm by Dose"]}, {"conceptId": "C111367", "definition": "The volume of distribution associated with the terminal slope following extravascular administration divided by the fraction of dose absorbed, calculated using AUCTAU, divided by the surface area.", "preferredTerm": "Volume of Distribution for Dosing Interval by Fraction Normalized by Surface Area", "submissionValue": "VZFTAUS", "synonyms": ["Vz for Dose Int by F Norm by SA"]}, {"conceptId": "C111368", "definition": "The volume of distribution associated with the terminal slope following extravascular administration divided by the fraction of dose absorbed, calculated using AUCTAU, divided by the weight.", "preferredTerm": "Volume of Distribution for Dosing Interval by Fraction Normalized by Weight", "submissionValue": "VZFTAUW", "synonyms": ["Vz for Dose Int by F Norm by WT"]}, {"conceptId": "C85774", "definition": "The volume of distribution associated with the terminal slope following intravascular administration, calculated using the observed value of the last non-zero concentration.", "preferredTerm": "Observed Volume of Distribution", "submissionValue": "VZO", "synonyms": ["Vz Obs"]}, {"conceptId": "C92407", "definition": "The volume of distribution associated with the terminal slope following intravascular administration, calculated using the observed value of the last non-zero concentration, divided by the body mass index.", "preferredTerm": "Volume of Distribution Observed Normalized by Body Mass Index", "submissionValue": "VZOB", "synonyms": ["Vz Obs Norm by BMI"]}, {"conceptId": "C102683", "definition": "The volume of distribution associated with the terminal slope following intravascular administration, calculated using the observed value of the last non-zero concentration, divided by the dose.", "preferredTerm": "Observed Volume of Distribution Normalized by Dose", "submissionValue": "VZOD", "synonyms": ["Vz Obs Norm by Dose"]}, {"conceptId": "C92408", "definition": "The volume of distribution associated with the terminal slope following intravascular administration, calculated using the observed value of the last non-zero concentration, divided by the surface area.", "preferredTerm": "Volume of Distribution Observed Normalized by Surface Area", "submissionValue": "VZOS", "synonyms": ["Vz Obs Norm by SA"]}, {"conceptId": "C92409", "definition": "The volume of distribution associated with the terminal slope following intravascular administration, calculated using the observed value of the last non-zero concentration, divided by the weight.", "preferredTerm": "Volume of Distribution Observed Normalized by Weight", "submissionValue": "VZOW", "synonyms": ["Vz Obs Norm by WT"]}, {"conceptId": "C85798", "definition": "The volume of distribution associated with the terminal slope following intravascular administration, calculated using the predicted value of the last non-zero concentration.", "preferredTerm": "Predicted Volume of Distribution", "submissionValue": "VZP", "synonyms": ["Vz Pred"]}, {"conceptId": "C92425", "definition": "The volume of distribution associated with the terminal slope following intravascular administration, calculated using the predicted value of the last non-zero concentration, divided by the body mass index.", "preferredTerm": "Volume of Distribution Predicted Normalized by Body Mass Index", "submissionValue": "VZPB", "synonyms": ["Vz Pred Norm by BMI"]}, {"conceptId": "C102696", "definition": "The volume of distribution associated with the terminal slope following intravascular administration, calculated using the predicted value of the last non-zero concentration, divided by the dose.", "preferredTerm": "Predicted Volume of Distribution Normalized by Dose", "submissionValue": "VZPD", "synonyms": ["Vz Pred Norm by Dose"]}, {"conceptId": "C92426", "definition": "The volume of distribution associated with the terminal slope following intravascular administration, calculated using the predicted value of the last non-zero concentration, divided by the surface area.", "preferredTerm": "Volume of Distribution Predicted Normalized by Surface Area", "submissionValue": "VZPS", "synonyms": ["Vz Pred Norm by SA"]}, {"conceptId": "C92427", "definition": "The volume of distribution associated with the terminal slope following intravascular administration, calculated using the predicted value of the last non-zero concentration, divided by the weight.", "preferredTerm": "Volume of Distribution Predicted Normalized by Weight", "submissionValue": "VZPW", "synonyms": ["Vz Pred Norm by WT"]}, {"conceptId": "C111333", "definition": "The volume of distribution associated with the terminal slope following intravascular administration, calculated using AUCTAU.", "preferredTerm": "Volume of Distribution for Dosing Interval", "submissionValue": "VZTAU", "synonyms": ["Vz for Dose Int"]}, {"conceptId": "C111369", "definition": "The volume of distribution associated with the terminal slope following intravascular administration, calculated using AUCTAU, divided by the body mass index.", "preferredTerm": "Volume of Distribution for Dosing Interval Normalized by Body Mass Index", "submissionValue": "VZTAUB", "synonyms": ["Vz for Dose Int Norm by BMI"]}, {"conceptId": "C111370", "definition": "The volume of distribution associated with the terminal slope following intravascular administration, calculated using AUCTAU, divided by the dose.", "preferredTerm": "Volume of Distribution for Dosing Interval Normalized by Dose", "submissionValue": "VZTAUD", "synonyms": ["Vz for Dose Int Norm by Dose"]}, {"conceptId": "C111371", "definition": "The volume of distribution associated with the terminal slope following intravascular administration, calculated using AUCTAU, divided by the surface area.", "preferredTerm": "Volume of Distribution for Dosing Interval Normalized by Surface Area", "submissionValue": "VZTAUS", "synonyms": ["Vz for Dose Int Norm by SA"]}, {"conceptId": "C111372", "definition": "The volume of distribution associated with the terminal slope following intravascular administration, calculated using AUCTAU, divided by the weight.", "preferredTerm": "Volume of Distribution for Dosing Interval Normalized by Weight", "submissionValue": "VZTAUW", "synonyms": ["Vz for Dose Int Norm by WT"]}]}