{"_links": {"parentPackage": {"href": "/mdr/ct/packages/sendct-2017-03-31", "title": "SEND Controlled Terminology Package 29 Effective 2017-03-31", "type": "Terminology"}, "priorVersion": {"href": "/mdr/ct/packages/sendct-2016-12-16/codelists/C88025", "title": "CDISC SEND Tumor Findings Results Terminology", "type": "Code List"}, "rootItem": {"href": "/mdr/root/ct/sendct/codelists/C88025", "title": "Version-agnostic anchor resource for codelist C88025", "type": "Root Value Domain"}, "self": {"href": "/mdr/ct/packages/sendct-2017-03-31/codelists/C88025", "title": "CDISC SEND Tumor Findings Results Terminology", "type": "Code List"}}, "conceptId": "C88025", "definition": "The terminology that includes concepts relevant to benign or malignant tissue growth.", "extensible": "true", "name": "Neoplasm Type", "preferredTerm": "CDISC SEND Tumor Findings Results Terminology", "submissionValue": "NEOPLASM", "synonyms": ["Neoplasm Type"], "terms": [{"conceptId": "C116215", "definition": "A benign tumor of the pancreas with morphologic characteristics of endocrine, acinar and ductal cells. (INHAND)", "preferredTerm": "Experimental Organism Benign Acinar-islet Cell Tumor", "submissionValue": "ACINAR-ISLET CELL TUMOR, BENIGN"}, {"conceptId": "C6878", "definition": "A malignant pancreatic neoplasm characterized by the presence of a mixture of acinar and islet cell elements.", "preferredTerm": "Mixed Acinar-Neuroendocrine Carcinoma of the Pancreas", "submissionValue": "ACINAR-ISLET CELL TUMOR, MALIGNANT"}, {"conceptId": "C7644", "definition": "A low-grade malignant neoplasm composed of epithelial cells and a spindle cell osteo-fibrous proliferation.", "preferredTerm": "Adamantinoma", "submissionValue": "ADAMANTINOMA, MALIGNANT", "synonyms": ["Adamantinoma"]}, {"conceptId": "C4200", "definition": "A malignant neoplasm arising from glandular cells that includes focal or extensive areas of squamous metaplasia.", "preferredTerm": "Adenocarcinoma with Squamous Metaplasia", "submissionValue": "ADENOACANTHOMA, MALIGNANT", "synonyms": ["Adenoacanthoma"]}, {"conceptId": "C3766", "definition": "A malignant neoplasm comprising glandular epithelial clear cells.", "preferredTerm": "Clear Cell Adenocarcinoma", "submissionValue": "ADENOCARCINOMA, CLEAR CELL, MALIGNANT", "synonyms": ["Clear Cell Carcinoma", "Mesonephroid Clear Cell Adenocarcinoma", "Mesonephroid Clear Cell Carcinoma"]}, {"conceptId": "C7359", "definition": "A malignant glandular neoplasm of the uterine lining.", "preferredTerm": "Endometrial Adenocarcinoma", "submissionValue": "ADENOCARCINOMA, ENDOMETRIAL, MALIGNANT", "synonyms": ["Adenocarcinoma of Endometrium", "Adenocarcinoma of the Endometrium"]}, {"conceptId": "C2852", "definition": "A malignant neoplasm arising from glandular cells.", "preferredTerm": "Adenocarcinoma", "submissionValue": "ADENOCARCINOMA, MALIGNANT"}, {"conceptId": "C26712", "definition": "An adenocarcinoma comprising neoplastic glandular cells containing intracytoplasmic mucin.", "preferredTerm": "Mucinous Adenocarcinoma", "submissionValue": "ADENOCARCINOMA, MUCINOUS, MALIGNANT", "synonyms": ["Colloid Adenocarcinoma", "Colloid Carcinoma", "Gelatinous Adenocarcinoma", "Gelatinous Carcinoma", "Mucinous Carcinoma", "Mucoid Adenocarcinoma", "Mucoid Carcinoma", "Mucous Adenocarcinoma", "Mucous Carcinoma"]}, {"conceptId": "C2853", "definition": "An adenocarcinoma with papillary growth pattern.", "preferredTerm": "Papillary Adenocarcinoma", "submissionValue": "ADENOCARCINOMA, PAPILLARY, MALIGNANT"}, {"conceptId": "C40310", "definition": "An adenocarcinoma with sebaceous differentiation.", "preferredTerm": "Sebaceous Carcinoma", "submissionValue": "ADENOCARCINOMA, SEBACEOUS, MALIGNANT", "synonyms": ["Carcinoma of Sebaceous Gland", "Carcinoma of the Sebaceous Gland", "Sebaceous Gland Carcinoma"]}, {"conceptId": "C8984", "definition": "Benign mixed neoplasm comprised of epithelial/glandular and mesenchymal structures.", "preferredTerm": "Adenofibroma", "submissionValue": "ADENOFIBROMA, BENIGN", "synonyms": ["Benign Mixed Muellerian Tumor"]}, {"conceptId": "C4159", "definition": "Benign mixed neoplasm comprised of epithelial/glandular and lipomatous structures.", "preferredTerm": "Lipoadenoma", "submissionValue": "ADENOLIPOMA, BENIGN"}, {"conceptId": "C4196", "definition": "A benign glandular epithelial neoplasm comprising secretory cells forming acinar patterns.", "preferredTerm": "Acinar Cell Adenoma", "submissionValue": "ADENOMA, ACINAR CELL, BENIGN", "synonyms": ["Acinar Adenoma", "Acinic Cell Adenoma"]}, {"conceptId": "C7580", "definition": "A benign epithelial neoplasm arising from the sebaceous or sweat glands.", "preferredTerm": "Skin Appendage Adenoma", "submissionValue": "ADENOMA, ADNEXAL, BENIGN", "synonyms": ["Adenoma of Adnexa", "Adenoma of Skin Appendage", "Adnexal Adenoma"]}, {"conceptId": "C9003", "definition": "A benign neoplasm arising from any of the adrenal cortical layers.", "preferredTerm": "Adrenal Cortex Adenoma", "submissionValue": "ADENOMA, ADRENOCORTICAL, BENIGN", "synonyms": ["Adenoma of Adrenal Cortex", "Adenoma of Adrenal Gland", "Adenoma of the Adrenal Cortex", "Adenoma of the Adrenal Gland", "Adrenal Adenoma", "Adrenal Cortical Adenoma", "Adrenal Gland Adenoma", "Adrenocortical Adenoma", "Benign Adenoma of Adrenal Gland", "Benign Adenoma of the Adrenal Gland", "Benign Adrenal Adenoma", "Benign Adrenal Gland Adenoma", "Cortical Cell Adenoma"]}, {"conceptId": "C3329", "definition": "A benign neoplasm of the anterior lobe of the pituitary gland.", "preferredTerm": "Pituitary Gland Adenoma", "submissionValue": "ADENOMA, ANTERIOR LOBE PITUITARY GLAND, BENIGN", "synonyms": ["Adenoma of Pituitary", "Adenoma of Pituitary Gland", "Adenoma of the Pituitary", "Adenoma of the Pituitary Gland", "Pituitary Adenoma"]}, {"conceptId": "C2855", "definition": "A benign neoplasm arising from epithelium.", "preferredTerm": "Adenoma", "submissionValue": "ADENOMA, BENIGN"}, {"conceptId": "C3494", "definition": "A benign neoplasia of the lung, arising from bronchial epithelium.", "preferredTerm": "Lung Papillary Adenoma", "submissionValue": "ADENOMA, BRONCHIAL, BENIGN"}, {"conceptId": "C4140", "definition": "A benign lung neoplasm arising from the alveolar/bronchiolar epithelium.", "preferredTerm": "Alveolar Adenoma", "submissionValue": "ADENOMA, BRONCHIOLOALVEOLAR, BENIGN", "synonyms": ["Adenoma of Alveoli", "Adenoma of the Alveoli"]}, {"conceptId": "C46101", "definition": "A benign neoplasm arising from C-cells of the thyroid gland.", "preferredTerm": "Neoplastic C-Cell Hyperplasia", "submissionValue": "ADENOMA, C-CELL, BENIGN", "synonyms": ["Parafollicular Cell Adenoma"]}, {"conceptId": "C6088", "definition": "A benign epithelial neoplasm derived from ceruminous glands in the external auditory canal.", "preferredTerm": "External Auditory Canal Ceruminous Adenoma", "submissionValue": "ADENOMA, CERUMINOUS GLAND, BENIGN", "synonyms": ["Ceruminoma", "Ceruminous Adenoma", "Ceruminous Adenoma of External Auditory Canal", "Ceruminous Adenoma of the External Auditory Canal"]}, {"conceptId": "C4151", "definition": "A benign neoplasm comprising glands containing epithelial clear cells.", "preferredTerm": "Clear Cell Adenoma", "submissionValue": "ADENOMA, CLEAR CELL, BENIGN"}, {"conceptId": "C127811", "definition": "A benign epithelial neoplasm arising from the endometrium.", "preferredTerm": "Experimental Organism Benign Endometrial Adenoma", "submissionValue": "ADENOMA, ENDOMETRIAL, BENIGN"}, {"conceptId": "C3502", "definition": "A benign neoplasm arising from follicular cells of the thyroid gland.", "preferredTerm": "Thyroid Gland Follicular Adenoma", "submissionValue": "ADENOMA, FOLLICULAR CELL, BENIGN", "synonyms": ["Adenoma of Thyroid", "Adenoma of Thyroid Gland", "Adenoma of the Thyroid", "Adenoma of the Thyroid Gland", "Follicular Adenoma", "Follicular Adenoma of Thyroid", "Follicular Adenoma of Thyroid Gland", "Follicular Adenoma of the Thyroid", "Follicular Adenoma of the Thyroid Gland", "Thyroid Adenoma", "Thyroid Follicular Adenoma", "Thyroid Gland Adenoma"]}, {"conceptId": "C3758", "definition": "A benign epithelial neoplasm arising from hepatocytes.", "preferredTerm": "Hepatocellular Adenoma", "submissionValue": "ADENOMA, HEPATOCELLULAR, BENIGN", "synonyms": ["Adenoma of Liver Cells", "Adenoma of the Liver Cells", "HCA", "Liver Cell Adenoma"]}, {"conceptId": "C7126", "definition": "A benign neoplasm arising from the intrahepatic bile duct.", "preferredTerm": "Intrahepatic Bile Duct Adenoma", "submissionValue": "ADENOMA, HEPATOCHOLANGIOCELLULAR, BENIGN"}, {"conceptId": "C114108", "definition": "A benign neoplasm arising from the islet cells of the pancreas.", "preferredTerm": "Experimental Organism Islet Cell Adenoma Neoplasm", "submissionValue": "ADENOMA, ISLET CELL, BENIGN", "synonyms": ["Islet Cell Adenoma"]}, {"conceptId": "C46119", "definition": "A benign epithelial neoplasm of the thyroid gland comprising follicular cells with cytoplasmic clearing.", "preferredTerm": "Thyroid Gland Clear Cell Follicular Adenoma", "submissionValue": "ADENOMA, LIGHT CELL, BENIGN"}, {"conceptId": "C2973", "definition": "A benign, cystic epithelial neoplasm comprising cells containing intracytoplasmic mucin.", "preferredTerm": "Mucinous Cystadenoma", "submissionValue": "ADENOMA, MUCINOUS, BENIGN", "synonyms": ["Mucinous Adenoma", "Mucinous Cystoma", "Pseudomucinous Cystadenoma"]}, {"conceptId": "C79951", "definition": "A benign epithelial neoplasm characterized by the presence of papillary epithelial patterns.", "preferredTerm": "Papillary Adenoma", "submissionValue": "ADENOMA, PAPILLARY, BENIGN"}, {"conceptId": "C60490", "definition": "A benign epithelial neoplasm arising from the pars distalis of the anterior pituitary gland.", "preferredTerm": "Rat Pars Distalis Adenoma", "submissionValue": "ADENOMA, PARS DISTALIS, BENIGN", "synonyms": ["Rat Pars Distalis Adenoma"]}, {"conceptId": "C60493", "definition": "A benign epithelial neoplasm arising from the pars intermedia of the anterior pituitary gland.", "preferredTerm": "Rat Pars Intermedia Adenoma", "submissionValue": "ADENOMA, PARS INTERMEDIA, BENIGN", "synonyms": ["Rat Pars Intermedia Adenoma"]}, {"conceptId": "C98723", "definition": "A benign neoplasm of the pituitary gland.", "preferredTerm": "Experimental Organism Pituitary Gland Adenoma", "submissionValue": "ADENOMA, PITUITARY GLAND, BENIGN"}, {"conceptId": "C8383", "definition": "A benign neoplasm arising from the renal cortex.", "preferredTerm": "Kidney Adenoma", "submissionValue": "ADENOMA, RENAL CELL, BENIGN", "synonyms": ["Renal Tubule Adenoma"]}, {"conceptId": "C40018", "definition": "A benign adenoma arising from the rete ovarii, generally composed of intratubular mass(es) that distend the tubule.", "preferredTerm": "Rete Ovarii Adenoma", "submissionValue": "ADENOMA, RETE OVARII, BENIGN"}, {"conceptId": "C39956", "definition": "A benign epithelial neoplasm arising from the rete testis.", "preferredTerm": "Rete Testis Adenoma", "submissionValue": "ADENOMA, RETE TESTIS, BENIGN"}, {"conceptId": "C4174", "definition": "A benign neoplasm arising from sebaceous glands.", "preferredTerm": "Sebaceous Adenoma", "submissionValue": "ADENOMA, SEBACEOUS, BENIGN", "synonyms": ["Adenoma of Sebaceous Gland", "Adenoma of the Sebaceous Gland", "Sebaceous Gland Adenoma", "Skin Appendage Sebaceous Adenoma"]}, {"conceptId": "C92180", "definition": "A benign tubular adenoma with Sertoli cell differentiation.", "preferredTerm": "Rat Sertoliform Tubular Adenoma", "submissionValue": "ADENOMA, SERTOLIFORM TUBULAR, BENIGN", "synonyms": ["Rat Sertoliform Tubular Adenoma"]}, {"conceptId": "C7560", "definition": "A benign epithelias neoplasm arising from sweat glands.", "preferredTerm": "Sweat Gland Adenoma", "submissionValue": "ADENOMA, SWEAT GLAND, BENIGN", "synonyms": ["Adenoma of Sweat Gland", "Adenoma of the Sweat Gland"]}, {"conceptId": "C4133", "definition": "A benign neoplasm arising from glandular epithelium, characterized by a tubular architectural pattern.", "preferredTerm": "Tubular Adenoma", "submissionValue": "ADENOMA, TUBULAR CELL, BENIGN"}, {"conceptId": "C79953", "definition": "A benign ovarian epithelial neoplasm characterized by the presence of tubular structures and interstitial stroma.", "preferredTerm": "Tubulostromal Adenoma", "submissionValue": "ADENOMA, TUBULOSTROMAL, BENIGN"}, {"conceptId": "C98800", "definition": "A benign neoplasm of the rodent Zymbal's gland with sebaceous and/or squamous differentiation.", "preferredTerm": "Zymbal's Gland Adenoma", "submissionValue": "ADENOMA, ZYMBAL'S GLAND, BENIGN"}, {"conceptId": "C124607", "definition": "A benign neoplasm characterized by the proliferation of myoepithelial cells and glandular epithelial cells.", "preferredTerm": "Experimental Organism Benign Adenomyoepithelioma", "submissionValue": "ADENOMYOEPITHELIOMA, BENIGN"}, {"conceptId": "C3726", "definition": "A benign neoplasm characterized by the presence of a glandular and a mesenchymal component.", "preferredTerm": "Adenomyoma", "submissionValue": "ADENOMYOMA, BENIGN"}, {"conceptId": "C83488", "definition": "A benign neoplasm located beneath the adrenal capsule.", "preferredTerm": "Benign Subcapsular Adrenal Tumor", "submissionValue": "ADRENAL TUMOR, SUBCAPSULAR, BENIGN", "synonyms": ["Subcapsular Single Cell Adenoma, Adrenal"]}, {"conceptId": "C83489", "definition": "A malignant neoplasm located beneath the adrenal capsule.", "preferredTerm": "Malignant Subcapsular Adrenal Tumor", "submissionValue": "ADRENAL TUMOR, SUBCAPSULAR, MALIGNANT", "synonyms": ["Subcapsular Single Cell Carcinoma, Adrenal"]}, {"conceptId": "C7111", "definition": "A benign odontogenic neoplasm arising from the epithelial component of the embryonic tooth.", "preferredTerm": "Benign Ameloblastoma", "submissionValue": "AMELOBLASTOMA, BENIGN"}, {"conceptId": "C54297", "definition": "A malignant odontogenic neoplasm arising from the epithelial component of the embryonic tooth.", "preferredTerm": "Metastasizing Ameloblastoma", "submissionValue": "AMELOBLASTOMA, MALIGNANT", "synonyms": ["Malignant Ameloblastoma"]}, {"conceptId": "C3799", "definition": "A benign, morphologic variant of fibroma characterized by the presence of numerous dilated vascular channels.", "preferredTerm": "Angiofibroma", "submissionValue": "ANGIOFIBROMA, BENIGN", "synonyms": ["Angiofibromatous Hyperplasia", "Fibroangioma, Benign", "Fibrous Papule", "Telangiectatic Fibroma"]}, {"conceptId": "C3733", "definition": "A lipoma characterized by prominent vascularization.", "preferredTerm": "Angiolipoma", "submissionValue": "ANGIOLIPOMA, BENIGN", "synonyms": ["Angiolipoma"]}, {"conceptId": "C9477", "definition": "A malignant neoplasm of the brain or spinal cord originating from astrocytes, exhibiting poor differentiation (anaplasia).", "preferredTerm": "Anaplastic Astrocytoma", "submissionValue": "ASTROCYTOMA, ANAPLASTIC, MALIGNANT", "synonyms": ["Grade III Astrocytic Neoplasm", "Grade III Astrocytic Tumor", "Grade III Astrocytoma", "Malignant Astrocytoma"]}, {"conceptId": "C7173", "definition": "A malignant astrocytic neoplasm characterized by a high degree of cellular differentiation, slow growth, and diffuse infiltration of neighboring brain structures.", "preferredTerm": "Diffuse Astrocytoma", "submissionValue": "ASTROCYTOMA, DIFFUSE, MALIGNANT", "synonyms": ["Astrocytoma, Diffuse"]}, {"conceptId": "C119574", "definition": "A malignant neoplasm of the brain or spinal cord originating from astrocytes.", "preferredTerm": "Experimental Organism Malignant Astrocytoma", "submissionValue": "ASTROCYTOMA, MALIGNANT"}, {"conceptId": "C4047", "definition": "A benign neoplasm of the brain or spinal cord arising from astrocytes associated with single or multiple cysts.", "preferredTerm": "Pilocytic Astrocytoma", "submissionValue": "ASTROCYTOMA, PILOCYTIC, BENIGN", "synonyms": ["Astrocytoma, Benign", "Grade I Astrocytic Neoplasm", "Grade I Astrocytic Tumor", "Grade I Astrocytoma"]}, {"conceptId": "C111198", "definition": "A benign epithelial neoplasm with a uniform, monomorphic appearance that is dominated by basal cells.", "preferredTerm": "Experimental Organism Basal Cell Adenoma", "submissionValue": "BASAL CELL TUMOR, BENIGN", "synonyms": ["Adenoma, Basal Cell, Benign"]}, {"conceptId": "C103391", "definition": "A benign epithelial neoplasm arising from primary epithelial germ cells of the piliary complex.", "preferredTerm": "Experimental Organism Benign Basalioma", "submissionValue": "BASALIOMA, BENIGN", "synonyms": ["Basalioma"]}, {"conceptId": "C4614", "definition": "A benign papillary neoplasm of the skin.", "preferredTerm": "Skin Papilloma", "submissionValue": "BASOSQUAMOUS TUMOR, BENIGN", "synonyms": ["Cutaneous Papilloma", "Papilloma of Skin", "Papilloma of the Skin"]}, {"conceptId": "C2922", "definition": "A basal cell carcinoma (skin neoplasm) which displays squamous differentiation.", "preferredTerm": "Skin Basosquamous Cell Carcinoma", "submissionValue": "BASOSQUAMOUS TUMOR, MALIGNANT", "synonyms": ["Basosquamous Carcinoma", "Basosquamous Cell Carcinoma", "Skin Mixed Basal and Squamous Cell Carcinoma"]}, {"conceptId": "C114109", "definition": "A malignant epithelial neoplasm of the anterior pituitary gland in which the neoplastic cells stain positive with acidic dyes.", "preferredTerm": "Experimental Organism Acidophil Carcinoma", "submissionValue": "CARCINOMA, ACIDOPHIL, MALIGNANT", "synonyms": ["Acidophil Adenocarcinoma", "Acidophil Carcinoma", "Eosinophil Adenocarcinoma", "Eosinophil Carcinoma"]}, {"conceptId": "C3768", "definition": "A malignant glandular epithelial neoplasm comprising secretory cells forming acinar patterns.", "preferredTerm": "Acinar Cell Carcinoma", "submissionValue": "CARCINOMA, ACINAR CELL, MALIGNANT", "synonyms": ["Acinar Adenocarcinoma", "Acinar Carcinoma", "Acinar Cell Adenocarcinoma", "Acinic Cell Adenocarcinoma", "Acinic Cell Carcinoma"]}, {"conceptId": "C3727", "definition": "An epithelial neoplasm composed of malignant glandular and malignant squamous cells.", "preferredTerm": "Adenosquamous Carcinoma", "submissionValue": "CARCINOMA, ADENOSQUAMOUS, MALIGNANT", "synonyms": ["Mixed Adenocarcinoma and Epidermoid Carcinoma", "Mixed Adenocarcinoma and Epidermoid Cell Carcinoma", "Mixed Adenocarcinoma and Squamous Carcinoma", "Mixed Adenocarcinoma and Squamous Cell Carcinoma"]}, {"conceptId": "C3775", "definition": "A malignant epithelial neoplasm arising from sebaceous or sweat glands or from hair follicles.", "preferredTerm": "Adnexal Carcinoma", "submissionValue": "CARCINOMA, ADNEXAL, MALIGNANT", "synonyms": ["Carcinoma of Adnexa", "Carcinoma of Skin Appendage", "Skin Appendage Carcinoma"]}, {"conceptId": "C9325", "definition": "A malignant epithelial neoplasm arising from adrenal cortical cells.", "preferredTerm": "Adrenal Cortex Carcinoma", "submissionValue": "CARCINOMA, ADRENOCORTICAL, MALIGNANT", "synonyms": ["Adenocarcinoma, Adrenocortical, Malignant", "Adrenal Cortex Adenocarcinoma", "Adrenal Cortex Cancer", "Adrenal Cortical Adenocarcinoma", "Adrenal Cortical Carcinoma", "Adrenocortical Carcinoma", "Cortical Cell Carcinoma"]}, {"conceptId": "C111199", "definition": "A malignant epithelial neoplasm arising from basal cells.", "preferredTerm": "Experimental Organism Basal Cell Carcinoma", "submissionValue": "CARCINOMA, BASAL CELL, MALIGNANT", "synonyms": ["BCC", "Basal Cell Cancer", "Basal Cell Carcinoma", "Basal Cell Epithelioma", "Basal Cell Skin Carcinoma"]}, {"conceptId": "C35875", "definition": "A malignant neoplasia of the lung, arising from bronchial epithelium.", "preferredTerm": "Bronchogenic Carcinoma", "submissionValue": "CARCINOMA, BRONCHIAL, MALIGNANT"}, {"conceptId": "C2923", "definition": "A malignant lung neoplasm originating from the alveolar/bronchiolar epithelium.", "preferredTerm": "Bronchioloalveolar Carcinoma", "submissionValue": "CARCINOMA, BRONCHIOLOALVEOLAR, MALIGNANT", "synonyms": ["BAC", "Bronchioalveolar Adenocarcinoma of Lung", "Bronchioalveolar Adenocarcinoma of the Lung", "Bronchioalveolar Lung Carcinoma", "Bronchiolo-Alveolar Carcinoma of Lung", "Bronchiolo-Alveolar Carcinoma of the Lung", "Bronchiolo-Alveolar Lung Carcinoma", "Bronchioloalveolar Adenocarcinoma of Lung", "Bronchioloalveolar Adenocarcinoma of the Lung", "Bronchioloalveolar Lung Adenocarcinoma"]}, {"conceptId": "C3879", "definition": "A neuroendocrine malignant epithelial neoplasm arising from C-cells of the thyroid gland.", "preferredTerm": "Thyroid Gland Medullary Carcinoma", "submissionValue": "CARCINOMA, C-CELL, MALIGNANT", "synonyms": ["C Cell Carcinoma", "MTC", "Medullary Carcinoma", "Medullary Carcinoma of Thyroid", "Medullary Carcinoma of Thyroid Gland", "Medullary Carcinoma of the Thyroid", "Medullary Carcinoma of the Thyroid Gland", "Medullary Thyroid Cancer", "Medullary Thyroid Carcinoma", "Medullary Thyroid Gland Carcinoma", "Parafollicular Cell Carcinoma", "Thyroid Gland Neuroendocrine Carcinoma", "Thyroid Medullary Carcinoma"]}, {"conceptId": "C4176", "definition": "A malignant neoplasm derived from ceruminous glands in the external auditory canal.", "preferredTerm": "Ceruminous Adenocarcinoma", "submissionValue": "CARCINOMA, CERUMINOUS GLAND, MALIGNANT"}, {"conceptId": "C4715", "definition": "A malignant neoplasm arising from the choroid plexus of the brain.", "preferredTerm": "Choroid Plexus Carcinoma", "submissionValue": "CARCINOMA, CHOROID PLEXUS, MALIGNANT", "synonyms": ["Anaplastic Choroid Plexus Papilloma", "Cancer of Choroid Plexus", "Cancer of the Choroid Plexus", "Carcinoma of Choroid Plexus", "Carcinoma of the Choroid Plexus", "Choroid Plexus Cancer"]}, {"conceptId": "C27255", "definition": "A malignant carcinoma with eccrine differentiation arising from the sweat glands.", "preferredTerm": "Eccrine Carcinoma", "submissionValue": "CARCINOMA, ECCRINE GLAND, MALIGNANT"}, {"conceptId": "C3752", "definition": "A non-seminomatous malignant germ cell neoplasm of the testis or ovary.", "preferredTerm": "Embryonal Carcinoma", "submissionValue": "CARCINOMA, EMBRYONAL, MALIGNANT", "synonyms": ["Carcinoma, Embryonal, Malignant"]}, {"conceptId": "C7558", "definition": "A malignant epithelial neoplasm arising from the lining of the uterine body cavity.", "preferredTerm": "Endometrial Carcinoma", "submissionValue": "CARCINOMA, ENDOMETRIAL, MALIGNANT", "synonyms": ["Carcinoma of Endometrium", "Carcinoma of the Endometrium"]}, {"conceptId": "C8054", "definition": "A malignant neoplasia arising from follicular cells of the thyroid gland.", "preferredTerm": "Thyroid Gland Follicular Carcinoma", "submissionValue": "CARCINOMA, FOLLICULAR CELL, MALIGNANT", "synonyms": ["Follicular Adenocarcinoma", "Follicular Cancer of Thyroid", "Follicular Cancer of Thyroid Gland", "Follicular Cancer of the Thyroid", "Follicular Cancer of the Thyroid Gland", "Follicular Carcinoma", "Follicular Carcinoma of Thyroid", "Follicular Carcinoma of Thyroid Gland", "Follicular Carcinoma of the Thyroid", "Follicular Carcinoma of the Thyroid Gland", "Follicular Thyroid Cancer", "Follicular Thyroid Carcinoma", "Follicular Thyroid Gland Carcinoma", "Thyroid Follicular Carcinoma", "Well-differentiated Follicular Adenocarcinoma", "Well-differentiated Follicular Carcinoma"]}, {"conceptId": "C3099", "definition": "A malignant neoplasm arising from hepatocytes.", "preferredTerm": "Hepatocellular Carcinoma", "submissionValue": "CARCINOMA, HEPATOCELLULAR, MALIGNANT", "synonyms": ["Carcinoma of Liver Cells", "Carcinoma of the Liver Cells", "HCC", "Hepatoma", "Liver Cell Carcinoma", "Primary Carcinoma of Liver Cells", "Primary Carcinoma of the Liver Cells"]}, {"conceptId": "C103393", "definition": "A malignant mixed neoplasm of the liver comprising neoplastic hepatocytes and bile duct epithelial cells; both elements displaying evidence of malignancy.", "preferredTerm": "Experimental Organism Malignant Hepatocholangiocellular Carcinoma", "submissionValue": "CARCINOMA, HEPATOCHOLANGIOCELLULAR, MALIGNANT", "synonyms": ["Hepatocholangiocellular Carcinoma"]}, {"conceptId": "C2917", "definition": "A malignant epithelial neoplasm confined to the epithelial layer and without evidence of further tissue invasion.", "preferredTerm": "Carcinoma In Situ", "submissionValue": "CARCINOMA, IN SITU, MALIGNANT", "synonyms": ["CIS", "Epithelial Tumor, In situ, Malignant", "Intraepithelial Carcinoma", "Non-invasive Carcinoma"]}, {"conceptId": "C3770", "definition": "A malignant endocrine neoplasm arising from islets of Langerhans of the pancreas.", "preferredTerm": "Pancreatic Neuroendocrine Carcinoma", "submissionValue": "CARCINOMA, ISLET CELL, MALIGNANT", "synonyms": ["Islet Cell Cancer", "Islet Cell Carcinoma", "Malignant Islet Cell Tumor", "Malignant Pancreatic Endocrine Tumor", "Pancreatic Neuroendocrine Carcinoma"]}, {"conceptId": "C2916", "definition": "A malignant epithelial neoplasm.", "preferredTerm": "Carcinoma", "submissionValue": "CARCINOMA, MALIGNANT", "synonyms": ["Epithelial Carcinoma", "Epithelioma Malignant", "Malignant Epithelial Neoplasm", "Malignant Epithelial Tumor", "Malignant Epithelioma"]}, {"conceptId": "C124608", "definition": "A malignant carcinoma that arises from the olfactory epithelium, from either sensory and/or sustentacular cells.", "preferredTerm": "Experimental Organism Malignant Neuroepithelial Carcinoma", "submissionValue": "CARCINOMA, NEUROEPITHELIAL, MALIGNANT"}, {"conceptId": "C60491", "definition": "A malignant epithelial neoplasm arising from the pars distalis of the pituitary gland.", "preferredTerm": "Rat Pars Distalis Carcinoma", "submissionValue": "CARCINOMA, PARS DISTALIS, MALIGNANT", "synonyms": ["Rat Pars Distalis Carcinoma"]}, {"conceptId": "C92183", "definition": "A malignant epithelial neoplasm arising from the pars intermedia of the pituitary gland.", "preferredTerm": "Rat Pars Intermedia Carcinoma", "submissionValue": "CARCINOMA, PARS INTERMEDIA, MALIGNANT", "synonyms": ["Rat Pars Intermedia Carcinoma"]}, {"conceptId": "C9385", "definition": "A malignant neoplasm arising from renal parenchyma.", "preferredTerm": "Renal Cell Carcinoma", "submissionValue": "CARCINOMA, RENAL CELL, MALIGNANT", "synonyms": ["Adenocarcinoma of Kidney", "Adenocarcinoma of the Kidney", "Kidney Adenocarcinoma", "RCC", "Renal Cell Adenocarcinoma", "Renal Cell Cancer", "Renal Cell Carcinoma, Stage Unspecified"]}, {"conceptId": "C39807", "definition": "A malignant neoplasm of the kidney, characterized by the presence of tubules.", "preferredTerm": "Mucinous Tubular and Spindle Cell Carcinoma of the Kidney", "submissionValue": "CARCINOMA, RENAL, TUBULAR, MALIGNANT", "synonyms": ["Mucinous Tubular and Spindle Cell Carcinoma of the Kidney"]}, {"conceptId": "C8955", "definition": "A malignant carcinoma that arises from the rete testis.", "preferredTerm": "Rete Testis Adenocarcinoma", "submissionValue": "CARCINOMA, RETE TESTIS, MALIGNANT"}, {"conceptId": "C27004", "definition": "A malignant epithelial neoplasm characterized by the presence of spindle cells.", "preferredTerm": "Sarcomatoid Carcinoma", "submissionValue": "CARCINOMA, SPINDLE CELL, MALIGNANT", "synonyms": ["Pseudosarcomatous Carcinoma", "Spindle Cell Carcinoma"]}, {"conceptId": "C27093", "definition": "A malignant epithelial neoplasm confined to the squamous epithelium, without invasion of underlying tissues.", "preferredTerm": "Stage 0 Squamous Cell Carcinoma", "submissionValue": "CARCINOMA, SQUAMOUS CELL, IN SITU, MALIGNANT", "synonyms": ["Epidermoid Carcinoma In situ", "Epidermoid Cell Carcinoma In situ", "Grade 3 Squamous Intraepithelial Neoplasia", "Grade III Squamous Intraepithelial Neoplasia", "Intraepithelial Squamous Cell Carcinoma", "Squamous Carcinoma In situ", "Squamous Cell Carcinoma In situ"]}, {"conceptId": "C2929", "definition": "A malignant neoplasm arising from squamous epithelial cells.", "preferredTerm": "Squamous Cell Carcinoma", "submissionValue": "CARCINOMA, SQUAMOUS CELL, MALIGNANT", "synonyms": ["Epidermoid Carcinoma", "Epidermoid Cell Cancer", "Malignant Epidermoid Cell Neoplasm", "Malignant Epidermoid Cell Tumor", "Malignant Squamous Cell Neoplasm", "Malignant Squamous Cell Tumor", "Squamous Carcinoma", "Squamous Cell Cancer", "Squamous Cell Epithelioma"]}, {"conceptId": "C6938", "definition": "A malignant neoplasm arising from sweat glands.", "preferredTerm": "Sweat Gland Carcinoma", "submissionValue": "CARCINOMA, SWEAT GLAND, MALIGNANT", "synonyms": ["Carcinoma of Sweat Gland", "Carcinoma of the Sweat Gland"]}, {"conceptId": "C65192", "definition": "A malignant glandular neoplasm exhibiting tubular structures.", "preferredTerm": "Tubular Adenocarcinoma", "submissionValue": "CARCINOMA, TUBULAR CELL, MALIGNANT"}, {"conceptId": "C80356", "definition": "A malignant epithelial neoplasm of the ovary with tubular and stromal neoplastic components.", "preferredTerm": "Tubulostromal Adenocarcinoma", "submissionValue": "CARCINOMA, TUBULOSTROMAL, MALIGNANT"}, {"conceptId": "C3692", "definition": "A malignant epithelial neoplasm exhibiting poor differentiation (anaplasia).", "preferredTerm": "Undifferentiated Carcinoma", "submissionValue": "CARCINOMA, UNDIFFERENTIATED, MALIGNANT", "synonyms": ["Anaplastic Carcinoma", "Carcinoma, Undifferentiated"]}, {"conceptId": "C2930", "definition": "A malignant neoplasm arising from transitional epithelium, usually affecting the urinary bladder, ureter, or renal pelvis.", "preferredTerm": "Transitional Cell Carcinoma", "submissionValue": "CARCINOMA, UROTHELIAL, MALIGNANT", "synonyms": ["Transitional Cell Carcinoma"]}, {"conceptId": "C98801", "definition": "A malignant neoplasm of the rodent Zymbal's gland with sebaceous and/or squamous differentiation.", "preferredTerm": "Zymbal's Gland Carcinoma", "submissionValue": "CARCINOMA, ZYMBAL'S GLAND"}, {"conceptId": "C34448", "definition": "A malignant neoplasm comprising a mixture of carcinomatous and sarcomatous elements.", "preferredTerm": "Carcinosarcoma", "submissionValue": "CARCINOSARCOMA, MALIGNANT"}, {"conceptId": "C5358", "definition": "A benign peripheral nervous system neoplasm that is composed of well-differentiated Schwann cells and affects the heart.", "preferredTerm": "Benign Cardiac Schwannoma", "submissionValue": "CARDIAC SCHWANNOMA, BENIGN", "synonyms": ["Schwannoma, Endocardial, Benign"]}, {"conceptId": "C5367", "definition": "A malignant peripheral nerve sheath tumor that arises in cardiac tissue.", "preferredTerm": "Malignant Cardiac Peripheral Nerve Sheath Tumor", "submissionValue": "CARDIAC SCHWANNOMA, MALIGNANT"}, {"conceptId": "C79950", "definition": "A benign neoplasm of the chemoreceptor system (e.g. carotid body, glomus jugulare, glomus vagale).", "preferredTerm": "Benign Carotid Body Paraganglioma", "submissionValue": "CHEMODECTOMA, BENIGN", "synonyms": ["Benign Chemodectoma"]}, {"conceptId": "C3574", "definition": "A malignant neoplasm of the chemoreceptor system (e.g. carotid body, glomus jugulare, glomus vagale).", "preferredTerm": "Malignant Carotid Body Paraganglioma", "submissionValue": "CHEMODECTOMA, MALIGNANT", "synonyms": ["Malignant Carotid Body Neoplasm", "Malignant Carotid Body Tumor", "Malignant Neoplasm of Carotid Body", "Malignant Neoplasm of the Carotid Body", "Malignant Tumor of Carotid Body", "Malignant Tumor of the Carotid Body"]}, {"conceptId": "C35417", "definition": "A malignant neoplasm of the liver arising from/comprising cells resembling those of bile ducts.", "preferredTerm": "Intrahepatic Cholangiocarcinoma", "submissionValue": "CHOLANGIOCARCINOMA, INTRAHEPATIC, MALIGNANT", "synonyms": ["Intrahepatic Bile Duct Carcinoma", "Intrahepatic Carcinoma of Bile Duct", "Intrahepatic Carcinoma of the Bile Duct"]}, {"conceptId": "C4436", "definition": "A malignant neoplasm arising from/comprising cells resembling those of bile ducts.", "preferredTerm": "Cholangiocarcinoma", "submissionValue": "CHOLANGIOCARCINOMA, MALIGNANT", "synonyms": ["Cholangiocellular Carcinoma"]}, {"conceptId": "C2942", "definition": "A benign neoplasm arising from/comprising cells resembling those of bile ducts.", "preferredTerm": "Bile Duct Adenoma", "submissionValue": "CHOLANGIOMA, BENIGN", "synonyms": ["Adenoma of Bile Duct", "Adenoma of the Bile Duct", "Cholangioadenoma", "Cholangioma", "Hepatocholangiocellular Adenoma", "Hepatocholangioma"]}, {"conceptId": "C53459", "definition": "A benign, well circumscribed neoplasm arising from the hyaline cartilage in soft tissue or bone. It is characterized by the presence of chondrocytes.", "preferredTerm": "Chondroma", "submissionValue": "CHONDROMA, BENIGN"}, {"conceptId": "C2946", "definition": "A malignant mesenchymal neoplasm arising from cartilage-forming tissues.", "preferredTerm": "Chondrosarcoma", "submissionValue": "CHONDROSARCOMA, MALIGNANT"}, {"conceptId": "C60334", "definition": "A benign bone neoplasm arising from the remnants of the fetal notochord.", "preferredTerm": "Rat Benign Chordoma", "submissionValue": "CHORDOMA, BENIGN"}, {"conceptId": "C2947", "definition": "A malignant bone neoplasm arising from the remnants of the fetal notochord.", "preferredTerm": "Chordoma", "submissionValue": "CHORDOMA, MALIGNANT"}, {"conceptId": "C2948", "definition": "A malignant neoplasm arising from placental trophoblast cells. They generally arise in the uterus.", "preferredTerm": "Choriocarcinoma", "submissionValue": "CHORIOCARCINOMA, MALIGNANT", "synonyms": ["Chorioepithelioma"]}, {"conceptId": "C53684", "definition": "A benign neoplasm arising from connective and soft tissues that does not invade adjacent tissues or metastasize to other anatomic sites.", "preferredTerm": "Benign Connective and Soft Tissue Neoplasm", "submissionValue": "CONNECTIVE AND SOFT TISSUE NEOPLASM, BENIGN", "synonyms": ["Benign Connective and Soft Tissue Neoplasm", "Benign Connective and Soft Tissue Tumor", "Benign Mesenchymal Cell Neoplasm", "Benign Neoplasm of the Soft Tissue and Bone", "Benign Tumor of the Soft Tissue and Bone"]}, {"conceptId": "C2964", "definition": "A benign epithelial neoplasm of the sellar region, presumably derived from Rathke pouch epithelium.", "preferredTerm": "Craniopharyngioma", "submissionValue": "CRANIOPHARYNGIOMA, BENIGN", "synonyms": ["Cystoma", "Neoplasm of Rathke's Pouch", "Rathke Pouch Neoplasm", "Rathke Pouch Tumor", "Rathke's Pouch Neoplasm", "Rathke's Pouch Tumor", "Tumor of Rathke's Pouch"]}, {"conceptId": "C79949", "definition": "A malignant epithelial neoplasm of the sellar region, presumably derived from Rathke pouch epithelium.", "preferredTerm": "Carcinoma Arising from Craniopharyngioma", "submissionValue": "CRANIOPHARYNGIOMA, MALIGNANT", "synonyms": ["Carcinoma Arising From Craniopharyngioma"]}, {"conceptId": "C2971", "definition": "A malignant cystic epithelial neoplasm arising from glandular epithelium.", "preferredTerm": "Cystadenocarcinoma", "submissionValue": "CYSTADENOCARCINOMA, MALIGNANT"}, {"conceptId": "C3777", "definition": "A malignant cystic epithelial neoplasm arising from glandular epithelium exhibiting papillary structures.", "preferredTerm": "Papillary Cystadenocarcinoma", "submissionValue": "CYSTADENOCARCINOMA, PAPILLARY, MALIGNANT"}, {"conceptId": "C2972", "definition": "A benign cystic epithelial neoplasm arising from glandular epithelium.", "preferredTerm": "Cystadenoma", "submissionValue": "CYSTADENOMA, BENIGN", "synonyms": ["Cystoma"]}, {"conceptId": "C2974", "definition": "A benign cystic epithelial neoplasm arising from glandular epithelium exhibiting papillary structures.", "preferredTerm": "Papillary Cystadenoma", "submissionValue": "CYSTADENOMA, PAPILLARY, BENIGN"}, {"conceptId": "C3555", "definition": "A malignant neoplasm arising from decidua (placental) cells.", "preferredTerm": "Malignant Placental Neoplasm", "submissionValue": "DECIDUOMA, MALIGNANT", "synonyms": ["Malignant Neoplasm of Placenta", "Malignant Neoplasm of the Placenta", "Malignant Placental Neoplasm", "Malignant Placental Tumor", "Malignant Tumor of Placenta", "Malignant Tumor of the Placenta"]}, {"conceptId": "C9011", "definition": "A benign neoplasm comprised of a cyst, lined by mature epidermis-like tissue with dermal appendages.", "preferredTerm": "Dermoid Cyst", "submissionValue": "DERMOID CYST, BENIGN", "synonyms": ["Benign Cystic Teratoma", "Dermoid", "Mature Cystic Teratoma"]}, {"conceptId": "C2996", "definition": "A malignant germ cell neoplasm characterized by the presence of a monotonous primitive germ cell population, primarily in the ovary.", "preferredTerm": "Dysgerminoma", "submissionValue": "DYSGERMINOMA, MALIGNANT"}, {"conceptId": "C4049", "definition": "A malignant neoplasm of ependymal origin with anaplastic cellular morphology.", "preferredTerm": "Anaplastic Ependymoma", "submissionValue": "EPENDYMOMA, ANAPLASTIC, MALIGNANT", "synonyms": ["Anaplastic Ependymal Neoplasm", "Anaplastic Ependymal Tumor", "Malignant Ependymoma", "Undifferentiated Ependymal Neoplasm", "Undifferentiated Ependymal Tumor", "Undifferentiated Ependymoma", "Who Grade III Ependymal Neoplasm", "Who Grade III Ependymal Tumor"]}, {"conceptId": "C3697", "definition": "A benign neoplasm of ependymal origin.", "preferredTerm": "Myxopapillary Ependymoma", "submissionValue": "EPENDYMOMA, BENIGN"}, {"conceptId": "C119575", "definition": "A malignant neoplasm of ependymal origin.", "preferredTerm": "Experimental Organism Malignant Ependymoma", "submissionValue": "EPENDYMOMA, MALIGNANT"}, {"conceptId": "C124609", "definition": "A benign neoplasm that arises from the mesenchymal and epithelial components and contains two or more cell types.", "preferredTerm": "Experimental Organism Benign Epithelial Stromal Tumor", "submissionValue": "EPITHELIAL-STROMAL TUMOR, BENIGN"}, {"conceptId": "C4092", "definition": "A benign neoplasm arising from epithelial cells of the skin.", "preferredTerm": "Benign Epithelial Neoplasm", "submissionValue": "EPITHELIOMA, BENIGN", "synonyms": ["Benign Epithelial Tumor", "Benign Epithelioma", "Benign Neoplasm of Epithelium", "Benign Neoplasm of the Epithelium", "Benign Tumor of Epithelium", "Benign Tumor of the Epithelium"]}, {"conceptId": "C80349", "definition": "A benign cystic epithelial neoplasm featuring a central keratin mass surrounded by squamous epithelium.", "preferredTerm": "Cystic Keratinizing Epithelioma", "submissionValue": "EPITHELIOMA, CYSTIC KERATINIZING, BENIGN"}, {"conceptId": "C84356", "definition": "A benign cystic epithelial neoplasm characterized by the absence of keratin production.", "preferredTerm": "Non-Keratinizing Epithelioma", "submissionValue": "EPITHELIOMA, NON-KERATINIZING, BENIGN"}, {"conceptId": "C2928", "definition": "A malignant neoplasm originating from glandular cells with a fibrous or fibroblastic component.", "preferredTerm": "Scirrhous Adenocarcinoma", "submissionValue": "FIBROADENOCARCINOMA, MALIGNANT", "synonyms": ["Adenocarcinoma With Productive Fibrosis", "Fibrocarcinoma", "Scirrhous Carcinoma"]}, {"conceptId": "C3744", "definition": "A benign neoplasm originating from glandular cells with a fibrous or fibroblastic component.", "preferredTerm": "Breast Fibroadenoma", "submissionValue": "FIBROADENOMA, BENIGN", "synonyms": ["Breast Fibroadenoma", "Fibroadenoma of Breast", "Fibroadenoma of the Breast"]}, {"conceptId": "C4249", "definition": "A benign neoplasm comprising mature adipocytes, characterized by areas of abundant fibrous tissue.", "preferredTerm": "Fibrolipoma", "submissionValue": "FIBROLIPOMA, BENIGN"}, {"conceptId": "C3041", "definition": "A benign neoplasm arising from fibrous tissue.", "preferredTerm": "Fibroma", "submissionValue": "FIBROMA, BENIGN"}, {"conceptId": "C4314", "definition": "A benign intraosseous neoplasm arising from tooth-forming tissues in the mandible and maxilla, characterized by the presence of islands of odontogenic epithelium.", "preferredTerm": "Odontogenic Fibroma", "submissionValue": "FIBROMA, ODONTOGENIC, BENIGN", "synonyms": ["Central Odontogenic Fibroma"]}, {"conceptId": "C8422", "definition": "A benign fibrous neoplasm characterized by a mineralized component (woven bone, lamellar bone, or cementum-like material).", "preferredTerm": "Ossifying Fibroma", "submissionValue": "FIBROMA, OSSIFYING, BENIGN", "synonyms": ["Cementifying Fibroma", "Cemento-Ossifying Fibroma", "Ossifying Fibroma"]}, {"conceptId": "C66760", "definition": "A benign soft-tissue neoplasm of uncertain lineage, characterized by the presence of neoplastic spindle-shaped to round cells and a fibromyxoid stroma.", "preferredTerm": "Fibromyxoid Tumor", "submissionValue": "FIBROMYXOMA, BENIGN", "synonyms": ["Fibromyxoma"]}, {"conceptId": "C3337", "definition": "A benign polypoid tumor comprising fibrous tissue and epithelium.", "preferredTerm": "Fibroepithelial Polyp", "submissionValue": "FIBROPAPILLOMA, BENIGN"}, {"conceptId": "C3043", "definition": "A malignant mesenchymal neoplasm of the soft tissue and bone.", "preferredTerm": "Fibrosarcoma", "submissionValue": "FIBROSARCOMA, MALIGNANT"}, {"conceptId": "C119576", "definition": "A benign neoplasm comprised of ganglion and glial cells.", "preferredTerm": "Experimental Organism Benign Ganglioglioma", "submissionValue": "GANGLIOGLIOMA, BENIGN"}, {"conceptId": "C3790", "definition": "A malignant neoplasm characterized by the presence of neuroblastic and ganglion cells and a stroma with Schwannian differentiation.", "preferredTerm": "Ganglioneuroblastoma", "submissionValue": "GANGLIONEUROBLASTOMA, MALIGNANT"}, {"conceptId": "C3049", "definition": "A benign neoplasm characterized by the presence of ganglion cells and spindle cell proliferation, located primarily in the brain, ganglia, or adrenal medulla.", "preferredTerm": "Ganglioneuroma", "submissionValue": "GANGLIONEUROMA, BENIGN", "synonyms": ["Neural Crest Tumor, Benign"]}, {"conceptId": "C121932", "definition": "A benign neoplasm of bone comprised of giant cells (osteoclast-like) and mononuclear cells.", "preferredTerm": "Giant Cell Tumor of Bone", "submissionValue": "GIANT CELL TUMOR, BENIGN", "synonyms": ["Benign Bone Giant Cell Tumor", "Osteoclastoma, Benign"]}, {"conceptId": "C4090", "definition": "A malignant neoplasm of bone comprised of giant cells (osteoclast-like) and mononuclear cells.", "preferredTerm": "Malignant Giant Cell Neoplasm", "submissionValue": "GIANT CELL TUMOR, MALIGNANT", "synonyms": ["Malignant Giant Cell Tumor"]}, {"conceptId": "C4822", "definition": "A malignant neuroglial neoplasm. The term can apply to several primary neoplasm of the brain and spinal cord, including astrocytoma and oligodendroglioma in addition to others.", "preferredTerm": "Malignant Glioma", "submissionValue": "GLIOMA, MALIGNANT", "synonyms": ["Malignant Glial Neoplasm", "Malignant Glial Tumor", "Malignant Neuroglial Neoplasm", "Malignant Neuroglial Tumor"]}, {"conceptId": "C4050", "definition": "A benign neoplasm of the central nervous system with an astrocytic and oligodendrocytic component.", "preferredTerm": "Oligoastrocytoma", "submissionValue": "GLIOMA, MIXED, BENIGN"}, {"conceptId": "C3903", "definition": "A malignant neoplasm comprising two or more glial cell types (e.g., astrocytes, ependymal cells, oligodendrocytes).", "preferredTerm": "Mixed Glioma", "submissionValue": "GLIOMA, MIXED, MALIGNANT", "synonyms": ["Glioma, Mixed", "Mixed Glial Neoplasm", "Mixed Glial Tumor", "Mixed Neuroglial Neoplasm", "Mixed Neuroglial Tumor"]}, {"conceptId": "C3252", "definition": "A benign neoplasm, comprised of large cells with cytoplasmatic granules, occurring in various organs/tissues.", "preferredTerm": "Benign Granular Cell Tumor", "submissionValue": "GRANULAR CELL TUMOR, BENIGN", "synonyms": ["Benign Granular Cell Myoblastoma", "Benign Granular Cell Neoplasm", "Benign Granular Cell Tumor", "Myoblastoma"]}, {"conceptId": "C4336", "definition": "A malignant neoplasm, comprised of large cells with cytoplasmatic granules, occurring in various organs/tissues.", "preferredTerm": "Malignant Granular Cell Tumor", "submissionValue": "GRANULAR CELL TUMOR, MALIGNANT", "synonyms": ["Malignant Granular Cell Myoblastoma", "Malignant Granular Cell Neoplasm", "Myoblastoma, Malignant"]}, {"conceptId": "C60340", "definition": "A benign neoplasm of the ovary, originating from granulosa cells.", "preferredTerm": "Rat Benign Granulosa Cell Tumor", "submissionValue": "GRANULOSA CELL TUMOR, BENIGN"}, {"conceptId": "C4205", "definition": "A malignant neoplasm of the ovary, originating from granulosa cells.", "preferredTerm": "Malignant Granulosa Cell Tumor", "submissionValue": "GRANULOSA CELL TUMOR, MALIGNANT", "synonyms": ["Malignant Granulosa Cell Tumor"]}, {"conceptId": "C27520", "definition": "A benign neoplasm that arises from the hair follicle.", "preferredTerm": "Benign Hair Follicle Neoplasm", "submissionValue": "HAIR FOLLICLE NEOPLASM, BENIGN", "synonyms": ["Benign Follicular Neoplasm", "Benign Follicular Tumor", "Benign Hair Follicle Tumor"]}, {"conceptId": "C43310", "definition": "A malignant neoplasm that arises from the hair follicle.", "preferredTerm": "Malignant Hair Follicle Neoplasm", "submissionValue": "HAIR FOLLICLE NEOPLASM, MALIGNANT", "synonyms": ["Malignant Hair Follicle Tumor"]}, {"conceptId": "C3085", "definition": "A benign vascular neoplasm characterized by the formation of capillary-sized or cavernous vascular channels.", "preferredTerm": "Hemangioma", "submissionValue": "HEMANGIOMA, BENIGN", "synonyms": ["Angioma", "Benign Angioma", "Benign Hemangioma"]}, {"conceptId": "C4300", "definition": "A benign neoplasm originating from vascular pericytes (cells in the periphery of vessels).", "preferredTerm": "Benign Hemangiopericytoma", "submissionValue": "HEMANGIOPERICYTOMA, BENIGN"}, {"conceptId": "C4301", "definition": "A malignant neoplasm originating from vascular pericytes (cells in the periphery of vessels).", "preferredTerm": "Malignant Hemangiopericytoma", "submissionValue": "HEMANGIOPERICYTOMA, MALIGNANT", "synonyms": ["Malignant Hemangiopericytoma NOS"]}, {"conceptId": "C3088", "definition": "A malignant vascular neoplasm arising from endothelial cells.", "preferredTerm": "Angiosarcoma", "submissionValue": "HEMANGIOSARCOMA, MALIGNANT", "synonyms": ["Hemangiosarcoma"]}, {"conceptId": "C27134", "definition": "A malignant neoplasm composed of hemolymphoreticular cells.", "preferredTerm": "Hematopoietic and Lymphoid Cell Neoplasm", "submissionValue": "HEMOLYMPHORETICULAR TUMOR, MALIGNANT"}, {"conceptId": "C3728", "definition": "A malignant liver neoplasm composed of immature hepatocytic elements.", "preferredTerm": "Hepatoblastoma", "submissionValue": "HEPATOBLASTOMA, MALIGNANT", "synonyms": ["HBL", "Pediatric Embryonal Hepatoma", "Pediatric Hepatoblastoma"]}, {"conceptId": "C3702", "definition": "A benign neoplasm of the brown adipose tissue.", "preferredTerm": "Hibernoma", "submissionValue": "HIBERNOMA, BENIGN", "synonyms": ["Brown Fat Neoplasm", "Brown Fat Tumor", "Fetal Fat Cell Lipoma"]}, {"conceptId": "C103394", "definition": "A malignant neoplasm arising from the brown adipose tissue in animals, usually in the subcutis and the thoracic cavity.", "preferredTerm": "Experimental Organism Malignant Hibernoma", "submissionValue": "HIBERNOMA, MALIGNANT", "synonyms": ["Malignant Hibernoma"]}, {"conceptId": "C98708", "definition": "A benign dermal neoplasm comprising of round cells, resembling histiocytes. The tumor commonly occurs in young dogs and may regress spontaneously.", "preferredTerm": "Benign Histiocytoma", "submissionValue": "HISTIOCYTOMA, BENIGN"}, {"conceptId": "C3739", "definition": "A benign neoplasm composed of a fibroblastic and a histiocytic component.", "preferredTerm": "Benign Fibrous Histiocytoma", "submissionValue": "HISTIOCYTOMA, FIBROUS, BENIGN", "synonyms": ["Fibrous Histiocytoma"]}, {"conceptId": "C4247", "definition": "A malignant neoplasm composed of a fibroblastic and a histiocytic component.", "preferredTerm": "Undifferentiated Pleomorphic Sarcoma", "submissionValue": "HISTIOCYTOMA, FIBROUS, MALIGNANT", "synonyms": ["Fibroxanthosarcoma", "MFH", "Malignant Fibrous Histiocytoma of Soft Tissue and Bone", "Malignant Fibrous Histiocytoma of the Soft Tissue and Bone", "Malignant Fibroxanthoma"]}, {"conceptId": "C80351", "definition": "A benign neoplasm of the liver composed of hepatic stellate cells (Ito cells).", "preferredTerm": "Benign Ito Cell Tumor", "submissionValue": "ITO CELL TUMOR, BENIGN", "synonyms": ["Benign Spongiotic Pericytoma"]}, {"conceptId": "C80352", "definition": "A malignant neoplasm of the liver composed of hepatic stellate cells (Ito cells).", "preferredTerm": "Malignant Ito Cell Tumor", "submissionValue": "ITO CELL TUMOR, MALIGNANT", "synonyms": ["Malignant Spongiotic Pericytoma"]}, {"conceptId": "C117977", "definition": "A benign neoplasm in the superficial dermis with direct association to the epidermis, composed of well differentiated squamous epithelium and a central cavity filled with concentric layers of keratin; a pore (opening in the epidermis) may be present.", "preferredTerm": "Experimental Organism Benign Keratoacanthoma", "submissionValue": "KERATOACANTHOMA, BENIGN"}, {"conceptId": "C81854", "definition": "A benign neoplasm of the gastro-intestinal tract, originating from smooth muscle cells.", "preferredTerm": "Benign Epithelioid Cell Type Gastrointestinal Stromal Tumor", "submissionValue": "LEIOMYOBLASTOMA, BENIGN"}, {"conceptId": "C81855", "definition": "A malignant neoplasm of the gastro-intestinal tract, originating from smooth muscle cells.", "preferredTerm": "Malignant Epithelioid Cell Type Gastrointestinal Stromal Tumor", "submissionValue": "LEIOMYOBLASTOMA, MALIGNANT"}, {"conceptId": "C3157", "definition": "A benign neoplasm, originating from smooth muscle cells.", "preferredTerm": "Leiomyoma", "submissionValue": "LEIOMYOMA, BENIGN", "synonyms": ["Fibroid", "Fibroid Neoplasm", "Fibroid Tumor", "Leiomyomatous Neoplasm", "Leiomyomatous Tumor"]}, {"conceptId": "C124610", "definition": "A malignant neoplasm of the smooth muscle that arises from the mesovarium.", "preferredTerm": "Experimental Organism Malignant Mesovarial Leiomyoma", "submissionValue": "LEIOMYOMA, MESOVARIAL, MALIGNANT"}, {"conceptId": "C3158", "definition": "A malignant neoplasm, originating from smooth muscle cells.", "preferredTerm": "Leiomyosarcoma", "submissionValue": "LEIOMYOSARCOMA, MALIGNANT", "synonyms": ["Leiomyosarcomas"]}, {"conceptId": "C8923", "definition": "A progressive, proliferative disease of blood cells, originating from immature erythroid cells.", "preferredTerm": "Acute Erythroid Leukemia", "submissionValue": "LEUKEMIA, ERYTHROID, MALIGNANT", "synonyms": ["Acute Erythroblastic Leukemia", "Erythroblastic Leukemia", "Fab M6", "M6 Acute Myeloid Leukemia"]}, {"conceptId": "C3172", "definition": "A progressive, proliferative disease of blood cells, originating from immature granulocytes.", "preferredTerm": "Myeloid Leukemia", "submissionValue": "LEUKEMIA, GRANULOCYTIC, MALIGNANT", "synonyms": ["Leukemia Granulocytic", "Leukemia Myeloid", "Myelocytic Leukemia", "Myelogenous Leukemia", "Non-lymphoblastic Leukemia", "Non-lymphocytic Leukemia"]}, {"conceptId": "C4664", "definition": "A progressive, proliferative disease of blood cells which are large and granular, originating from lymphoid cells.", "preferredTerm": "T-Cell Large Granular Lymphocyte Leukemia", "submissionValue": "LEUKEMIA, LARGE GRANULAR LYMPHOCYTIC, MALIGNANT", "synonyms": ["LGLL", "Large Cell Granular Lymphogenous Leukemia", "Large Cell Granular Lymphoid Leukemia", "Large Granular Lymphocytic Leukemia", "Large Granular Lymphocytosis", "T Gamma Lymphoproliferative Disorder", "T-Cell Large Granular Lymphocytic Leukemia", "T-Gamma Lymphoproliferative Disorder", "Tgamma Large Granular Lymphocyte Leukemia"]}, {"conceptId": "C3167", "definition": "A progressive, proliferative disease of blood cells, originating from immature lymphoid cells.", "preferredTerm": "Acute Lymphoblastic Leukemia", "submissionValue": "LEUKEMIA, LYMPHOBLASTIC, MALIGNANT", "synonyms": ["ALL", "ALL - Acute Lymphocytic Leukemia", "Acute Lymphocytic Leukaemia", "Acute Lymphocytic Leukemias", "Acute Lymphogenous Leukemia", "Acute Lymphoid Leukemia", "Lymphoblastic Leukemia", "Precursor Cell Lymphoblastic Leukemia", "Precursor Lymphoblasic Leukemia"]}, {"conceptId": "C7539", "definition": "A progressive, proliferative disease of blood cells, originating from lymphoid cells.", "preferredTerm": "Lymphoid Leukemia", "submissionValue": "LEUKEMIA, LYMPHOCYTIC, MALIGNANT", "synonyms": ["Lymphocytic Leukemia", "Lymphogenous Leukemia"]}, {"conceptId": "C3161", "definition": "A progressive, proliferative disease of blood cells, originating from myeloid or lymphoid stem cells.", "preferredTerm": "Leukemia", "submissionValue": "LEUKEMIA, MALIGNANT", "synonyms": ["Blood (Leukemia)", "Leukemia NOS", "Leukemias", "Leukemias, General"]}, {"conceptId": "C3170", "definition": "A progressive, proliferative disease of blood cells, originating from immature megakaryocytes.", "preferredTerm": "Acute Megakaryoblastic Leukemia", "submissionValue": "LEUKEMIA, MEGAKARYOCYTIC, MALIGNANT", "synonyms": ["Acute M7 Myeloid Leukemia", "Acute Megakaryoblastic Leukemia (Fab Type M7)", "Acute Megakaryocytic Leukemia", "Fab M7"]}, {"conceptId": "C4861", "definition": "A progressive, proliferative disease of blood cells, originating from immature monocytes.", "preferredTerm": "Acute Monocytic Leukemia", "submissionValue": "LEUKEMIA, MONOCYTIC, MALIGNANT", "synonyms": ["Acute Monocytic Leukemia (Fab M5B)", "Monocytic Leukemia"]}, {"conceptId": "C4212", "definition": "A benign neoplasm of the testis originating from interstitial (Leydig) cells.", "preferredTerm": "Benign Leydig Cell Tumor", "submissionValue": "LEYDIG CELL TUMOR, BENIGN", "synonyms": ["Adenoma, Interstitial", "Benign Interstitial Cell Neoplasm", "Benign Interstitial Cell Tumor", "Benign Leydig Cell Neoplasm"]}, {"conceptId": "C4213", "definition": "A malignant neoplasm of the testis originating from interstitial (Leydig) cells.", "preferredTerm": "Malignant Leydig Cell Tumor", "submissionValue": "LEYDIG CELL TUMOR, MALIGNANT", "synonyms": ["Malignant Interstitial Cell Neoplasm", "Malignant Interstitial Cell Tumor", "Malignant Leydig Cell Neoplasm"]}, {"conceptId": "C3192", "definition": "A benign neoplasm composed of adipose tissue.", "preferredTerm": "Lipoma", "submissionValue": "LIPOMA, BENIGN"}, {"conceptId": "C3194", "definition": "A malignant neoplasm composed of adipose tissue.", "preferredTerm": "Liposarcoma", "submissionValue": "LIPOSARCOMA, MALIGNANT"}, {"conceptId": "C3202", "definition": "A benign neoplasm of the ovary, composed of leuteinized granulosa-theca cells.", "preferredTerm": "Ovarian Stromal Luteoma", "submissionValue": "LUTEOMA, BENIGN", "synonyms": ["Luteal Cell Neoplasm", "Luteal Cell Tumor", "Luteinoma", "Luteoma", "Ovarian Stroma Luteoma"]}, {"conceptId": "C8965", "definition": "A benign neoplasm arising from the lymphatics.", "preferredTerm": "Lymphangioma", "submissionValue": "LYMPHANGIOMA, BENIGN"}, {"conceptId": "C3205", "definition": "A malignant neoplasm arising from the endothelial cells of the lymphatic vessels.", "preferredTerm": "Lymphangiosarcoma", "submissionValue": "LYMPHANGIOSARCOMA, MALIGNANT", "synonyms": ["Lymphangioendothelial Sarcoma", "Malignant Lymphangioendothelioma"]}, {"conceptId": "C3209", "definition": "A neoplasm of lymphoid cells which has at least a partial follicular pattern.", "preferredTerm": "Follicular Lymphoma", "submissionValue": "LYMPHOMA, FOLLICULAR, MALIGNANT", "synonyms": ["Follicle Center Lymphoma", "Follicular Centre Cell Lymphoma", "Follicular Non-Hodgkin Lymphoma", "Follicular Non-Hodgkin's Lymphoma", "Lymphoma, Follicular Centre Cell"]}, {"conceptId": "C114110", "definition": "A malignant neoplasm of large lymphocytes, which resemble histiocytes.", "preferredTerm": "Experimental Organism Histiocytic Lymphoma Neoplasm", "submissionValue": "LYMPHOMA, HISTIOCYTIC, MALIGNANT", "synonyms": ["Lymphoma, Large Cell, Malignant"]}, {"conceptId": "C3461", "definition": "A malignant neoplasm composed of immunoblasts (large B cells).", "preferredTerm": "Immunoblastic Lymphoma", "submissionValue": "LYMPHOMA, IMMUNOBLASTIC, MALIGNANT"}, {"conceptId": "C9360", "definition": "A malignant neoplasm composed of lymphoblasts (lymphoid precursor cells).", "preferredTerm": "Lymphoblastic Lymphoma", "submissionValue": "LYMPHOMA, LYMPHOBLASTIC, MALIGNANT", "synonyms": ["Precursor Cell Lymphoblastic Lymphoma", "Precursor Lymphoblastic Lymphoma"]}, {"conceptId": "C3212", "definition": "A malignant neoplasm composed of lymphocytes (B-cells), lymphoplasmacytoid cells, and plasma cells.", "preferredTerm": "Lymphoplasmacytic Lymphoma", "submissionValue": "LYMPHOMA, LYMPHOPLASMACYTIC, MALIGNANT", "synonyms": ["Immunocytoma, Lymphoplasmacytic Type", "Lymphoma, Plasmacytic", "Lymphoplasmacytoid Lymphoma"]}, {"conceptId": "C3208", "definition": "A malignant neoplasm composed of lymphocytes of B- or T/NK-cell phenotype.", "preferredTerm": "Lymphoma", "submissionValue": "LYMPHOMA, MALIGNANT", "synonyms": ["Lymphoma (Hodgkin and Non-Hodgkin)", "Lymphoma (Hodgkin's and Non-Hodgkin's)", "Malignant Lymphoma"]}, {"conceptId": "C114111", "definition": "A malignant neoplasm composed of a mixed lymphocyte population.", "preferredTerm": "Experimental Organism Mixed Lymphoma Neoplasm", "submissionValue": "LYMPHOMA, MIXED, MALIGNANT"}, {"conceptId": "C7540", "definition": "A malignant neoplasm composed of small lymphocytes.", "preferredTerm": "Small Lymphocytic Lymphoma", "submissionValue": "LYMPHOMA, SMALL LYMPHOCYTIC, MALIGNANT", "synonyms": ["B-Cell Small Lymphocytic Lymphoma", "Lymphoma, Lymphocytic, Malignant", "SLL", "Small B-Cell Lymphocytic Lymphoma"]}, {"conceptId": "C114112", "definition": "An antiquated term referring to a malignant lymphoma that is diffused and composed of small and large lymphocytes.", "preferredTerm": "Experimental Organism Lymphosarcoma Neoplasm", "submissionValue": "LYMPHOSARCOMA, MALIGNANT"}, {"conceptId": "C3217", "definition": "A benign neoplasm composed of mast cells.", "preferredTerm": "Benign Mastocytoma", "submissionValue": "MAST CELL TUMOR, BENIGN"}, {"conceptId": "C8991", "definition": "A malignant neoplasm composed of mast cells.", "preferredTerm": "Malignant Mastocytosis", "submissionValue": "MAST CELL TUMOR, MALIGNANT"}, {"conceptId": "C3222", "definition": "A malignant, invasive embryonal neoplasm arising from the cerebellum.", "preferredTerm": "Medulloblastoma", "submissionValue": "MEDULLOBLASTOMA, MALIGNANT", "synonyms": ["Medulloblastomas"]}, {"conceptId": "C3802", "definition": "A malignant neoplasm composed of melanocytes, which lack melanin.", "preferredTerm": "Amelanotic Melanoma", "submissionValue": "MELANOMA, AMELANOTIC, MALIGNANT"}, {"conceptId": "C98709", "definition": "A benign neoplasm or hamartoma composed of melanocytes.", "preferredTerm": "Benign Melanocytoma", "submissionValue": "MELANOMA, BENIGN", "synonyms": ["Benign Melanocytoma", "Melanocytoma, Benign"]}, {"conceptId": "C3224", "definition": "A malignant neoplasm composed of melanocytes.", "preferredTerm": "Melanoma", "submissionValue": "MELANOMA, MALIGNANT", "synonyms": ["Malignant Melanoma"]}, {"conceptId": "C7712", "definition": "A malignant neoplasm of the uvea composed of melanocytes.", "preferredTerm": "Uveal Melanoma", "submissionValue": "MELANOMA, UVEAL, MALIGNANT", "synonyms": ["Intraocular Melanoma", "Melanoma of Uvea", "Melanoma of the Uvea"]}, {"conceptId": "C4051", "definition": "A malignant neoplasm of the meninges, exhibiting poor differentiation (anaplasia).", "preferredTerm": "Anaplastic (Malignant) Meningioma", "submissionValue": "MENINGIOMA, ANAPLASTIC, MALIGNANT", "synonyms": ["Anaplastic Meningioma", "Malignant Meningioma", "Meningioma, Malignant"]}, {"conceptId": "C4055", "definition": "A benign neoplasm of the meninges.", "preferredTerm": "Benign Meningioma", "submissionValue": "MENINGIOMA, BENIGN", "synonyms": ["Meningioma, Benign"]}, {"conceptId": "C38938", "definition": "A malignant neoplasm of the meninges.", "preferredTerm": "Grade III Meningioma", "submissionValue": "MENINGIOMA, MALIGNANT", "synonyms": ["Grade 3 Meningioma", "Grade III Meningioma", "Who Grade III Meningioma"]}, {"conceptId": "C124611", "definition": "A benign neoplasm arising from the submucosa and composed of large eosinophilic epithelioid and spindle cells. (INHAND)", "preferredTerm": "Experimental Organism Mesenchymal Proliferative Lesion", "submissionValue": "MESENCHYMAL PROLIFERATIVE LESION, BENIGN"}, {"conceptId": "C4267", "definition": "A benign soft-tissue neoplasm comprising two or more non-fibroblastic mesenchymal lines of differentiation.", "preferredTerm": "Benign Mesenchymoma", "submissionValue": "MESENCHYMAL TUMOR, BENIGN"}, {"conceptId": "C4268", "definition": "A malignant soft tissue neoplasm which consists of two or more mesenchymal lines of differentiation, excluding a fibroblastic line of differentiation.", "preferredTerm": "Malignant Mesenchymoma", "submissionValue": "MESENCHYMOMA, MALIGNANT"}, {"conceptId": "C3762", "definition": "A benign neoplasm arising from mesothelial cells.", "preferredTerm": "Adenomatoid Tumor", "submissionValue": "MESOTHELIOMA, BENIGN", "synonyms": ["Adenomatoid Tumor, Benign", "Benign Localized Epithelial Mesothelioma", "Benign Mesothelial Neoplasm", "Benign Mesothelial Tumor", "Benign Mesothelioma", "Benign Neoplasm of Mesothelium", "Benign Neoplasm of the Mesothelium", "Benign Tumor of Mesothelium", "Benign Tumor of the Mesothelium", "Mesothelioma, Benign"]}, {"conceptId": "C4456", "definition": "A malignant neoplasm originating from mesothelial cells of the pleura or peritoneum.", "preferredTerm": "Malignant Mesothelioma", "submissionValue": "MESOTHELIOMA, MALIGNANT", "synonyms": ["Malignant Mesothelial Neoplasm", "Malignant Mesothelial Tumor", "Malignant Neoplasm of Mesothelium", "Malignant Neoplasm of the Mesothelium", "Malignant Tumor of Mesothelium", "Malignant Tumor of the Mesothelium"]}, {"conceptId": "C126085", "definition": "A benign neoplasm of the female reproductive tract arising from pluripotent mesodermal cells of the Mullerian ducts. (INHAND)", "preferredTerm": "Experimental Organism Benign Mixed Mullerian Tumor", "submissionValue": "MULLERIAN TUMOR, MIXED, BENIGN"}, {"conceptId": "C8975", "definition": "A malignant neoplasm of the female reproductive tract (mostly uterus and ovaries) originating from the Mullerian ducts and composed of carcinomatous and sarcomatous elements.", "preferredTerm": "Malignant Mixed Mesodermal (Mullerian) Tumor", "submissionValue": "MULLERIAN TUMOR, MIXED, MALIGNANT", "synonyms": ["MMMT", "Malignant Mixed Mesodermal Tumor"]}, {"conceptId": "C3736", "definition": "A benign tumor of the adrenal gland composed of adipocytes and hematopoietic/lymphoid cells.", "preferredTerm": "Adrenal Gland Myelolipoma", "submissionValue": "MYELOLIPOMA, BENIGN", "synonyms": ["Myelolipoma"]}, {"conceptId": "C3242", "definition": "A malignant neoplasm of the bone marrow composed of plasma cells.", "preferredTerm": "Plasma Cell Myeloma", "submissionValue": "MYELOMA, PLASMA CELL, MALIGNANT", "synonyms": ["Multiple Myeloma", "Myeloma"]}, {"conceptId": "C7442", "definition": "A benign neoplasm composed of myoepithelial cells.", "preferredTerm": "Benign Myoepithelioma", "submissionValue": "MYOEPITHELIOMA, BENIGN"}, {"conceptId": "C7596", "definition": "A malignant neoplasm composed of myoepithelial cells.", "preferredTerm": "Malignant Myoepithelioma", "submissionValue": "MYOEPITHELIOMA, MALIGNANT", "synonyms": ["Malignant Myoepithelioma", "Myoepithelial Carcinoma"]}, {"conceptId": "C6577", "definition": "A benign soft tissue neoplasm with a myxoid stroma formation.", "preferredTerm": "Myxoma", "submissionValue": "MYXOMA, BENIGN"}, {"conceptId": "C3255", "definition": "A malignant soft tissue neoplasm with a myxoid stroma formation.", "preferredTerm": "Myxosarcoma", "submissionValue": "MYXOSARCOMA, MALIGNANT"}, {"conceptId": "C3677", "definition": "A general term used to describe autonomous growth of tissue where the originating cell type has not been characterized. The term benign indicates the absence of morphologic features associated with malignancy (for instance severe atypia, nuclear pleomorphism, tumor cell necrosis, and abnormal mitoses).", "preferredTerm": "Benign Neoplasm", "submissionValue": "NEOPLASM, BENIGN", "synonyms": ["Benign Tumor", "Benign Unclassifiable Tumor"]}, {"conceptId": "C9305", "definition": "A general term for autonomous tissue growth exhibiting morphologic features of malignancy (e.g. severe atypia, nuclear pleomorphism, tumor cell necrosis, abnormal mitoses, tissue invasiveness) and for which the transformed cell type has not been specifically identified.", "preferredTerm": "Malignant Neoplasm", "submissionValue": "NEOPLASM, MALIGNANT", "synonyms": ["CA", "Cancer", "Malignancy", "Malignant Tumor"]}, {"conceptId": "C114235", "definition": "A benign embryonal neoplasm of the kidney.", "preferredTerm": "Experimental Organism Benign Nephroblastoma Neoplasm", "submissionValue": "NEPHROBLASTOMA, BENIGN"}, {"conceptId": "C40407", "definition": "A malignant embryonal neoplasm of the kidney.", "preferredTerm": "Kidney Wilms Tumor", "submissionValue": "NEPHROBLASTOMA, MALIGNANT", "synonyms": ["Embryonal Nephroma", "Nephroblastoma", "Renal Wilms' Tumor", "Wilms Tumor of the Kidney", "Wilms' Tumor of the Kidney"]}, {"conceptId": "C3270", "definition": "A malignant neoplasm composed of neuroblastic cells.", "preferredTerm": "Neuroblastoma", "submissionValue": "NEUROBLASTOMA, MALIGNANT", "synonyms": ["Neural Crest Tumor, Malignant", "Neuroblastoma (Schwannian Stroma-poor)"]}, {"conceptId": "C126086", "definition": "A benign neoplasm arising from neuroendocrine cells.", "preferredTerm": "Experimental Organism Benign Neuroendocrine Cell Tumor", "submissionValue": "NEUROENDOCRINE CELL TUMOR, BENIGN"}, {"conceptId": "C126087", "definition": "A malignant neoplasm arising from neuroendocrine cells.", "preferredTerm": "Experimental Organism Malignant Neuroendocrine Cell Tumor", "submissionValue": "NEUROENDOCRINE CELL TUMOR, MALIGNANT"}, {"conceptId": "C3272", "definition": "An intraneural or extraneural neoplasm arising from nerve tissues and neural sheaths, composed of perineurial-like fibroblasts and Schwann cells.", "preferredTerm": "Neurofibroma", "submissionValue": "NEUROFIBROMA, BENIGN"}, {"conceptId": "C116214", "definition": "A malignant tumor that arises in the brain stem or adjacent cranial nerves, consisting of variable populations of cells with neuronal and myoblast differentiation. (INHAND)", "preferredTerm": "Experimental Organism Malignant Neuromyoblastoma", "submissionValue": "NEUROMYOBLASTOMA, MALIGNANT"}, {"conceptId": "C4306", "definition": "A benign neoplasm arising from tooth-forming tissues.", "preferredTerm": "Benign Odontogenic Neoplasm", "submissionValue": "ODONTOGENIC TUMOR, BENIGN", "synonyms": ["Benign Odontogenic Tumor"]}, {"conceptId": "C3710", "definition": "A benign neoplasm arising from tooth-forming tissues with-enamel organ differentiation (but without enamel formation).", "preferredTerm": "Ameloblastic Fibro-Odontoma", "submissionValue": "ODONTOMA, AMELOBLASTIC, BENIGN", "synonyms": ["Ameloblastic Fibroodontoma", "Fibroameloblastic Odontoma"]}, {"conceptId": "C7492", "definition": "A malignant neoplasm arising from tooth-forming tissues with-enamel organ differentiation (but without enamel formation).", "preferredTerm": "Ameloblastic Carcinoma", "submissionValue": "ODONTOMA, AMELOBLASTIC, MALIGNANT"}, {"conceptId": "C3287", "definition": "A benign neoplasm of tooth origin.", "preferredTerm": "Odontoma", "submissionValue": "ODONTOMA, BENIGN", "synonyms": ["Fibro-Odontoma", "Fibroodontoma"]}, {"conceptId": "C4812", "definition": "A malignant neoplasm of tooth origin.", "preferredTerm": "Malignant Odontogenic Neoplasm", "submissionValue": "ODONTOMA, MALIGNANT", "synonyms": ["Malignant Odontogenic Tumor", "Odontogenic Carcinoma", "Odontogenic Carcinosarcoma"]}, {"conceptId": "C4326", "definition": "A malignant neoplasm of the central nervous system arising from oligodendrocytes, exhibiting poor differentiation (anaplasia).", "preferredTerm": "Anaplastic Oligodendroglioma", "submissionValue": "OLIGODENDROGLIOMA, ANAPLASTIC, MALIGNANT", "synonyms": ["Malignant Oligodendroglioma", "Undifferentiated Oligodendroglioma", "Who Grade III Oligodendroglial Neoplasm", "Who Grade III Oligodendroglial Tumor"]}, {"conceptId": "C119577", "definition": "A malignant neoplasm of the brain or spinal cord originating from oligodendrocytes.", "preferredTerm": "Experimental Organism Malignant Oligodendroglioma", "submissionValue": "OLIGODENDROGLIOMA, MALIGNANT"}, {"conceptId": "C7072", "definition": "A benign neoplasm composed of large cells with abundant eosinophilic granular cytoplasm (oncocytes).", "preferredTerm": "Oncocytic Neoplasm", "submissionValue": "ONCOCYTOMA, BENIGN", "synonyms": ["Oncocytic Tumor", "Oncocytoma"]}, {"conceptId": "C3679", "definition": "A malignant neoplasm composed of large epithelial cells with abundant granular eosinophilic cytoplasm (oncocytes).", "preferredTerm": "Oxyphilic Adenocarcinoma", "submissionValue": "ONCOCYTOMA, MALIGNANT", "synonyms": ["Hurthle Cell Adenocarcinoma", "Hurthle Cell Carcinoma", "Oncocytic Adenocarcinoma", "Oncocytic Carcinoma"]}, {"conceptId": "C3294", "definition": "A benign neoplasm of bone, characterized by the formation of osteoid tissue and large osteoblast-like cells.", "preferredTerm": "Osteoblastoma", "submissionValue": "OSTEOBLASTOMA, BENIGN", "synonyms": ["Giant Osteoid Osteoma", "Ossifying Giant Cell Tumor"]}, {"conceptId": "C3295", "definition": "A benign cartiliginous neoplasm arising from the metaphysis of bone.", "preferredTerm": "Osteochondroma", "submissionValue": "OSTEOCHONDROMA, BENIGN"}, {"conceptId": "C7155", "definition": "A malignant cartiliginous neoplasm of bone.", "preferredTerm": "Primary Central Chondrosarcoma", "submissionValue": "OSTEOCHONDROSARCOMA, MALIGNANT", "synonyms": ["Conventional Chondrosarcoma of Bone", "Primary Bone Chondrosarcoma", "Primary Chondrosarcoma", "Primary Chondrosarcoma of Bone", "Primary Chondrosarcoma of the Bone"]}, {"conceptId": "C4304", "definition": "A malignant neoplasm of bone comprised of osteoclast-like giant cells and mononuclear cells.", "preferredTerm": "Malignancy in Giant Cell Tumor of Bone", "submissionValue": "OSTEOCLASTOMA, MALIGNANT", "synonyms": ["Dedifferentiated Giant Cell Tumor", "Giant Cell Bone Sarcoma", "Giant Cell Sarcoma of Bone", "Giant Cell Sarcoma of the Bone"]}, {"conceptId": "C3740", "definition": "A benign neoplasm characterized by osteolysis and the presence of a rich collagenous stroma and spindle cells.", "preferredTerm": "Bone Desmoplastic Fibroma", "submissionValue": "OSTEOFIBROMA, BENIGN", "synonyms": ["Desmoid Tumor of Bone", "Desmoplastic Fibroma", "Desmoplastic Fibroma of Bone", "Desmoplastic Fibroma of the Bone", "Osseous Desmoplastic Fibroma"]}, {"conceptId": "C103392", "definition": "A benign neoplasm, morphologically a fibroma with osseous components.", "preferredTerm": "Experimental Organism Benign Bone Osteofibroma", "submissionValue": "OSTEOFIBROMA, BONE, BENIGN", "synonyms": ["Osteofibroma, Bone"]}, {"conceptId": "C3296", "definition": "A benign well-differentiated neoplasm of bone.", "preferredTerm": "Osteoma", "submissionValue": "OSTEOMA, BENIGN"}, {"conceptId": "C8810", "definition": "A malignant bone-forming neoplasm, arising in tissue other than bone.", "preferredTerm": "Extraskeletal Osteosarcoma", "submissionValue": "OSTEOSARCOMA, EXTRASKELETAL, MALIGNANT", "synonyms": ["Extraosseous Osteosarcoma", "Extraskeletal Osteogenic Sarcoma", "Soft Tissue Osteosarcoma"]}, {"conceptId": "C9145", "definition": "A malignant neoplasm usually arising from bone.", "preferredTerm": "Osteosarcoma", "submissionValue": "OSTEOSARCOMA, MALIGNANT", "synonyms": ["Osteogenic Sarcoma"]}, {"conceptId": "C6803", "definition": "A benign neoplasm of the ovary, originating from the sex-cord stroma.", "preferredTerm": "Benign Ovarian Sex Cord-Stromal Tumor", "submissionValue": "OVARIAN SEX CORD-STROMAL TUMOR, BENIGN", "synonyms": ["Benign Ovarian Sex Cord-Stromal Neoplasm", "Benign Sex Cord-Stromal Neoplasm of Ovary", "Benign Sex Cord-Stromal Neoplasm of the Ovary", "Benign Sex Cord-Stromal Tumor of Ovary", "Benign Sex Cord-Stromal Tumor of the Ovary", "Sex Cord Stromal Tumor, Benign"]}, {"conceptId": "C7440", "definition": "A benign epithelial neoplasm that projects above the surrounding epithelial surface.", "preferredTerm": "Papilloma", "submissionValue": "PAPILLOMA, BENIGN"}, {"conceptId": "C3698", "definition": "A benign neoplasm of the choroid plexus of the central nervous system.", "preferredTerm": "Choroid Plexus Papilloma", "submissionValue": "PAPILLOMA, CHOROID PLEXUS, BENIGN", "synonyms": ["Papilloma of Choroid Plexus", "Papilloma of the Choroid Plexus"]}, {"conceptId": "C3712", "definition": "A benign epithelial neoplasm characterized by a papillary growth pattern and a proliferation of neoplastic squamous cells.", "preferredTerm": "Squamous Papilloma", "submissionValue": "PAPILLOMA, SQUAMOUS CELL, BENIGN", "synonyms": ["Epidermoid Cell Papilloma", "Epidermoid Papilloma", "Keratotic Papilloma", "Squamous Cell Papilloma"]}, {"conceptId": "C4115", "definition": "A benign papillary neoplasm composed of transitional cells.", "preferredTerm": "Transitional Cell Papilloma", "submissionValue": "PAPILLOMA, TRANSITIONAL CELL, BENIGN", "synonyms": ["Transitional Papilloma"]}, {"conceptId": "C48314", "definition": "A benign neoplasm arising from paraganglia located along nerves composed of neoplastic neuroectodermal chromaffin cells.", "preferredTerm": "Benign Paraganglioma", "submissionValue": "PARAGANGLIOMA, BENIGN", "synonyms": ["Benign Neuroendocrine Cell Tumor", "Benign Paraganglionic Neoplasm"]}, {"conceptId": "C8559", "definition": "A malignant neoplasm arising from paraganglia located along nerves composed of neoplastic neuroectodermal chromaffin cells.", "preferredTerm": "Malignant Paraganglioma", "submissionValue": "PARAGANGLIOMA, MALIGNANT", "synonyms": ["Malignant Neoplasm of Paraganglion", "Malignant Paraganglion Tumor"]}, {"conceptId": "C96805", "definition": "A malignant intrahepatic neoplasm arising from the small interlobular bile ducts.", "preferredTerm": "Peripheral Intrahepatic Cholangiocarcinoma", "submissionValue": "PERIPHERAL CHOLANGIOCARCINOMA, MALIGNANT", "synonyms": ["Peripheral Cholangiocarcinoma"]}, {"conceptId": "C48305", "definition": "A benign neoplasm of the adrenal gland medulla.", "preferredTerm": "Benign Adrenal Gland Pheochromocytoma", "submissionValue": "PHEOCHROMOCYTOMA, BENIGN"}, {"conceptId": "C92181", "definition": "A benign neoplasm of the adrenal gland medulla, composed of medullary and neuroectodermal components.", "preferredTerm": "Benign Adrenal Gland Composite Pheochromocytoma", "submissionValue": "PHEOCHROMOCYTOMA, COMPLEX, BENIGN"}, {"conceptId": "C92184", "definition": "A malignant neoplasm of the adrenal gland medulla, composed of medullary and neuroectodermal components.", "preferredTerm": "Malignant Adrenal Gland Composite Pheochromocytoma", "submissionValue": "PHEOCHROMOCYTOMA, COMPLEX, MALIGNANT"}, {"conceptId": "C4220", "definition": "A malignant neoplasm of the adrenal gland medulla.", "preferredTerm": "Malignant Adrenal Gland Pheochromocytoma", "submissionValue": "PHEOCHROMOCYTOMA, MALIGNANT", "synonyms": ["Malignant Adrenal Gland Chromaffin Neoplasm", "Malignant Adrenal Gland Chromaffin Paraganglioma", "Malignant Adrenal Gland Chromaffin Tumor", "Malignant Adrenal Gland Chromaffinoma", "Malignant Adrenal Gland Paraganglioma", "Malignant Adrenal Medullary Paraganglioma", "Malignant Adrenal Medullary Pheochromocytoma", "Malignant Adrenal Pheochromocytoma", "Malignant Pheochromocytoma", "Pheochromoblastoma"]}, {"conceptId": "C7368", "definition": "A benign adnexal neoplasm arising from hair-bearing skin surfaces.", "preferredTerm": "Pilomatricoma", "submissionValue": "PILOMATRIXOMA, BENIGN", "synonyms": ["Benign Hair Follicle Neoplasm", "Benign Pilomatricoma", "Benign Pilomatrixoma", "Calcifying Epitherlioma of Malherbe", "Pilomatrixoma"]}, {"conceptId": "C9344", "definition": "A poorly differentiated malignant embryonal neoplasm arising from the pineal region of the brain.", "preferredTerm": "Pineoblastoma", "submissionValue": "PINEOBLASTOMA, MALIGNANT", "synonyms": ["PNET of Pineal Gland", "PNET of the Pineal Gland", "Pineal Gland PNET", "Pineal Gland Primitive Neuroectodermal Neoplasm", "Pineal Gland Primitive Neuroectodermal Tumor", "Pineal PNET", "Pineal Primitive Neuroectodermal Neoplasm", "Pineal Primitive Neuroectodermal Tumor", "Primitive Neuroectodermal Neoplasm of Pineal Gland", "Primitive Neuroectodermal Neoplasm of the Pineal Gland", "Primitive Neuroectodermal Tumor of Pineal Gland", "Primitive Neuroectodermal Tumor of the Pineal Gland"]}, {"conceptId": "C6966", "definition": "A benign neoplasm of the brain arising from the pineal gland.", "preferredTerm": "Pineocytoma", "submissionValue": "PINEOCYTOMA, BENIGN", "synonyms": ["Benign Pinealoma"]}, {"conceptId": "C7157", "definition": "A neoplasm arising from the posterior lobe of the pituitary gland.", "preferredTerm": "Posterior Pituitary Gland Neoplasm", "submissionValue": "PITUICYTOMA, BENIGN", "synonyms": ["Neurohypophysis Neoplasm", "Neurohypophysis Tumor", "Posterior Pituitary Gland Tumor", "Posterior Pituitary Neoplasm", "Posterior Pituitary Tumor"]}, {"conceptId": "C130197", "definition": "A benign neoplasm composed of plasma cells.", "preferredTerm": "Experimental Organism Benign Plasma Cell Tumor", "submissionValue": "PLASMA CELL TUMOR, BENIGN"}, {"conceptId": "C4665", "definition": "A malignant neoplasm composed of plasma cells.", "preferredTerm": "Plasma Cell Neoplasm", "submissionValue": "PLASMA CELL TUMOR, MALIGNANT", "synonyms": ["Plasma Cell Dyscrasia", "Plasma Cell Tumor", "Plasmacytic Neoplasm", "Plasmacytic Tumor"]}, {"conceptId": "C112275", "definition": "A benign polypoid neoplasm of an epithelial lining projecting into a lumen or cavity.", "preferredTerm": "Experimental Organism Benign Polyp", "submissionValue": "POLYP, BENIGN"}, {"conceptId": "C6433", "definition": "A benign polypoid neoplasm of the endometrium projecting into the endometrial cavity.", "preferredTerm": "Endometrial Polyp", "submissionValue": "POLYP, ENDOMETRIAL STROMAL, BENIGN"}, {"conceptId": "C124612", "definition": "A benign polyp with prominent, hyperplastic glandular structures.", "preferredTerm": "Experimental Organism Glandular Polyp", "submissionValue": "POLYP, GLANDULAR, BENIGN"}, {"conceptId": "C3664", "definition": "A benign polypoid growth arising from the vaginal wall.", "preferredTerm": "Vaginal Polyp", "submissionValue": "POLYP, VAGINAL, BENIGN", "synonyms": ["Polyp of Vagina", "Polyp of the Vagina"]}, {"conceptId": "C126088", "definition": "A malignant neoplasm arising from foci of atypical fibroblast-like cells in the interstitium of the outer stripe of the outer medulla of the kidney. (INHAND)", "preferredTerm": "Experimental Organism Malignant Renal Mesenchymal Tumor", "submissionValue": "RENAL MESENCHYMAL TUMOR, MALIGNANT"}, {"conceptId": "C4684", "definition": "A malignant lymphoid neoplasm composed of EBV-positive NK/T cells arranged in an angiocentric pattern.", "preferredTerm": "Nasal Type Extranodal NK/T-Cell Lymphoma", "submissionValue": "RETICULOSIS, MALIGNANT", "synonyms": ["Angiocentric T-Cell Lymphoma"]}, {"conceptId": "C7541", "definition": "A malignant neoplasm originating in the nuclear layer of the retina.", "preferredTerm": "Retinoblastoma", "submissionValue": "RETINOBLASTOMA, MALIGNANT", "synonyms": ["RB"]}, {"conceptId": "C3358", "definition": "A benign neoplasm arising from skeletal or cardiac muscle, characterized by the presence of rhabdomyoblasts.", "preferredTerm": "Rhabdomyoma", "submissionValue": "RHABDOMYOMA, BENIGN"}, {"conceptId": "C3359", "definition": "A malignant mesenchymal neoplasm arising from skeletal muscle.", "preferredTerm": "Rhabdomyosarcoma", "submissionValue": "RHABDOMYOSARCOMA, MALIGNANT"}, {"conceptId": "C124613", "definition": "A malignant mesenchymal neoplasm that arises from a pre-existing benign fibroadenoma.", "preferredTerm": "Experimental Organism Malignant Sarcoma Arising From Fibroadenoma", "submissionValue": "SARCOMA ARISING IN FIBROADENOMA, MALIGNANT"}, {"conceptId": "C35815", "definition": "A malignant neoplasm composed of myeloblasts, neutrophils and neutrophil precursors.", "preferredTerm": "Granulocytic Sarcoma", "submissionValue": "SARCOMA, GRANULOCYTIC, MALIGNANT"}, {"conceptId": "C27349", "definition": "A malignant neoplasm composed of cells resembling histiocytes.", "preferredTerm": "Histiocytic Sarcoma", "submissionValue": "SARCOMA, HISTIOCYTIC, MALIGNANT"}, {"conceptId": "C8312", "definition": "A malignant mesenchymal neoplasm arising from the leptomeninges.", "preferredTerm": "Leptomeningeal Sarcoma", "submissionValue": "SARCOMA, LEPTOMENINGEAL, MALIGNANT", "synonyms": ["Sarcoma of Leptomeninges", "Sarcoma of the Leptomeninges", "Sarcoma, Meningeal"]}, {"conceptId": "C9118", "definition": "A malignant mesenchymal neoplasm. A general term for which the transformed cell type has not been specified.", "preferredTerm": "Sarcoma", "submissionValue": "SARCOMA, MALIGNANT", "synonyms": ["Mesenchymal Tumor, Malignant", "Sarcoma", "Sarcoma of Soft Tissue and Bone", "Sarcoma of the Soft Tissue and Bone"]}, {"conceptId": "C3520", "definition": "A malignant neoplasm composed of myeloblasts or immature myeloid cells. It occurs in extramedullary sites or the bone.", "preferredTerm": "Myeloid Sarcoma", "submissionValue": "SARCOMA, MYELOID, MALIGNANT", "synonyms": ["Chloroma", "Extramedullary Myeloid Tumor"]}, {"conceptId": "C3400", "definition": "A malignant neoplasm that usually arises in the synovial membranes of the joints and the synovial cells of the tendons and bursae.", "preferredTerm": "Synovial Sarcoma", "submissionValue": "SARCOMA, SYNOVIAL, MALIGNANT", "synonyms": ["SS"]}, {"conceptId": "C27096", "definition": "A rare malignant neoplasm of the liver that is most common in youth.", "preferredTerm": "Undifferentiated (Embryonal) Sarcoma", "submissionValue": "SARCOMA, UNDIFFERENTIATED, MALIGNANT", "synonyms": ["Embryonal Sarcoma, Undifferentiated"]}, {"conceptId": "C3269", "definition": "A benign neoplasm of the peripheral nervous system composed of well-differentiated Schwann cells.", "preferredTerm": "Schwannoma", "submissionValue": "SCHWANNOMA, BENIGN", "synonyms": ["Neurilemmoma", "Neurinoma", "Schwannoma", "Schwannoma (Who Grade I)"]}, {"conceptId": "C3798", "definition": "A malignant neoplasm, originating from the sheaths of the peripheral nerve.", "preferredTerm": "Malignant Peripheral Nerve Sheath Tumor", "submissionValue": "SCHWANNOMA, MALIGNANT", "synonyms": ["Malignant Neurilemmoma", "Malignant Peripheral Nerve Sheath Tumour", "Neurofibrosarcoma, Malignant"]}, {"conceptId": "C112276", "definition": "A benign germ cell neoplasm of the testis.", "preferredTerm": "Experimental Organism Benign Seminoma", "submissionValue": "SEMINOMA, BENIGN"}, {"conceptId": "C9309", "definition": "A malignant germ cell neoplasm of the testis.", "preferredTerm": "Seminoma", "submissionValue": "SEMINOMA, MALIGNANT", "synonyms": ["Seminoma", "Seminoma, Pure"]}, {"conceptId": "C67012", "definition": "A benign neoplasm of the testis or ovary, originating from Sertoli cells.", "preferredTerm": "Benign Sertoli Cell Tumor", "submissionValue": "SERTOLI CELL TUMOR, BENIGN", "synonyms": ["Benign Androblastoma"]}, {"conceptId": "C67006", "definition": "A malignant neoplasm of the testis or ovary, originating from Sertoli cells.", "preferredTerm": "Malignant Sertoli Cell Tumor", "submissionValue": "SERTOLI CELL TUMOR, MALIGNANT", "synonyms": ["Malignant Androblastoma"]}, {"conceptId": "C126084", "definition": "A benign neoplasm composed of Sertoli cells arranged in tubules intermixed with pleomorphic Leydig cells.", "preferredTerm": "Experimental Organism Benign Mixed Sertoli-Leydig Cell Tumor", "submissionValue": "SERTOLI-LEYDIG CELL TUMOR, MIXED, BENIGN"}, {"conceptId": "C124614", "definition": "A benign sex cord-stromal neoplasm that arises from the testis or ovary and is composed of a mix of cell types.", "preferredTerm": "Experimental Organism Benign Mixed Sex Cord Stromal Tumor", "submissionValue": "SEX CORD STROMAL TUMOR, MIXED, BENIGN"}, {"conceptId": "C124615", "definition": "A malignant sex cord-stromal neoplasm that arises from the testis or ovary and is composed of a mix of cell types.", "preferredTerm": "Experimental Organism Malignant Mixed Sex Cord Stromal Tumor", "submissionValue": "SEX CORD STROMAL TUMOR, MIXED, MALIGNANT"}, {"conceptId": "C6569", "definition": "A congenital malignant neoplasm of the kidney characterized by the presence of fibroblastic cells.", "preferredTerm": "Congenital Mesoblastic Nephroma", "submissionValue": "STROMAL NEPHROMA, MALIGNANT", "synonyms": ["Cmn", "Mesoblastic Nephroma"]}, {"conceptId": "C8973", "definition": "A malignant, mesenchymal tumor of the uterine stroma.", "preferredTerm": "Endometrioid Stromal Sarcoma", "submissionValue": "STROMAL SARCOMA, ENDOMETRIAL, MALIGNANT", "synonyms": ["ESS"]}, {"conceptId": "C6926", "definition": "A malignant neoplasm characterized by the presence of atypical mesenchymal-stromal cells.", "preferredTerm": "Stromal Sarcoma", "submissionValue": "STROMAL SARCOMA, MALIGNANT", "synonyms": ["Stromal Tumor, Malignant"]}, {"conceptId": "C114113", "definition": "A benign neoplasm composed of mesenchymal stromal cells.", "preferredTerm": "Experimental Organism Benign Stromal Tumor Neoplasm", "submissionValue": "STROMAL TUMOR, BENIGN"}, {"conceptId": "C67561", "definition": "A malignant neoplasm originating from the gonadal sex cord stroma.", "preferredTerm": "Malignant Sex Cord-Stromal Tumor", "submissionValue": "STROMAL TUMOR, GONADAL, MALIGNANT", "synonyms": ["Sex Cord Stromal Tumor, Malignant"]}, {"conceptId": "C3795", "definition": "A benign neoplasm of the brain localized in the vicinity of a ventricular wall and is composed of glial tumor cell clusters embedded in an abundant fibrillary matrix with frequent microcystic changes.", "preferredTerm": "Subependymoma", "submissionValue": "SUBEPENDYMOMA, BENIGN", "synonyms": ["Subependymal Glioma", "Who Grade I Ependymal Neoplasm", "Who Grade I Ependymal Tumor"]}, {"conceptId": "C3829", "definition": "A benign neoplasm arising from the synovial membrane.", "preferredTerm": "Benign Synovial Neoplasm", "submissionValue": "SYNOVIOMA, BENIGN", "synonyms": ["Benign Neoplasm of Synovium", "Benign Neoplasm of the Synovium", "Benign Synovial Tumor", "Benign Synovioma", "Benign Tumor of Synovium", "Benign Tumor of the Synovium"]}, {"conceptId": "C114114", "definition": "A benign germ-cell neoplasm derived from pluripotent cells and consisting of components from one or more of the three germ-cell layers.", "preferredTerm": "Experimental Organism Benign Teratoma Neoplasm", "submissionValue": "TERATOMA, BENIGN"}, {"conceptId": "C4286", "definition": "A malignant germ-cell neoplasm derived from pluripotent cells and consisting of components from one or more of the three germ-cell layers.", "preferredTerm": "Immature Teratoma", "submissionValue": "TERATOMA, MALIGNANT", "synonyms": ["Immature Teratoma"]}, {"conceptId": "C5219", "definition": "A benign sex-cord neoplasm of the ovary, originating from theca cells.", "preferredTerm": "Benign Ovarian Thecoma", "submissionValue": "THECOMA, BENIGN", "synonyms": ["Benign Ovarian Thecal Cell Neoplasm", "Benign Ovarian Thecal Cell Tumor", "Benign Thecal Cell Neoplasm of Ovary", "Benign Thecal Cell Neoplasm of the Ovary", "Benign Thecal Cell Tumor of Ovary", "Benign Thecal Cell Tumor of the Ovary", "Benign Thecoma of Ovary", "Benign Thecoma of the Ovary", "Thecal Cell Tumor, Benign"]}, {"conceptId": "C6929", "definition": "A malignant sex-cord neoplasm of the ovary, originating from theca cells.", "preferredTerm": "Malignant Ovarian Thecoma", "submissionValue": "THECOMA, OVARIAN, MALIGNANT", "synonyms": ["Malignant Ovarian Thecal Cell Neoplasm", "Malignant Ovarian Thecal Cell Tumor", "Malignant Thecal Cell Neoplasm of Ovary", "Malignant Thecal Cell Neoplasm of the Ovary", "Malignant Thecal Cell Tumor of Ovary", "Malignant Thecal Cell Tumor of the Ovary", "Malignant Thecoma of Ovary", "Malignant Thecoma of the Ovary", "Thecoma, Malignant"]}, {"conceptId": "C114115", "definition": "A benign neoplasm of the thymus, originating from epithelial thymus cells.", "preferredTerm": "Experimental Organism Benign Thymoma Neoplasm", "submissionValue": "THYMOMA, BENIGN"}, {"conceptId": "C7612", "definition": "A malignant neoplasm of the thymus, originating from epithelial thymus cells.", "preferredTerm": "Malignant Thymoma", "submissionValue": "THYMOMA, MALIGNANT"}, {"conceptId": "C27132", "definition": "A benign hair follicle neoplasm with trichoblastic differentiation.", "preferredTerm": "Trichoblastoma", "submissionValue": "TRICHOEPITHELIOMA, BENIGN", "synonyms": ["Brooke's Tumor", "Trichoepithelioma", "Trichogenic Adnexal Tumor", "Trichogenic Trichoblastoma"]}, {"conceptId": "C8602", "definition": "A benign neoplasm composed of epithelial and/or myoepithelial cells and a mesenchymal component.", "preferredTerm": "Pleomorphic Adenoma", "submissionValue": "TUMOR, MIXED, BENIGN"}, {"conceptId": "C3729", "definition": "A malignant neoplasm composed of epithelial and/or myoepithelial cells and a mesenchymal component. A general term for which the transformed cell types have not been specified.", "preferredTerm": "Malignant Mixed Neoplasm", "submissionValue": "TUMOR, MIXED, MALIGNANT", "synonyms": ["Malignant Mixed Tumor"]}, {"conceptId": "C84357", "definition": "A benign epithelial neoplasm arising from the yolk sac.", "preferredTerm": "Yolk Sac Adenoma", "submissionValue": "YOLK SAC TUMOR, BENIGN"}, {"conceptId": "C3011", "definition": "A non-seminomatous malignant germ cell tumor composed of primitive germ cells and which produce an eosinophilic substance (alpha-fetoprotein).", "preferredTerm": "Yolk Sac Tumor", "submissionValue": "YOLK SAC TUMOR, MALIGNANT", "synonyms": ["Endodermal Sinus Neoplasm", "Endodermal Sinus Tumor", "Yolk Sac Neoplasm", "Yolk Sac Tumor Site Unspecified"]}]}