{"_links": {"parentPackage": {"href": "/mdr/ct/packages/sendct-2017-03-31", "title": "SEND Controlled Terminology Package 29 Effective 2017-03-31", "type": "Terminology"}, "priorVersion": {"href": "/mdr/ct/packages/sendct-2016-12-16/codelists/C90017", "title": "CDISC SEND Microscopic Histopathology Result Category Terminology", "type": "Code List"}, "rootItem": {"href": "/mdr/root/ct/sendct/codelists/C90017", "title": "Version-agnostic anchor resource for codelist C90017", "type": "Root Value Domain"}, "self": {"href": "/mdr/ct/packages/sendct-2017-03-31/codelists/C90017", "title": "CDISC SEND Microscopic Histopathology Result Category Terminology", "type": "Code List"}}, "conceptId": "C90017", "definition": "Terminology related to the classifications of the results from a microscopic histopathological analysis.", "extensible": "true", "name": "Microscopic Histopathology Result Category", "preferredTerm": "CDISC SEND Microscopic Histopathology Result Category Terminology", "submissionValue": "MIRESCAT", "synonyms": ["Microscopic Histopathology Result Category"], "terms": [{"conceptId": "C14172", "definition": "For neoplasms, a non-infiltrating and non-metastasizing neoplastic process that is characterized by the absence of morphologic features associated with malignancy (e.g., severe atypia, nuclear pleomorphism, tumor cell necrosis, and abnormal mitoses). For other conditions, a process that is mild in nature and not dangerous to health. (NCI)", "preferredTerm": "Benign", "submissionValue": "BENIGN", "synonyms": ["Benign"]}, {"conceptId": "C14143", "definition": "Refers to abnormal cell activity manifested by decreased control over growth and function, causing tumor growth or spread into surrounding tissue and adverse effects to the host. (NCI)", "preferredTerm": "Malignant", "submissionValue": "MALIGNANT", "synonyms": ["Malignant"]}, {"conceptId": "C14174", "definition": "A term referring to the pathologic observation of a tumor extension or migration from its original site of growth to another non-adjacent site.", "preferredTerm": "Metastatic", "submissionValue": "METASTATIC", "synonyms": ["Metastatic"]}, {"conceptId": "C53529", "definition": "Any disorder other than abnormal tissue growth resulting from uncontrolled cell proliferation. (NCI)", "preferredTerm": "Non-Neoplastic Disorder", "submissionValue": "NON-NEOPLASTIC", "synonyms": ["Non-neoplastic Disorder"]}, {"conceptId": "C89084", "definition": "A term referring to the lack of definitive clinical or pathologic criteria for a tumor to predict its clinical course or classify it as benign or malignant.", "preferredTerm": "Undetermined", "submissionValue": "UNDETERMINED", "synonyms": ["Undetermined"]}]}