{
  "_links": {
    "priorVersion": {
      "href": "",
      "title": "",
      "type": "Terminology"
    },
    "self": {
      "href": "",
      "title": "",
      "type": "Terminology"
    }
  },
  "codelists": [
    {
      "conceptId": "C100129",
      "definition": "A grouping of observations within the Questionnaire domain.",
      "extensible": "Yes",
      "name": "Questionnaire Category",
      "preferredTerm": "CDISC Questionnaire Category Terminology",
      "submissionValue": "QSCAT",
      "synonyms": [
        "Questionnaire Category"
      ],
      "terms": [
        {
          "conceptId": "C100762",
          "definition": "The CDISC version of the Alzheimer's Disease Assessment Scale-Cognitive (ADAS-Cog CDISC Version) containing 15 summary-level tests. This version is based on combining the total pool of ADAS-Cog tests that were observed during a review of multiple case report forms administered in clinical trials of Alzheimer's disease, as well as the CRF administered in the Alzheimer's Disease Neuroimaging Initiative (ADNI) observational study. (Modified from Mohs RC, Rosen WG, Davis KL. The Alzheimer's disease assessment scale: an instrument for assessing treatment efficacy. Psychopharmacol Bull 1983;19(3):448-450. Rosen WG, Mohs RC, Davis KL. A new rating scale for Alzheimer's disease. Am J Psychiatry 1984;141(11):1356-1364. Mohs RC, Knopman D, Petersen RC et al. Development of cognitive instruments for use in clinical trials of antidementia drugs: additions to the Alzheimer's Disease Assessment Scale that broaden its scope. The Alzheimer's Disease Cooperative Study. Alzheimer Dis Assoc Disord 1997;11 Suppl 2:S13-S21. Wouters H, van Gool WA, Schmand B, Lindeboom R. Revising the ADAS-cog for a more accurate assessment of cognitive impairment. Alzheimer Dis Assoc Disord 2008;22(3):236-244.).",
          "preferredTerm": "Alzheimer's Disease Assessment Scale-Cognitive CDISC Version Questionnaire",
          "submissionValue": "ADAS-COG",
          "synonyms": [
            "ADC"
          ]
        },
        {
          "conceptId": "C100759",
          "definition": "Brief Pain Inventory (BPI) (copyright 1991 Charles S. Cleeland, PhD, Pain Research Group, All Right Reserved).",
          "preferredTerm": "Brief Pain Inventory Questionnaire",
          "submissionValue": "BPI",
          "synonyms": [
            "BPI1"
          ]
        },
        {
          "conceptId": "C100760",
          "definition": "Brief Pain Inventory Short Form (BPI2) (copyright 1991 Charles S. Cleeland, PhD, Pain Research Group, All Right Reserved).",
          "preferredTerm": "Brief Pain Inventory Short Form Questionnaire",
          "submissionValue": "BPI SHORT FORM",
          "synonyms": [
            "BPI2"
          ]
        },
        {
          "conceptId": "C100761",
          "definition": "Brief Psychiatric Rating Scale (BPRS-A) (Overall JE, Gorham DR (1962). The brief psychiatric rating scale. Psychological Reports 1962 vol. 10, pp799-812).",
          "preferredTerm": "Brief Psychiatric Rating Scale A Questionnaire",
          "submissionValue": "BPRS-A",
          "synonyms": [
            "BPR01"
          ]
        },
        {
          "conceptId": "C100763",
          "definition": "Clinical Global Impression (CGI) (Guy W: ECDEU Assessment Manual for Psychopharmacology. Rockville, MD: U.S. Department of Health, Education, and Welfare; 1976).",
          "preferredTerm": "Clinical Global Impression Questionnaire",
          "submissionValue": "CGI",
          "synonyms": [
            "CGI01"
          ]
        },
        {
          "conceptId": "C100765",
          "definition": "Columbia-Suicidality Severity Rating Scale (C-SSRS) Baseline Version 2009-01-14 (Posner, K.; Brent, D.; Lucas, C.; Gould, M.; Stanley, B.; Brown, G.; Fisher, P.; Zelazny, J.; Burke, A.; Oquendo, M.; Mann, J.; copyright 2008 The Research Foundation for Mental Hygiene, Inc.).",
          "preferredTerm": "Columbia-Suicidality Severity Rating Scale Questionnaire",
          "submissionValue": "C-SSRS BASELINE",
          "synonyms": [
            "CSS01"
          ]
        },
        {
          "conceptId": "C100764",
          "definition": "Current Opioid Misuse Measure (COMM) (copyright 2010 Inflexxion, Inc., All rights reserved).",
          "preferredTerm": "Current Opioid Misuse Measure Questionnaire",
          "submissionValue": "COMM",
          "synonyms": [
            "COMM01"
          ]
        },
        {
          "conceptId": "C66957",
          "definition": "The EuroQol (European Quality of Life) Five Dimension Three Level Scale (EQ-5D-3L) (copyright 1990 EuroQol Group EQ-5D. All Rights Reserved).",
          "preferredTerm": "EuroQOL Three Dimension Five Level Questionnaire",
          "submissionValue": "EQ-5D-3L",
          "synonyms": [
            "EQ5D01"
          ]
        },
        {
          "conceptId": "C100766",
          "definition": "Faces Pain Scale - Revised (FPS-R) (Hicks CL, von Baeyer CL, van Korlaar I, Goodenough B. Faces Pain Scale-Revised: Toward a Common Metric in Pediatric Pain Measurement. Pain 2001; 93:173-183).",
          "preferredTerm": "Faces Pain Scale Revised Questionnaire",
          "submissionValue": "FPSR",
          "synonyms": [
            "FPSR1"
          ]
        },
        {
          "conceptId": "C100767",
          "definition": "The Hamilton Depression Rating Scale 17-Item (HAMD 17) (Hamilton M. Development of a rating scale for primary depressive illness. Br J Soc Clin Psychol 1967; 6(4):278-96).",
          "preferredTerm": "Hamilton Depression Rating Scale 17 Item Questionnaire",
          "submissionValue": "HAMD 17",
          "synonyms": [
            "HAMD1"
          ]
        },
        {
          "conceptId": "C100768",
          "definition": "The Karnofsky Performance Status Scale (KPSS) (Karnofsky DA, Burchenal JH. (1949). \"The Clinical Evaluation of Chemotherapeutic Agents in Cancer.\" In: MacLeod CM (Ed), Evaluation of Chemotherapeutic Agents. Columbia Univ Press. Page 196).",
          "preferredTerm": "Karnofsky Performance Status Scale Questionnaire",
          "submissionValue": "KPS SCALE",
          "synonyms": [
            "KPSS"
          ]
        },
        {
          "conceptId": "C100771",
          "definition": "Michigan Neuropathy Screening Instrument (MNSI) (copyright University of Michigan, 2000, All rights reserved).",
          "preferredTerm": "Michigan Neuropathy Screening Instrument Questionnaire",
          "submissionValue": "MNSI",
          "synonyms": [
            "MNSI1"
          ]
        },
        {
          "conceptId": "C100770",
          "definition": "The Mini-Mental State Examination (MMSE) (Folstein MF, Folstein SE, McHugh PR. 'Mini-Mental State': A practical method for grading the cognitive state of patients for the clinician. J Psychiatr Res. 1975; 12(3):189-98).",
          "preferredTerm": "Mini-Mental State Examination Questionnaire",
          "submissionValue": "MMSE",
          "synonyms": [
            "MMS1"
          ]
        },
        {
          "conceptId": "C100769",
          "definition": "The Movement Disorder Society version of the Unified Parkinson's Disease Rating Scale (The Movement Disorder Society version of the Unified Parkinson's Disease Rating Scale) (copyright 2008 Movement Disorder Society. All Rights Reserved).",
          "preferredTerm": "Movement Disorder Society Unified Parkinson's Disease Rating Scale Questionnaire",
          "submissionValue": "MDS-UPDRS",
          "synonyms": [
            "UPD2"
          ]
        },
        {
          "conceptId": "C100772",
          "definition": "Neuropsychiatric Inventory (NPI) (copyright JL Cummings, 1994, all rights reserved; permission for commercial use required; npiTEST.net).",
          "preferredTerm": "Neuropsychiatric Inventory Questionnaire",
          "submissionValue": "NPI",
          "synonyms": [
            "NPI1"
          ]
        },
        {
          "conceptId": "C100773",
          "definition": "Parkinson's Disease Quality of Life Scale (PDQUALIF) (Welsh M, McDermott MP, Holloway RG, Plumb S, Pfeiffer R, Hubble J, and The Parkinson Study Group. Development and Testing of the Parkinson's Disease Quality of Life Scale. Movement Disorders, 2003, Vol. 18; 637-645).",
          "preferredTerm": "Parkinson's Disease Quality of Life Scale Questionnaire",
          "submissionValue": "PDQUALIF",
          "synonyms": [
            "PDQ01"
          ]
        },
        {
          "conceptId": "C100774",
          "definition": "Roland Morris Disability Questionnaire (RDQ) (Roland MO, Morris RW. A study of the natural history of back pain. Part 1: Development of a reliable and sensitive measure of disability in low back pain. Spine 1983;8:141-144).",
          "preferredTerm": "Roland Morris Disability Questionnaire",
          "submissionValue": "RDQ",
          "synonyms": [
            "RDQ01"
          ]
        },
        {
          "conceptId": "C100777",
          "definition": "Screener and Opioid Assessment for Patients with Pain Revised (SOAPP-R) (copyright 2007 Inflexxion, Inc., All rights reserved).",
          "preferredTerm": "Screener and Opioid Assessment for Patients with Pain Revised Questionnaire",
          "submissionValue": "SOAPP-R",
          "synonyms": [
            "SOAPR1"
          ]
        },
        {
          "conceptId": "C100775",
          "definition": "The Short Form 36Health Survey Standard, US Version 1.0 (SF36 v1.0 Standard) (copyright 1988, 2002 by Medical Outcomes Trust and Quality Metric Incorporated. All rights reserved).",
          "preferredTerm": "Short Form 36 Health Survey Standard, US Version 1.0 Questionnaire",
          "submissionValue": "SF36 v1.0 STANDARD",
          "synonyms": [
            "SF361"
          ]
        },
        {
          "conceptId": "C100776",
          "definition": "Short-Form McGill Pain Questionnaire-2 (SF-MPQ-2) (Copyright R. Melzack and the Initiative on Methods, Measurement, and Pain Assessment in Clinical Trials (IMMPACT), 2009, All Rights Reserved).",
          "preferredTerm": "Short-Form McGill Pain Questionnaire-2",
          "submissionValue": "SHORT-FORM MPQ-2",
          "synonyms": [
            "SFMP2"
          ]
        },
        {
          "conceptId": "C100779",
          "definition": "The Work Productivity and Activity Impairment - Specific Health Problems Questionnaire Version 2.0 (WPAI01) (http://www.reillyassociates.net/WPAI_SHP.html).",
          "preferredTerm": "Work Productivity and Activity Impairment Specific Health Problems Version 2.0 Questionnaire",
          "submissionValue": "WPAI-SHP",
          "synonyms": [
            "WPAI01"
          ]
        },
        {
          "conceptId": "C102111",
          "definition": "Abnormal Involuntary Movement Scale (AIMS) (Guy W. Ed. ECDEU Assessment Manual for Psychopharmacology. Rockville MD: US Dept of Health, Education and Welfare. 1976, Publication No. (ADM) 76-338).",
          "preferredTerm": "Abnormal Involuntary Movement Scale Questionnaire",
          "submissionValue": "AIMS",
          "synonyms": [
            "AIMS01"
          ]
        },
        {
          "conceptId": "C102112",
          "definition": "The Alzheimer's Disease Neuroimaging Initiative's (ADNI) version of the Auditory Verbal Learning Test (AVLT Version A) modified from Rey A. L'examen clinique en psychologie [Clinical tests in psychology]. Paris: Presses Universitaires de France; 1964.",
          "preferredTerm": "Alzheimer's Disease Neuroimaging Initiative Auditory Verbal Learning Test Questionnaire",
          "submissionValue": "AVLT",
          "synonyms": [
            "AVL01"
          ]
        },
        {
          "conceptId": "C102113",
          "definition": "Barnes Akathisia Rating Scale (BARS) (Barnes TR: A Rating Scale for Drug-Induced Akathisia. British Journal of Psychiatry 154:672-676, 1989).",
          "preferredTerm": "Barnes Akathisia Rating Scale Questionnaire",
          "submissionValue": "BARS",
          "synonyms": [
            "BARS01"
          ]
        },
        {
          "conceptId": "C102114",
          "definition": "Clinical Dementia Rating (CDR) (Morris, JC. Clinical Dementia Rating: A reliable and valid diagnostic and staging measure for dementia of the Alzheimer type. International Psychogeriatrics 1997: 9, Suppl. 1, 173-176).",
          "preferredTerm": "Clinical Dementia Rating Questionnaire",
          "submissionValue": "CDR",
          "synonyms": [
            "CDR01"
          ]
        },
        {
          "conceptId": "C102115",
          "definition": "The Clinical Opiate Withdrawal Scale (COWS) (Wesson DR and Ling W. The Clinical Opiate Withdrawal Scale (COWS). J Psychoactive Drugs 2003;35(2):253-259).",
          "preferredTerm": "Clinical Opiate Withdrawal Scale Questionnaire",
          "submissionValue": "COWS",
          "synonyms": [
            "COWS1"
          ]
        },
        {
          "conceptId": "C102116",
          "definition": "Eastern Cooperative Oncology Group (ECOG) Performance Status (Oken MM, Creech RH, Tormey DC, Horton J, Davis TE, McFadden ET, Carbone PP. Toxicity and response criteria of the Eastern Cooperative Oncology Group. Am J Clin Oncol. 1982 Dec;5(6):649-55).",
          "preferredTerm": "Eastern Cooperative Oncology Group Performance Status Questionnaire",
          "submissionValue": "ECOG",
          "synonyms": [
            "ECOG1"
          ]
        },
        {
          "conceptId": "C102117",
          "definition": "The EuroQol (European Quality of Life) Five Dimension Five Level Scale (EQ-5D-5L) (copyright 2009 EuroQol Group EQ-5D. All Rights Reserved).",
          "preferredTerm": "European Quality of Life Five Dimension Five Level Scale Questionnaire",
          "submissionValue": "EQ-5D-5L",
          "synonyms": [
            "EQ5D02"
          ]
        },
        {
          "conceptId": "C102118",
          "definition": "The Hamilton Anxiety Rating Scale (HAM-A) (Hamilton M. The assessment of anxiety states by rating. Br J Med Psychol 1959; 32:50-55).",
          "preferredTerm": "Hamilton Anxiety Rating Scale Questionnaire",
          "submissionValue": "HAMA",
          "synonyms": [
            "HAMA1"
          ]
        },
        {
          "conceptId": "C102119",
          "definition": "The Hamilton Depression Rating Scale 21-Item (HAMD 21) (Hedlund and Vieweg, The Hamilton rating scale for depression. Journal of Operational Psychiatry, 1979;10(2):149-165).",
          "preferredTerm": "Hamilton Depression Rating Scale 21-Item Questionnaire",
          "submissionValue": "HAMD 21",
          "synonyms": [
            "HAMD2"
          ]
        },
        {
          "conceptId": "C102120",
          "definition": "The Short Form 36 Health Survey Acute, US Version 1.0 (SF36 v1.0 Acute) (copyright 1988, 2002 by Medical Outcomes Trust and Quality Metric Incorporated. All rights reserved).",
          "preferredTerm": "Short Form 36 Health Survey Acute, US Version 1.0 Questionnaire",
          "submissionValue": "SF36 v1.0 ACUTE",
          "synonyms": [
            "SF362"
          ]
        },
        {
          "conceptId": "C102121",
          "definition": "The Short Form 36 Health Survey Acute, US Version 2.0 (SF36 v2.0 Acute) (copyright 1996, 2000 by Quality Metric Incorporated and Medical Outcomes Trust. All rights reserved).",
          "preferredTerm": "Short Form 36 Health Survey Acute, US Version 2.0 Questionnaire",
          "submissionValue": "SF36 v2.0 ACUTE",
          "synonyms": [
            "SF364"
          ]
        },
        {
          "conceptId": "C102122",
          "definition": "The Short Form 36 Health Survey Standard, US Version 2.0 (SF36 v2.0 Standard) (copyright 1996, 2000 by Quality Metric Incorporated and Medical Outcomes Trust. All rights reserved).",
          "preferredTerm": "Short Form 36 Health Survey Standard, US Version 2.0 Questionnaire",
          "submissionValue": "SF36 v2.0 STANDARD",
          "synonyms": [
            "SF363"
          ]
        },
        {
          "conceptId": "C102123",
          "definition": "The Subjective Opiate Withdrawal Scale (SOWS) (Handelsman, L., Cochrane, K. J., Aronson, M. J. Ness, R., Rubinstein K.J., Kanof, P.D. (1987) Two New Rating Scales for Opiate Withdrawal. American Journal of Alcohol Abuse, 13, 293-308).",
          "preferredTerm": "Subjective Opiate Withdrawal Scale Questionnaire",
          "submissionValue": "SOWS SUBJECTIVE",
          "synonyms": [
            "SOWSA1"
          ]
        },
        {
          "conceptId": "C100778",
          "definition": "Unified Parkinson's Disease Rating Scale (UPDRS) (Fahn S, Marsden CD, Calne DB, Goldstein M, eds. Recent Developments in Parkinson's Disease, Vol 2. Florham Park, NJ. Macmillan Health Care Information 1987, pp 153-163, 293-304).",
          "preferredTerm": "Unified Parkinson s Disease Rating Scale Questionnaire",
          "submissionValue": "UPDRS",
          "synonyms": [
            "UPD1"
          ]
        },
        {
          "conceptId": "C102124",
          "definition": "Young Mania Rating Scale (YMRS) (Young RC, Biggs JT, Ziegler VE et al: A rating scale for mania: reliability, validity and sensitivity. Br J Psychiatry 133: 429-435, 1978).",
          "preferredTerm": "Young Mania Rating Scale Questionnaire",
          "submissionValue": "YMRS",
          "synonyms": [
            "YMRS01"
          ]
        }
      ]
    },
    {
      "conceptId": "C100132",
      "definition": "ADAS-Cog CDISC Version test code.",
      "extensible": "No",
      "name": "Alzheimer's Disease Assessment Scale - Cognitive CDISC Version Test Code",
      "preferredTerm": "CDISC Questionnaire ADAS-Cog CDISC Version Test Code Terminology",
      "submissionValue": "ADAS-Cog CDISC Version TESTCD",
      "synonyms": [
        "Alzheimer's Disease Assessment Scale - Cognitive CDISC Version Test Code"
      ],
      "terms": [
        {
          "conceptId": "C100177",
          "definition": "Alzheimer's Disease Assessment Scale-Cognitive CDISC Version - Word recall task word average score of trials 1, 2, 3.",
          "preferredTerm": "CDISC ADAS-Cog - Word Recall Average Score",
          "submissionValue": "ADCRL",
          "synonyms": [
            "Word Recall"
          ]
        },
        {
          "conceptId": "C100178",
          "definition": "Alzheimer's Disease Assessment Scale-Cognitive CDISC Version - Sub-score for word recall task trial 1.",
          "preferredTerm": "CDISC ADAS-Cog - Word Recall Trial 1 Subscore",
          "submissionValue": "ADCRLT01",
          "synonyms": [
            "Word Recall Trial 1"
          ]
        },
        {
          "conceptId": "C100179",
          "definition": "Alzheimer's Disease Assessment Scale-Cognitive CDISC Version - Sub-score for word recall task trial 2.",
          "preferredTerm": "CDISC ADAS-Cog - Word Recall Trial 2 Subscore",
          "submissionValue": "ADCRLT02",
          "synonyms": [
            "Word Recall Trial 2"
          ]
        },
        {
          "conceptId": "C100180",
          "definition": "Alzheimer's Disease Assessment Scale-Cognitive CDISC Version - Sub-score for word recall task trial 3.",
          "preferredTerm": "CDISC ADAS-Cog - Word Recall Trial 3 Subscore",
          "submissionValue": "ADCRLT03",
          "synonyms": [
            "Word Recall Trial 3"
          ]
        },
        {
          "conceptId": "C100181",
          "definition": "Alzheimer's Disease Assessment Scale-Cognitive CDISC Version - Word recall task word 1 for trial 1, 2, 3.",
          "preferredTerm": "CDISC ADAS-Cog - Word Recall: Word 1",
          "submissionValue": "ADCRLW01",
          "synonyms": [
            "Word Recall: Word [1]"
          ]
        },
        {
          "conceptId": "C100182",
          "definition": "Alzheimer's Disease Assessment Scale-Cognitive CDISC Version - Word recall task word 2 for trial 1, 2, 3.",
          "preferredTerm": "CDISC ADAS-Cog - Word Recall: Word 2",
          "submissionValue": "ADCRLW02",
          "synonyms": [
            "Word Recall: Word [2]"
          ]
        },
        {
          "conceptId": "C100183",
          "definition": "Alzheimer's Disease Assessment Scale-Cognitive CDISC Version - Word recall task word 3 for trial 1, 2, 3.",
          "preferredTerm": "CDISC ADAS-Cog - Word Recall: Word 3",
          "submissionValue": "ADCRLW03",
          "synonyms": [
            "Word Recall: Word [3]"
          ]
        },
        {
          "conceptId": "C100184",
          "definition": "Alzheimer's Disease Assessment Scale-Cognitive CDISC Version - Word recall task word 4 for trial 1, 2, 3.",
          "preferredTerm": "CDISC ADAS-Cog - Word Recall: Word 4",
          "submissionValue": "ADCRLW04",
          "synonyms": [
            "Word Recall: Word [4]"
          ]
        },
        {
          "conceptId": "C100185",
          "definition": "Alzheimer's Disease Assessment Scale-Cognitive CDISC Version - Word recall task word 5 for trial 1, 2, 3.",
          "preferredTerm": "CDISC ADAS-Cog - Word Recall: Word 5",
          "submissionValue": "ADCRLW05",
          "synonyms": [
            "Word Recall: Word [5]"
          ]
        },
        {
          "conceptId": "C100186",
          "definition": "Alzheimer's Disease Assessment Scale-Cognitive CDISC Version - Word recall task word 6 for trial 1, 2, 3.",
          "preferredTerm": "CDISC ADAS-Cog - Word Recall: Word 6",
          "submissionValue": "ADCRLW06",
          "synonyms": [
            "Word Recall: Word [6]"
          ]
        },
        {
          "conceptId": "C100187",
          "definition": "Alzheimer's Disease Assessment Scale-Cognitive CDISC Version - Word recall task word 7 for trial 1, 2, 3.",
          "preferredTerm": "CDISC ADAS-Cog - Word Recall: Word 7",
          "submissionValue": "ADCRLW07",
          "synonyms": [
            "Word Recall: Word [7]"
          ]
        },
        {
          "conceptId": "C100188",
          "definition": "Alzheimer's Disease Assessment Scale-Cognitive CDISC Version - Word recall task word 8 for trial 1, 2, 3.",
          "preferredTerm": "CDISC ADAS-Cog - Word Recall: Word 8",
          "submissionValue": "ADCRLW08",
          "synonyms": [
            "Word Recall: Word [8]"
          ]
        },
        {
          "conceptId": "C100189",
          "definition": "Alzheimer's Disease Assessment Scale-Cognitive CDISC Version - Word recall task word 9 for trial 1, 2, 3.",
          "preferredTerm": "CDISC ADAS-Cog - Word Recall: Word 9",
          "submissionValue": "ADCRLW09",
          "synonyms": [
            "Word Recall: Word [9]"
          ]
        },
        {
          "conceptId": "C100190",
          "definition": "Alzheimer's Disease Assessment Scale-Cognitive CDISC Version - Word recall task word 10 for trial 1, 2, 3.",
          "preferredTerm": "CDISC ADAS-Cog - Word Recall: Word 10",
          "submissionValue": "ADCRLW10",
          "synonyms": [
            "Word Recall: Word [10]"
          ]
        },
        {
          "conceptId": "C100191",
          "definition": "Alzheimer's Disease Assessment Scale-Cognitive CDISC Version - Naming task summary score for object and fingers.",
          "preferredTerm": "CDISC ADAS-Cog - Naming Objects and Fingers Summary Score",
          "submissionValue": "ADCOF",
          "synonyms": [
            "Naming Objects and Fingers"
          ]
        },
        {
          "conceptId": "C100192",
          "definition": "Alzheimer's Disease Assessment Scale-Cognitive CDISC Version - Naming task for object 1.",
          "preferredTerm": "CDISC ADAS-Cog - Naming Objects and Fingers: 1",
          "submissionValue": "ADCOFO01",
          "synonyms": [
            "Naming Objects and Fingers: 1"
          ]
        },
        {
          "conceptId": "C100193",
          "definition": "Alzheimer's Disease Assessment Scale-Cognitive CDISC Version - Naming task for object 2.",
          "preferredTerm": "CDISC ADAS-Cog - Naming Objects and Fingers: 2",
          "submissionValue": "ADCOFO02",
          "synonyms": [
            "Naming Objects and Fingers: 2"
          ]
        },
        {
          "conceptId": "C100194",
          "definition": "Alzheimer's Disease Assessment Scale-Cognitive CDISC Version - Naming task for object 3.",
          "preferredTerm": "CDISC ADAS-Cog - Naming Objects and Fingers: 3",
          "submissionValue": "ADCOFO03",
          "synonyms": [
            "Naming Objects and Fingers: 3"
          ]
        },
        {
          "conceptId": "C100195",
          "definition": "Alzheimer's Disease Assessment Scale-Cognitive CDISC Version - Naming task for object 4.",
          "preferredTerm": "CDISC ADAS-Cog - Naming Objects and Fingers: 4",
          "submissionValue": "ADCOFO04",
          "synonyms": [
            "Naming Objects and Fingers: 4"
          ]
        },
        {
          "conceptId": "C100196",
          "definition": "Alzheimer's Disease Assessment Scale-Cognitive CDISC Version - Naming task for object 5.",
          "preferredTerm": "CDISC ADAS-Cog - Naming Objects and Fingers: 5",
          "submissionValue": "ADCOFO05",
          "synonyms": [
            "Naming Objects and Fingers: 5"
          ]
        },
        {
          "conceptId": "C100197",
          "definition": "Alzheimer's Disease Assessment Scale-Cognitive CDISC Version - Naming task for object 6.",
          "preferredTerm": "CDISC ADAS-Cog - Naming Objects and Fingers: 6",
          "submissionValue": "ADCOFO06",
          "synonyms": [
            "Naming Objects and Fingers: 6"
          ]
        },
        {
          "conceptId": "C100198",
          "definition": "Alzheimer's Disease Assessment Scale-Cognitive CDISC Version - Naming task for object 7.",
          "preferredTerm": "CDISC ADAS-Cog - Naming Objects and Fingers: 7",
          "submissionValue": "ADCOFO07",
          "synonyms": [
            "Naming Objects and Fingers: 7"
          ]
        },
        {
          "conceptId": "C100199",
          "definition": "Alzheimer's Disease Assessment Scale-Cognitive CDISC Version - Naming task for object 8.",
          "preferredTerm": "CDISC ADAS-Cog - Naming Objects and Fingers: 8",
          "submissionValue": "ADCOFO08",
          "synonyms": [
            "Naming Objects and Fingers: 8"
          ]
        },
        {
          "conceptId": "C100200",
          "definition": "Alzheimer's Disease Assessment Scale-Cognitive CDISC Version - Naming task for object 9.",
          "preferredTerm": "CDISC ADAS-Cog - Naming Objects and Fingers: 9",
          "submissionValue": "ADCOFO09",
          "synonyms": [
            "Naming Objects and Fingers: 9"
          ]
        },
        {
          "conceptId": "C100201",
          "definition": "Alzheimer's Disease Assessment Scale-Cognitive CDISC Version - Naming task for object 10.",
          "preferredTerm": "CDISC ADAS-Cog - Naming Objects and Fingers: 10",
          "submissionValue": "ADCOFO10",
          "synonyms": [
            "Naming Objects and Fingers: 10"
          ]
        },
        {
          "conceptId": "C100202",
          "definition": "Alzheimer's Disease Assessment Scale-Cognitive CDISC Version - Naming task for object 11.",
          "preferredTerm": "CDISC ADAS-Cog - Naming Objects and Fingers: 11",
          "submissionValue": "ADCOFO11",
          "synonyms": [
            "Naming Objects and Fingers: 11"
          ]
        },
        {
          "conceptId": "C100203",
          "definition": "Alzheimer's Disease Assessment Scale-Cognitive CDISC Version - Naming task for object 12.",
          "preferredTerm": "CDISC ADAS-Cog - Naming Objects and Fingers: 12",
          "submissionValue": "ADCOFO12",
          "synonyms": [
            "Naming Objects and Fingers: 12"
          ]
        },
        {
          "conceptId": "C100204",
          "definition": "Alzheimer's Disease Assessment Scale-Cognitive CDISC Version - Naming task for fingers of the dominant hand, thumb.",
          "preferredTerm": "CDISC ADAS-Cog - Naming Objects and Fingers: Thumb",
          "submissionValue": "ADCOFF01",
          "synonyms": [
            "Naming Objects and Fingers: Thumb"
          ]
        },
        {
          "conceptId": "C100205",
          "definition": "Alzheimer's Disease Assessment Scale-Cognitive CDISC Version - Naming task for fingers of the dominant hand, index, or pointer finger.",
          "preferredTerm": "CDISC ADAS-Cog - Naming Objects and Fingers: Pointer",
          "submissionValue": "ADCOFF02",
          "synonyms": [
            "Naming Objects and Fingers: Pointer"
          ]
        },
        {
          "conceptId": "C100206",
          "definition": "Alzheimer's Disease Assessment Scale-Cognitive CDISC Version - Naming task for fingers of the dominant hand, middle finger.",
          "preferredTerm": "CDISC ADAS-Cog - Naming Objects and Fingers: Middle",
          "submissionValue": "ADCOFF03",
          "synonyms": [
            "Naming Objects and Fingers: Middle"
          ]
        },
        {
          "conceptId": "C100207",
          "definition": "Alzheimer's Disease Assessment Scale-Cognitive CDISC Version - Naming task for fingers of the dominant hand, ring finger.",
          "preferredTerm": "CDISC ADAS-Cog - Naming Objects and Fingers: Ring",
          "submissionValue": "ADCOFF04",
          "synonyms": [
            "Naming Objects and Fingers: Ring"
          ]
        },
        {
          "conceptId": "C100208",
          "definition": "Alzheimer's Disease Assessment Scale-Cognitive CDISC Version - Naming task for fingers of the dominant hand, little finger or pinky.",
          "preferredTerm": "CDISC ADAS-Cog - Naming Objects and Fingers: Pinky",
          "submissionValue": "ADCOFF05",
          "synonyms": [
            "Naming Objects and Fingers: Pinky"
          ]
        },
        {
          "conceptId": "C100209",
          "definition": "Alzheimer's Disease Assessment Scale-Cognitive CDISC Version - Summary score for commands.",
          "preferredTerm": "CDISC ADAS-Cog - Commands Summary Score",
          "submissionValue": "ADCCMD",
          "synonyms": [
            "Commands"
          ]
        },
        {
          "conceptId": "C100210",
          "definition": "Alzheimer's Disease Assessment Scale-Cognitive CDISC Version - Commands task for making a fist.",
          "preferredTerm": "CDISC ADAS-Cog - Commands: Fist",
          "submissionValue": "ADCCMD01",
          "synonyms": [
            "Commands: Fist"
          ]
        },
        {
          "conceptId": "C100211",
          "definition": "Alzheimer's Disease Assessment Scale-Cognitive CDISC Version - Commands task for pointing to the ceiling then to the floor.",
          "preferredTerm": "CDISC ADAS-Cog - Commands: Ceiling",
          "submissionValue": "ADCCMD02",
          "synonyms": [
            "Commands: Ceiling"
          ]
        },
        {
          "conceptId": "C100212",
          "definition": "Alzheimer's Disease Assessment Scale-Cognitive CDISC Version - Commands task for put the pencil on top of the card and then put it back.",
          "preferredTerm": "CDISC ADAS-Cog - Commands: Pencil",
          "submissionValue": "ADCCMD03",
          "synonyms": [
            "Commands: Pencil"
          ]
        },
        {
          "conceptId": "C100213",
          "definition": "Alzheimer's Disease Assessment Scale-Cognitive CDISC Version - Commands task for put the watch on the other side of the pencil and then turn over the card.",
          "preferredTerm": "CDISC ADAS-Cog - Commands: Watch",
          "submissionValue": "ADCCMD04",
          "synonyms": [
            "Commands: Watch"
          ]
        },
        {
          "conceptId": "C100214",
          "definition": "Alzheimer's Disease Assessment Scale-Cognitive CDISC Version - Commands task for tap each shoulder twice with two fingers keeping your eyes shut.",
          "preferredTerm": "CDISC ADAS-Cog - Commands: Shoulder",
          "submissionValue": "ADCCMD05",
          "synonyms": [
            "Commands: Shoulder"
          ]
        },
        {
          "conceptId": "C100215",
          "definition": "Alzheimer's Disease Assessment Scale-Cognitive CDISC Version - Summary score for delayed word recall.",
          "preferredTerm": "CDISC ADAS-Cog - Delayed Word Recall Summary Score",
          "submissionValue": "ADCDRL",
          "synonyms": [
            "Delayed Word Recall"
          ]
        },
        {
          "conceptId": "C100216",
          "definition": "Alzheimer's Disease Assessment Scale-Cognitive CDISC Version - Delayed word recall task for word 1.",
          "preferredTerm": "CDISC ADAS-Cog - Delayed Word Recall: Word 1",
          "submissionValue": "ADCDRL01",
          "synonyms": [
            "Delayed Word Recall: Word [1]"
          ]
        },
        {
          "conceptId": "C100217",
          "definition": "Alzheimer's Disease Assessment Scale-Cognitive CDISC Version - Delayed word recall task for word 2.",
          "preferredTerm": "CDISC ADAS-Cog - Delayed Word Recall: Word 2",
          "submissionValue": "ADCDRL02",
          "synonyms": [
            "Delayed Word Recall: Word [2]"
          ]
        },
        {
          "conceptId": "C100218",
          "definition": "Alzheimer's Disease Assessment Scale-Cognitive CDISC Version - Delayed word recall task for word 3.",
          "preferredTerm": "CDISC ADAS-Cog - Delayed Word Recall: Word 3",
          "submissionValue": "ADCDRL03",
          "synonyms": [
            "Delayed Word Recall: Word [3]"
          ]
        },
        {
          "conceptId": "C100219",
          "definition": "Alzheimer's Disease Assessment Scale-Cognitive CDISC Version - Delayed word recall task for word 4.",
          "preferredTerm": "CDISC ADAS-Cog - Delayed Word Recall: Word 4",
          "submissionValue": "ADCDRL04",
          "synonyms": [
            "Delayed Word Recall: Word [4]"
          ]
        },
        {
          "conceptId": "C100220",
          "definition": "Alzheimer's Disease Assessment Scale-Cognitive CDISC Version - Delayed word recall task for word 5.",
          "preferredTerm": "CDISC ADAS-Cog - Delayed Word Recall: Word 5",
          "submissionValue": "ADCDRL05",
          "synonyms": [
            "Delayed Word Recall: Word [5]"
          ]
        },
        {
          "conceptId": "C100221",
          "definition": "Alzheimer's Disease Assessment Scale-Cognitive CDISC Version - Delayed word recall task for word 6.",
          "preferredTerm": "CDISC ADAS-Cog - Delayed Word Recall: Word 6",
          "submissionValue": "ADCDRL06",
          "synonyms": [
            "Delayed Word Recall: Word [6]"
          ]
        },
        {
          "conceptId": "C100222",
          "definition": "Alzheimer's Disease Assessment Scale-Cognitive CDISC Version - Delayed word recall task for word 7.",
          "preferredTerm": "CDISC ADAS-Cog - Delayed Word Recall: Word 7",
          "submissionValue": "ADCDRL07",
          "synonyms": [
            "Delayed Word Recall: Word [7]"
          ]
        },
        {
          "conceptId": "C100223",
          "definition": "Alzheimer's Disease Assessment Scale-Cognitive CDISC Version - Delayed word recall task for word 8.",
          "preferredTerm": "CDISC ADAS-Cog - Delayed Word Recall: Word 8",
          "submissionValue": "ADCDRL08",
          "synonyms": [
            "Delayed Word Recall: Word [8]"
          ]
        },
        {
          "conceptId": "C100224",
          "definition": "Alzheimer's Disease Assessment Scale-Cognitive CDISC Version - Delayed word recall task for word 9.",
          "preferredTerm": "CDISC ADAS-Cog - Delayed Word Recall: Word 9",
          "submissionValue": "ADCDRL09",
          "synonyms": [
            "Delayed Word Recall: Word [9]"
          ]
        },
        {
          "conceptId": "C100225",
          "definition": "Alzheimer's Disease Assessment Scale-Cognitive CDISC Version - Delayed word recall task for word 10.",
          "preferredTerm": "CDISC ADAS-Cog - Delayed Word Recall: Word 10",
          "submissionValue": "ADCDRL10",
          "synonyms": [
            "Delayed Word Recall: Word [10]"
          ]
        },
        {
          "conceptId": "C100226",
          "definition": "Alzheimer's Disease Assessment Scale-Cognitive CDISC Version - Summary score for constructional praxis.",
          "preferredTerm": "CDISC ADAS-Cog - Constructional Praxis Summary Score",
          "submissionValue": "ADCCP",
          "synonyms": [
            "Constructional Praxis"
          ]
        },
        {
          "conceptId": "C100227",
          "definition": "Alzheimer's Disease Assessment Scale-Cognitive CDISC Version - Constructional praxis task for copying a circle.",
          "preferredTerm": "CDISC ADAS-Cog - Constructional Praxis: Circle",
          "submissionValue": "ADCCP01",
          "synonyms": [
            "Constructional Praxis: Circle"
          ]
        },
        {
          "conceptId": "C100228",
          "definition": "Alzheimer's Disease Assessment Scale-Cognitive CDISC Version - Constructional praxis task for copying two overlapping rectangles.",
          "preferredTerm": "CDISC ADAS-Cog - Constructional Praxis: 2 Rectangles",
          "submissionValue": "ADCCP02",
          "synonyms": [
            "Constructional Praxis: 2 Rectangles"
          ]
        },
        {
          "conceptId": "C100229",
          "definition": "Alzheimer's Disease Assessment Scale-Cognitive CDISC Version - Constructional praxis task for copying a diamond.",
          "preferredTerm": "CDISC ADAS-Cog - Constructional Praxis: Diamond",
          "submissionValue": "ADCCP03",
          "synonyms": [
            "Constructional Praxis: Diamond"
          ]
        },
        {
          "conceptId": "C100230",
          "definition": "Alzheimer's Disease Assessment Scale-Cognitive CDISC Version - Constructional praxis task for copying a cube.",
          "preferredTerm": "CDISC ADAS-Cog - Constructional Praxis: Cube",
          "submissionValue": "ADCCP04",
          "synonyms": [
            "Constructional Praxis: Cube"
          ]
        },
        {
          "conceptId": "C100231",
          "definition": "Alzheimer's Disease Assessment Scale-Cognitive CDISC Version - Constructional praxis attempted to draw, but drew no forms correctly.",
          "preferredTerm": "CDISC ADAS-Cog - Attempt to Draw",
          "submissionValue": "ADCCPS",
          "synonyms": [
            "Attempt to Draw"
          ]
        },
        {
          "conceptId": "C100232",
          "definition": "Alzheimer's Disease Assessment Scale-Cognitive CDISC Version - Summary score for ideational praxis.",
          "preferredTerm": "CDISC ADAS-Cog - Ideational Praxis Summary Score",
          "submissionValue": "ADCIP",
          "synonyms": [
            "Ideational Praxis"
          ]
        },
        {
          "conceptId": "C100233",
          "definition": "Alzheimer's Disease Assessment Scale-Cognitive CDISC Version - Ideational praxis task for folding the paper.",
          "preferredTerm": "CDISC ADAS-Cog - Ideational Praxis: Fold",
          "submissionValue": "ADCIP01",
          "synonyms": [
            "Ideational Praxis: Fold"
          ]
        },
        {
          "conceptId": "C100234",
          "definition": "Alzheimer's Disease Assessment Scale-Cognitive CDISC Version - Ideational praxis task for put the paper in the envelop.",
          "preferredTerm": "CDISC ADAS-Cog - Ideational Praxis: Insert",
          "submissionValue": "ADCIP02",
          "synonyms": [
            "Ideational Praxis: Insert"
          ]
        },
        {
          "conceptId": "C100235",
          "definition": "Alzheimer's Disease Assessment Scale-Cognitive CDISC Version - Ideational praxis task for seal the envelop.",
          "preferredTerm": "CDISC ADAS-Cog - Ideational Praxis: Seal",
          "submissionValue": "ADCIP03",
          "synonyms": [
            "Ideational Praxis: Seal"
          ]
        },
        {
          "conceptId": "C100236",
          "definition": "Alzheimer's Disease Assessment Scale-Cognitive CDISC Version - Ideational praxis task for address the envelop to yourself.",
          "preferredTerm": "CDISC ADAS-Cog - Ideational Praxis: Address",
          "submissionValue": "ADCIP04",
          "synonyms": [
            "Ideational Praxis: Address"
          ]
        },
        {
          "conceptId": "C100237",
          "definition": "Alzheimer's Disease Assessment Scale-Cognitive CDISC Version - Ideational praxis task for showing where the stamp goes.",
          "preferredTerm": "CDISC ADAS-Cog - Ideational Praxis: Stamp",
          "submissionValue": "ADCIP05",
          "synonyms": [
            "Ideational Praxis: Stamp"
          ]
        },
        {
          "conceptId": "C100238",
          "definition": "Alzheimer's Disease Assessment Scale-Cognitive CDISC Version - Summary score for orientation.",
          "preferredTerm": "CDISC ADAS-Cog - Orientation Summary Score",
          "submissionValue": "ADCOR",
          "synonyms": [
            "Orientation"
          ]
        },
        {
          "conceptId": "C100239",
          "definition": "Alzheimer's Disease Assessment Scale-Cognitive CDISC Version - Orientation task for knowing one's own full name.",
          "preferredTerm": "CDISC ADAS-Cog - Orientation: Full Name",
          "submissionValue": "ADCOR01",
          "synonyms": [
            "Orientation: Full Name"
          ]
        },
        {
          "conceptId": "C100240",
          "definition": "Alzheimer's Disease Assessment Scale-Cognitive CDISC Version - Orientation task for knowing the current month.",
          "preferredTerm": "CDISC ADAS-Cog - Orientation: Month",
          "submissionValue": "ADCOR02",
          "synonyms": [
            "Orientation: Month"
          ]
        },
        {
          "conceptId": "C100241",
          "definition": "Alzheimer's Disease Assessment Scale-Cognitive CDISC Version - Orientation task for knowing the current day.",
          "preferredTerm": "CDISC ADAS-Cog - Orientation: Date",
          "submissionValue": "ADCOR03",
          "synonyms": [
            "Orientation: Date"
          ]
        },
        {
          "conceptId": "C100242",
          "definition": "Alzheimer's Disease Assessment Scale-Cognitive CDISC Version - Orientation task for knowing the current year.",
          "preferredTerm": "CDISC ADAS-Cog - Orientation: Year",
          "submissionValue": "ADCOR04",
          "synonyms": [
            "Orientation: Year"
          ]
        },
        {
          "conceptId": "C100243",
          "definition": "Alzheimer's Disease Assessment Scale-Cognitive CDISC Version - Orientation task for knowing the current day of the week.",
          "preferredTerm": "CDISC ADAS-Cog - Orientation: Day of Week",
          "submissionValue": "ADCOR05",
          "synonyms": [
            "Orientation: Day of Week"
          ]
        },
        {
          "conceptId": "C100244",
          "definition": "Alzheimer's Disease Assessment Scale-Cognitive CDISC Version - Orientation task for knowing the current season.",
          "preferredTerm": "CDISC ADAS-Cog - Orientation: Season",
          "submissionValue": "ADCOR06",
          "synonyms": [
            "Orientation: Season"
          ]
        },
        {
          "conceptId": "C100245",
          "definition": "Alzheimer's Disease Assessment Scale-Cognitive CDISC Version - Orientation task for knowing the current place.",
          "preferredTerm": "CDISC ADAS-Cog - Orientation: Place",
          "submissionValue": "ADCOR07",
          "synonyms": [
            "Orientation: Place"
          ]
        },
        {
          "conceptId": "C100246",
          "definition": "Alzheimer's Disease Assessment Scale-Cognitive CDISC Version - Orientation task for knowing the approximate current clock time.",
          "preferredTerm": "CDISC ADAS-Cog - Orientation: Time",
          "submissionValue": "ADCOR08",
          "synonyms": [
            "Orientation: Time"
          ]
        },
        {
          "conceptId": "C100247",
          "definition": "Alzheimer's Disease Assessment Scale-Cognitive CDISC Version - Summary score for word recognition across trials 1-3.",
          "preferredTerm": "CDISC ADAS-Cog - Word Recognition Summary Score",
          "submissionValue": "ADCRG",
          "synonyms": [
            "Word Recognition"
          ]
        },
        {
          "conceptId": "C100248",
          "definition": "Alzheimer's Disease Assessment Scale-Cognitive CDISC Version - Sub-score for word recognition trial 1.",
          "preferredTerm": "CDISC ADAS-Cog - Word Recognition Trial 1 Summary Score",
          "submissionValue": "ADCRGT01",
          "synonyms": [
            "Word Recognition Trial 1"
          ]
        },
        {
          "conceptId": "C100249",
          "definition": "Alzheimer's Disease Assessment Scale-Cognitive CDISC Version - Sub-score for word recognition trial 2.",
          "preferredTerm": "CDISC ADAS-Cog - Word Recognition Trial 2 Summary Score",
          "submissionValue": "ADCRGT02",
          "synonyms": [
            "Word Recognition Trial 2"
          ]
        },
        {
          "conceptId": "C100250",
          "definition": "Alzheimer's Disease Assessment Scale-Cognitive CDISC Version - Sub-score for word recognition trial 3.",
          "preferredTerm": "CDISC ADAS-Cog - Word Recognition Trial 3 Summary Score",
          "submissionValue": "ADCRGT03",
          "synonyms": [
            "Word Recognition Trial 3"
          ]
        },
        {
          "conceptId": "C100251",
          "definition": "Alzheimer's Disease Assessment Scale-Cognitive CDISC Version - Word recognition task for word 1 Trials 1, 2, 3.",
          "preferredTerm": "CDISC ADAS-Cog - Word Recognition: Word 1",
          "submissionValue": "ADCRGW01",
          "synonyms": [
            "Word Recognition: Word [1]"
          ]
        },
        {
          "conceptId": "C100252",
          "definition": "Alzheimer's Disease Assessment Scale-Cognitive CDISC Version - Word recognition task for word 2 Trials 1, 2, 3.",
          "preferredTerm": "CDISC ADAS-Cog - Word Recognition: Word 2",
          "submissionValue": "ADCRGW02",
          "synonyms": [
            "Word Recognition: Word [2]"
          ]
        },
        {
          "conceptId": "C100253",
          "definition": "Alzheimer's Disease Assessment Scale-Cognitive CDISC Version - Word recognition task for word 3 Trials 1, 2, 3.",
          "preferredTerm": "CDISC ADAS-Cog - Word Recognition: Word 3",
          "submissionValue": "ADCRGW03",
          "synonyms": [
            "Word Recognition: Word [3]"
          ]
        },
        {
          "conceptId": "C100254",
          "definition": "Alzheimer's Disease Assessment Scale-Cognitive CDISC Version - Word recognition task for word 4 Trials 1, 2, 3.",
          "preferredTerm": "CDISC ADAS-Cog - Word Recognition: Word 4",
          "submissionValue": "ADCRGW04",
          "synonyms": [
            "Word Recognition: Word [4]"
          ]
        },
        {
          "conceptId": "C100255",
          "definition": "Alzheimer's Disease Assessment Scale-Cognitive CDISC Version - Word recognition task for word 5 Trials 1, 2, 3.",
          "preferredTerm": "CDISC ADAS-Cog - Word Recognition: Word 5",
          "submissionValue": "ADCRGW05",
          "synonyms": [
            "Word Recognition: Word [5]"
          ]
        },
        {
          "conceptId": "C100256",
          "definition": "Alzheimer's Disease Assessment Scale-Cognitive CDISC Version - Word recognition task for word 6 Trials 1, 2, 3.",
          "preferredTerm": "CDISC ADAS-Cog - Word Recognition: Word 6",
          "submissionValue": "ADCRGW06",
          "synonyms": [
            "Word Recognition: Word [6]"
          ]
        },
        {
          "conceptId": "C100257",
          "definition": "Alzheimer's Disease Assessment Scale-Cognitive CDISC Version - Word recognition task for word 7 Trials 1, 2, 3.",
          "preferredTerm": "CDISC ADAS-Cog - Word Recognition: Word 7",
          "submissionValue": "ADCRGW07",
          "synonyms": [
            "Word Recognition: Word [7]"
          ]
        },
        {
          "conceptId": "C100258",
          "definition": "Alzheimer's Disease Assessment Scale-Cognitive CDISC Version - Word recognition task for word 8 Trials 1, 2, 3.",
          "preferredTerm": "CDISC ADAS-Cog - Word Recognition: Word 8",
          "submissionValue": "ADCRGW08",
          "synonyms": [
            "Word Recognition: Word [8]"
          ]
        },
        {
          "conceptId": "C100259",
          "definition": "Alzheimer's Disease Assessment Scale-Cognitive CDISC Version - Word recognition task for word 9 Trials 1, 2, 3.",
          "preferredTerm": "CDISC ADAS-Cog - Word Recognition: Word 9",
          "submissionValue": "ADCRGW09",
          "synonyms": [
            "Word Recognition: Word [9]"
          ]
        },
        {
          "conceptId": "C100260",
          "definition": "Alzheimer's Disease Assessment Scale-Cognitive CDISC Version - Word recognition task for word 10 Trials 1, 2, 3.",
          "preferredTerm": "CDISC ADAS-Cog - Word Recognition: Word 10",
          "submissionValue": "ADCRGW10",
          "synonyms": [
            "Word Recognition: Word [10]"
          ]
        },
        {
          "conceptId": "C100261",
          "definition": "Alzheimer's Disease Assessment Scale-Cognitive CDISC Version - Word recognition task for word 11 Trials 1, 2, 3.",
          "preferredTerm": "CDISC ADAS-Cog - Word Recognition: Word 11",
          "submissionValue": "ADCRGW11",
          "synonyms": [
            "Word Recognition: Word [11]"
          ]
        },
        {
          "conceptId": "C100262",
          "definition": "Alzheimer's Disease Assessment Scale-Cognitive CDISC Version - Word recognition task for word 12 Trials 1, 2, 3.",
          "preferredTerm": "CDISC ADAS-Cog - Word Recognition: Word 12",
          "submissionValue": "ADCRGW12",
          "synonyms": [
            "Word Recognition: Word [12]"
          ]
        },
        {
          "conceptId": "C100263",
          "definition": "Alzheimer's Disease Assessment Scale-Cognitive CDISC Version - Word recognition task for word 13 Trials 1, 2, 3.",
          "preferredTerm": "CDISC ADAS-Cog - CDISC ADAS-Cog - Word Recognition: Word 13",
          "submissionValue": "ADCRGW13",
          "synonyms": [
            "Word Recognition: Word [13]"
          ]
        },
        {
          "conceptId": "C100264",
          "definition": "Alzheimer's Disease Assessment Scale-Cognitive CDISC Version - Word recognition task for word 14 Trials 1, 2, 3.",
          "preferredTerm": "CDISC ADAS-Cog - Word Recognition: Word 14",
          "submissionValue": "ADCRGW14",
          "synonyms": [
            "Word Recognition: Word [14]"
          ]
        },
        {
          "conceptId": "C100265",
          "definition": "Alzheimer's Disease Assessment Scale-Cognitive CDISC Version - Word recognition task for word 15 Trials 1, 2, 3.",
          "preferredTerm": "CDISC ADAS-Cog - Word Recognition: Word 15",
          "submissionValue": "ADCRGW15",
          "synonyms": [
            "Word Recognition: Word [15]"
          ]
        },
        {
          "conceptId": "C100266",
          "definition": "Alzheimer's Disease Assessment Scale-Cognitive CDISC Version - Word recognition task for word 16 Trials 1, 2, 3.",
          "preferredTerm": "CDISC ADAS-Cog - Word Recognition: Word 16",
          "submissionValue": "ADCRGW16",
          "synonyms": [
            "Word Recognition: Word [16]"
          ]
        },
        {
          "conceptId": "C100267",
          "definition": "Alzheimer's Disease Assessment Scale-Cognitive CDISC Version - Word recognition task for word 17 Trials 1, 2, 3.",
          "preferredTerm": "CDISC ADAS-Cog - Word Recognition: Word 17",
          "submissionValue": "ADCRGW17",
          "synonyms": [
            "Word Recognition: Word [17]"
          ]
        },
        {
          "conceptId": "C100268",
          "definition": "Alzheimer's Disease Assessment Scale-Cognitive CDISC Version - Word recognition task for word 18 Trials 1, 2, 3.",
          "preferredTerm": "CDISC ADAS-Cog - Word Recognition: Word 18",
          "submissionValue": "ADCRGW18",
          "synonyms": [
            "Word Recognition: Word [18]"
          ]
        },
        {
          "conceptId": "C100269",
          "definition": "Alzheimer's Disease Assessment Scale-Cognitive CDISC Version - Word recognition task for word 19 Trials 1, 2, 3.",
          "preferredTerm": "CDISC ADAS-Cog - Word Recognition: Word 19",
          "submissionValue": "ADCRGW19",
          "synonyms": [
            "Word Recognition: Word [19]"
          ]
        },
        {
          "conceptId": "C100270",
          "definition": "Alzheimer's Disease Assessment Scale-Cognitive CDISC Version - Word recognition task for word 20 Trials 1, 2, 3.",
          "preferredTerm": "CDISC ADAS-Cog - Word Recognition: Word 20",
          "submissionValue": "ADCRGW20",
          "synonyms": [
            "Word Recognition: Word [20]"
          ]
        },
        {
          "conceptId": "C100271",
          "definition": "Alzheimer's Disease Assessment Scale-Cognitive CDISC Version - Word recognition task for word 21 Trials 1, 2, 3.",
          "preferredTerm": "CDISC ADAS-Cog - Word Recognition: Word 21",
          "submissionValue": "ADCRGW21",
          "synonyms": [
            "Word Recognition: Word [21]"
          ]
        },
        {
          "conceptId": "C100272",
          "definition": "Alzheimer's Disease Assessment Scale-Cognitive CDISC Version - Word recognition task for word 22 Trials 1, 2, 3.",
          "preferredTerm": "CDISC ADAS-Cog - Word Recognition: Word 22",
          "submissionValue": "ADCRGW22",
          "synonyms": [
            "Word Recognition: Word [22]"
          ]
        },
        {
          "conceptId": "C100273",
          "definition": "Alzheimer's Disease Assessment Scale-Cognitive CDISC Version - Word recognition task for word 23 Trials 1, 2, 3.",
          "preferredTerm": "CDISC ADAS-Cog - Word Recognition: Word 23",
          "submissionValue": "ADCRGW23",
          "synonyms": [
            "Word Recognition: Word [23]"
          ]
        },
        {
          "conceptId": "C100274",
          "definition": "Alzheimer's Disease Assessment Scale-Cognitive CDISC Version - Word recognition task for word 24 Trials 1, 2, 3.",
          "preferredTerm": "CDISC ADAS-Cog - Word Recognition: Word 24",
          "submissionValue": "ADCRGW24",
          "synonyms": [
            "Word Recognition: Word [24]"
          ]
        },
        {
          "conceptId": "C100275",
          "definition": "Alzheimer's Disease Assessment Scale-Cognitive CDISC Version - Remembering test instructions.",
          "preferredTerm": "CDISC ADAS-Cog - Remembering Test Instructions",
          "submissionValue": "ADCRI",
          "synonyms": [
            "Remembering Test Instructions"
          ]
        },
        {
          "conceptId": "C100276",
          "definition": "Alzheimer's Disease Assessment Scale-Cognitive CDISC Version - Global rating of the quality of speech, or difficulty in making oneself understood.",
          "preferredTerm": "CDISC ADAS-Cog - Spoken Language Ability",
          "submissionValue": "ADCSL",
          "synonyms": [
            "Spoken Language Ability"
          ]
        },
        {
          "conceptId": "C100277",
          "definition": "Alzheimer's Disease Assessment Scale-Cognitive CDISC Version - Difficulty finding the desired word in spontaneous speech.",
          "preferredTerm": "CDISC ADAS-Cog - Word Difficulty in Spontaneous Speech",
          "submissionValue": "ADCDIF",
          "synonyms": [
            "Word Finding Difficulty in Spont Speech"
          ]
        },
        {
          "conceptId": "C100278",
          "definition": "Alzheimer's Disease Assessment Scale-Cognitive CDISC Version - Ability to comprehend speech.",
          "preferredTerm": "CDISC ADAS-Cog - Comprehension",
          "submissionValue": "ADCCMP",
          "synonyms": [
            "Comprehension"
          ]
        },
        {
          "conceptId": "C100279",
          "definition": "Alzheimer's Disease Assessment Scale-Cognitive CDISC Version - Ability to concentrate or easily be distracted.",
          "preferredTerm": "CDISC ADAS-Cog - Concentration/Distractibility",
          "submissionValue": "ADCCON",
          "synonyms": [
            "Concentration/Distractibility"
          ]
        },
        {
          "conceptId": "C100280",
          "definition": "Alzheimer's Disease Assessment Scale-Cognitive CDISC Version - Summary score for the number cancellation tasks.",
          "preferredTerm": "CDISC ADAS-Cog - Number Cancellation Summary Score",
          "submissionValue": "ADCNC",
          "synonyms": [
            "Number Cancellation"
          ]
        },
        {
          "conceptId": "C100281",
          "definition": "Alzheimer's Disease Assessment Scale-Cognitive CDISC Version - Number of targets hit during the number cancellation task.",
          "preferredTerm": "CDISC ADAS-Cog - Number Cancellation: Correct",
          "submissionValue": "ADCNC01",
          "synonyms": [
            "Number Cancellation: Correct"
          ]
        },
        {
          "conceptId": "C100282",
          "definition": "Alzheimer's Disease Assessment Scale-Cognitive CDISC Version - Number of errors during the number cancellation task.",
          "preferredTerm": "CDISC ADAS-Cog - Number Cancellation: Errors",
          "submissionValue": "ADCNC02",
          "synonyms": [
            "Number Cancellation: Errors"
          ]
        },
        {
          "conceptId": "C100283",
          "definition": "Alzheimer's Disease Assessment Scale-Cognitive CDISC Version - Number of times reminded for the number cancellation task.",
          "preferredTerm": "CDISC ADAS-Cog - Number Cancellation: Remind",
          "submissionValue": "ADCNC03",
          "synonyms": [
            "Number Cancellation: Remind"
          ]
        },
        {
          "conceptId": "C100284",
          "definition": "Alzheimer's Disease Assessment Scale-Cognitive CDISC Version - Summary score for the executive function maze tasks.",
          "preferredTerm": "CDISC ADAS-Cog - Executive Function Maze Summary Score",
          "submissionValue": "ADCMZ",
          "synonyms": [
            "Executive Function Maze"
          ]
        },
        {
          "conceptId": "C100285",
          "definition": "Alzheimer's Disease Assessment Scale-Cognitive CDISC Version - Number of errors during the executive function maze task.",
          "preferredTerm": "CDISC ADAS-Cog - Executive Function Maze: Errors",
          "submissionValue": "ADCMZ01",
          "synonyms": [
            "Executive Function Maze: Errors"
          ]
        },
        {
          "conceptId": "C100286",
          "definition": "Alzheimer's Disease Assessment Scale-Cognitive CDISC Version - The time in seconds stored in ISO 8601 time for the executive function maze task.",
          "preferredTerm": "CDISC ADAS-Cog - Executive Function Maze: Time",
          "submissionValue": "ADCMZ02",
          "synonyms": [
            "Executive Function Maze: Time"
          ]
        }
      ]
    },
    {
      "conceptId": "C100131",
      "definition": "ADAS-Cog CDISC Version test name.",
      "extensible": "No",
      "name": "Alzheimer's Disease Assessment Scale - Cognitive CDISC Version Test Name",
      "preferredTerm": "CDISC Questionnaire ADAS-Cog CDISC Version Test Name Terminology",
      "submissionValue": "ADAS-Cog CDISC Version TEST",
      "synonyms": [
        "Alzheimer's Disease Assessment Scale - Cognitive CDISC Version Test Name"
      ],
      "terms": [
        {
          "conceptId": "C100177",
          "definition": "Alzheimer's Disease Assessment Scale-Cognitive CDISC Version - Word recall task word average score of trials 1, 2, 3.",
          "preferredTerm": "CDISC ADAS-Cog - Word Recall Average Score",
          "submissionValue": "Word Recall",
          "synonyms": [
            "Word Recall"
          ]
        },
        {
          "conceptId": "C100178",
          "definition": "Alzheimer's Disease Assessment Scale-Cognitive CDISC Version - Sub-score for word recall task trial 1.",
          "preferredTerm": "CDISC ADAS-Cog - Word Recall Trial 1 Subscore",
          "submissionValue": "Word Recall Trial 1",
          "synonyms": [
            "Word Recall Trial 1"
          ]
        },
        {
          "conceptId": "C100179",
          "definition": "Alzheimer's Disease Assessment Scale-Cognitive CDISC Version - Sub-score for word recall task trial 2.",
          "preferredTerm": "CDISC ADAS-Cog - Word Recall Trial 2 Subscore",
          "submissionValue": "Word Recall Trial 2",
          "synonyms": [
            "Word Recall Trial 2"
          ]
        },
        {
          "conceptId": "C100180",
          "definition": "Alzheimer's Disease Assessment Scale-Cognitive CDISC Version - Sub-score for word recall task trial 3.",
          "preferredTerm": "CDISC ADAS-Cog - Word Recall Trial 3 Subscore",
          "submissionValue": "Word Recall Trial 3",
          "synonyms": [
            "Word Recall Trial 3"
          ]
        },
        {
          "conceptId": "C100181",
          "definition": "Alzheimer's Disease Assessment Scale-Cognitive CDISC Version - Word recall task word 1 for trial 1, 2, 3.",
          "preferredTerm": "CDISC ADAS-Cog - Word Recall: Word 1",
          "submissionValue": "Word Recall: Word [1]",
          "synonyms": [
            "Word Recall: Word [1]"
          ]
        },
        {
          "conceptId": "C100182",
          "definition": "Alzheimer's Disease Assessment Scale-Cognitive CDISC Version - Word recall task word 2 for trial 1, 2, 3.",
          "preferredTerm": "CDISC ADAS-Cog - Word Recall: Word 2",
          "submissionValue": "Word Recall: Word [2]",
          "synonyms": [
            "Word Recall: Word [2]"
          ]
        },
        {
          "conceptId": "C100183",
          "definition": "Alzheimer's Disease Assessment Scale-Cognitive CDISC Version - Word recall task word 3 for trial 1, 2, 3.",
          "preferredTerm": "CDISC ADAS-Cog - Word Recall: Word 3",
          "submissionValue": "Word Recall: Word [3]",
          "synonyms": [
            "Word Recall: Word [3]"
          ]
        },
        {
          "conceptId": "C100184",
          "definition": "Alzheimer's Disease Assessment Scale-Cognitive CDISC Version - Word recall task word 4 for trial 1, 2, 3.",
          "preferredTerm": "CDISC ADAS-Cog - Word Recall: Word 4",
          "submissionValue": "Word Recall: Word [4]",
          "synonyms": [
            "Word Recall: Word [4]"
          ]
        },
        {
          "conceptId": "C100185",
          "definition": "Alzheimer's Disease Assessment Scale-Cognitive CDISC Version - Word recall task word 5 for trial 1, 2, 3.",
          "preferredTerm": "CDISC ADAS-Cog - Word Recall: Word 5",
          "submissionValue": "Word Recall: Word [5]",
          "synonyms": [
            "Word Recall: Word [5]"
          ]
        },
        {
          "conceptId": "C100186",
          "definition": "Alzheimer's Disease Assessment Scale-Cognitive CDISC Version - Word recall task word 6 for trial 1, 2, 3.",
          "preferredTerm": "CDISC ADAS-Cog - Word Recall: Word 6",
          "submissionValue": "Word Recall: Word [6]",
          "synonyms": [
            "Word Recall: Word [6]"
          ]
        },
        {
          "conceptId": "C100187",
          "definition": "Alzheimer's Disease Assessment Scale-Cognitive CDISC Version - Word recall task word 7 for trial 1, 2, 3.",
          "preferredTerm": "CDISC ADAS-Cog - Word Recall: Word 7",
          "submissionValue": "Word Recall: Word [7]",
          "synonyms": [
            "Word Recall: Word [7]"
          ]
        },
        {
          "conceptId": "C100188",
          "definition": "Alzheimer's Disease Assessment Scale-Cognitive CDISC Version - Word recall task word 8 for trial 1, 2, 3.",
          "preferredTerm": "CDISC ADAS-Cog - Word Recall: Word 8",
          "submissionValue": "Word Recall: Word [8]",
          "synonyms": [
            "Word Recall: Word [8]"
          ]
        },
        {
          "conceptId": "C100189",
          "definition": "Alzheimer's Disease Assessment Scale-Cognitive CDISC Version - Word recall task word 9 for trial 1, 2, 3.",
          "preferredTerm": "CDISC ADAS-Cog - Word Recall: Word 9",
          "submissionValue": "Word Recall: Word [9]",
          "synonyms": [
            "Word Recall: Word [9]"
          ]
        },
        {
          "conceptId": "C100190",
          "definition": "Alzheimer's Disease Assessment Scale-Cognitive CDISC Version - Word recall task word 10 for trial 1, 2, 3.",
          "preferredTerm": "CDISC ADAS-Cog - Word Recall: Word 10",
          "submissionValue": "Word Recall: Word [10]",
          "synonyms": [
            "Word Recall: Word [10]"
          ]
        },
        {
          "conceptId": "C100191",
          "definition": "Alzheimer's Disease Assessment Scale-Cognitive CDISC Version - Naming task summary score for object and fingers.",
          "preferredTerm": "CDISC ADAS-Cog - Naming Objects and Fingers Summary Score",
          "submissionValue": "Naming Objects and Fingers",
          "synonyms": [
            "Naming Objects and Fingers"
          ]
        },
        {
          "conceptId": "C100192",
          "definition": "Alzheimer's Disease Assessment Scale-Cognitive CDISC Version - Naming task for object 1.",
          "preferredTerm": "CDISC ADAS-Cog - Naming Objects and Fingers: 1",
          "submissionValue": "Naming Objects and Fingers: 1",
          "synonyms": [
            "Naming Objects and Fingers: 1"
          ]
        },
        {
          "conceptId": "C100193",
          "definition": "Alzheimer's Disease Assessment Scale-Cognitive CDISC Version - Naming task for object 2.",
          "preferredTerm": "CDISC ADAS-Cog - Naming Objects and Fingers: 2",
          "submissionValue": "Naming Objects and Fingers: 2",
          "synonyms": [
            "Naming Objects and Fingers: 2"
          ]
        },
        {
          "conceptId": "C100194",
          "definition": "Alzheimer's Disease Assessment Scale-Cognitive CDISC Version - Naming task for object 3.",
          "preferredTerm": "CDISC ADAS-Cog - Naming Objects and Fingers: 3",
          "submissionValue": "Naming Objects and Fingers: 3",
          "synonyms": [
            "Naming Objects and Fingers: 3"
          ]
        },
        {
          "conceptId": "C100195",
          "definition": "Alzheimer's Disease Assessment Scale-Cognitive CDISC Version - Naming task for object 4.",
          "preferredTerm": "CDISC ADAS-Cog - Naming Objects and Fingers: 4",
          "submissionValue": "Naming Objects and Fingers: 4",
          "synonyms": [
            "Naming Objects and Fingers: 4"
          ]
        },
        {
          "conceptId": "C100196",
          "definition": "Alzheimer's Disease Assessment Scale-Cognitive CDISC Version - Naming task for object 5.",
          "preferredTerm": "CDISC ADAS-Cog - Naming Objects and Fingers: 5",
          "submissionValue": "Naming Objects and Fingers: 5",
          "synonyms": [
            "Naming Objects and Fingers: 5"
          ]
        },
        {
          "conceptId": "C100197",
          "definition": "Alzheimer's Disease Assessment Scale-Cognitive CDISC Version - Naming task for object 6.",
          "preferredTerm": "CDISC ADAS-Cog - Naming Objects and Fingers: 6",
          "submissionValue": "Naming Objects and Fingers: 6",
          "synonyms": [
            "Naming Objects and Fingers: 6"
          ]
        },
        {
          "conceptId": "C100198",
          "definition": "Alzheimer's Disease Assessment Scale-Cognitive CDISC Version - Naming task for object 7.",
          "preferredTerm": "CDISC ADAS-Cog - Naming Objects and Fingers: 7",
          "submissionValue": "Naming Objects and Fingers: 7",
          "synonyms": [
            "Naming Objects and Fingers: 7"
          ]
        },
        {
          "conceptId": "C100199",
          "definition": "Alzheimer's Disease Assessment Scale-Cognitive CDISC Version - Naming task for object 8.",
          "preferredTerm": "CDISC ADAS-Cog - Naming Objects and Fingers: 8",
          "submissionValue": "Naming Objects and Fingers: 8",
          "synonyms": [
            "Naming Objects and Fingers: 8"
          ]
        },
        {
          "conceptId": "C100200",
          "definition": "Alzheimer's Disease Assessment Scale-Cognitive CDISC Version - Naming task for object 9.",
          "preferredTerm": "CDISC ADAS-Cog - Naming Objects and Fingers: 9",
          "submissionValue": "Naming Objects and Fingers: 9",
          "synonyms": [
            "Naming Objects and Fingers: 9"
          ]
        },
        {
          "conceptId": "C100201",
          "definition": "Alzheimer's Disease Assessment Scale-Cognitive CDISC Version - Naming task for object 10.",
          "preferredTerm": "CDISC ADAS-Cog - Naming Objects and Fingers: 10",
          "submissionValue": "Naming Objects and Fingers: 10",
          "synonyms": [
            "Naming Objects and Fingers: 10"
          ]
        },
        {
          "conceptId": "C100202",
          "definition": "Alzheimer's Disease Assessment Scale-Cognitive CDISC Version - Naming task for object 11.",
          "preferredTerm": "CDISC ADAS-Cog - Naming Objects and Fingers: 11",
          "submissionValue": "Naming Objects and Fingers: 11",
          "synonyms": [
            "Naming Objects and Fingers: 11"
          ]
        },
        {
          "conceptId": "C100203",
          "definition": "Alzheimer's Disease Assessment Scale-Cognitive CDISC Version - Naming task for object 12.",
          "preferredTerm": "CDISC ADAS-Cog - Naming Objects and Fingers: 12",
          "submissionValue": "Naming Objects and Fingers: 12",
          "synonyms": [
            "Naming Objects and Fingers: 12"
          ]
        },
        {
          "conceptId": "C100204",
          "definition": "Alzheimer's Disease Assessment Scale-Cognitive CDISC Version - Naming task for fingers of the dominant hand, thumb.",
          "preferredTerm": "CDISC ADAS-Cog - Naming Objects and Fingers: Thumb",
          "submissionValue": "Naming Objects and Fingers: Thumb",
          "synonyms": [
            "Naming Objects and Fingers: Thumb"
          ]
        },
        {
          "conceptId": "C100205",
          "definition": "Alzheimer's Disease Assessment Scale-Cognitive CDISC Version - Naming task for fingers of the dominant hand, index, or pointer finger.",
          "preferredTerm": "CDISC ADAS-Cog - Naming Objects and Fingers: Pointer",
          "submissionValue": "Naming Objects and Fingers: Pointer",
          "synonyms": [
            "Naming Objects and Fingers: Pointer"
          ]
        },
        {
          "conceptId": "C100206",
          "definition": "Alzheimer's Disease Assessment Scale-Cognitive CDISC Version - Naming task for fingers of the dominant hand, middle finger.",
          "preferredTerm": "CDISC ADAS-Cog - Naming Objects and Fingers: Middle",
          "submissionValue": "Naming Objects and Fingers: Middle",
          "synonyms": [
            "Naming Objects and Fingers: Middle"
          ]
        },
        {
          "conceptId": "C100207",
          "definition": "Alzheimer's Disease Assessment Scale-Cognitive CDISC Version - Naming task for fingers of the dominant hand, ring finger.",
          "preferredTerm": "CDISC ADAS-Cog - Naming Objects and Fingers: Ring",
          "submissionValue": "Naming Objects and Fingers: Ring",
          "synonyms": [
            "Naming Objects and Fingers: Ring"
          ]
        },
        {
          "conceptId": "C100208",
          "definition": "Alzheimer's Disease Assessment Scale-Cognitive CDISC Version - Naming task for fingers of the dominant hand, little finger or pinky.",
          "preferredTerm": "CDISC ADAS-Cog - Naming Objects and Fingers: Pinky",
          "submissionValue": "Naming Objects and Fingers: Pinky",
          "synonyms": [
            "Naming Objects and Fingers: Pinky"
          ]
        },
        {
          "conceptId": "C100209",
          "definition": "Alzheimer's Disease Assessment Scale-Cognitive CDISC Version - Summary score for commands.",
          "preferredTerm": "CDISC ADAS-Cog - Commands Summary Score",
          "submissionValue": "Commands",
          "synonyms": [
            "Commands"
          ]
        },
        {
          "conceptId": "C100210",
          "definition": "Alzheimer's Disease Assessment Scale-Cognitive CDISC Version - Commands task for making a fist.",
          "preferredTerm": "CDISC ADAS-Cog - Commands: Fist",
          "submissionValue": "Commands: Fist",
          "synonyms": [
            "Commands: Fist"
          ]
        },
        {
          "conceptId": "C100211",
          "definition": "Alzheimer's Disease Assessment Scale-Cognitive CDISC Version - Commands task for pointing to the ceiling then to the floor.",
          "preferredTerm": "CDISC ADAS-Cog - Commands: Ceiling",
          "submissionValue": "Commands: Ceiling",
          "synonyms": [
            "Commands: Ceiling"
          ]
        },
        {
          "conceptId": "C100212",
          "definition": "Alzheimer's Disease Assessment Scale-Cognitive CDISC Version - Commands task for put the pencil on top of the card and then put it back.",
          "preferredTerm": "CDISC ADAS-Cog - Commands: Pencil",
          "submissionValue": "Commands: Pencil",
          "synonyms": [
            "Commands: Pencil"
          ]
        },
        {
          "conceptId": "C100213",
          "definition": "Alzheimer's Disease Assessment Scale-Cognitive CDISC Version - Commands task for put the watch on the other side of the pencil and then turn over the card.",
          "preferredTerm": "CDISC ADAS-Cog - Commands: Watch",
          "submissionValue": "Commands: Watch",
          "synonyms": [
            "Commands: Watch"
          ]
        },
        {
          "conceptId": "C100214",
          "definition": "Alzheimer's Disease Assessment Scale-Cognitive CDISC Version - Commands task for tap each shoulder twice with two fingers keeping your eyes shut.",
          "preferredTerm": "CDISC ADAS-Cog - Commands: Shoulder",
          "submissionValue": "Commands: Shoulder",
          "synonyms": [
            "Commands: Shoulder"
          ]
        },
        {
          "conceptId": "C100215",
          "definition": "Alzheimer's Disease Assessment Scale-Cognitive CDISC Version - Summary score for delayed word recall.",
          "preferredTerm": "CDISC ADAS-Cog - Delayed Word Recall Summary Score",
          "submissionValue": "Delayed Word Recall",
          "synonyms": [
            "Delayed Word Recall"
          ]
        },
        {
          "conceptId": "C100216",
          "definition": "Alzheimer's Disease Assessment Scale-Cognitive CDISC Version - Delayed word recall task for word 1.",
          "preferredTerm": "CDISC ADAS-Cog - Delayed Word Recall: Word 1",
          "submissionValue": "Delayed Word Recall: Word [1]",
          "synonyms": [
            "Delayed Word Recall: Word [1]"
          ]
        },
        {
          "conceptId": "C100217",
          "definition": "Alzheimer's Disease Assessment Scale-Cognitive CDISC Version - Delayed word recall task for word 2.",
          "preferredTerm": "CDISC ADAS-Cog - Delayed Word Recall: Word 2",
          "submissionValue": "Delayed Word Recall: Word [2]",
          "synonyms": [
            "Delayed Word Recall: Word [2]"
          ]
        },
        {
          "conceptId": "C100218",
          "definition": "Alzheimer's Disease Assessment Scale-Cognitive CDISC Version - Delayed word recall task for word 3.",
          "preferredTerm": "CDISC ADAS-Cog - Delayed Word Recall: Word 3",
          "submissionValue": "Delayed Word Recall: Word [3]",
          "synonyms": [
            "Delayed Word Recall: Word [3]"
          ]
        },
        {
          "conceptId": "C100219",
          "definition": "Alzheimer's Disease Assessment Scale-Cognitive CDISC Version - Delayed word recall task for word 4.",
          "preferredTerm": "CDISC ADAS-Cog - Delayed Word Recall: Word 4",
          "submissionValue": "Delayed Word Recall: Word [4]",
          "synonyms": [
            "Delayed Word Recall: Word [4]"
          ]
        },
        {
          "conceptId": "C100220",
          "definition": "Alzheimer's Disease Assessment Scale-Cognitive CDISC Version - Delayed word recall task for word 5.",
          "preferredTerm": "CDISC ADAS-Cog - Delayed Word Recall: Word 5",
          "submissionValue": "Delayed Word Recall: Word [5]",
          "synonyms": [
            "Delayed Word Recall: Word [5]"
          ]
        },
        {
          "conceptId": "C100221",
          "definition": "Alzheimer's Disease Assessment Scale-Cognitive CDISC Version - Delayed word recall task for word 6.",
          "preferredTerm": "CDISC ADAS-Cog - Delayed Word Recall: Word 6",
          "submissionValue": "Delayed Word Recall: Word [6]",
          "synonyms": [
            "Delayed Word Recall: Word [6]"
          ]
        },
        {
          "conceptId": "C100222",
          "definition": "Alzheimer's Disease Assessment Scale-Cognitive CDISC Version - Delayed word recall task for word 7.",
          "preferredTerm": "CDISC ADAS-Cog - Delayed Word Recall: Word 7",
          "submissionValue": "Delayed Word Recall: Word [7]",
          "synonyms": [
            "Delayed Word Recall: Word [7]"
          ]
        },
        {
          "conceptId": "C100223",
          "definition": "Alzheimer's Disease Assessment Scale-Cognitive CDISC Version - Delayed word recall task for word 8.",
          "preferredTerm": "CDISC ADAS-Cog - Delayed Word Recall: Word 8",
          "submissionValue": "Delayed Word Recall: Word [8]",
          "synonyms": [
            "Delayed Word Recall: Word [8]"
          ]
        },
        {
          "conceptId": "C100224",
          "definition": "Alzheimer's Disease Assessment Scale-Cognitive CDISC Version - Delayed word recall task for word 9.",
          "preferredTerm": "CDISC ADAS-Cog - Delayed Word Recall: Word 9",
          "submissionValue": "Delayed Word Recall: Word [9]",
          "synonyms": [
            "Delayed Word Recall: Word [9]"
          ]
        },
        {
          "conceptId": "C100225",
          "definition": "Alzheimer's Disease Assessment Scale-Cognitive CDISC Version - Delayed word recall task for word 10.",
          "preferredTerm": "CDISC ADAS-Cog - Delayed Word Recall: Word 10",
          "submissionValue": "Delayed Word Recall: Word [10]",
          "synonyms": [
            "Delayed Word Recall: Word [10]"
          ]
        },
        {
          "conceptId": "C100226",
          "definition": "Alzheimer's Disease Assessment Scale-Cognitive CDISC Version - Summary score for constructional praxis.",
          "preferredTerm": "CDISC ADAS-Cog - Constructional Praxis Summary Score",
          "submissionValue": "Constructional Praxis",
          "synonyms": [
            "Constructional Praxis"
          ]
        },
        {
          "conceptId": "C100227",
          "definition": "Alzheimer's Disease Assessment Scale-Cognitive CDISC Version - Constructional praxis task for copying a circle.",
          "preferredTerm": "CDISC ADAS-Cog - Constructional Praxis: Circle",
          "submissionValue": "Constructional Praxis: Circle",
          "synonyms": [
            "Constructional Praxis: Circle"
          ]
        },
        {
          "conceptId": "C100228",
          "definition": "Alzheimer's Disease Assessment Scale-Cognitive CDISC Version - Constructional praxis task for copying two overlapping rectangles.",
          "preferredTerm": "CDISC ADAS-Cog - Constructional Praxis: 2 Rectangles",
          "submissionValue": "Constructional Praxis: 2 Rectangles",
          "synonyms": [
            "Constructional Praxis: 2 Rectangles"
          ]
        },
        {
          "conceptId": "C100229",
          "definition": "Alzheimer's Disease Assessment Scale-Cognitive CDISC Version - Constructional praxis task for copying a diamond.",
          "preferredTerm": "CDISC ADAS-Cog - Constructional Praxis: Diamond",
          "submissionValue": "Constructional Praxis: Diamond",
          "synonyms": [
            "Constructional Praxis: Diamond"
          ]
        },
        {
          "conceptId": "C100230",
          "definition": "Alzheimer's Disease Assessment Scale-Cognitive CDISC Version - Constructional praxis task for copying a cube.",
          "preferredTerm": "CDISC ADAS-Cog - Constructional Praxis: Cube",
          "submissionValue": "Constructional Praxis: Cube",
          "synonyms": [
            "Constructional Praxis: Cube"
          ]
        },
        {
          "conceptId": "C100231",
          "definition": "Alzheimer's Disease Assessment Scale-Cognitive CDISC Version - Constructional praxis attempted to draw, but drew no forms correctly.",
          "preferredTerm": "CDISC ADAS-Cog - Attempt to Draw",
          "submissionValue": "Attempt to Draw",
          "synonyms": [
            "Attempt to Draw"
          ]
        },
        {
          "conceptId": "C100232",
          "definition": "Alzheimer's Disease Assessment Scale-Cognitive CDISC Version - Summary score for ideational praxis.",
          "preferredTerm": "CDISC ADAS-Cog - Ideational Praxis Summary Score",
          "submissionValue": "Ideational Praxis",
          "synonyms": [
            "Ideational Praxis"
          ]
        },
        {
          "conceptId": "C100233",
          "definition": "Alzheimer's Disease Assessment Scale-Cognitive CDISC Version - Ideational praxis task for folding the paper.",
          "preferredTerm": "CDISC ADAS-Cog - Ideational Praxis: Fold",
          "submissionValue": "Ideational Praxis: Fold",
          "synonyms": [
            "Ideational Praxis: Fold"
          ]
        },
        {
          "conceptId": "C100234",
          "definition": "Alzheimer's Disease Assessment Scale-Cognitive CDISC Version - Ideational praxis task for put the paper in the envelop.",
          "preferredTerm": "CDISC ADAS-Cog - Ideational Praxis: Insert",
          "submissionValue": "Ideational Praxis: Insert",
          "synonyms": [
            "Ideational Praxis: Insert"
          ]
        },
        {
          "conceptId": "C100235",
          "definition": "Alzheimer's Disease Assessment Scale-Cognitive CDISC Version - Ideational praxis task for seal the envelop.",
          "preferredTerm": "CDISC ADAS-Cog - Ideational Praxis: Seal",
          "submissionValue": "Ideational Praxis: Seal",
          "synonyms": [
            "Ideational Praxis: Seal"
          ]
        },
        {
          "conceptId": "C100236",
          "definition": "Alzheimer's Disease Assessment Scale-Cognitive CDISC Version - Ideational praxis task for address the envelop to yourself.",
          "preferredTerm": "CDISC ADAS-Cog - Ideational Praxis: Address",
          "submissionValue": "Ideational Praxis: Address",
          "synonyms": [
            "Ideational Praxis: Address"
          ]
        },
        {
          "conceptId": "C100237",
          "definition": "Alzheimer's Disease Assessment Scale-Cognitive CDISC Version - Ideational praxis task for showing where the stamp goes.",
          "preferredTerm": "CDISC ADAS-Cog - Ideational Praxis: Stamp",
          "submissionValue": "Ideational Praxis: Stamp",
          "synonyms": [
            "Ideational Praxis: Stamp"
          ]
        },
        {
          "conceptId": "C100238",
          "definition": "Alzheimer's Disease Assessment Scale-Cognitive CDISC Version - Summary score for orientation.",
          "preferredTerm": "CDISC ADAS-Cog - Orientation Summary Score",
          "submissionValue": "Orientation",
          "synonyms": [
            "Orientation"
          ]
        },
        {
          "conceptId": "C100239",
          "definition": "Alzheimer's Disease Assessment Scale-Cognitive CDISC Version - Orientation task for knowing one's own full name.",
          "preferredTerm": "CDISC ADAS-Cog - Orientation: Full Name",
          "submissionValue": "Orientation: Full Name",
          "synonyms": [
            "Orientation: Full Name"
          ]
        },
        {
          "conceptId": "C100240",
          "definition": "Alzheimer's Disease Assessment Scale-Cognitive CDISC Version - Orientation task for knowing the current month.",
          "preferredTerm": "CDISC ADAS-Cog - Orientation: Month",
          "submissionValue": "Orientation: Month",
          "synonyms": [
            "Orientation: Month"
          ]
        },
        {
          "conceptId": "C100241",
          "definition": "Alzheimer's Disease Assessment Scale-Cognitive CDISC Version - Orientation task for knowing the current day.",
          "preferredTerm": "CDISC ADAS-Cog - Orientation: Date",
          "submissionValue": "Orientation: Date",
          "synonyms": [
            "Orientation: Date"
          ]
        },
        {
          "conceptId": "C100242",
          "definition": "Alzheimer's Disease Assessment Scale-Cognitive CDISC Version - Orientation task for knowing the current year.",
          "preferredTerm": "CDISC ADAS-Cog - Orientation: Year",
          "submissionValue": "Orientation: Year",
          "synonyms": [
            "Orientation: Year"
          ]
        },
        {
          "conceptId": "C100243",
          "definition": "Alzheimer's Disease Assessment Scale-Cognitive CDISC Version - Orientation task for knowing the current day of the week.",
          "preferredTerm": "CDISC ADAS-Cog - Orientation: Day of Week",
          "submissionValue": "Orientation: Day of Week",
          "synonyms": [
            "Orientation: Day of Week"
          ]
        },
        {
          "conceptId": "C100244",
          "definition": "Alzheimer's Disease Assessment Scale-Cognitive CDISC Version - Orientation task for knowing the current season.",
          "preferredTerm": "CDISC ADAS-Cog - Orientation: Season",
          "submissionValue": "Orientation: Season",
          "synonyms": [
            "Orientation: Season"
          ]
        },
        {
          "conceptId": "C100245",
          "definition": "Alzheimer's Disease Assessment Scale-Cognitive CDISC Version - Orientation task for knowing the current place.",
          "preferredTerm": "CDISC ADAS-Cog - Orientation: Place",
          "submissionValue": "Orientation: Place",
          "synonyms": [
            "Orientation: Place"
          ]
        },
        {
          "conceptId": "C100246",
          "definition": "Alzheimer's Disease Assessment Scale-Cognitive CDISC Version - Orientation task for knowing the approximate current clock time.",
          "preferredTerm": "CDISC ADAS-Cog - Orientation: Time",
          "submissionValue": "Orientation: Time",
          "synonyms": [
            "Orientation: Time"
          ]
        },
        {
          "conceptId": "C100247",
          "definition": "Alzheimer's Disease Assessment Scale-Cognitive CDISC Version - Summary score for word recognition across trials 1-3.",
          "preferredTerm": "CDISC ADAS-Cog - Word Recognition Summary Score",
          "submissionValue": "Word Recognition",
          "synonyms": [
            "Word Recognition"
          ]
        },
        {
          "conceptId": "C100248",
          "definition": "Alzheimer's Disease Assessment Scale-Cognitive CDISC Version - Sub-score for word recognition trial 1.",
          "preferredTerm": "CDISC ADAS-Cog - Word Recognition Trial 1 Summary Score",
          "submissionValue": "Word Recognition Trial 1",
          "synonyms": [
            "Word Recognition Trial 1"
          ]
        },
        {
          "conceptId": "C100249",
          "definition": "Alzheimer's Disease Assessment Scale-Cognitive CDISC Version - Sub-score for word recognition trial 2.",
          "preferredTerm": "CDISC ADAS-Cog - Word Recognition Trial 2 Summary Score",
          "submissionValue": "Word Recognition Trial 2",
          "synonyms": [
            "Word Recognition Trial 2"
          ]
        },
        {
          "conceptId": "C100250",
          "definition": "Alzheimer's Disease Assessment Scale-Cognitive CDISC Version - Sub-score for word recognition trial 3.",
          "preferredTerm": "CDISC ADAS-Cog - Word Recognition Trial 3 Summary Score",
          "submissionValue": "Word Recognition Trial 3",
          "synonyms": [
            "Word Recognition Trial 3"
          ]
        },
        {
          "conceptId": "C100251",
          "definition": "Alzheimer's Disease Assessment Scale-Cognitive CDISC Version - Word recognition task for word 1 Trials 1, 2, 3.",
          "preferredTerm": "CDISC ADAS-Cog - Word Recognition: Word 1",
          "submissionValue": "Word Recognition: Word [1]",
          "synonyms": [
            "Word Recognition: Word [1]"
          ]
        },
        {
          "conceptId": "C100252",
          "definition": "Alzheimer's Disease Assessment Scale-Cognitive CDISC Version - Word recognition task for word 2 Trials 1, 2, 3.",
          "preferredTerm": "CDISC ADAS-Cog - Word Recognition: Word 2",
          "submissionValue": "Word Recognition: Word [2]",
          "synonyms": [
            "Word Recognition: Word [2]"
          ]
        },
        {
          "conceptId": "C100253",
          "definition": "Alzheimer's Disease Assessment Scale-Cognitive CDISC Version - Word recognition task for word 3 Trials 1, 2, 3.",
          "preferredTerm": "CDISC ADAS-Cog - Word Recognition: Word 3",
          "submissionValue": "Word Recognition: Word [3]",
          "synonyms": [
            "Word Recognition: Word [3]"
          ]
        },
        {
          "conceptId": "C100254",
          "definition": "Alzheimer's Disease Assessment Scale-Cognitive CDISC Version - Word recognition task for word 4 Trials 1, 2, 3.",
          "preferredTerm": "CDISC ADAS-Cog - Word Recognition: Word 4",
          "submissionValue": "Word Recognition: Word [4]",
          "synonyms": [
            "Word Recognition: Word [4]"
          ]
        },
        {
          "conceptId": "C100255",
          "definition": "Alzheimer's Disease Assessment Scale-Cognitive CDISC Version - Word recognition task for word 5 Trials 1, 2, 3.",
          "preferredTerm": "CDISC ADAS-Cog - Word Recognition: Word 5",
          "submissionValue": "Word Recognition: Word [5]",
          "synonyms": [
            "Word Recognition: Word [5]"
          ]
        },
        {
          "conceptId": "C100256",
          "definition": "Alzheimer's Disease Assessment Scale-Cognitive CDISC Version - Word recognition task for word 6 Trials 1, 2, 3.",
          "preferredTerm": "CDISC ADAS-Cog - Word Recognition: Word 6",
          "submissionValue": "Word Recognition: Word [6]",
          "synonyms": [
            "Word Recognition: Word [6]"
          ]
        },
        {
          "conceptId": "C100257",
          "definition": "Alzheimer's Disease Assessment Scale-Cognitive CDISC Version - Word recognition task for word 7 Trials 1, 2, 3.",
          "preferredTerm": "CDISC ADAS-Cog - Word Recognition: Word 7",
          "submissionValue": "Word Recognition: Word [7]",
          "synonyms": [
            "Word Recognition: Word [7]"
          ]
        },
        {
          "conceptId": "C100258",
          "definition": "Alzheimer's Disease Assessment Scale-Cognitive CDISC Version - Word recognition task for word 8 Trials 1, 2, 3.",
          "preferredTerm": "CDISC ADAS-Cog - Word Recognition: Word 8",
          "submissionValue": "Word Recognition: Word [8]",
          "synonyms": [
            "Word Recognition: Word [8]"
          ]
        },
        {
          "conceptId": "C100259",
          "definition": "Alzheimer's Disease Assessment Scale-Cognitive CDISC Version - Word recognition task for word 9 Trials 1, 2, 3.",
          "preferredTerm": "CDISC ADAS-Cog - Word Recognition: Word 9",
          "submissionValue": "Word Recognition: Word [9]",
          "synonyms": [
            "Word Recognition: Word [9]"
          ]
        },
        {
          "conceptId": "C100260",
          "definition": "Alzheimer's Disease Assessment Scale-Cognitive CDISC Version - Word recognition task for word 10 Trials 1, 2, 3.",
          "preferredTerm": "CDISC ADAS-Cog - Word Recognition: Word 10",
          "submissionValue": "Word Recognition: Word [10]",
          "synonyms": [
            "Word Recognition: Word [10]"
          ]
        },
        {
          "conceptId": "C100261",
          "definition": "Alzheimer's Disease Assessment Scale-Cognitive CDISC Version - Word recognition task for word 11 Trials 1, 2, 3.",
          "preferredTerm": "CDISC ADAS-Cog - Word Recognition: Word 11",
          "submissionValue": "Word Recognition: Word [11]",
          "synonyms": [
            "Word Recognition: Word [11]"
          ]
        },
        {
          "conceptId": "C100262",
          "definition": "Alzheimer's Disease Assessment Scale-Cognitive CDISC Version - Word recognition task for word 12 Trials 1, 2, 3.",
          "preferredTerm": "CDISC ADAS-Cog - Word Recognition: Word 12",
          "submissionValue": "Word Recognition: Word [12]",
          "synonyms": [
            "Word Recognition: Word [12]"
          ]
        },
        {
          "conceptId": "C100263",
          "definition": "Alzheimer's Disease Assessment Scale-Cognitive CDISC Version - Word recognition task for word 13 Trials 1, 2, 3.",
          "preferredTerm": "CDISC ADAS-Cog - CDISC ADAS-Cog - Word Recognition: Word 13",
          "submissionValue": "Word Recognition: Word [13]",
          "synonyms": [
            "Word Recognition: Word [13]"
          ]
        },
        {
          "conceptId": "C100264",
          "definition": "Alzheimer's Disease Assessment Scale-Cognitive CDISC Version - Word recognition task for word 14 Trials 1, 2, 3.",
          "preferredTerm": "CDISC ADAS-Cog - Word Recognition: Word 14",
          "submissionValue": "Word Recognition: Word [14]",
          "synonyms": [
            "Word Recognition: Word [14]"
          ]
        },
        {
          "conceptId": "C100265",
          "definition": "Alzheimer's Disease Assessment Scale-Cognitive CDISC Version - Word recognition task for word 15 Trials 1, 2, 3.",
          "preferredTerm": "CDISC ADAS-Cog - Word Recognition: Word 15",
          "submissionValue": "Word Recognition: Word [15]",
          "synonyms": [
            "Word Recognition: Word [15]"
          ]
        },
        {
          "conceptId": "C100266",
          "definition": "Alzheimer's Disease Assessment Scale-Cognitive CDISC Version - Word recognition task for word 16 Trials 1, 2, 3.",
          "preferredTerm": "CDISC ADAS-Cog - Word Recognition: Word 16",
          "submissionValue": "Word Recognition: Word [16]",
          "synonyms": [
            "Word Recognition: Word [16]"
          ]
        },
        {
          "conceptId": "C100267",
          "definition": "Alzheimer's Disease Assessment Scale-Cognitive CDISC Version - Word recognition task for word 17 Trials 1, 2, 3.",
          "preferredTerm": "CDISC ADAS-Cog - Word Recognition: Word 17",
          "submissionValue": "Word Recognition: Word [17]",
          "synonyms": [
            "Word Recognition: Word [17]"
          ]
        },
        {
          "conceptId": "C100268",
          "definition": "Alzheimer's Disease Assessment Scale-Cognitive CDISC Version - Word recognition task for word 18 Trials 1, 2, 3.",
          "preferredTerm": "CDISC ADAS-Cog - Word Recognition: Word 18",
          "submissionValue": "Word Recognition: Word [18]",
          "synonyms": [
            "Word Recognition: Word [18]"
          ]
        },
        {
          "conceptId": "C100269",
          "definition": "Alzheimer's Disease Assessment Scale-Cognitive CDISC Version - Word recognition task for word 19 Trials 1, 2, 3.",
          "preferredTerm": "CDISC ADAS-Cog - Word Recognition: Word 19",
          "submissionValue": "Word Recognition: Word [19]",
          "synonyms": [
            "Word Recognition: Word [19]"
          ]
        },
        {
          "conceptId": "C100270",
          "definition": "Alzheimer's Disease Assessment Scale-Cognitive CDISC Version - Word recognition task for word 20 Trials 1, 2, 3.",
          "preferredTerm": "CDISC ADAS-Cog - Word Recognition: Word 20",
          "submissionValue": "Word Recognition: Word [20]",
          "synonyms": [
            "Word Recognition: Word [20]"
          ]
        },
        {
          "conceptId": "C100271",
          "definition": "Alzheimer's Disease Assessment Scale-Cognitive CDISC Version - Word recognition task for word 21 Trials 1, 2, 3.",
          "preferredTerm": "CDISC ADAS-Cog - Word Recognition: Word 21",
          "submissionValue": "Word Recognition: Word [21]",
          "synonyms": [
            "Word Recognition: Word [21]"
          ]
        },
        {
          "conceptId": "C100272",
          "definition": "Alzheimer's Disease Assessment Scale-Cognitive CDISC Version - Word recognition task for word 22 Trials 1, 2, 3.",
          "preferredTerm": "CDISC ADAS-Cog - Word Recognition: Word 22",
          "submissionValue": "Word Recognition: Word [22]",
          "synonyms": [
            "Word Recognition: Word [22]"
          ]
        },
        {
          "conceptId": "C100273",
          "definition": "Alzheimer's Disease Assessment Scale-Cognitive CDISC Version - Word recognition task for word 23 Trials 1, 2, 3.",
          "preferredTerm": "CDISC ADAS-Cog - Word Recognition: Word 23",
          "submissionValue": "Word Recognition: Word [23]",
          "synonyms": [
            "Word Recognition: Word [23]"
          ]
        },
        {
          "conceptId": "C100274",
          "definition": "Alzheimer's Disease Assessment Scale-Cognitive CDISC Version - Word recognition task for word 24 Trials 1, 2, 3.",
          "preferredTerm": "CDISC ADAS-Cog - Word Recognition: Word 24",
          "submissionValue": "Word Recognition: Word [24]",
          "synonyms": [
            "Word Recognition: Word [24]"
          ]
        },
        {
          "conceptId": "C100275",
          "definition": "Alzheimer's Disease Assessment Scale-Cognitive CDISC Version - Remembering test instructions.",
          "preferredTerm": "CDISC ADAS-Cog - Remembering Test Instructions",
          "submissionValue": "Remembering Test Instructions",
          "synonyms": [
            "Remembering Test Instructions"
          ]
        },
        {
          "conceptId": "C100276",
          "definition": "Alzheimer's Disease Assessment Scale-Cognitive CDISC Version - Global rating of the quality of speech, or difficulty in making oneself understood.",
          "preferredTerm": "CDISC ADAS-Cog - Spoken Language Ability",
          "submissionValue": "Spoken Language Ability",
          "synonyms": [
            "Spoken Language Ability"
          ]
        },
        {
          "conceptId": "C100277",
          "definition": "Alzheimer's Disease Assessment Scale-Cognitive CDISC Version - Difficulty finding the desired word in spontaneous speech.",
          "preferredTerm": "CDISC ADAS-Cog - Word Difficulty in Spontaneous Speech",
          "submissionValue": "Word Finding Difficulty in Spont Speech",
          "synonyms": [
            "Word Finding Difficulty in Spont Speech"
          ]
        },
        {
          "conceptId": "C100278",
          "definition": "Alzheimer's Disease Assessment Scale-Cognitive CDISC Version - Ability to comprehend speech.",
          "preferredTerm": "CDISC ADAS-Cog - Comprehension",
          "submissionValue": "Comprehension",
          "synonyms": [
            "Comprehension"
          ]
        },
        {
          "conceptId": "C100279",
          "definition": "Alzheimer's Disease Assessment Scale-Cognitive CDISC Version - Ability to concentrate or easily be distracted.",
          "preferredTerm": "CDISC ADAS-Cog - Concentration/Distractibility",
          "submissionValue": "Concentration/Distractibility",
          "synonyms": [
            "Concentration/Distractibility"
          ]
        },
        {
          "conceptId": "C100280",
          "definition": "Alzheimer's Disease Assessment Scale-Cognitive CDISC Version - Summary score for the number cancellation tasks.",
          "preferredTerm": "CDISC ADAS-Cog - Number Cancellation Summary Score",
          "submissionValue": "Number Cancellation",
          "synonyms": [
            "Number Cancellation"
          ]
        },
        {
          "conceptId": "C100281",
          "definition": "Alzheimer's Disease Assessment Scale-Cognitive CDISC Version - Number of targets hit during the number cancellation task.",
          "preferredTerm": "CDISC ADAS-Cog - Number Cancellation: Correct",
          "submissionValue": "Number Cancellation: Correct",
          "synonyms": [
            "Number Cancellation: Correct"
          ]
        },
        {
          "conceptId": "C100282",
          "definition": "Alzheimer's Disease Assessment Scale-Cognitive CDISC Version - Number of errors during the number cancellation task.",
          "preferredTerm": "CDISC ADAS-Cog - Number Cancellation: Errors",
          "submissionValue": "Number Cancellation: Errors",
          "synonyms": [
            "Number Cancellation: Errors"
          ]
        },
        {
          "conceptId": "C100283",
          "definition": "Alzheimer's Disease Assessment Scale-Cognitive CDISC Version - Number of times reminded for the number cancellation task.",
          "preferredTerm": "CDISC ADAS-Cog - Number Cancellation: Remind",
          "submissionValue": "Number Cancellation: Remind",
          "synonyms": [
            "Number Cancellation: Remind"
          ]
        },
        {
          "conceptId": "C100284",
          "definition": "Alzheimer's Disease Assessment Scale-Cognitive CDISC Version - Summary score for the executive function maze tasks.",
          "preferredTerm": "CDISC ADAS-Cog - Executive Function Maze Summary Score",
          "submissionValue": "Executive Function Maze",
          "synonyms": [
            "Executive Function Maze"
          ]
        },
        {
          "conceptId": "C100285",
          "definition": "Alzheimer's Disease Assessment Scale-Cognitive CDISC Version - Number of errors during the executive function maze task.",
          "preferredTerm": "CDISC ADAS-Cog - Executive Function Maze: Errors",
          "submissionValue": "Executive Function Maze: Errors",
          "synonyms": [
            "Executive Function Maze: Errors"
          ]
        },
        {
          "conceptId": "C100286",
          "definition": "Alzheimer's Disease Assessment Scale-Cognitive CDISC Version - The time in seconds stored in ISO 8601 time for the executive function maze task.",
          "preferredTerm": "CDISC ADAS-Cog - Executive Function Maze: Time",
          "submissionValue": "Executive Function Maze: Time",
          "synonyms": [
            "Executive Function Maze: Time"
          ]
        }
      ]
    },
    {
      "conceptId": "C100133",
      "definition": "The Brief Psychiatric Rating Scale-A test name.",
      "extensible": "No",
      "name": "Brief Psychiatric Rating Scale-A Test Name",
      "preferredTerm": "CDISC Questionnaire BPRS-A Test Name Terminology",
      "submissionValue": "BPRS-A TEST",
      "synonyms": [
        "Brief Psychiatric Rating Scale-A Test Name"
      ],
      "terms": [
        {
          "conceptId": "C100372",
          "definition": "Brief Psychiatric Rating Scale-A - Somatic Concern.",
          "preferredTerm": "BPRS-A - Somatic Concern",
          "submissionValue": "BPR01-Somatic Concern",
          "synonyms": [
            "BPR01-Somatic Concern"
          ]
        },
        {
          "conceptId": "C100373",
          "definition": "Brief Psychiatric Rating Scale-A - Anxiety.",
          "preferredTerm": "BPRS-A - Anxiety",
          "submissionValue": "BPR01-Anxiety",
          "synonyms": [
            "BPR01-Anxiety"
          ]
        },
        {
          "conceptId": "C100374",
          "definition": "Brief Psychiatric Rating Scale-A - Emotional Withdrawal.",
          "preferredTerm": "BPRS-A - Emotional Withdrawal",
          "submissionValue": "BPR01-Emotional Withdrawal",
          "synonyms": [
            "BPR01-Emotional Withdrawal"
          ]
        },
        {
          "conceptId": "C100375",
          "definition": "Brief Psychiatric Rating Scale-A - Conceptual Disorganization.",
          "preferredTerm": "BPRS-A - Conceptual Disorganization",
          "submissionValue": "BPR01-Conceptual Disorganization",
          "synonyms": [
            "BPR01-Conceptual Disorganization"
          ]
        },
        {
          "conceptId": "C100376",
          "definition": "Brief Psychiatric Rating Scale-A - Guilt Feelings.",
          "preferredTerm": "BPRS-A - Guilt Feelings",
          "submissionValue": "BPR01-Guilt Feelings",
          "synonyms": [
            "BPR01-Guilt Feelings"
          ]
        },
        {
          "conceptId": "C100377",
          "definition": "Brief Psychiatric Rating Scale-A - Tension.",
          "preferredTerm": "BPRS-A - Tension",
          "submissionValue": "BPR01-Tension",
          "synonyms": [
            "BPR01-Tension"
          ]
        },
        {
          "conceptId": "C100378",
          "definition": "Brief Psychiatric Rating Scale-A - Mannerisms and Posturing.",
          "preferredTerm": "BPRS-A - Mannerisms and Posturing",
          "submissionValue": "BPR01-Mannerisms and Posturing",
          "synonyms": [
            "BPR01-Mannerisms and Posturing"
          ]
        },
        {
          "conceptId": "C100379",
          "definition": "Brief Psychiatric Rating Scale-A - Grandiosity.",
          "preferredTerm": "BPRS-A - Grandiosity",
          "submissionValue": "BPR01-Grandiosity",
          "synonyms": [
            "BPR01-Grandiosity"
          ]
        },
        {
          "conceptId": "C100380",
          "definition": "Brief Psychiatric Rating Scale-A - Depressive Mood.",
          "preferredTerm": "BPRS-A - Depressive Mood",
          "submissionValue": "BPR01-Depressive Mood",
          "synonyms": [
            "BPR01-Depressive Mood"
          ]
        },
        {
          "conceptId": "C100381",
          "definition": "Brief Psychiatric Rating Scale-A - Hostility.",
          "preferredTerm": "BPRS-A - Hostility",
          "submissionValue": "BPR01-Hostility",
          "synonyms": [
            "BPR01-Hostility"
          ]
        },
        {
          "conceptId": "C100382",
          "definition": "Brief Psychiatric Rating Scale-A - Suspiciousness.",
          "preferredTerm": "BPRS-A - Suspiciousness",
          "submissionValue": "BPR01-Suspiciousness",
          "synonyms": [
            "BPR01-Suspiciousness"
          ]
        },
        {
          "conceptId": "C100383",
          "definition": "Brief Psychiatric Rating Scale-A - Hallucinatory Behavior.",
          "preferredTerm": "BPRS-A - Hallucinatory Behavior",
          "submissionValue": "BPR01-Hallucinatory Behavior",
          "synonyms": [
            "BPR01-Hallucinatory Behavior"
          ]
        },
        {
          "conceptId": "C100384",
          "definition": "Brief Psychiatric Rating Scale-A - Motor Retardation.",
          "preferredTerm": "BPRS-A - Motor Retardation",
          "submissionValue": "BPR01-Motor Retardation",
          "synonyms": [
            "BPR01-Motor Retardation"
          ]
        },
        {
          "conceptId": "C100385",
          "definition": "Brief Psychiatric Rating Scale-A - Uncooperativeness.",
          "preferredTerm": "BPRS-A - Uncooperativeness",
          "submissionValue": "BPR01-Uncooperativeness",
          "synonyms": [
            "BPR01-Uncooperativeness"
          ]
        },
        {
          "conceptId": "C100386",
          "definition": "Brief Psychiatric Rating Scale-A - Unusual Thought Content.",
          "preferredTerm": "BPRS-A - Unusual Thought Content",
          "submissionValue": "BPR01-Unusual Thought Content",
          "synonyms": [
            "BPR01-Unusual Thought Content"
          ]
        },
        {
          "conceptId": "C100387",
          "definition": "Brief Psychiatric Rating Scale-A - Blunted Affect.",
          "preferredTerm": "BPRS-A - Blunted Affect",
          "submissionValue": "BPR01-Blunted Affect",
          "synonyms": [
            "BPR01-Blunted Affect"
          ]
        },
        {
          "conceptId": "C100388",
          "definition": "Brief Psychiatric Rating Scale-A - Excitement.",
          "preferredTerm": "BPRS-A - Excitement",
          "submissionValue": "BPR01-Excitement",
          "synonyms": [
            "BPR01-Excitement"
          ]
        },
        {
          "conceptId": "C100389",
          "definition": "Brief Psychiatric Rating Scale-A - Disorientation.",
          "preferredTerm": "BPRS-A - Disorientation",
          "submissionValue": "BPR01-Disorientation",
          "synonyms": [
            "BPR01-Disorientation"
          ]
        }
      ]
    },
    {
      "conceptId": "C100134",
      "definition": "The Brief Psychiatric Rating Scale-A test code.",
      "extensible": "No",
      "name": "Brief Psychiatric Rating Scale-A Test Code",
      "preferredTerm": "CDISC Questionnaire BPRS-A Test Code Terminology",
      "submissionValue": "BPRS-A TESTCD",
      "synonyms": [
        "Brief Psychiatric Rating Scale-A Test Code"
      ],
      "terms": [
        {
          "conceptId": "C100372",
          "definition": "Brief Psychiatric Rating Scale-A - Somatic Concern.",
          "preferredTerm": "BPRS-A - Somatic Concern",
          "submissionValue": "BPR0101",
          "synonyms": [
            "BPR01-Somatic Concern"
          ]
        },
        {
          "conceptId": "C100373",
          "definition": "Brief Psychiatric Rating Scale-A - Anxiety.",
          "preferredTerm": "BPRS-A - Anxiety",
          "submissionValue": "BPR0102",
          "synonyms": [
            "BPR01-Anxiety"
          ]
        },
        {
          "conceptId": "C100374",
          "definition": "Brief Psychiatric Rating Scale-A - Emotional Withdrawal.",
          "preferredTerm": "BPRS-A - Emotional Withdrawal",
          "submissionValue": "BPR0103",
          "synonyms": [
            "BPR01-Emotional Withdrawal"
          ]
        },
        {
          "conceptId": "C100375",
          "definition": "Brief Psychiatric Rating Scale-A - Conceptual Disorganization.",
          "preferredTerm": "BPRS-A - Conceptual Disorganization",
          "submissionValue": "BPR0104",
          "synonyms": [
            "BPR01-Conceptual Disorganization"
          ]
        },
        {
          "conceptId": "C100376",
          "definition": "Brief Psychiatric Rating Scale-A - Guilt Feelings.",
          "preferredTerm": "BPRS-A - Guilt Feelings",
          "submissionValue": "BPR0105",
          "synonyms": [
            "BPR01-Guilt Feelings"
          ]
        },
        {
          "conceptId": "C100377",
          "definition": "Brief Psychiatric Rating Scale-A - Tension.",
          "preferredTerm": "BPRS-A - Tension",
          "submissionValue": "BPR0106",
          "synonyms": [
            "BPR01-Tension"
          ]
        },
        {
          "conceptId": "C100378",
          "definition": "Brief Psychiatric Rating Scale-A - Mannerisms and Posturing.",
          "preferredTerm": "BPRS-A - Mannerisms and Posturing",
          "submissionValue": "BPR0107",
          "synonyms": [
            "BPR01-Mannerisms and Posturing"
          ]
        },
        {
          "conceptId": "C100379",
          "definition": "Brief Psychiatric Rating Scale-A - Grandiosity.",
          "preferredTerm": "BPRS-A - Grandiosity",
          "submissionValue": "BPR0108",
          "synonyms": [
            "BPR01-Grandiosity"
          ]
        },
        {
          "conceptId": "C100380",
          "definition": "Brief Psychiatric Rating Scale-A - Depressive Mood.",
          "preferredTerm": "BPRS-A - Depressive Mood",
          "submissionValue": "BPR0109",
          "synonyms": [
            "BPR01-Depressive Mood"
          ]
        },
        {
          "conceptId": "C100381",
          "definition": "Brief Psychiatric Rating Scale-A - Hostility.",
          "preferredTerm": "BPRS-A - Hostility",
          "submissionValue": "BPR0110",
          "synonyms": [
            "BPR01-Hostility"
          ]
        },
        {
          "conceptId": "C100382",
          "definition": "Brief Psychiatric Rating Scale-A - Suspiciousness.",
          "preferredTerm": "BPRS-A - Suspiciousness",
          "submissionValue": "BPR0111",
          "synonyms": [
            "BPR01-Suspiciousness"
          ]
        },
        {
          "conceptId": "C100383",
          "definition": "Brief Psychiatric Rating Scale-A - Hallucinatory Behavior.",
          "preferredTerm": "BPRS-A - Hallucinatory Behavior",
          "submissionValue": "BPR0112",
          "synonyms": [
            "BPR01-Hallucinatory Behavior"
          ]
        },
        {
          "conceptId": "C100384",
          "definition": "Brief Psychiatric Rating Scale-A - Motor Retardation.",
          "preferredTerm": "BPRS-A - Motor Retardation",
          "submissionValue": "BPR0113",
          "synonyms": [
            "BPR01-Motor Retardation"
          ]
        },
        {
          "conceptId": "C100385",
          "definition": "Brief Psychiatric Rating Scale-A - Uncooperativeness.",
          "preferredTerm": "BPRS-A - Uncooperativeness",
          "submissionValue": "BPR0114",
          "synonyms": [
            "BPR01-Uncooperativeness"
          ]
        },
        {
          "conceptId": "C100386",
          "definition": "Brief Psychiatric Rating Scale-A - Unusual Thought Content.",
          "preferredTerm": "BPRS-A - Unusual Thought Content",
          "submissionValue": "BPR0115",
          "synonyms": [
            "BPR01-Unusual Thought Content"
          ]
        },
        {
          "conceptId": "C100387",
          "definition": "Brief Psychiatric Rating Scale-A - Blunted Affect.",
          "preferredTerm": "BPRS-A - Blunted Affect",
          "submissionValue": "BPR0116",
          "synonyms": [
            "BPR01-Blunted Affect"
          ]
        },
        {
          "conceptId": "C100388",
          "definition": "Brief Psychiatric Rating Scale-A - Excitement.",
          "preferredTerm": "BPRS-A - Excitement",
          "submissionValue": "BPR0117",
          "synonyms": [
            "BPR01-Excitement"
          ]
        },
        {
          "conceptId": "C100389",
          "definition": "Brief Psychiatric Rating Scale-A - Disorientation.",
          "preferredTerm": "BPRS-A - Disorientation",
          "submissionValue": "BPR0118",
          "synonyms": [
            "BPR01-Disorientation"
          ]
        }
      ]
    },
    {
      "conceptId": "C100135",
      "definition": "The EuroQOL (European Quality of Life) Five Dimension three level scale (EQ-5D-3L) (copyright 1990 EuroQol Group EQ-5D test name. All Rights Reserved) test name.",
      "extensible": "No",
      "name": "EuroQOLFive Dimension Three Level Scale Test Name",
      "preferredTerm": "CDISC Questionnaire EQ-5D-3L Test Name Terminology",
      "submissionValue": "EQ-5D-3L TEST",
      "synonyms": [
        "EuroQOLFive Dimension Three Level Scale Test Name"
      ],
      "terms": [
        {
          "conceptId": "C100392",
          "definition": "The EuroQol (European Quality of Life) Five Dimension Three Level Scale (EQ-5D-3L) (copyright 1990 EuroQol Group EQ-5D. All Rights Reserved). Question 1.",
          "preferredTerm": "EQ-5D-3L - Question 1",
          "submissionValue": "EQ-5D-3L-Question 1",
          "synonyms": [
            "EQ-5D-3L-Question 1"
          ]
        },
        {
          "conceptId": "C100393",
          "definition": "The EuroQol (European Quality of Life) Five Dimension Three Level Scale (EQ-5D-3L) (copyright 1990 EuroQol Group EQ-5D. All Rights Reserved). Question 2.",
          "preferredTerm": "EQ-5D-3L - Question 2",
          "submissionValue": "EQ-5D-3L-Question 2",
          "synonyms": [
            "EQ-5D-3L-Question 2"
          ]
        },
        {
          "conceptId": "C100394",
          "definition": "The EuroQol (European Quality of Life) Five Dimension Three Level Scale (EQ-5D-3L) (copyright 1990 EuroQol Group EQ-5D. All Rights Reserved). Question 3.",
          "preferredTerm": "EQ-5D-3L - Question 3",
          "submissionValue": "EQ-5D-3L-Question 3",
          "synonyms": [
            "EQ-5D-3L-Question 3"
          ]
        },
        {
          "conceptId": "C100395",
          "definition": "The EuroQol (European Quality of Life) Five Dimension Three Level Scale (EQ-5D-3L) (copyright 1990 EuroQol Group EQ-5D. All Rights Reserved). Question 4.",
          "preferredTerm": "EQ-5D-3L - Question 4",
          "submissionValue": "EQ-5D-3L-Question 4",
          "synonyms": [
            "EQ-5D-3L-Question 4"
          ]
        },
        {
          "conceptId": "C100396",
          "definition": "The EuroQol (European Quality of Life) Five Dimension Three Level Scale (EQ-5D-3L) (copyright 1990 EuroQol Group EQ-5D. All Rights Reserved). Question 5.",
          "preferredTerm": "EQ-5D-3L - Question 5",
          "submissionValue": "EQ-5D-3L-Question 5",
          "synonyms": [
            "EQ-5D-3L-Question 5"
          ]
        },
        {
          "conceptId": "C100397",
          "definition": "The EuroQol (European Quality of Life) Five Dimension Three Level Scale (EQ-5D-3L) (copyright 1990 EuroQol Group EQ-5D. All Rights Reserved). Question 6.",
          "preferredTerm": "EQ-5D-3L - Question 6",
          "submissionValue": "EQ-5D-3L-Question 6",
          "synonyms": [
            "EQ-5D-3L-Question 6"
          ]
        }
      ]
    },
    {
      "conceptId": "C100136",
      "definition": "The EuroQOL (European Quality of Life) Five Dimension three level scale (EQ-5D-3L) (copyright 1990 EuroQol Group EQ-5D test code. All Rights Reserved) test code.",
      "extensible": "No",
      "name": "EuroQOLFive Dimension Three Level Scale Test Code",
      "preferredTerm": "CDISC Questionnaire EQ-5D-3L Test Code Terminology",
      "submissionValue": "EQ-5D-3L TESTCD",
      "synonyms": [
        "EuroQOLFive Dimension Three Level Scale Test Code"
      ],
      "terms": [
        {
          "conceptId": "C100392",
          "definition": "The EuroQol (European Quality of Life) Five Dimension Three Level Scale (EQ-5D-3L) (copyright 1990 EuroQol Group EQ-5D. All Rights Reserved). Question 1.",
          "preferredTerm": "EQ-5D-3L - Question 1",
          "submissionValue": "EQ5D0101",
          "synonyms": [
            "EQ-5D-3L-Question 1"
          ]
        },
        {
          "conceptId": "C100393",
          "definition": "The EuroQol (European Quality of Life) Five Dimension Three Level Scale (EQ-5D-3L) (copyright 1990 EuroQol Group EQ-5D. All Rights Reserved). Question 2.",
          "preferredTerm": "EQ-5D-3L - Question 2",
          "submissionValue": "EQ5D0102",
          "synonyms": [
            "EQ-5D-3L-Question 2"
          ]
        },
        {
          "conceptId": "C100394",
          "definition": "The EuroQol (European Quality of Life) Five Dimension Three Level Scale (EQ-5D-3L) (copyright 1990 EuroQol Group EQ-5D. All Rights Reserved). Question 3.",
          "preferredTerm": "EQ-5D-3L - Question 3",
          "submissionValue": "EQ5D0103",
          "synonyms": [
            "EQ-5D-3L-Question 3"
          ]
        },
        {
          "conceptId": "C100395",
          "definition": "The EuroQol (European Quality of Life) Five Dimension Three Level Scale (EQ-5D-3L) (copyright 1990 EuroQol Group EQ-5D. All Rights Reserved). Question 4.",
          "preferredTerm": "EQ-5D-3L - Question 4",
          "submissionValue": "EQ5D0104",
          "synonyms": [
            "EQ-5D-3L-Question 4"
          ]
        },
        {
          "conceptId": "C100396",
          "definition": "The EuroQol (European Quality of Life) Five Dimension Three Level Scale (EQ-5D-3L) (copyright 1990 EuroQol Group EQ-5D. All Rights Reserved). Question 5.",
          "preferredTerm": "EQ-5D-3L - Question 5",
          "submissionValue": "EQ5D0105",
          "synonyms": [
            "EQ-5D-3L-Question 5"
          ]
        },
        {
          "conceptId": "C100397",
          "definition": "The EuroQol (European Quality of Life) Five Dimension Three Level Scale (EQ-5D-3L) (copyright 1990 EuroQol Group EQ-5D. All Rights Reserved). Question 6.",
          "preferredTerm": "EQ-5D-3L - Question 6",
          "submissionValue": "EQ5D0106",
          "synonyms": [
            "EQ-5D-3L-Question 6"
          ]
        }
      ]
    },
    {
      "conceptId": "C100137",
      "definition": "The Hamilton Depression Rating Scale - 17 Item test name.",
      "extensible": "No",
      "name": "Hamilton Depression Rating Scale - 17 Item Test Name",
      "preferredTerm": "CDISC Questionnaire HAMD 17 Test Name Terminology",
      "submissionValue": "HAMD 17 TEST",
      "synonyms": [
        "Hamilton Depression Rating Scale - 17 Item Test Name"
      ],
      "terms": [
        {
          "conceptId": "C100398",
          "definition": "Hamilton Depression Rating Scale 17 Item - Depressed mood: sadness, hopeless, helpless, worthless.",
          "preferredTerm": "HAMD-17 - Depressed Mood",
          "submissionValue": "HAMD1-Depressed Mood",
          "synonyms": [
            "HAMD1-Depressed Mood"
          ]
        },
        {
          "conceptId": "C100399",
          "definition": "Hamilton Depression Rating Scale 17 Item - Feelings of guilt.",
          "preferredTerm": "HAMD-17 - Feelings of Guilt",
          "submissionValue": "HAMD1-Feelings of Guilt",
          "synonyms": [
            "HAMD1-Feelings of Guilt"
          ]
        },
        {
          "conceptId": "C100400",
          "definition": "Hamilton Depression Rating Scale 17 Item - Suicide.",
          "preferredTerm": "HAMD-17 - Suicide",
          "submissionValue": "HAMD1-Suicide",
          "synonyms": [
            "HAMD1-Suicide"
          ]
        },
        {
          "conceptId": "C100401",
          "definition": "Hamilton Depression Rating Scale 17 Item - Insomnia: early in the night.",
          "preferredTerm": "HAMD-17 - Insomnia - Early Night",
          "submissionValue": "HAMD1-Insomnia Early - Early Night",
          "synonyms": [
            "HAMD1-Insomnia Early - Early Night"
          ]
        },
        {
          "conceptId": "C100402",
          "definition": "Hamilton Depression Rating Scale 17 Item - Insomnia: middle of the night.",
          "preferredTerm": "HAMD-17 - Insomnia - Middle Night",
          "submissionValue": "HAMD1-Insomnia Middle - Middle Night",
          "synonyms": [
            "HAMD1-Insomnia Middle - Middle Night"
          ]
        },
        {
          "conceptId": "C100403",
          "definition": "Hamilton Depression Rating Scale 17 Item - Insomnia: early hours of the morning.",
          "preferredTerm": "HAMD-17 - Insomnia - Early Morning",
          "submissionValue": "HAMD1-Insomnia Early Hours - Morning",
          "synonyms": [
            "HAMD1-Insomnia Early Hours - Morning"
          ]
        },
        {
          "conceptId": "C100404",
          "definition": "Hamilton Depression Rating Scale 17 Item - Work and activities.",
          "preferredTerm": "HAMD-17 - Work and Activities",
          "submissionValue": "HAMD1-Work and Activities",
          "synonyms": [
            "HAMD1-Work and Activities"
          ]
        },
        {
          "conceptId": "C100405",
          "definition": "Hamilton Depression Rating Scale 17 Item - Retardation.",
          "preferredTerm": "HAMD-17 - Retardation",
          "submissionValue": "HAMD1-Retardation",
          "synonyms": [
            "HAMD1-Retardation"
          ]
        },
        {
          "conceptId": "C100406",
          "definition": "Hamilton Depression Rating Scale 17 Item - Agitation.",
          "preferredTerm": "HAMD-17 - Agitation",
          "submissionValue": "HAMD1-Agitation",
          "synonyms": [
            "HAMD1-Agitation"
          ]
        },
        {
          "conceptId": "C100407",
          "definition": "Hamilton Depression Rating Scale 17 Item - Anxiety psychic.",
          "preferredTerm": "HAMD-17 - Psychic Anxiety",
          "submissionValue": "HAMD1-Anxiety Psychic",
          "synonyms": [
            "HAMD1-Anxiety Psychic"
          ]
        },
        {
          "conceptId": "C100408",
          "definition": "Hamilton Depression Rating Scale 17 Item - Anxiety somatic: physiological concomitants of anxiety such as gastro-intestinal (dry mouth, wind, indigestion, diarrhea, cramps, belching), cardiovascular, (palpitations, headaches), respiratory (hyperventilation, sighing), urinary frequency, sweating.",
          "preferredTerm": "HAMD-17 - Somatic Anxiety",
          "submissionValue": "HAMD1-Anxiety Somatic",
          "synonyms": [
            "HAMD1-Anxiety Somatic"
          ]
        },
        {
          "conceptId": "C100409",
          "definition": "Hamilton Depression Rating Scale 17 Item - Somatic symptoms gastro-intestinal.",
          "preferredTerm": "HAMD-17 - Gastrointestinal Somatic Symptoms",
          "submissionValue": "HAMD1-Somatic Symptoms GI",
          "synonyms": [
            "HAMD1-Somatic Symptoms GI"
          ]
        },
        {
          "conceptId": "C100410",
          "definition": "Hamilton Depression Rating Scale 17 Item - General somatic symptoms.",
          "preferredTerm": "HAMD-17 - General Somatic Symptoms",
          "submissionValue": "HAMD1-General Somatic Symptoms",
          "synonyms": [
            "HAMD1-General Somatic Symptoms"
          ]
        },
        {
          "conceptId": "C100411",
          "definition": "Hamilton Depression Rating Scale 17 Item - Genital symptoms: symptoms such as loss of libido, menstrual disturbances.",
          "preferredTerm": "HAMD-17 - Genital Symptoms",
          "submissionValue": "HAMD1-Genital Symptoms",
          "synonyms": [
            "HAMD1-Genital Symptoms"
          ]
        },
        {
          "conceptId": "C100412",
          "definition": "Hamilton Depression Rating Scale 17 Item - Hypochondriasis.",
          "preferredTerm": "HAMD-17 - Hypochondriasis",
          "submissionValue": "HAMD1-Hypochondriasis",
          "synonyms": [
            "HAMD1-Hypochondriasis"
          ]
        },
        {
          "conceptId": "C100413",
          "definition": "Hamilton Depression Rating Scale 17 Item - Loss of weight according to the patient.",
          "preferredTerm": "HAMD-17 - Loss of Weight According to Patient",
          "submissionValue": "HAMD1-Loss of WT According to Patient",
          "synonyms": [
            "HAMD1-Loss of WT According to Patient"
          ]
        },
        {
          "conceptId": "C100414",
          "definition": "Hamilton Depression Rating Scale 17 Item - Loss of weight according to weekly measurements.",
          "preferredTerm": "HAMD-17 - Loss of Weight According to Weekly Measurements",
          "submissionValue": "HAMD1-Loss of WT According to WK Meas",
          "synonyms": [
            "HAMD1-Loss of WT According to WK Meas"
          ]
        },
        {
          "conceptId": "C100415",
          "definition": "Hamilton Depression Rating Scale 17 Item - Insight.",
          "preferredTerm": "HAMD-17 - Insight",
          "submissionValue": "HAMD1-Insight",
          "synonyms": [
            "HAMD1-Insight"
          ]
        },
        {
          "conceptId": "C100416",
          "definition": "Hamilton Depression Rating Scale 17 Item - Total Score.",
          "preferredTerm": "HAMD-17 - Total Score",
          "submissionValue": "HAMD1-Total Score",
          "synonyms": [
            "HAMD1-Total Score"
          ]
        }
      ]
    },
    {
      "conceptId": "C100138",
      "definition": "The Hamilton Depression Rating Scale - 17 Item test code.",
      "extensible": "No",
      "name": "Hamilton Depression Rating Scale - 17 Item Test Code",
      "preferredTerm": "CDISC Questionnaire HAMD 17 Test Code Terminology",
      "submissionValue": "HAMD 17 TESTCD",
      "synonyms": [
        "Hamilton Depression Rating Scale - 17 Item Test Code"
      ],
      "terms": [
        {
          "conceptId": "C100398",
          "definition": "Hamilton Depression Rating Scale 17 Item - Depressed mood: sadness, hopeless, helpless, worthless.",
          "preferredTerm": "HAMD-17 - Depressed Mood",
          "submissionValue": "HAMD101",
          "synonyms": [
            "HAMD1-Depressed Mood"
          ]
        },
        {
          "conceptId": "C100399",
          "definition": "Hamilton Depression Rating Scale 17 Item - Feelings of guilt.",
          "preferredTerm": "HAMD-17 - Feelings of Guilt",
          "submissionValue": "HAMD102",
          "synonyms": [
            "HAMD1-Feelings of Guilt"
          ]
        },
        {
          "conceptId": "C100400",
          "definition": "Hamilton Depression Rating Scale 17 Item - Suicide.",
          "preferredTerm": "HAMD-17 - Suicide",
          "submissionValue": "HAMD103",
          "synonyms": [
            "HAMD1-Suicide"
          ]
        },
        {
          "conceptId": "C100401",
          "definition": "Hamilton Depression Rating Scale 17 Item - Insomnia: early in the night.",
          "preferredTerm": "HAMD-17 - Insomnia - Early Night",
          "submissionValue": "HAMD104",
          "synonyms": [
            "HAMD1-Insomnia Early - Early Night"
          ]
        },
        {
          "conceptId": "C100402",
          "definition": "Hamilton Depression Rating Scale 17 Item - Insomnia: middle of the night.",
          "preferredTerm": "HAMD-17 - Insomnia - Middle Night",
          "submissionValue": "HAMD105",
          "synonyms": [
            "HAMD1-Insomnia Middle - Middle Night"
          ]
        },
        {
          "conceptId": "C100403",
          "definition": "Hamilton Depression Rating Scale 17 Item - Insomnia: early hours of the morning.",
          "preferredTerm": "HAMD-17 - Insomnia - Early Morning",
          "submissionValue": "HAMD106",
          "synonyms": [
            "HAMD1-Insomnia Early Hours - Morning"
          ]
        },
        {
          "conceptId": "C100404",
          "definition": "Hamilton Depression Rating Scale 17 Item - Work and activities.",
          "preferredTerm": "HAMD-17 - Work and Activities",
          "submissionValue": "HAMD107",
          "synonyms": [
            "HAMD1-Work and Activities"
          ]
        },
        {
          "conceptId": "C100405",
          "definition": "Hamilton Depression Rating Scale 17 Item - Retardation.",
          "preferredTerm": "HAMD-17 - Retardation",
          "submissionValue": "HAMD108",
          "synonyms": [
            "HAMD1-Retardation"
          ]
        },
        {
          "conceptId": "C100406",
          "definition": "Hamilton Depression Rating Scale 17 Item - Agitation.",
          "preferredTerm": "HAMD-17 - Agitation",
          "submissionValue": "HAMD109",
          "synonyms": [
            "HAMD1-Agitation"
          ]
        },
        {
          "conceptId": "C100407",
          "definition": "Hamilton Depression Rating Scale 17 Item - Anxiety psychic.",
          "preferredTerm": "HAMD-17 - Psychic Anxiety",
          "submissionValue": "HAMD110",
          "synonyms": [
            "HAMD1-Anxiety Psychic"
          ]
        },
        {
          "conceptId": "C100408",
          "definition": "Hamilton Depression Rating Scale 17 Item - Anxiety somatic: physiological concomitants of anxiety such as gastro-intestinal (dry mouth, wind, indigestion, diarrhea, cramps, belching), cardiovascular, (palpitations, headaches), respiratory (hyperventilation, sighing), urinary frequency, sweating.",
          "preferredTerm": "HAMD-17 - Somatic Anxiety",
          "submissionValue": "HAMD111",
          "synonyms": [
            "HAMD1-Anxiety Somatic"
          ]
        },
        {
          "conceptId": "C100409",
          "definition": "Hamilton Depression Rating Scale 17 Item - Somatic symptoms gastro-intestinal.",
          "preferredTerm": "HAMD-17 - Gastrointestinal Somatic Symptoms",
          "submissionValue": "HAMD112",
          "synonyms": [
            "HAMD1-Somatic Symptoms GI"
          ]
        },
        {
          "conceptId": "C100410",
          "definition": "Hamilton Depression Rating Scale 17 Item - General somatic symptoms.",
          "preferredTerm": "HAMD-17 - General Somatic Symptoms",
          "submissionValue": "HAMD0113",
          "synonyms": [
            "HAMD1-General Somatic Symptoms"
          ]
        },
        {
          "conceptId": "C100411",
          "definition": "Hamilton Depression Rating Scale 17 Item - Genital symptoms: symptoms such as loss of libido, menstrual disturbances.",
          "preferredTerm": "HAMD-17 - Genital Symptoms",
          "submissionValue": "HAMD114",
          "synonyms": [
            "HAMD1-Genital Symptoms"
          ]
        },
        {
          "conceptId": "C100412",
          "definition": "Hamilton Depression Rating Scale 17 Item - Hypochondriasis.",
          "preferredTerm": "HAMD-17 - Hypochondriasis",
          "submissionValue": "HAMD115",
          "synonyms": [
            "HAMD1-Hypochondriasis"
          ]
        },
        {
          "conceptId": "C100413",
          "definition": "Hamilton Depression Rating Scale 17 Item - Loss of weight according to the patient.",
          "preferredTerm": "HAMD-17 - Loss of Weight According to Patient",
          "submissionValue": "HAMD116A",
          "synonyms": [
            "HAMD1-Loss of WT According to Patient"
          ]
        },
        {
          "conceptId": "C100414",
          "definition": "Hamilton Depression Rating Scale 17 Item - Loss of weight according to weekly measurements.",
          "preferredTerm": "HAMD-17 - Loss of Weight According to Weekly Measurements",
          "submissionValue": "HAMD116B",
          "synonyms": [
            "HAMD1-Loss of WT According to WK Meas"
          ]
        },
        {
          "conceptId": "C100415",
          "definition": "Hamilton Depression Rating Scale 17 Item - Insight.",
          "preferredTerm": "HAMD-17 - Insight",
          "submissionValue": "HAMD117",
          "synonyms": [
            "HAMD1-Insight"
          ]
        },
        {
          "conceptId": "C100416",
          "definition": "Hamilton Depression Rating Scale 17 Item - Total Score.",
          "preferredTerm": "HAMD-17 - Total Score",
          "submissionValue": "HAMD118",
          "synonyms": [
            "HAMD1-Total Score"
          ]
        }
      ]
    },
    {
      "conceptId": "C100139",
      "definition": "The Movement Disorder Society version of the Unified Parkinson's Disease Rating Scale test name.",
      "extensible": "No",
      "name": "Movement Disorder Society UPDRS Test Name",
      "preferredTerm": "CDISC Questionnaire MDS-UPDRS Test Name Terminology",
      "submissionValue": "MDS-UPDRS TEST",
      "synonyms": [
        "Movement Disorder Society UPDRS Test Name"
      ],
      "terms": [
        {
          "conceptId": "C101018",
          "definition": "The Movement Disorder Society version of the Unified Parkinson's Disease Rating Scale - Over the past week, have you usually had trouble getting out of bed, a car seat, or a deep chair?",
          "preferredTerm": "MDS-UPDRS - Get Out of Bed, Car, or Deep Chair",
          "submissionValue": "UPD2-Get Out of Bed/Car/Deep Chair",
          "synonyms": [
            "UPD2-Get Out of Bed/Car/Deep Chair"
          ]
        },
        {
          "conceptId": "C100473",
          "definition": "The Movement Disorder Society version of the Unified Parkinson's Disease Rating Scale - Over the past week have you had problems remembering things, following conversations, paying attention, thinking clearly, or finding your way around the house or in town?",
          "preferredTerm": "MDS-UPDRS - Cognitive Impairment",
          "submissionValue": "UPD2-Cognitive Impairment",
          "synonyms": [
            "UPD2-Cognitive Impairment"
          ]
        },
        {
          "conceptId": "C100474",
          "definition": "The Movement Disorder Society version of the Unified Parkinson's Disease Rating Scale - Over the past week have you seen, heard, smelled or felt things that were not really there?",
          "preferredTerm": "MDS-UPDRS - Hallucinations and Psychosis",
          "submissionValue": "UPD2-Hallucinations and Psychosis",
          "synonyms": [
            "UPD2-Hallucinations and Psychosis"
          ]
        },
        {
          "conceptId": "C100475",
          "definition": "The Movement Disorder Society version of the Unified Parkinson's Disease Rating Scale - Over the past week have you felt low, sad, hopeless or unable to enjoy things? If yes, was this feeling for longer than one day at a time? Did it make it difficult for you carry out your usual activities or to be with people?",
          "preferredTerm": "MDS-UPDRS - Depressed Mood",
          "submissionValue": "UPD2-Depressed Mood",
          "synonyms": [
            "UPD2-Depressed Mood"
          ]
        },
        {
          "conceptId": "C100476",
          "definition": "The Movement Disorder Society version of the Unified Parkinson's Disease Rating Scale - Over the past week have you felt nervous, worried or tense? If yes, was this feeling for longer than one day at a time? Did it make it difficult for you to follow your usual activities or to be with other people?",
          "preferredTerm": "MDS-UPDRS - Anxious Mood",
          "submissionValue": "UPD2-Anxious Mood",
          "synonyms": [
            "UPD2-Anxious Mood"
          ]
        },
        {
          "conceptId": "C100477",
          "definition": "The Movement Disorder Society version of the Unified Parkinson's Disease Rating Scale - Over the past week, have you felt indifferent to doing activities or being with people?",
          "preferredTerm": "MDS-UPDRS - Apathy",
          "submissionValue": "UPD2-Apathy",
          "synonyms": [
            "UPD2-Apathy"
          ]
        },
        {
          "conceptId": "C100478",
          "definition": "The Movement Disorder Society version of the Unified Parkinson's Disease Rating Scale - Over the past week, have you had unusually strong urges that are hard to control? Do you feel driven to do or think about something and find it hard to stop?",
          "preferredTerm": "MDS-UPDRS - Features of Dopamine Dysregulation Syndrome",
          "submissionValue": "UPD2-Ftrs Dopa Dysregulation Synd",
          "synonyms": [
            "UPD2-Ftrs Dopa Dysregulation Synd"
          ]
        },
        {
          "conceptId": "C100479",
          "definition": "The Movement Disorder Society version of the Unified Parkinson's Disease Rating Scale - Over the past week, have you had trouble going to sleep at night or staying asleep through the night?",
          "preferredTerm": "MDS-UPDRS - Sleep Problems",
          "submissionValue": "UPD2-Sleep Problems",
          "synonyms": [
            "UPD2-Sleep Problems"
          ]
        },
        {
          "conceptId": "C100480",
          "definition": "The Movement Disorder Society version of the Unified Parkinson's Disease Rating Scale - Over the past week, have you had trouble staying awake during the daytime?",
          "preferredTerm": "MDS-UPDRS - Daytime Sleepiness",
          "submissionValue": "UPD2-Daytime Sleepiness",
          "synonyms": [
            "UPD2-Daytime Sleepiness"
          ]
        },
        {
          "conceptId": "C100481",
          "definition": "The Movement Disorder Society version of the Unified Parkinson's Disease Rating Scale - Over the past week, have you had uncomfortable feelings in your body like pain, aches tingling or cramps?",
          "preferredTerm": "MDS-UPDRS - Pain and Other Sensations",
          "submissionValue": "UPD2-Pain and other Sensations",
          "synonyms": [
            "UPD2-Pain and other Sensations"
          ]
        },
        {
          "conceptId": "C100482",
          "definition": "The Movement Disorder Society version of the Unified Parkinson's Disease Rating Scale - Over the past week, have you had trouble with urine control?",
          "preferredTerm": "MDS-UPDRS - Urinary Problems",
          "submissionValue": "UPD2-Urinary Problems",
          "synonyms": [
            "UPD2-Urinary Problems"
          ]
        },
        {
          "conceptId": "C100483",
          "definition": "The Movement Disorder Society version of the Unified Parkinson's Disease Rating Scale - Over the past week have you had constipation troubles that cause you difficulty moving your bowels?",
          "preferredTerm": "MDS-UPDRS - Constipation Problems",
          "submissionValue": "UPD2-Constipation Problems",
          "synonyms": [
            "UPD2-Constipation Problems"
          ]
        },
        {
          "conceptId": "C100484",
          "definition": "The Movement Disorder Society version of the Unified Parkinson's Disease Rating Scale - Over the past week, have you felt faint, dizzy or foggy when you stand up after sitting or lying down?",
          "preferredTerm": "MDS-UPDRS - Lightheadedness on Standing",
          "submissionValue": "UPD2-Lightheadedness on Standing",
          "synonyms": [
            "UPD2-Lightheadedness on Standing"
          ]
        },
        {
          "conceptId": "C100485",
          "definition": "The Movement Disorder Society version of the Unified Parkinson's Disease Rating Scale - Over the past week, have you usually felt fatigued?",
          "preferredTerm": "MDS-UPDRS - Fatigue",
          "submissionValue": "UPD2-Fatigue",
          "synonyms": [
            "UPD2-Fatigue"
          ]
        },
        {
          "conceptId": "C100486",
          "definition": "The Movement Disorder Society version of the Unified Parkinson's Disease Rating Scale - Over the past week, have you had problems with your speech?",
          "preferredTerm": "MDS-UPDRS - Speech",
          "submissionValue": "UPD2-Speech",
          "synonyms": [
            "UPD2-Speech"
          ]
        },
        {
          "conceptId": "C100487",
          "definition": "The Movement Disorder Society version of the Unified Parkinson's Disease Rating Scale - Over the past week, have you usually had too much saliva during when you are awake or when you sleep?",
          "preferredTerm": "MDS-UPDRS - Saliva and Drooling",
          "submissionValue": "UPD2-Saliva and Drooling",
          "synonyms": [
            "UPD2-Saliva and Drooling"
          ]
        },
        {
          "conceptId": "C100488",
          "definition": "The Movement Disorder Society version of the Unified Parkinson's Disease Rating Scale - Over the past week, have you usually had problems swallowing pills or eating meals?",
          "preferredTerm": "MDS-UPDRS - Chewing and Swallowing",
          "submissionValue": "UPD2-Chewing and Swallowing",
          "synonyms": [
            "UPD2-Chewing and Swallowing"
          ]
        },
        {
          "conceptId": "C100489",
          "definition": "The Movement Disorder Society version of the Unified Parkinson's Disease Rating Scale - Over the past week, have you usually had troubles handling your food and using eating utensils?",
          "preferredTerm": "MDS-UPDRS - Eating Tasks",
          "submissionValue": "UPD2-Eating Tasks",
          "synonyms": [
            "UPD2-Eating Tasks"
          ]
        },
        {
          "conceptId": "C100490",
          "definition": "The Movement Disorder Society version of the Unified Parkinson's Disease Rating Scale - Over the past week, have you usually had problems dressing?",
          "preferredTerm": "MDS-UPDRS - Dressing",
          "submissionValue": "UPD2-Dressing",
          "synonyms": [
            "UPD2-Dressing"
          ]
        },
        {
          "conceptId": "C100491",
          "definition": "The Movement Disorder Society version of the Unified Parkinson's Disease Rating Scale - Over the past week, have you usually been slow or do you need help with washing, bathing, shaving, brushing teeth, combing your hair or with other personal hygiene?",
          "preferredTerm": "MDS-UPDRS - Hygiene",
          "submissionValue": "UPD2-Hygiene",
          "synonyms": [
            "UPD2-Hygiene"
          ]
        },
        {
          "conceptId": "C100492",
          "definition": "The Movement Disorder Society version of the Unified Parkinson's Disease Rating Scale - Over the past week, have people usually had trouble reading your handwriting?",
          "preferredTerm": "MDS-UPDRS - Handwriting",
          "submissionValue": "UPD2-Handwriting",
          "synonyms": [
            "UPD2-Handwriting"
          ]
        },
        {
          "conceptId": "C100493",
          "definition": "The Movement Disorder Society version of the Unified Parkinson's Disease Rating Scale - Over the past week, have you usually had trouble doing your hobbies or other things that you like to do?",
          "preferredTerm": "MDS-UPDRS - Doing Hobbies and Other Activities",
          "submissionValue": "UPD2-Doing Hobbies/Other Activities",
          "synonyms": [
            "UPD2-Doing Hobbies/Other Activities"
          ]
        },
        {
          "conceptId": "C100494",
          "definition": "The Movement Disorder Society version of the Unified Parkinson's Disease Rating Scale - Over the past week, do you usually have trouble turning over in bed?",
          "preferredTerm": "MDS-UPDRS - Turning in Bed",
          "submissionValue": "UPD2-Turning in Bed",
          "synonyms": [
            "UPD2-Turning in Bed"
          ]
        },
        {
          "conceptId": "C100495",
          "definition": "The Movement Disorder Society version of the Unified Parkinson's Disease Rating Scale - Over the past week, have you usually had shaking or tremor?",
          "preferredTerm": "MDS-UPDRS - Tremor",
          "submissionValue": "UPD2-Tremor",
          "synonyms": [
            "UPD2-Tremor"
          ]
        },
        {
          "conceptId": "C100496",
          "definition": "The Movement Disorder Society version of the Unified Parkinson's Disease Rating Scale - Over the past week, have you usually had problems with balance and walking?",
          "preferredTerm": "MDS-UPDRS - Walking and Balance",
          "submissionValue": "UPD2-Walking and Balance",
          "synonyms": [
            "UPD2-Walking and Balance"
          ]
        },
        {
          "conceptId": "C100497",
          "definition": "The Movement Disorder Society version of the Unified Parkinson's Disease Rating Scale - Over the past week, on your usual day when walking, do you suddenly stop or freeze as if your feet are stuck to the floor?",
          "preferredTerm": "MDS-UPDRS - Freezing",
          "submissionValue": "UPD2-Freezing",
          "synonyms": [
            "UPD2-Freezing"
          ]
        },
        {
          "conceptId": "C100498",
          "definition": "The Movement Disorder Society version of the Unified Parkinson's Disease Rating Scale - Is the patient on medication for treating the symptoms of Parkinson's Disease?",
          "preferredTerm": "MDS-UPDRS - Medication for Parkinson's Disease",
          "submissionValue": "UPD2-Medication for PD",
          "synonyms": [
            "UPD2-Medication for PD"
          ]
        },
        {
          "conceptId": "C100499",
          "definition": "The Movement Disorder Society version of the Unified Parkinson's Disease Rating Scale - If the patient is receiving medication for treating the symptoms of Parkinson's Disease, mark the patient's clinical state.",
          "preferredTerm": "MDS-UPDRS - Clinical State on Medication",
          "submissionValue": "UPD2-Clinical State on Meds",
          "synonyms": [
            "UPD2-Clinical State on Meds"
          ]
        },
        {
          "conceptId": "C100500",
          "definition": "The Movement Disorder Society version of the Unified Parkinson's Disease Rating Scale - Is the patient on Levodopa?",
          "preferredTerm": "MDS-UPDRS - Taking Levodopa",
          "submissionValue": "UPD2-Taking Levodopa",
          "synonyms": [
            "UPD2-Taking Levodopa"
          ]
        },
        {
          "conceptId": "C100501",
          "definition": "The Movement Disorder Society version of the Unified Parkinson's Disease Rating Scale - Minutes since last Levodopa dose.",
          "preferredTerm": "MDS-UPDRS - Minutes Since Levodopa Dose",
          "submissionValue": "UPD2-Minutes Since Levodopa Dose",
          "synonyms": [
            "UPD2-Minutes Since Levodopa Dose"
          ]
        },
        {
          "conceptId": "C100502",
          "definition": "The Movement Disorder Society version of the Unified Parkinson's Disease Rating Scale - Speech Problems.",
          "preferredTerm": "MDS-UPDRS - Speech Problems",
          "submissionValue": "UPD2-Speech Problems",
          "synonyms": [
            "UPD2-Speech Problems"
          ]
        },
        {
          "conceptId": "C100503",
          "definition": "The Movement Disorder Society version of the Unified Parkinson's Disease Rating Scale - Facial Expression.",
          "preferredTerm": "MDS-UPDRS - Facial Expression",
          "submissionValue": "UPD2-Facial Expression",
          "synonyms": [
            "UPD2-Facial Expression"
          ]
        },
        {
          "conceptId": "C100504",
          "definition": "The Movement Disorder Society version of the Unified Parkinson's Disease Rating Scale - Rigidity Neck.",
          "preferredTerm": "MDS-UPDRS - Rigidity Neck",
          "submissionValue": "UPD2-Rigidity Neck",
          "synonyms": [
            "UPD2-Rigidity Neck"
          ]
        },
        {
          "conceptId": "C100505",
          "definition": "The Movement Disorder Society version of the Unified Parkinson's Disease Rating Scale - Rigidity Right Upper Extremity.",
          "preferredTerm": "MDS-UPDRS - Rigidity Right Upper Extremity",
          "submissionValue": "UPD2-Rigidity RT Upper Extremity",
          "synonyms": [
            "UPD2-Rigidity RT Upper Extremity"
          ]
        },
        {
          "conceptId": "C100506",
          "definition": "The Movement Disorder Society version of the Unified Parkinson's Disease Rating Scale - Rigidity Left Upper Extremity.",
          "preferredTerm": "MDS-UPDRS - Rigidity Left Upper Extremity",
          "submissionValue": "UPD2-Rigidity Left Upper Extremity",
          "synonyms": [
            "UPD2-Rigidity Left Upper Extremity"
          ]
        },
        {
          "conceptId": "C100507",
          "definition": "The Movement Disorder Society version of the Unified Parkinson's Disease Rating Scale - Rigidity Right Lower Extremity.",
          "preferredTerm": "MDS-UPDRS - Rigidity Right Lower Extremity",
          "submissionValue": "UPD2-Rigidity RT Lower Extremity",
          "synonyms": [
            "UPD2-Rigidity RT Lower Extremity"
          ]
        },
        {
          "conceptId": "C100508",
          "definition": "The Movement Disorder Society version of the Unified Parkinson's Disease Rating Scale - Rigidity Left Lower Extremity.",
          "preferredTerm": "MDS-UPDRS - Rigidity Left Lower Extremity",
          "submissionValue": "UPD2-Rigidity Left Lower Extremity",
          "synonyms": [
            "UPD2-Rigidity Left Lower Extremity"
          ]
        },
        {
          "conceptId": "C100509",
          "definition": "The Movement Disorder Society version of the Unified Parkinson's Disease Rating Scale - Right Finger Tapping.",
          "preferredTerm": "MDS-UPDRS - Right Finger Tapping",
          "submissionValue": "UPD2-Right Finger Tapping",
          "synonyms": [
            "UPD2-Right Finger Tapping"
          ]
        },
        {
          "conceptId": "C100510",
          "definition": "The Movement Disorder Society version of the Unified Parkinson's Disease Rating Scale - Left Finger Tapping.",
          "preferredTerm": "MDS-UPDRS - Left Finger Tapping",
          "submissionValue": "UPD2-Left Finger Tapping",
          "synonyms": [
            "UPD2-Left Finger Tapping"
          ]
        },
        {
          "conceptId": "C100511",
          "definition": "The Movement Disorder Society version of the Unified Parkinson's Disease Rating Scale - Right Hand Movements.",
          "preferredTerm": "MDS-UPDRS - Right Hand Movements",
          "submissionValue": "UPD2-Right Hand Movements",
          "synonyms": [
            "UPD2-Right Hand Movements"
          ]
        },
        {
          "conceptId": "C100512",
          "definition": "The Movement Disorder Society version of the Unified Parkinson's Disease Rating Scale - Left Hand Movements.",
          "preferredTerm": "MDS-UPDRS - Left Hand Movements",
          "submissionValue": "UPD2-Left Hand Movements",
          "synonyms": [
            "UPD2-Left Hand Movements"
          ]
        },
        {
          "conceptId": "C100513",
          "definition": "The Movement Disorder Society version of the Unified Parkinson's Disease Rating Scale - Pronation-Supination Movements of Right Hand.",
          "preferredTerm": "MDS-UPDRS - Pronanation-Supination Movement of Right Hand",
          "submissionValue": "UPD2-Pron/Sup Movement of RT Hand",
          "synonyms": [
            "UPD2-Pron/Sup Movement of RT Hand"
          ]
        },
        {
          "conceptId": "C100514",
          "definition": "The Movement Disorder Society version of the Unified Parkinson's Disease Rating Scale - Pronation-Supination Movements of Left Hand.",
          "preferredTerm": "MDS-UPDRS - Pronanation-Supination Movement of Left Hand",
          "submissionValue": "UPD2-Pron/Sup Movement of Left Hand",
          "synonyms": [
            "UPD2-Pron/Sup Movement of Left Hand"
          ]
        },
        {
          "conceptId": "C100515",
          "definition": "The Movement Disorder Society version of the Unified Parkinson's Disease Rating Scale - Right Toe Tapping.",
          "preferredTerm": "MDS-UPDRS - Right Toe Tapping",
          "submissionValue": "UPD2-Right Toe Tapping",
          "synonyms": [
            "UPD2-Right Toe Tapping"
          ]
        },
        {
          "conceptId": "C100516",
          "definition": "The Movement Disorder Society version of the Unified Parkinson's Disease Rating Scale - Left Toe Tapping.",
          "preferredTerm": "MDS-UPDRS - Left Toe Tapping",
          "submissionValue": "UPD2-Left Toe Tapping",
          "synonyms": [
            "UPD2-Left Toe Tapping"
          ]
        },
        {
          "conceptId": "C100517",
          "definition": "The Movement Disorder Society version of the Unified Parkinson's Disease Rating Scale - Right Leg Agility.",
          "preferredTerm": "MDS-UPDRS - Right Leg Agility",
          "submissionValue": "UPD2-Right Leg Agility",
          "synonyms": [
            "UPD2-Right Leg Agility"
          ]
        },
        {
          "conceptId": "C100518",
          "definition": "The Movement Disorder Society version of the Unified Parkinson's Disease Rating Scale - Left Leg Agility.",
          "preferredTerm": "MDS-UPDRS - Left Leg Agility",
          "submissionValue": "UPD2-Left Leg Agility",
          "synonyms": [
            "UPD2-Left Leg Agility"
          ]
        },
        {
          "conceptId": "C100519",
          "definition": "The Movement Disorder Society version of the Unified Parkinson's Disease Rating Scale - Arising from Chair.",
          "preferredTerm": "MDS-UPDRS - Arising from Chair",
          "submissionValue": "UPD2-Arising from Chair",
          "synonyms": [
            "UPD2-Arising from Chair"
          ]
        },
        {
          "conceptId": "C100520",
          "definition": "The Movement Disorder Society version of the Unified Parkinson's Disease Rating Scale - Gait.",
          "preferredTerm": "MDS-UPDRS - Gait",
          "submissionValue": "UPD2-Gait",
          "synonyms": [
            "UPD2-Gait"
          ]
        },
        {
          "conceptId": "C100521",
          "definition": "The Movement Disorder Society version of the Unified Parkinson's Disease Rating Scale - Freezing of Gait.",
          "preferredTerm": "MDS-UPDRS - Freezing of Gait",
          "submissionValue": "UPD2-Freezing of Gait",
          "synonyms": [
            "UPD2-Freezing of Gait"
          ]
        },
        {
          "conceptId": "C100522",
          "definition": "The Movement Disorder Society version of the Unified Parkinson's Disease Rating Scale - Postural Stability.",
          "preferredTerm": "MDS-UPDRS - Postural Stability",
          "submissionValue": "UPD2-Postural Stability",
          "synonyms": [
            "UPD2-Postural Stability"
          ]
        },
        {
          "conceptId": "C100523",
          "definition": "The Movement Disorder Society version of the Unified Parkinson's Disease Rating Scale - Posture.",
          "preferredTerm": "MDS-UPDRS - Posture",
          "submissionValue": "UPD2-Posture",
          "synonyms": [
            "UPD2-Posture"
          ]
        },
        {
          "conceptId": "C100524",
          "definition": "The Movement Disorder Society version of the Unified Parkinson's Disease Rating Scale - Global Spontaneity of Movement (Body Bradykinesia).",
          "preferredTerm": "MDS-UPDRS - Body Bradykinesia",
          "submissionValue": "UPD2-Body Bradykinesia",
          "synonyms": [
            "UPD2-Body Bradykinesia"
          ]
        },
        {
          "conceptId": "C100525",
          "definition": "The Movement Disorder Society version of the Unified Parkinson's Disease Rating Scale - Postural Tremor of the Right Hand.",
          "preferredTerm": "MDS-UPDRS - Postural Tremor of Right Hand",
          "submissionValue": "UPD2-Postural Tremor of Right Hand",
          "synonyms": [
            "UPD2-Postural Tremor of Right Hand"
          ]
        },
        {
          "conceptId": "C100526",
          "definition": "The Movement Disorder Society version of the Unified Parkinson's Disease Rating Scale - Kinetic Tremor of the Left Hand.",
          "preferredTerm": "MDS-UPDRS - Kinetic Tremor of Left Hand",
          "submissionValue": "UPD2-Kinetic Tremor of Left Hand",
          "synonyms": [
            "UPD2-Kinetic Tremor of Left Hand"
          ]
        },
        {
          "conceptId": "C100527",
          "definition": "The Movement Disorder Society version of the Unified Parkinson's Disease Rating Scale - Rest Tremor Amplitude Right Upper Extremity.",
          "preferredTerm": "MDS-UPDRS - Rest Tremor Amplitude Right Upper Extremity",
          "submissionValue": "UPD2-Rest Tremor Amplitude RUE",
          "synonyms": [
            "UPD2-Rest Tremor Amplitude RUE"
          ]
        },
        {
          "conceptId": "C100528",
          "definition": "The Movement Disorder Society version of the Unified Parkinson's Disease Rating Scale - Rest Tremor Amplitude Left Upper Extremity.",
          "preferredTerm": "MDS-UPDRS - Rest Tremor Amplitude Left Upper Extremity",
          "submissionValue": "UPD2-Rest Tremor Amplitude LUE",
          "synonyms": [
            "UPD2-Rest Tremor Amplitude LUE"
          ]
        },
        {
          "conceptId": "C100529",
          "definition": "The Movement Disorder Society version of the Unified Parkinson's Disease Rating Scale - Rest Tremor Amplitude Right Lower Extremity.",
          "preferredTerm": "MDS-UPDRS - Rest Tremor Amplitude Right Lower Extremity",
          "submissionValue": "UPD2-Rest Tremor Amplitude RLE",
          "synonyms": [
            "UPD2-Rest Tremor Amplitude RLE"
          ]
        },
        {
          "conceptId": "C100530",
          "definition": "The Movement Disorder Society version of the Unified Parkinson's Disease Rating Scale - Rest Tremor Amplitude Left Lower Extremity.",
          "preferredTerm": "MDS-UPDRS - Rest Tremor Amplitude Left Lower Extremity",
          "submissionValue": "UPD2-Rest Tremor Amplitude LLE",
          "synonyms": [
            "UPD2-Rest Tremor Amplitude LLE"
          ]
        },
        {
          "conceptId": "C100531",
          "definition": "The Movement Disorder Society version of the Unified Parkinson's Disease Rating Scale - Rest Tremor Amplitude Lip/Jaw.",
          "preferredTerm": "MDS-UPDRS - Rest Tremor Amplitude Lip or Jaw",
          "submissionValue": "UPD2-Rest Tremor Amplitude Lip/Jaw",
          "synonyms": [
            "UPD2-Rest Tremor Amplitude Lip/Jaw"
          ]
        },
        {
          "conceptId": "C100532",
          "definition": "The Movement Disorder Society version of the Unified Parkinson's Disease Rating Scale - Consistency of Rest Tremor.",
          "preferredTerm": "MDS-UPDRS - Consistency of Rest Tremor",
          "submissionValue": "UPD2-Consistency of Rest Tremor",
          "synonyms": [
            "UPD2-Consistency of Rest Tremor"
          ]
        },
        {
          "conceptId": "C100533",
          "definition": "The Movement Disorder Society version of the Unified Parkinson's Disease Rating Scale - Were dyskinesias (chorea or dystonia) present during examination?",
          "preferredTerm": "MDS-UPDRS - Dyskinesias During Exam",
          "submissionValue": "UPD2-Dyskinesias During Exam",
          "synonyms": [
            "UPD2-Dyskinesias During Exam"
          ]
        },
        {
          "conceptId": "C100534",
          "definition": "The Movement Disorder Society version of the Unified Parkinson's Disease Rating Scale - If yes, did these movements interfere with your ratings?",
          "preferredTerm": "MDS-UPDRS - Movements Interfere with Ratings",
          "submissionValue": "UPD2-Movements Interfere Ratings",
          "synonyms": [
            "UPD2-Movements Interfere Ratings"
          ]
        },
        {
          "conceptId": "C100535",
          "definition": "The Movement Disorder Society version of the Unified Parkinson's Disease Rating Scale - Hoehn and Yahr Stage.",
          "preferredTerm": "MDS-UPDRS - Hoehn and Yahr Stage",
          "submissionValue": "UPD2-Hoehn and Yahr Stage",
          "synonyms": [
            "UPD2-Hoehn and Yahr Stage"
          ]
        },
        {
          "conceptId": "C100536",
          "definition": "The Movement Disorder Society version of the Unified Parkinson's Disease Rating Scale - Time Spent with Dyskinesias.",
          "preferredTerm": "MDS-UPDRS - Time Spent with Dyskinesias",
          "submissionValue": "UPD2-Time Spent with Dyskinesias",
          "synonyms": [
            "UPD2-Time Spent with Dyskinesias"
          ]
        },
        {
          "conceptId": "C100537",
          "definition": "The Movement Disorder Society version of the Unified Parkinson's Disease Rating Scale - Functional Impact of Dyskinesias.",
          "preferredTerm": "MDS-UPDRS - Functional Impact of Dyskinesias",
          "submissionValue": "UPD2-Functional Impact Dyskinesias",
          "synonyms": [
            "UPD2-Functional Impact Dyskinesias"
          ]
        },
        {
          "conceptId": "C100538",
          "definition": "The Movement Disorder Society version of the Unified Parkinson's Disease Rating Scale - Time Spent in the Off State.",
          "preferredTerm": "MDS-UPDRS - Time Spent in the Off State",
          "submissionValue": "UPD2-Time Spent in the Off State",
          "synonyms": [
            "UPD2-Time Spent in the Off State"
          ]
        },
        {
          "conceptId": "C100539",
          "definition": "The Movement Disorder Society version of the Unified Parkinson's Disease Rating Scale - Functional Impact of Fluctuations.",
          "preferredTerm": "MDS-UPDRS - Functional Impact of Fluctuations",
          "submissionValue": "UPD2-Functional Impact Fluctuations",
          "synonyms": [
            "UPD2-Functional Impact Fluctuations"
          ]
        },
        {
          "conceptId": "C100540",
          "definition": "The Movement Disorder Society version of the Unified Parkinson's Disease Rating Scale - Complexity of Motor Fluctuations.",
          "preferredTerm": "MDS-UPDRS - Complexity of Motor Fluctuations",
          "submissionValue": "UPD2-Complexity Motor Fluctuations",
          "synonyms": [
            "UPD2-Complexity Motor Fluctuations"
          ]
        },
        {
          "conceptId": "C100541",
          "definition": "The Movement Disorder Society version of the Unified Parkinson's Disease Rating Scale - Painful Off-state Dystonia.",
          "preferredTerm": "MDS-UPDRS - Painful Off-state Dystonia",
          "submissionValue": "UPD2-Painful Off-state Dystonia",
          "synonyms": [
            "UPD2-Painful Off-state Dystonia"
          ]
        }
      ]
    },
    {
      "conceptId": "C100140",
      "definition": "The Movement Disorder Society version of the Unified Parkinson's Disease Rating Scale test code.",
      "extensible": "No",
      "name": "Movement Disorder Society UPDRS Test Code",
      "preferredTerm": "CDISC Questionnaire MDS-UPDRS Test Code Terminology",
      "submissionValue": "MDS-UPDRS TESTCD",
      "synonyms": [
        "Movement Disorder Society UPDRS Test Code"
      ],
      "terms": [
        {
          "conceptId": "C101018",
          "definition": "The Movement Disorder Society version of the Unified Parkinson's Disease Rating Scale - Over the past week, have you usually had trouble getting out of bed, a car seat, or a deep chair?",
          "preferredTerm": "MDS-UPDRS - Get Out of Bed, Car, or Deep Chair",
          "submissionValue": "UPD2211",
          "synonyms": [
            "UPD2-Get Out of Bed/Car/Deep Chair"
          ]
        },
        {
          "conceptId": "C100473",
          "definition": "The Movement Disorder Society version of the Unified Parkinson's Disease Rating Scale - Over the past week have you had problems remembering things, following conversations, paying attention, thinking clearly, or finding your way around the house or in town?",
          "preferredTerm": "MDS-UPDRS - Cognitive Impairment",
          "submissionValue": "UPD2101",
          "synonyms": [
            "UPD2-Cognitive Impairment"
          ]
        },
        {
          "conceptId": "C100474",
          "definition": "The Movement Disorder Society version of the Unified Parkinson's Disease Rating Scale - Over the past week have you seen, heard, smelled or felt things that were not really there?",
          "preferredTerm": "MDS-UPDRS - Hallucinations and Psychosis",
          "submissionValue": "UPD2102",
          "synonyms": [
            "UPD2-Hallucinations and Psychosis"
          ]
        },
        {
          "conceptId": "C100475",
          "definition": "The Movement Disorder Society version of the Unified Parkinson's Disease Rating Scale - Over the past week have you felt low, sad, hopeless or unable to enjoy things? If yes, was this feeling for longer than one day at a time? Did it make it difficult for you carry out your usual activities or to be with people?",
          "preferredTerm": "MDS-UPDRS - Depressed Mood",
          "submissionValue": "UPD2103",
          "synonyms": [
            "UPD2-Depressed Mood"
          ]
        },
        {
          "conceptId": "C100476",
          "definition": "The Movement Disorder Society version of the Unified Parkinson's Disease Rating Scale - Over the past week have you felt nervous, worried or tense? If yes, was this feeling for longer than one day at a time? Did it make it difficult for you to follow your usual activities or to be with other people?",
          "preferredTerm": "MDS-UPDRS - Anxious Mood",
          "submissionValue": "UPD2104",
          "synonyms": [
            "UPD2-Anxious Mood"
          ]
        },
        {
          "conceptId": "C100477",
          "definition": "The Movement Disorder Society version of the Unified Parkinson's Disease Rating Scale - Over the past week, have you felt indifferent to doing activities or being with people?",
          "preferredTerm": "MDS-UPDRS - Apathy",
          "submissionValue": "UPD2105",
          "synonyms": [
            "UPD2-Apathy"
          ]
        },
        {
          "conceptId": "C100478",
          "definition": "The Movement Disorder Society version of the Unified Parkinson's Disease Rating Scale - Over the past week, have you had unusually strong urges that are hard to control? Do you feel driven to do or think about something and find it hard to stop?",
          "preferredTerm": "MDS-UPDRS - Features of Dopamine Dysregulation Syndrome",
          "submissionValue": "UPD2106",
          "synonyms": [
            "UPD2-Ftrs Dopa Dysregulation Synd"
          ]
        },
        {
          "conceptId": "C100479",
          "definition": "The Movement Disorder Society version of the Unified Parkinson's Disease Rating Scale - Over the past week, have you had trouble going to sleep at night or staying asleep through the night?",
          "preferredTerm": "MDS-UPDRS - Sleep Problems",
          "submissionValue": "UPD2107",
          "synonyms": [
            "UPD2-Sleep Problems"
          ]
        },
        {
          "conceptId": "C100480",
          "definition": "The Movement Disorder Society version of the Unified Parkinson's Disease Rating Scale - Over the past week, have you had trouble staying awake during the daytime?",
          "preferredTerm": "MDS-UPDRS - Daytime Sleepiness",
          "submissionValue": "UPD2108",
          "synonyms": [
            "UPD2-Daytime Sleepiness"
          ]
        },
        {
          "conceptId": "C100481",
          "definition": "The Movement Disorder Society version of the Unified Parkinson's Disease Rating Scale - Over the past week, have you had uncomfortable feelings in your body like pain, aches tingling or cramps?",
          "preferredTerm": "MDS-UPDRS - Pain and Other Sensations",
          "submissionValue": "UPD2109",
          "synonyms": [
            "UPD2-Pain and other Sensations"
          ]
        },
        {
          "conceptId": "C100482",
          "definition": "The Movement Disorder Society version of the Unified Parkinson's Disease Rating Scale - Over the past week, have you had trouble with urine control?",
          "preferredTerm": "MDS-UPDRS - Urinary Problems",
          "submissionValue": "UPD2110",
          "synonyms": [
            "UPD2-Urinary Problems"
          ]
        },
        {
          "conceptId": "C100483",
          "definition": "The Movement Disorder Society version of the Unified Parkinson's Disease Rating Scale - Over the past week have you had constipation troubles that cause you difficulty moving your bowels?",
          "preferredTerm": "MDS-UPDRS - Constipation Problems",
          "submissionValue": "UPD2111",
          "synonyms": [
            "UPD2-Constipation Problems"
          ]
        },
        {
          "conceptId": "C100484",
          "definition": "The Movement Disorder Society version of the Unified Parkinson's Disease Rating Scale - Over the past week, have you felt faint, dizzy or foggy when you stand up after sitting or lying down?",
          "preferredTerm": "MDS-UPDRS - Lightheadedness on Standing",
          "submissionValue": "UPD2112",
          "synonyms": [
            "UPD2-Lightheadedness on Standing"
          ]
        },
        {
          "conceptId": "C100485",
          "definition": "The Movement Disorder Society version of the Unified Parkinson's Disease Rating Scale - Over the past week, have you usually felt fatigued?",
          "preferredTerm": "MDS-UPDRS - Fatigue",
          "submissionValue": "UPD2113",
          "synonyms": [
            "UPD2-Fatigue"
          ]
        },
        {
          "conceptId": "C100486",
          "definition": "The Movement Disorder Society version of the Unified Parkinson's Disease Rating Scale - Over the past week, have you had problems with your speech?",
          "preferredTerm": "MDS-UPDRS - Speech",
          "submissionValue": "UPD2201",
          "synonyms": [
            "UPD2-Speech"
          ]
        },
        {
          "conceptId": "C100487",
          "definition": "The Movement Disorder Society version of the Unified Parkinson's Disease Rating Scale - Over the past week, have you usually had too much saliva during when you are awake or when you sleep?",
          "preferredTerm": "MDS-UPDRS - Saliva and Drooling",
          "submissionValue": "UPD2202",
          "synonyms": [
            "UPD2-Saliva and Drooling"
          ]
        },
        {
          "conceptId": "C100488",
          "definition": "The Movement Disorder Society version of the Unified Parkinson's Disease Rating Scale - Over the past week, have you usually had problems swallowing pills or eating meals?",
          "preferredTerm": "MDS-UPDRS - Chewing and Swallowing",
          "submissionValue": "UPD2203",
          "synonyms": [
            "UPD2-Chewing and Swallowing"
          ]
        },
        {
          "conceptId": "C100489",
          "definition": "The Movement Disorder Society version of the Unified Parkinson's Disease Rating Scale - Over the past week, have you usually had troubles handling your food and using eating utensils?",
          "preferredTerm": "MDS-UPDRS - Eating Tasks",
          "submissionValue": "UPD2204",
          "synonyms": [
            "UPD2-Eating Tasks"
          ]
        },
        {
          "conceptId": "C100490",
          "definition": "The Movement Disorder Society version of the Unified Parkinson's Disease Rating Scale - Over the past week, have you usually had problems dressing?",
          "preferredTerm": "MDS-UPDRS - Dressing",
          "submissionValue": "UPD2205",
          "synonyms": [
            "UPD2-Dressing"
          ]
        },
        {
          "conceptId": "C100491",
          "definition": "The Movement Disorder Society version of the Unified Parkinson's Disease Rating Scale - Over the past week, have you usually been slow or do you need help with washing, bathing, shaving, brushing teeth, combing your hair or with other personal hygiene?",
          "preferredTerm": "MDS-UPDRS - Hygiene",
          "submissionValue": "UPD2206",
          "synonyms": [
            "UPD2-Hygiene"
          ]
        },
        {
          "conceptId": "C100492",
          "definition": "The Movement Disorder Society version of the Unified Parkinson's Disease Rating Scale - Over the past week, have people usually had trouble reading your handwriting?",
          "preferredTerm": "MDS-UPDRS - Handwriting",
          "submissionValue": "UPD2207",
          "synonyms": [
            "UPD2-Handwriting"
          ]
        },
        {
          "conceptId": "C100493",
          "definition": "The Movement Disorder Society version of the Unified Parkinson's Disease Rating Scale - Over the past week, have you usually had trouble doing your hobbies or other things that you like to do?",
          "preferredTerm": "MDS-UPDRS - Doing Hobbies and Other Activities",
          "submissionValue": "UPD2208",
          "synonyms": [
            "UPD2-Doing Hobbies/Other Activities"
          ]
        },
        {
          "conceptId": "C100494",
          "definition": "The Movement Disorder Society version of the Unified Parkinson's Disease Rating Scale - Over the past week, do you usually have trouble turning over in bed?",
          "preferredTerm": "MDS-UPDRS - Turning in Bed",
          "submissionValue": "UPD2209",
          "synonyms": [
            "UPD2-Turning in Bed"
          ]
        },
        {
          "conceptId": "C100495",
          "definition": "The Movement Disorder Society version of the Unified Parkinson's Disease Rating Scale - Over the past week, have you usually had shaking or tremor?",
          "preferredTerm": "MDS-UPDRS - Tremor",
          "submissionValue": "UPD2210",
          "synonyms": [
            "UPD2-Tremor"
          ]
        },
        {
          "conceptId": "C100496",
          "definition": "The Movement Disorder Society version of the Unified Parkinson's Disease Rating Scale - Over the past week, have you usually had problems with balance and walking?",
          "preferredTerm": "MDS-UPDRS - Walking and Balance",
          "submissionValue": "UPD2212",
          "synonyms": [
            "UPD2-Walking and Balance"
          ]
        },
        {
          "conceptId": "C100497",
          "definition": "The Movement Disorder Society version of the Unified Parkinson's Disease Rating Scale - Over the past week, on your usual day when walking, do you suddenly stop or freeze as if your feet are stuck to the floor?",
          "preferredTerm": "MDS-UPDRS - Freezing",
          "submissionValue": "UPD2213",
          "synonyms": [
            "UPD2-Freezing"
          ]
        },
        {
          "conceptId": "C100498",
          "definition": "The Movement Disorder Society version of the Unified Parkinson's Disease Rating Scale - Is the patient on medication for treating the symptoms of Parkinson's Disease?",
          "preferredTerm": "MDS-UPDRS - Medication for Parkinson's Disease",
          "submissionValue": "UPD23A",
          "synonyms": [
            "UPD2-Medication for PD"
          ]
        },
        {
          "conceptId": "C100499",
          "definition": "The Movement Disorder Society version of the Unified Parkinson's Disease Rating Scale - If the patient is receiving medication for treating the symptoms of Parkinson's Disease, mark the patient's clinical state.",
          "preferredTerm": "MDS-UPDRS - Clinical State on Medication",
          "submissionValue": "UPD23B",
          "synonyms": [
            "UPD2-Clinical State on Meds"
          ]
        },
        {
          "conceptId": "C100500",
          "definition": "The Movement Disorder Society version of the Unified Parkinson's Disease Rating Scale - Is the patient on Levodopa?",
          "preferredTerm": "MDS-UPDRS - Taking Levodopa",
          "submissionValue": "UPD23C",
          "synonyms": [
            "UPD2-Taking Levodopa"
          ]
        },
        {
          "conceptId": "C100501",
          "definition": "The Movement Disorder Society version of the Unified Parkinson's Disease Rating Scale - Minutes since last Levodopa dose.",
          "preferredTerm": "MDS-UPDRS - Minutes Since Levodopa Dose",
          "submissionValue": "UPD23C1",
          "synonyms": [
            "UPD2-Minutes Since Levodopa Dose"
          ]
        },
        {
          "conceptId": "C100502",
          "definition": "The Movement Disorder Society version of the Unified Parkinson's Disease Rating Scale - Speech Problems.",
          "preferredTerm": "MDS-UPDRS - Speech Problems",
          "submissionValue": "UPD2301",
          "synonyms": [
            "UPD2-Speech Problems"
          ]
        },
        {
          "conceptId": "C100503",
          "definition": "The Movement Disorder Society version of the Unified Parkinson's Disease Rating Scale - Facial Expression.",
          "preferredTerm": "MDS-UPDRS - Facial Expression",
          "submissionValue": "UPD2302",
          "synonyms": [
            "UPD2-Facial Expression"
          ]
        },
        {
          "conceptId": "C100504",
          "definition": "The Movement Disorder Society version of the Unified Parkinson's Disease Rating Scale - Rigidity Neck.",
          "preferredTerm": "MDS-UPDRS - Rigidity Neck",
          "submissionValue": "UPD2303A",
          "synonyms": [
            "UPD2-Rigidity Neck"
          ]
        },
        {
          "conceptId": "C100505",
          "definition": "The Movement Disorder Society version of the Unified Parkinson's Disease Rating Scale - Rigidity Right Upper Extremity.",
          "preferredTerm": "MDS-UPDRS - Rigidity Right Upper Extremity",
          "submissionValue": "UPD2303B",
          "synonyms": [
            "UPD2-Rigidity RT Upper Extremity"
          ]
        },
        {
          "conceptId": "C100506",
          "definition": "The Movement Disorder Society version of the Unified Parkinson's Disease Rating Scale - Rigidity Left Upper Extremity.",
          "preferredTerm": "MDS-UPDRS - Rigidity Left Upper Extremity",
          "submissionValue": "UPD2303C",
          "synonyms": [
            "UPD2-Rigidity Left Upper Extremity"
          ]
        },
        {
          "conceptId": "C100507",
          "definition": "The Movement Disorder Society version of the Unified Parkinson's Disease Rating Scale - Rigidity Right Lower Extremity.",
          "preferredTerm": "MDS-UPDRS - Rigidity Right Lower Extremity",
          "submissionValue": "UPD2303D",
          "synonyms": [
            "UPD2-Rigidity RT Lower Extremity"
          ]
        },
        {
          "conceptId": "C100508",
          "definition": "The Movement Disorder Society version of the Unified Parkinson's Disease Rating Scale - Rigidity Left Lower Extremity.",
          "preferredTerm": "MDS-UPDRS - Rigidity Left Lower Extremity",
          "submissionValue": "UPD2303E",
          "synonyms": [
            "UPD2-Rigidity Left Lower Extremity"
          ]
        },
        {
          "conceptId": "C100509",
          "definition": "The Movement Disorder Society version of the Unified Parkinson's Disease Rating Scale - Right Finger Tapping.",
          "preferredTerm": "MDS-UPDRS - Right Finger Tapping",
          "submissionValue": "UPD2304A",
          "synonyms": [
            "UPD2-Right Finger Tapping"
          ]
        },
        {
          "conceptId": "C100510",
          "definition": "The Movement Disorder Society version of the Unified Parkinson's Disease Rating Scale - Left Finger Tapping.",
          "preferredTerm": "MDS-UPDRS - Left Finger Tapping",
          "submissionValue": "UPD2304B",
          "synonyms": [
            "UPD2-Left Finger Tapping"
          ]
        },
        {
          "conceptId": "C100511",
          "definition": "The Movement Disorder Society version of the Unified Parkinson's Disease Rating Scale - Right Hand Movements.",
          "preferredTerm": "MDS-UPDRS - Right Hand Movements",
          "submissionValue": "UPD2305A",
          "synonyms": [
            "UPD2-Right Hand Movements"
          ]
        },
        {
          "conceptId": "C100512",
          "definition": "The Movement Disorder Society version of the Unified Parkinson's Disease Rating Scale - Left Hand Movements.",
          "preferredTerm": "MDS-UPDRS - Left Hand Movements",
          "submissionValue": "UPD2305B",
          "synonyms": [
            "UPD2-Left Hand Movements"
          ]
        },
        {
          "conceptId": "C100513",
          "definition": "The Movement Disorder Society version of the Unified Parkinson's Disease Rating Scale - Pronation-Supination Movements of Right Hand.",
          "preferredTerm": "MDS-UPDRS - Pronanation-Supination Movement of Right Hand",
          "submissionValue": "UPD2306A",
          "synonyms": [
            "UPD2-Pron/Sup Movement of RT Hand"
          ]
        },
        {
          "conceptId": "C100514",
          "definition": "The Movement Disorder Society version of the Unified Parkinson's Disease Rating Scale - Pronation-Supination Movements of Left Hand.",
          "preferredTerm": "MDS-UPDRS - Pronanation-Supination Movement of Left Hand",
          "submissionValue": "UPD2306B",
          "synonyms": [
            "UPD2-Pron/Sup Movement of Left Hand"
          ]
        },
        {
          "conceptId": "C100515",
          "definition": "The Movement Disorder Society version of the Unified Parkinson's Disease Rating Scale - Right Toe Tapping.",
          "preferredTerm": "MDS-UPDRS - Right Toe Tapping",
          "submissionValue": "UPD2307A",
          "synonyms": [
            "UPD2-Right Toe Tapping"
          ]
        },
        {
          "conceptId": "C100516",
          "definition": "The Movement Disorder Society version of the Unified Parkinson's Disease Rating Scale - Left Toe Tapping.",
          "preferredTerm": "MDS-UPDRS - Left Toe Tapping",
          "submissionValue": "UPD2307B",
          "synonyms": [
            "UPD2-Left Toe Tapping"
          ]
        },
        {
          "conceptId": "C100517",
          "definition": "The Movement Disorder Society version of the Unified Parkinson's Disease Rating Scale - Right Leg Agility.",
          "preferredTerm": "MDS-UPDRS - Right Leg Agility",
          "submissionValue": "UPD2308A",
          "synonyms": [
            "UPD2-Right Leg Agility"
          ]
        },
        {
          "conceptId": "C100518",
          "definition": "The Movement Disorder Society version of the Unified Parkinson's Disease Rating Scale - Left Leg Agility.",
          "preferredTerm": "MDS-UPDRS - Left Leg Agility",
          "submissionValue": "UPD2308B",
          "synonyms": [
            "UPD2-Left Leg Agility"
          ]
        },
        {
          "conceptId": "C100519",
          "definition": "The Movement Disorder Society version of the Unified Parkinson's Disease Rating Scale - Arising from Chair.",
          "preferredTerm": "MDS-UPDRS - Arising from Chair",
          "submissionValue": "UPD2309",
          "synonyms": [
            "UPD2-Arising from Chair"
          ]
        },
        {
          "conceptId": "C100520",
          "definition": "The Movement Disorder Society version of the Unified Parkinson's Disease Rating Scale - Gait.",
          "preferredTerm": "MDS-UPDRS - Gait",
          "submissionValue": "UPD2310",
          "synonyms": [
            "UPD2-Gait"
          ]
        },
        {
          "conceptId": "C100521",
          "definition": "The Movement Disorder Society version of the Unified Parkinson's Disease Rating Scale - Freezing of Gait.",
          "preferredTerm": "MDS-UPDRS - Freezing of Gait",
          "submissionValue": "UPD2311",
          "synonyms": [
            "UPD2-Freezing of Gait"
          ]
        },
        {
          "conceptId": "C100522",
          "definition": "The Movement Disorder Society version of the Unified Parkinson's Disease Rating Scale - Postural Stability.",
          "preferredTerm": "MDS-UPDRS - Postural Stability",
          "submissionValue": "UPD2312",
          "synonyms": [
            "UPD2-Postural Stability"
          ]
        },
        {
          "conceptId": "C100523",
          "definition": "The Movement Disorder Society version of the Unified Parkinson's Disease Rating Scale - Posture.",
          "preferredTerm": "MDS-UPDRS - Posture",
          "submissionValue": "UPD2313",
          "synonyms": [
            "UPD2-Posture"
          ]
        },
        {
          "conceptId": "C100524",
          "definition": "The Movement Disorder Society version of the Unified Parkinson's Disease Rating Scale - Global Spontaneity of Movement (Body Bradykinesia).",
          "preferredTerm": "MDS-UPDRS - Body Bradykinesia",
          "submissionValue": "UPD2314",
          "synonyms": [
            "UPD2-Body Bradykinesia"
          ]
        },
        {
          "conceptId": "C100525",
          "definition": "The Movement Disorder Society version of the Unified Parkinson's Disease Rating Scale - Postural Tremor of the Right Hand.",
          "preferredTerm": "MDS-UPDRS - Postural Tremor of Right Hand",
          "submissionValue": "UPD2315A",
          "synonyms": [
            "UPD2-Postural Tremor of Right Hand"
          ]
        },
        {
          "conceptId": "C100526",
          "definition": "The Movement Disorder Society version of the Unified Parkinson's Disease Rating Scale - Kinetic Tremor of the Left Hand.",
          "preferredTerm": "MDS-UPDRS - Kinetic Tremor of Left Hand",
          "submissionValue": "UPD2316B",
          "synonyms": [
            "UPD2-Kinetic Tremor of Left Hand"
          ]
        },
        {
          "conceptId": "C100527",
          "definition": "The Movement Disorder Society version of the Unified Parkinson's Disease Rating Scale - Rest Tremor Amplitude Right Upper Extremity.",
          "preferredTerm": "MDS-UPDRS - Rest Tremor Amplitude Right Upper Extremity",
          "submissionValue": "UPD2317A",
          "synonyms": [
            "UPD2-Rest Tremor Amplitude RUE"
          ]
        },
        {
          "conceptId": "C100528",
          "definition": "The Movement Disorder Society version of the Unified Parkinson's Disease Rating Scale - Rest Tremor Amplitude Left Upper Extremity.",
          "preferredTerm": "MDS-UPDRS - Rest Tremor Amplitude Left Upper Extremity",
          "submissionValue": "UPD2317B",
          "synonyms": [
            "UPD2-Rest Tremor Amplitude LUE"
          ]
        },
        {
          "conceptId": "C100529",
          "definition": "The Movement Disorder Society version of the Unified Parkinson's Disease Rating Scale - Rest Tremor Amplitude Right Lower Extremity.",
          "preferredTerm": "MDS-UPDRS - Rest Tremor Amplitude Right Lower Extremity",
          "submissionValue": "UPD2317C",
          "synonyms": [
            "UPD2-Rest Tremor Amplitude RLE"
          ]
        },
        {
          "conceptId": "C100530",
          "definition": "The Movement Disorder Society version of the Unified Parkinson's Disease Rating Scale - Rest Tremor Amplitude Left Lower Extremity.",
          "preferredTerm": "MDS-UPDRS - Rest Tremor Amplitude Left Lower Extremity",
          "submissionValue": "UPD2317D",
          "synonyms": [
            "UPD2-Rest Tremor Amplitude LLE"
          ]
        },
        {
          "conceptId": "C100531",
          "definition": "The Movement Disorder Society version of the Unified Parkinson's Disease Rating Scale - Rest Tremor Amplitude Lip/Jaw.",
          "preferredTerm": "MDS-UPDRS - Rest Tremor Amplitude Lip or Jaw",
          "submissionValue": "UPD2317E",
          "synonyms": [
            "UPD2-Rest Tremor Amplitude Lip/Jaw"
          ]
        },
        {
          "conceptId": "C100532",
          "definition": "The Movement Disorder Society version of the Unified Parkinson's Disease Rating Scale - Consistency of Rest Tremor.",
          "preferredTerm": "MDS-UPDRS - Consistency of Rest Tremor",
          "submissionValue": "UPD2318",
          "synonyms": [
            "UPD2-Consistency of Rest Tremor"
          ]
        },
        {
          "conceptId": "C100533",
          "definition": "The Movement Disorder Society version of the Unified Parkinson's Disease Rating Scale - Were dyskinesias (chorea or dystonia) present during examination?",
          "preferredTerm": "MDS-UPDRS - Dyskinesias During Exam",
          "submissionValue": "UPD2DA",
          "synonyms": [
            "UPD2-Dyskinesias During Exam"
          ]
        },
        {
          "conceptId": "C100534",
          "definition": "The Movement Disorder Society version of the Unified Parkinson's Disease Rating Scale - If yes, did these movements interfere with your ratings?",
          "preferredTerm": "MDS-UPDRS - Movements Interfere with Ratings",
          "submissionValue": "UPD2DB",
          "synonyms": [
            "UPD2-Movements Interfere Ratings"
          ]
        },
        {
          "conceptId": "C100535",
          "definition": "The Movement Disorder Society version of the Unified Parkinson's Disease Rating Scale - Hoehn and Yahr Stage.",
          "preferredTerm": "MDS-UPDRS - Hoehn and Yahr Stage",
          "submissionValue": "UPD2HY",
          "synonyms": [
            "UPD2-Hoehn and Yahr Stage"
          ]
        },
        {
          "conceptId": "C100536",
          "definition": "The Movement Disorder Society version of the Unified Parkinson's Disease Rating Scale - Time Spent with Dyskinesias.",
          "preferredTerm": "MDS-UPDRS - Time Spent with Dyskinesias",
          "submissionValue": "UPD2401",
          "synonyms": [
            "UPD2-Time Spent with Dyskinesias"
          ]
        },
        {
          "conceptId": "C100537",
          "definition": "The Movement Disorder Society version of the Unified Parkinson's Disease Rating Scale - Functional Impact of Dyskinesias.",
          "preferredTerm": "MDS-UPDRS - Functional Impact of Dyskinesias",
          "submissionValue": "UPD2402",
          "synonyms": [
            "UPD2-Functional Impact Dyskinesias"
          ]
        },
        {
          "conceptId": "C100538",
          "definition": "The Movement Disorder Society version of the Unified Parkinson's Disease Rating Scale - Time Spent in the Off State.",
          "preferredTerm": "MDS-UPDRS - Time Spent in the Off State",
          "submissionValue": "UPD2403",
          "synonyms": [
            "UPD2-Time Spent in the Off State"
          ]
        },
        {
          "conceptId": "C100539",
          "definition": "The Movement Disorder Society version of the Unified Parkinson's Disease Rating Scale - Functional Impact of Fluctuations.",
          "preferredTerm": "MDS-UPDRS - Functional Impact of Fluctuations",
          "submissionValue": "UPD2404",
          "synonyms": [
            "UPD2-Functional Impact Fluctuations"
          ]
        },
        {
          "conceptId": "C100540",
          "definition": "The Movement Disorder Society version of the Unified Parkinson's Disease Rating Scale - Complexity of Motor Fluctuations.",
          "preferredTerm": "MDS-UPDRS - Complexity of Motor Fluctuations",
          "submissionValue": "UPD2405",
          "synonyms": [
            "UPD2-Complexity Motor Fluctuations"
          ]
        },
        {
          "conceptId": "C100541",
          "definition": "The Movement Disorder Society version of the Unified Parkinson's Disease Rating Scale - Painful Off-state Dystonia.",
          "preferredTerm": "MDS-UPDRS - Painful Off-state Dystonia",
          "submissionValue": "UPD2406",
          "synonyms": [
            "UPD2-Painful Off-state Dystonia"
          ]
        }
      ]
    },
    {
      "conceptId": "C100141",
      "definition": "The Mini-Mental State Examination (MMSE) (Folstein MF, Folstein SE, McHugh PR test name. 'Mini-Mental State': a practical method for grading the cognitive state of patients for the clinician test name. J Psychiatr Res test name. 1975;12:196-198) test name.",
      "extensible": "No",
      "name": "Mini-Mental State Examination Test Name",
      "preferredTerm": "CDISC Questionnaire MMSE Test Name Terminology",
      "submissionValue": "MMSE TEST",
      "synonyms": [
        "Mini-Mental State Examination Test Name"
      ],
      "terms": [
        {
          "conceptId": "C100542",
          "definition": "The Mini-Mental State Examination (MMSE) (Folstein MF, Folstein SE, McHugh PR. 'Mini-Mental State': A practical method for grading the cognitive state of patients for the clinician. J Psychiatr Res. 1975; 12(3):189-98). Question 1.",
          "preferredTerm": "MMSE - Question 1",
          "submissionValue": "MMSE1-Question 1",
          "synonyms": [
            "MMSE1-Question 1"
          ]
        },
        {
          "conceptId": "C100543",
          "definition": "The Mini-Mental State Examination (MMSE) (Folstein MF, Folstein SE, McHugh PR. 'Mini-Mental State': A practical method for grading the cognitive state of patients for the clinician. J Psychiatr Res. 1975; 12(3):189-98). Question 1A.",
          "preferredTerm": "MMSE - Question 1A",
          "submissionValue": "MMSE1-Question 1A",
          "synonyms": [
            "MMSE1-Question 1A"
          ]
        },
        {
          "conceptId": "C100544",
          "definition": "The Mini-Mental State Examination (MMSE) (Folstein MF, Folstein SE, McHugh PR. 'Mini-Mental State': A practical method for grading the cognitive state of patients for the clinician. J Psychiatr Res. 1975; 12(3):189-98). Question 1B.",
          "preferredTerm": "MMSE - Question 1B",
          "submissionValue": "MMSE1-Question 1B",
          "synonyms": [
            "MMSE1-Question 1B"
          ]
        },
        {
          "conceptId": "C100545",
          "definition": "The Mini-Mental State Examination (MMSE) (Folstein MF, Folstein SE, McHugh PR. 'Mini-Mental State': A practical method for grading the cognitive state of patients for the clinician. J Psychiatr Res. 1975; 12(3):189-98). Question 1C.",
          "preferredTerm": "MMSE - Question 1C",
          "submissionValue": "MMSE1-Question 1C",
          "synonyms": [
            "MMSE1-Question 1C"
          ]
        },
        {
          "conceptId": "C100546",
          "definition": "The Mini-Mental State Examination (MMSE) (Folstein MF, Folstein SE, McHugh PR. 'Mini-Mental State': A practical method for grading the cognitive state of patients for the clinician. J Psychiatr Res. 1975; 12(3):189-98). Question 1D.",
          "preferredTerm": "MMSE - Question 1D",
          "submissionValue": "MMSE1-Question 1D",
          "synonyms": [
            "MMSE1-Question 1D"
          ]
        },
        {
          "conceptId": "C100547",
          "definition": "The Mini-Mental State Examination (MMSE) (Folstein MF, Folstein SE, McHugh PR. 'Mini-Mental State': A practical method for grading the cognitive state of patients for the clinician. J Psychiatr Res. 1975; 12(3):189-98). Question 1E.",
          "preferredTerm": "MMSE - Question 1E",
          "submissionValue": "MMSE1-Question 1E",
          "synonyms": [
            "MMSE1-Question 1E"
