{
  "_links": {
    "priorVersion": {
      "href": "",
      "title": "",
      "type": "Terminology"
    },
    "self": {
      "href": "",
      "title": "",
      "type": "Terminology"
    }
  },
  "codelists": [
    {
      "conceptId": "C101805",
      "definition": "Abnormal Involuntary Movement Scale test code.",
      "extensible": "No",
      "name": "Abnormal Involuntary Movement Scale Test Code",
      "preferredTerm": "CDISC Questionnaire AIMS Test Code Terminology",
      "submissionValue": "AIMS TESTCD",
      "synonyms": [
        "Abnormal Involuntary Movement Scale Test Code"
      ],
      "terms": [
        {
          "conceptId": "C102034",
          "definition": "Abnormal Involuntary Movement Scale - Facial and Oral Movements, Muscles of facial expression, e.g., movements of forehead, eyebrows, periorbital area, cheeks. Include frowning, blinking, grimacing of upper face.",
          "preferredTerm": "AIMS - Muscles of Facial Expression",
          "submissionValue": "AIMS0101",
          "synonyms": [
            "AIMS01-Muscles of Facial Expression"
          ]
        },
        {
          "conceptId": "C102035",
          "definition": "Abnormal Involuntary Movement Scale - Facial and Oral Movements, Lips and perioral area, e.g., puckering, pouting, smacking.",
          "preferredTerm": "AIMS - Lips and Perioral Area",
          "submissionValue": "AIMS0102",
          "synonyms": [
            "AIMS01-Lips and Perioral Area"
          ]
        },
        {
          "conceptId": "C102036",
          "definition": "Abnormal Involuntary Movement Scale - Facial and Oral Movements, Jaw, e.g., biting, clenching, chewing, mouth opening, lateral movement.",
          "preferredTerm": "AIMS - Jaw",
          "submissionValue": "AIMS0103",
          "synonyms": [
            "AIMS01-Jaw"
          ]
        },
        {
          "conceptId": "C102037",
          "definition": "Abnormal Involuntary Movement Scale - Facial and Oral Movements, Tongue. Rate only increase in movement both in and out of mouth, not inability to sustain movement.",
          "preferredTerm": "AIMS - Tongue",
          "submissionValue": "AIMS0104",
          "synonyms": [
            "AIMS01-Tongue"
          ]
        },
        {
          "conceptId": "C102038",
          "definition": "Abnormal Involuntary Movement Scale - Extremity Movements, Upper (arms, wrists, hands, fingers). Include movements that are choreic (rapid, objectively purposeless, irregular, spontaneous) or athetoid (slow, irregular, complex, serpentine). Do not include tremor (repetitive, regular, rhythmic movements).",
          "preferredTerm": "AIMS - Upper Extremities",
          "submissionValue": "AIMS0105",
          "synonyms": [
            "AIMS01-Upper Extremities"
          ]
        },
        {
          "conceptId": "C102039",
          "definition": "Abnormal Involuntary Movement Scale - Extremity Movements, Lower (legs, knees, ankles, toes), e.g., lateral knee movement, foot tapping, heel dropping, foot squirming, inversion and eversion of foot.",
          "preferredTerm": "AIMS - Lower Extremities",
          "submissionValue": "AIMS0106",
          "synonyms": [
            "AIMS01-Lower Extremities"
          ]
        },
        {
          "conceptId": "C102040",
          "definition": "Abnormal Involuntary Movement Scale - Trunk Movements, Neck, shoulders, hips, e.g., rocking, twisting, squirming, pelvic gyrations. Include diaphragmatic movements.",
          "preferredTerm": "AIMS - Neck, Shoulders, Hips",
          "submissionValue": "AIMS0107",
          "synonyms": [
            "AIMS01-Neck, Shoulders, Hips"
          ]
        },
        {
          "conceptId": "C102041",
          "definition": "Abnormal Involuntary Movement Scale - Global Judgments, Severity of abnormal movements, based on the highest single score on the above items.",
          "preferredTerm": "AIMS - Severity of Abnormal Movements",
          "submissionValue": "AIMS0108",
          "synonyms": [
            "AIMS01-Severity of Abnormal Movements"
          ]
        },
        {
          "conceptId": "C102042",
          "definition": "Abnormal Involuntary Movement Scale - Global Judgments, Incapacitation due to abnormal movements.",
          "preferredTerm": "AIMS - Incapacitation Due to Abnormal Movements",
          "submissionValue": "AIMS0109",
          "synonyms": [
            "AIMS01-Incapacitation due Abn Movements"
          ]
        },
        {
          "conceptId": "C102043",
          "definition": "Abnormal Involuntary Movement Scale - Global Judgments, Patient's awareness of abnormal movements.",
          "preferredTerm": "AIMS - Patient's Awareness of Abnormal Movements",
          "submissionValue": "AIMS0110",
          "synonyms": [
            "AIMS01-Patient Awareness Abn Movements"
          ]
        },
        {
          "conceptId": "C102044",
          "definition": "Abnormal Involuntary Movement Scale - Dental Status, Current problems with teeth and/or dentures.",
          "preferredTerm": "AIMS - Current Teeth/Dentures Problems",
          "submissionValue": "AIMS0111",
          "synonyms": [
            "AIMS01-Current Problems Teeth/Dentures"
          ]
        },
        {
          "conceptId": "C102045",
          "definition": "Abnormal Involuntary Movement Scale - Dental Status, Does patient usually wear dentures?",
          "preferredTerm": "AIMS - Patient Usually Wears Dentures",
          "submissionValue": "AIMS0112",
          "synonyms": [
            "AIMS01-Patient Usually Wear Dentures"
          ]
        }
      ]
    },
    {
      "conceptId": "C101806",
      "definition": "Abnormal Involuntary Movement Scale test name.",
      "extensible": "No",
      "name": "Abnormal Involuntary Movement Scale Test Name",
      "preferredTerm": "CDISC Questionnaire AIMS Test Name Terminology",
      "submissionValue": "AIMS TEST",
      "synonyms": [
        "Abnormal Involuntary Movement Scale Test Name"
      ],
      "terms": [
        {
          "conceptId": "C102044",
          "definition": "Abnormal Involuntary Movement Scale - Dental Status, Current problems with teeth and/or dentures.",
          "preferredTerm": "AIMS - Current Teeth/Dentures Problems",
          "submissionValue": "AIMS01-Current Problems Teeth/Dentures",
          "synonyms": [
            "AIMS01-Current Problems Teeth/Dentures"
          ]
        },
        {
          "conceptId": "C102042",
          "definition": "Abnormal Involuntary Movement Scale - Global Judgments, Incapacitation due to abnormal movements.",
          "preferredTerm": "AIMS - Incapacitation Due to Abnormal Movements",
          "submissionValue": "AIMS01-Incapacitation due Abn Movements",
          "synonyms": [
            "AIMS01-Incapacitation due Abn Movements"
          ]
        },
        {
          "conceptId": "C102036",
          "definition": "Abnormal Involuntary Movement Scale - Facial and Oral Movements, Jaw, e.g., biting, clenching, chewing, mouth opening, lateral movement.",
          "preferredTerm": "AIMS - Jaw",
          "submissionValue": "AIMS01-Jaw",
          "synonyms": [
            "AIMS01-Jaw"
          ]
        },
        {
          "conceptId": "C102035",
          "definition": "Abnormal Involuntary Movement Scale - Facial and Oral Movements, Lips and perioral area, e.g., puckering, pouting, smacking.",
          "preferredTerm": "AIMS - Lips and Perioral Area",
          "submissionValue": "AIMS01-Lips and Perioral Area",
          "synonyms": [
            "AIMS01-Lips and Perioral Area"
          ]
        },
        {
          "conceptId": "C102039",
          "definition": "Abnormal Involuntary Movement Scale - Extremity Movements, Lower (legs, knees, ankles, toes), e.g., lateral knee movement, foot tapping, heel dropping, foot squirming, inversion and eversion of foot.",
          "preferredTerm": "AIMS - Lower Extremities",
          "submissionValue": "AIMS01-Lower Extremities",
          "synonyms": [
            "AIMS01-Lower Extremities"
          ]
        },
        {
          "conceptId": "C102034",
          "definition": "Abnormal Involuntary Movement Scale - Facial and Oral Movements, Muscles of facial expression, e.g., movements of forehead, eyebrows, periorbital area, cheeks. Include frowning, blinking, grimacing of upper face.",
          "preferredTerm": "AIMS - Muscles of Facial Expression",
          "submissionValue": "AIMS01-Muscles of Facial Expression",
          "synonyms": [
            "AIMS01-Muscles of Facial Expression"
          ]
        },
        {
          "conceptId": "C102040",
          "definition": "Abnormal Involuntary Movement Scale - Trunk Movements, Neck, shoulders, hips, e.g., rocking, twisting, squirming, pelvic gyrations. Include diaphragmatic movements.",
          "preferredTerm": "AIMS - Neck, Shoulders, Hips",
          "submissionValue": "AIMS01-Neck, Shoulders, Hips",
          "synonyms": [
            "AIMS01-Neck, Shoulders, Hips"
          ]
        },
        {
          "conceptId": "C102043",
          "definition": "Abnormal Involuntary Movement Scale - Global Judgments, Patient's awareness of abnormal movements.",
          "preferredTerm": "AIMS - Patient's Awareness of Abnormal Movements",
          "submissionValue": "AIMS01-Patient Awareness Abn Movements",
          "synonyms": [
            "AIMS01-Patient Awareness Abn Movements"
          ]
        },
        {
          "conceptId": "C102045",
          "definition": "Abnormal Involuntary Movement Scale - Dental Status, Does patient usually wear dentures?",
          "preferredTerm": "AIMS - Patient Usually Wears Dentures",
          "submissionValue": "AIMS01-Patient Usually Wear Dentures",
          "synonyms": [
            "AIMS01-Patient Usually Wear Dentures"
          ]
        },
        {
          "conceptId": "C102041",
          "definition": "Abnormal Involuntary Movement Scale - Global Judgments, Severity of abnormal movements, based on the highest single score on the above items.",
          "preferredTerm": "AIMS - Severity of Abnormal Movements",
          "submissionValue": "AIMS01-Severity of Abnormal Movements",
          "synonyms": [
            "AIMS01-Severity of Abnormal Movements"
          ]
        },
        {
          "conceptId": "C102037",
          "definition": "Abnormal Involuntary Movement Scale - Facial and Oral Movements, Tongue. Rate only increase in movement both in and out of mouth, not inability to sustain movement.",
          "preferredTerm": "AIMS - Tongue",
          "submissionValue": "AIMS01-Tongue",
          "synonyms": [
            "AIMS01-Tongue"
          ]
        },
        {
          "conceptId": "C102038",
          "definition": "Abnormal Involuntary Movement Scale - Extremity Movements, Upper (arms, wrists, hands, fingers). Include movements that are choreic (rapid, objectively purposeless, irregular, spontaneous) or athetoid (slow, irregular, complex, serpentine). Do not include tremor (repetitive, regular, rhythmic movements).",
          "preferredTerm": "AIMS - Upper Extremities",
          "submissionValue": "AIMS01-Upper Extremities",
          "synonyms": [
            "AIMS01-Upper Extremities"
          ]
        }
      ]
    },
    {
      "conceptId": "C101807",
      "definition": "ADNI AVLT test code.",
      "extensible": "No",
      "name": "ADNI AVLT Test Code",
      "preferredTerm": "CDISC Questionnaire ADNI AVLT Test Code Terminology",
      "submissionValue": "AVLT TESTCD",
      "synonyms": [
        "ADNI AVLT Test Code"
      ],
      "terms": [
        {
          "conceptId": "C101896",
          "definition": "Auditory Verbal Learning Test Version A - List A, Recall 1, Word 1.",
          "preferredTerm": "ADNI AVLT - List A Recall 1 Word 1",
          "submissionValue": "AVL01001",
          "synonyms": [
            "AVL01-List A Recall 1 Word 1"
          ]
        },
        {
          "conceptId": "C101897",
          "definition": "Auditory Verbal Learning Test Version A - List A, Recall 1, Word 2.",
          "preferredTerm": "ADNI AVLT - List A Recall 1 Word 2",
          "submissionValue": "AVL01002",
          "synonyms": [
            "AVL01-List A Recall 1 Word 2"
          ]
        },
        {
          "conceptId": "C101898",
          "definition": "Auditory Verbal Learning Test Version A - List A, Recall 1, Word 3.",
          "preferredTerm": "ADNI AVLT - List A Recall 1 Word 3",
          "submissionValue": "AVL01003",
          "synonyms": [
            "AVL01-List A Recall 1 Word 3"
          ]
        },
        {
          "conceptId": "C101899",
          "definition": "Auditory Verbal Learning Test Version A - List A, Recall 1, Word 4.",
          "preferredTerm": "ADNI AVLT - List A Recall 1 Word 4",
          "submissionValue": "AVL01004",
          "synonyms": [
            "AVL01-List A Recall 1 Word 4"
          ]
        },
        {
          "conceptId": "C101900",
          "definition": "Auditory Verbal Learning Test Version A - List A, Recall 1, Word 5.",
          "preferredTerm": "ADNI AVLT - List A Recall 1 Word 5",
          "submissionValue": "AVL01005",
          "synonyms": [
            "AVL01-List A Recall 1 Word 5"
          ]
        },
        {
          "conceptId": "C101901",
          "definition": "Auditory Verbal Learning Test Version A - List A, Recall 1, Word 6.",
          "preferredTerm": "ADNI AVLT - List A Recall 1 Word 6",
          "submissionValue": "AVL01006",
          "synonyms": [
            "AVL01-List A Recall 1 Word 6"
          ]
        },
        {
          "conceptId": "C101902",
          "definition": "Auditory Verbal Learning Test Version A - List A, Recall 1, Word 7.",
          "preferredTerm": "ADNI AVLT - List A Recall 1 Word 7",
          "submissionValue": "AVL01007",
          "synonyms": [
            "AVL01-List A Recall 1 Word 7"
          ]
        },
        {
          "conceptId": "C101903",
          "definition": "Auditory Verbal Learning Test Version A - List A, Recall 1, Word 8.",
          "preferredTerm": "ADNI AVLT - List A Recall 1 Word 8",
          "submissionValue": "AVL01008",
          "synonyms": [
            "AVL01-List A Recall 1 Word 8"
          ]
        },
        {
          "conceptId": "C101904",
          "definition": "Auditory Verbal Learning Test Version A - List A, Recall 1, Word 9.",
          "preferredTerm": "ADNI AVLT - List A Recall 1 Word 9",
          "submissionValue": "AVL01009",
          "synonyms": [
            "AVL01-List A Recall 1 Word 9"
          ]
        },
        {
          "conceptId": "C101905",
          "definition": "Auditory Verbal Learning Test Version A - List A, Recall 1, Word 10.",
          "preferredTerm": "ADNI AVLT - List A Recall 1 Word 10",
          "submissionValue": "AVL01010",
          "synonyms": [
            "AVL01-List A Recall 1 Word 10"
          ]
        },
        {
          "conceptId": "C101906",
          "definition": "Auditory Verbal Learning Test Version A - List A, Recall 1, Word 11.",
          "preferredTerm": "ADNI AVLT - List A Recall 1 Word 11",
          "submissionValue": "AVL01011",
          "synonyms": [
            "AVL01-List A Recall 1 Word 11"
          ]
        },
        {
          "conceptId": "C101907",
          "definition": "Auditory Verbal Learning Test Version A - List A, Recall 1, Word 12.",
          "preferredTerm": "ADNI AVLT - List A Recall 1 Word 12",
          "submissionValue": "AVL01012",
          "synonyms": [
            "AVL01-List A Recall 1 Word 12"
          ]
        },
        {
          "conceptId": "C101908",
          "definition": "Auditory Verbal Learning Test Version A - List A, Recall 1, Word 13.",
          "preferredTerm": "ADNI AVLT - List A Recall 1 Word 13",
          "submissionValue": "AVL01013",
          "synonyms": [
            "AVL01-List A Recall 1 Word 13"
          ]
        },
        {
          "conceptId": "C101909",
          "definition": "Auditory Verbal Learning Test Version A - List A, Recall 1, Word 14.",
          "preferredTerm": "ADNI AVLT - List A Recall 1 Word 14",
          "submissionValue": "AVL01014",
          "synonyms": [
            "AVL01-List A Recall 1 Word 14"
          ]
        },
        {
          "conceptId": "C101910",
          "definition": "Auditory Verbal Learning Test Version A - List A, Recall 1, Word 15.",
          "preferredTerm": "ADNI AVLT - List A Recall 1 Word 15",
          "submissionValue": "AVL01015",
          "synonyms": [
            "AVL01-List A Recall 1 Word 15"
          ]
        },
        {
          "conceptId": "C101911",
          "definition": "Auditory Verbal Learning Test Version A - The number of words recalled from List A, first attempt.",
          "preferredTerm": "ADNI AVLT - List A Recall 1 Total",
          "submissionValue": "AVL01016",
          "synonyms": [
            "AVL01-List A Recall 1 Total"
          ]
        },
        {
          "conceptId": "C101912",
          "definition": "Auditory Verbal Learning Test Version A - The number of intrusions while recalling List A, first attempt.",
          "preferredTerm": "ADNI AVLT - List A Intrusions 1",
          "submissionValue": "AVL01017",
          "synonyms": [
            "AVL01-List A Intrusions 1"
          ]
        },
        {
          "conceptId": "C101913",
          "definition": "Auditory Verbal Learning Test Version A - List A, Recall 2, Word 1.",
          "preferredTerm": "ADNI AVLT - List A Recall 2 Word 1",
          "submissionValue": "AVL01018",
          "synonyms": [
            "AVL01-List A Recall 2 Word 1"
          ]
        },
        {
          "conceptId": "C101914",
          "definition": "Auditory Verbal Learning Test Version A - List A, Recall 2, Word 2.",
          "preferredTerm": "ADNI AVLT - List A Recall 2 Word 2",
          "submissionValue": "AVL01019",
          "synonyms": [
            "AVL01-List A Recall 2 Word 2"
          ]
        },
        {
          "conceptId": "C101915",
          "definition": "Auditory Verbal Learning Test Version A - List A, Recall 2, Word 3.",
          "preferredTerm": "ADNI AVLT - List A Recall 2 Word 3",
          "submissionValue": "AVL01020",
          "synonyms": [
            "AVL01-List A Recall 2 Word 3"
          ]
        },
        {
          "conceptId": "C101916",
          "definition": "Auditory Verbal Learning Test Version A - List A, Recall 2, Word 4.",
          "preferredTerm": "ADNI AVLT - List A Recall 2 Word 4",
          "submissionValue": "AVL01021",
          "synonyms": [
            "AVL01-List A Recall 2 Word 4"
          ]
        },
        {
          "conceptId": "C101917",
          "definition": "Auditory Verbal Learning Test Version A - List A, Recall 2, Word 5.",
          "preferredTerm": "ADNI AVLT - List A Recall 2 Word 5",
          "submissionValue": "AVL01022",
          "synonyms": [
            "AVL01-List A Recall 2 Word 5"
          ]
        },
        {
          "conceptId": "C101918",
          "definition": "Auditory Verbal Learning Test Version A - List A, Recall 2, Word 6.",
          "preferredTerm": "ADNI AVLT - List A Recall 2 Word 6",
          "submissionValue": "AVL01023",
          "synonyms": [
            "AVL01-List A Recall 2 Word 6"
          ]
        },
        {
          "conceptId": "C101919",
          "definition": "Auditory Verbal Learning Test Version A - List A, Recall 2, Word 7.",
          "preferredTerm": "ADNI AVLT - List A Recall 2 Word 7",
          "submissionValue": "AVL01024",
          "synonyms": [
            "AVL01-List A Recall 2 Word 7"
          ]
        },
        {
          "conceptId": "C101920",
          "definition": "Auditory Verbal Learning Test Version A - List A, Recall 2, Word 8.",
          "preferredTerm": "ADNI AVLT - List A Recall 2 Word 8",
          "submissionValue": "AVL01025",
          "synonyms": [
            "AVL01-List A Recall 2 Word 8"
          ]
        },
        {
          "conceptId": "C101921",
          "definition": "Auditory Verbal Learning Test Version A - List A, Recall 2, Word 9.",
          "preferredTerm": "ADNI AVLT - List A Recall 2 Word 9",
          "submissionValue": "AVL01026",
          "synonyms": [
            "AVL01-List A Recall 2 Word 9"
          ]
        },
        {
          "conceptId": "C101922",
          "definition": "Auditory Verbal Learning Test Version A - List A, Recall 2, Word 10.",
          "preferredTerm": "ADNI AVLT - List A Recall 2 Word 10",
          "submissionValue": "AVL01027",
          "synonyms": [
            "AVL01-List A Recall 2 Word 10"
          ]
        },
        {
          "conceptId": "C101923",
          "definition": "Auditory Verbal Learning Test Version A - List A, Recall 2, Word 11.",
          "preferredTerm": "ADNI AVLT - List A Recall 2 Word 11",
          "submissionValue": "AVL01028",
          "synonyms": [
            "AVL01-List A Recall 2 Word 11"
          ]
        },
        {
          "conceptId": "C101924",
          "definition": "Auditory Verbal Learning Test Version A - List A, Recall 2, Word 12.",
          "preferredTerm": "ADNI AVLT - List A Recall 2 Word 12",
          "submissionValue": "AVL01029",
          "synonyms": [
            "AVL01-List A Recall 2 Word 12"
          ]
        },
        {
          "conceptId": "C101925",
          "definition": "Auditory Verbal Learning Test Version A - List A, Recall 2, Word 13.",
          "preferredTerm": "ADNI AVLT - List A Recall 2 Word 13",
          "submissionValue": "AVL01030",
          "synonyms": [
            "AVL01-List A Recall 2 Word 13"
          ]
        },
        {
          "conceptId": "C101926",
          "definition": "Auditory Verbal Learning Test Version A - List A, Recall 2, Word 14.",
          "preferredTerm": "ADNI AVLT - List A Recall 2 Word 14",
          "submissionValue": "AVL01031",
          "synonyms": [
            "AVL01-List A Recall 2 Word 14"
          ]
        },
        {
          "conceptId": "C101927",
          "definition": "Auditory Verbal Learning Test Version A - List A, Recall 2, Word 15.",
          "preferredTerm": "ADNI AVLT - List A Recall 2 Word 15",
          "submissionValue": "AVL01032",
          "synonyms": [
            "AVL01-List A Recall 2 Word 15"
          ]
        },
        {
          "conceptId": "C101928",
          "definition": "Auditory Verbal Learning Test Version A - The number of words recalled from List A, second attempt.",
          "preferredTerm": "ADNI AVLT - List A Recall 2 Total",
          "submissionValue": "AVL01033",
          "synonyms": [
            "AVL01-List A Recall 2 Total"
          ]
        },
        {
          "conceptId": "C101929",
          "definition": "Auditory Verbal Learning Test Version A - The number of intrusions while recalling List A, second attempt.",
          "preferredTerm": "ADNI AVLT - List A Intrusions 2",
          "submissionValue": "AVL01034",
          "synonyms": [
            "AVL01-List A Intrusions 2"
          ]
        },
        {
          "conceptId": "C101930",
          "definition": "Auditory Verbal Learning Test Version A - List A, Recall 3, Word 1.",
          "preferredTerm": "ADNI AVLT - List A Recall 3 Word 1",
          "submissionValue": "AVL01035",
          "synonyms": [
            "AVL01-List A Recall 3 Word 1"
          ]
        },
        {
          "conceptId": "C101931",
          "definition": "Auditory Verbal Learning Test Version A - List A, Recall 3, Word 2.",
          "preferredTerm": "ADNI AVLT - List A Recall 3 Word 2",
          "submissionValue": "AVL01036",
          "synonyms": [
            "AVL01-List A Recall 3 Word 2"
          ]
        },
        {
          "conceptId": "C101932",
          "definition": "Auditory Verbal Learning Test Version A - List A, Recall 3, Word 3.",
          "preferredTerm": "ADNI AVLT - List A Recall 3 Word 3",
          "submissionValue": "AVL01037",
          "synonyms": [
            "AVL01-List A Recall 3 Word 3"
          ]
        },
        {
          "conceptId": "C101933",
          "definition": "Auditory Verbal Learning Test Version A - List A, Recall 3, Word 4.",
          "preferredTerm": "ADNI AVLT - List A Recall 3 Word 4",
          "submissionValue": "AVL01038",
          "synonyms": [
            "AVL01-List A Recall 3 Word 4"
          ]
        },
        {
          "conceptId": "C101934",
          "definition": "Auditory Verbal Learning Test Version A - List A, Recall 3, Word 5.",
          "preferredTerm": "ADNI AVLT - List A Recall 3 Word 5",
          "submissionValue": "AVL01039",
          "synonyms": [
            "AVL01-List A Recall 3 Word 5"
          ]
        },
        {
          "conceptId": "C101935",
          "definition": "Auditory Verbal Learning Test Version A - List A, Recall 3, Word 6.",
          "preferredTerm": "ADNI AVLT - List A Recall 3 Word 6",
          "submissionValue": "AVL01040",
          "synonyms": [
            "AVL01-List A Recall 3 Word 6"
          ]
        },
        {
          "conceptId": "C101936",
          "definition": "Auditory Verbal Learning Test Version A - List A, Recall 3, Word 7.",
          "preferredTerm": "ADNI AVLT - List A Recall 3 Word 7",
          "submissionValue": "AVL01041",
          "synonyms": [
            "AVL01-List A Recall 3 Word 7"
          ]
        },
        {
          "conceptId": "C101937",
          "definition": "Auditory Verbal Learning Test Version A - List A, Recall 3, Word 8.",
          "preferredTerm": "ADNI AVLT - List A Recall 3 Word 8",
          "submissionValue": "AVL01042",
          "synonyms": [
            "AVL01-List A Recall 3 Word 8"
          ]
        },
        {
          "conceptId": "C101938",
          "definition": "Auditory Verbal Learning Test Version A - List A, Recall 3, Word 9.",
          "preferredTerm": "ADNI AVLT - List A Recall 3 Word 9",
          "submissionValue": "AVL01043",
          "synonyms": [
            "AVL01-List A Recall 3 Word 9"
          ]
        },
        {
          "conceptId": "C101939",
          "definition": "Auditory Verbal Learning Test Version A - List A, Recall 3, Word 10.",
          "preferredTerm": "ADNI AVLT - List A Recall 3 Word 10",
          "submissionValue": "AVL01044",
          "synonyms": [
            "AVL01-List A Recall 3 Word 10"
          ]
        },
        {
          "conceptId": "C101940",
          "definition": "Auditory Verbal Learning Test Version A - List A, Recall 3, Word 11.",
          "preferredTerm": "ADNI AVLT - List A Recall 3 Word 11",
          "submissionValue": "AVL01045",
          "synonyms": [
            "AVL01-List A Recall 3 Word 11"
          ]
        },
        {
          "conceptId": "C101941",
          "definition": "Auditory Verbal Learning Test Version A - List A, Recall 3, Word 12.",
          "preferredTerm": "ADNI AVLT - List A Recall 3 Word 12",
          "submissionValue": "AVL01046",
          "synonyms": [
            "AVL01-List A Recall 3 Word 12"
          ]
        },
        {
          "conceptId": "C101942",
          "definition": "Auditory Verbal Learning Test Version A - List A, Recall 3, Word 13.",
          "preferredTerm": "ADNI AVLT - List A Recall 3 Word 13",
          "submissionValue": "AVL01047",
          "synonyms": [
            "AVL01-List A Recall 3 Word 13"
          ]
        },
        {
          "conceptId": "C101943",
          "definition": "Auditory Verbal Learning Test Version A - List A, Recall 3, Word 14.",
          "preferredTerm": "ADNI AVLT - List A Recall 3 Word 14",
          "submissionValue": "AVL01048",
          "synonyms": [
            "AVL01-List A Recall 3 Word 14"
          ]
        },
        {
          "conceptId": "C101944",
          "definition": "Auditory Verbal Learning Test Version A - List A, Recall 3, Word 15.",
          "preferredTerm": "ADNI AVLT - List A Recall 3 Word 15",
          "submissionValue": "AVL01049",
          "synonyms": [
            "AVL01-List A Recall 3 Word 15"
          ]
        },
        {
          "conceptId": "C101945",
          "definition": "Auditory Verbal Learning Test Version A - The number of words recalled from List A, third attempt.",
          "preferredTerm": "ADNI AVLT - List A Recall 3 Total",
          "submissionValue": "AVL01050",
          "synonyms": [
            "AVL01-List A Recall 3 Total"
          ]
        },
        {
          "conceptId": "C101946",
          "definition": "Auditory Verbal Learning Test Version A - The number of intrusions while recalling List A, third attempt.",
          "preferredTerm": "ADNI AVLT - List A Intrusions 3",
          "submissionValue": "AVL01051",
          "synonyms": [
            "AVL01-List A Intrusions 3"
          ]
        },
        {
          "conceptId": "C101947",
          "definition": "Auditory Verbal Learning Test Version A - List A, Recall 4, Word 1.",
          "preferredTerm": "ADNI AVLT - List A Recall 4 Word 1",
          "submissionValue": "AVL01052",
          "synonyms": [
            "AVL01-List A Recall 4 Word 1"
          ]
        },
        {
          "conceptId": "C101948",
          "definition": "Auditory Verbal Learning Test Version A - List A, Recall 4, Word 2.",
          "preferredTerm": "ADNI AVLT - List A Recall 4 Word 2",
          "submissionValue": "AVL01053",
          "synonyms": [
            "AVL01-List A Recall 4 Word 2"
          ]
        },
        {
          "conceptId": "C101949",
          "definition": "Auditory Verbal Learning Test Version A - List A, Recall 4, Word 3.",
          "preferredTerm": "ADNI AVLT - List A Recall 4 Word 3",
          "submissionValue": "AVL01054",
          "synonyms": [
            "AVL01-List A Recall 4 Word 3"
          ]
        },
        {
          "conceptId": "C101950",
          "definition": "Auditory Verbal Learning Test Version A - List A, Recall 4, Word 4.",
          "preferredTerm": "ADNI AVLT - List A Recall 4 Word 4",
          "submissionValue": "AVL01055",
          "synonyms": [
            "AVL01-List A Recall 4 Word 4"
          ]
        },
        {
          "conceptId": "C101951",
          "definition": "Auditory Verbal Learning Test Version A - List A, Recall 4, Word 5.",
          "preferredTerm": "ADNI AVLT - List A Recall 4 Word 5",
          "submissionValue": "AVL01056",
          "synonyms": [
            "AVL01-List A Recall 4 Word 5"
          ]
        },
        {
          "conceptId": "C101952",
          "definition": "Auditory Verbal Learning Test Version A - List A, Recall 4, Word 6.",
          "preferredTerm": "ADNI AVLT - List A Recall 4 Word 6",
          "submissionValue": "AVL01057",
          "synonyms": [
            "AVL01-List A Recall 4 Word 6"
          ]
        },
        {
          "conceptId": "C101953",
          "definition": "Auditory Verbal Learning Test Version A - List A, Recall 4, Word 7.",
          "preferredTerm": "ADNI AVLT - List A Recall 4 Word 7",
          "submissionValue": "AVL01058",
          "synonyms": [
            "AVL01-List A Recall 4 Word 7"
          ]
        },
        {
          "conceptId": "C101954",
          "definition": "Auditory Verbal Learning Test Version A - List A, Recall 4, Word 8.",
          "preferredTerm": "ADNI AVLT - List A Recall 4 Word 8",
          "submissionValue": "AVL01059",
          "synonyms": [
            "AVL01-List A Recall 4 Word 8"
          ]
        },
        {
          "conceptId": "C101955",
          "definition": "Auditory Verbal Learning Test Version A - List A, Recall 4, Word 9.",
          "preferredTerm": "ADNI AVLT - List A Recall 4 Word 9",
          "submissionValue": "AVL01060",
          "synonyms": [
            "AVL01-List A Recall 4 Word 9"
          ]
        },
        {
          "conceptId": "C101956",
          "definition": "Auditory Verbal Learning Test Version A - List A, Recall 4, Word 10.",
          "preferredTerm": "ADNI AVLT - List A Recall 4 Word 10",
          "submissionValue": "AVL01061",
          "synonyms": [
            "AVL01-List A Recall 4 Word 10"
          ]
        },
        {
          "conceptId": "C101957",
          "definition": "Auditory Verbal Learning Test Version A - List A, Recall 4, Word 11.",
          "preferredTerm": "ADNI AVLT - List A Recall 4 Word 11",
          "submissionValue": "AVL01062",
          "synonyms": [
            "AVL01-List A Recall 4 Word 11"
          ]
        },
        {
          "conceptId": "C101958",
          "definition": "Auditory Verbal Learning Test Version A - List A, Recall 4, Word 12.",
          "preferredTerm": "ADNI AVLT - List A Recall 4 Word 12",
          "submissionValue": "AVL01063",
          "synonyms": [
            "AVL01-List A Recall 4 Word 12"
          ]
        },
        {
          "conceptId": "C101959",
          "definition": "Auditory Verbal Learning Test Version A - List A, Recall 4, Word 13.",
          "preferredTerm": "ADNI AVLT - List A Recall 4 Word 13",
          "submissionValue": "AVL01064",
          "synonyms": [
            "AVL01-List A Recall 4 Word 13"
          ]
        },
        {
          "conceptId": "C101960",
          "definition": "Auditory Verbal Learning Test Version A - List A, Recall 4, Word 14.",
          "preferredTerm": "ADNI AVLT - List A Recall 4 Word 14",
          "submissionValue": "AVL01065",
          "synonyms": [
            "AVL01-List A Recall 4 Word 14"
          ]
        },
        {
          "conceptId": "C101961",
          "definition": "Auditory Verbal Learning Test Version A - List A, Recall 4, Word 15.",
          "preferredTerm": "ADNI AVLT - List A Recall 4 Word 15",
          "submissionValue": "AVL01066",
          "synonyms": [
            "AVL01-List A Recall 4 Word 15"
          ]
        },
        {
          "conceptId": "C101962",
          "definition": "Auditory Verbal Learning Test Version A - The number of words recalled from List A, fourth attempt.",
          "preferredTerm": "ADNI AVLT - List A Recall 4 Total",
          "submissionValue": "AVL01067",
          "synonyms": [
            "AVL01-List A Recall 4 Total"
          ]
        },
        {
          "conceptId": "C101963",
          "definition": "Auditory Verbal Learning Test Version A - The number of intrusions while recalling List A, fourth attempt.",
          "preferredTerm": "ADNI AVLT - List A Intrusions 4",
          "submissionValue": "AVL01068",
          "synonyms": [
            "AVL01-List A Intrusions 4"
          ]
        },
        {
          "conceptId": "C101964",
          "definition": "Auditory Verbal Learning Test Version A - List A, Recall 5, Word 1.",
          "preferredTerm": "ADNI AVLT - List A Recall 5 Word 1",
          "submissionValue": "AVL01069",
          "synonyms": [
            "AVL01-List A Recall 5 Word 1"
          ]
        },
        {
          "conceptId": "C101965",
          "definition": "Auditory Verbal Learning Test Version A - List A, Recall 5, Word 2.",
          "preferredTerm": "ADNI AVLT - List A Recall 5 Word 2",
          "submissionValue": "AVL01070",
          "synonyms": [
            "AVL01-List A Recall 5 Word 2"
          ]
        },
        {
          "conceptId": "C101966",
          "definition": "Auditory Verbal Learning Test Version A - List A, Recall 5, Word 3.",
          "preferredTerm": "ADNI AVLT - List A Recall 5 Word 3",
          "submissionValue": "AVL01071",
          "synonyms": [
            "AVL01-List A Recall 5 Word 3"
          ]
        },
        {
          "conceptId": "C101967",
          "definition": "Auditory Verbal Learning Test Version A - List A, Recall 5, Word 4.",
          "preferredTerm": "ADNI AVLT - List A Recall 5 Word 4",
          "submissionValue": "AVL01072",
          "synonyms": [
            "AVL01-List A Recall 5 Word 4"
          ]
        },
        {
          "conceptId": "C101968",
          "definition": "Auditory Verbal Learning Test Version A - List A, Recall 5, Word 5.",
          "preferredTerm": "ADNI AVLT - List A Recall 5 Word 5",
          "submissionValue": "AVL01073",
          "synonyms": [
            "AVL01-List A Recall 5 Word 5"
          ]
        },
        {
          "conceptId": "C101969",
          "definition": "Auditory Verbal Learning Test Version A - List A, Recall 5, Word 6.",
          "preferredTerm": "ADNI AVLT - List A Recall 5 Word 6",
          "submissionValue": "AVL01074",
          "synonyms": [
            "AVL01-List A Recall 5 Word 6"
          ]
        },
        {
          "conceptId": "C101970",
          "definition": "Auditory Verbal Learning Test Version A - List A, Recall 5, Word 7.",
          "preferredTerm": "ADNI AVLT - List A Recall 5 Word 7",
          "submissionValue": "AVL01075",
          "synonyms": [
            "AVL01-List A Recall 5 Word 7"
          ]
        },
        {
          "conceptId": "C101971",
          "definition": "Auditory Verbal Learning Test Version A - List A, Recall 5, Word 8.",
          "preferredTerm": "ADNI AVLT - List A Recall 5 Word 8",
          "submissionValue": "AVL01076",
          "synonyms": [
            "AVL01-List A Recall 5 Word 8"
          ]
        },
        {
          "conceptId": "C101972",
          "definition": "Auditory Verbal Learning Test Version A - List A, Recall 5, Word 9.",
          "preferredTerm": "ADNI AVLT - List A Recall 5 Word 9",
          "submissionValue": "AVL01077",
          "synonyms": [
            "AVL01-List A Recall 5 Word 9"
          ]
        },
        {
          "conceptId": "C101973",
          "definition": "Auditory Verbal Learning Test Version A - List A, Recall 5, Word 10.",
          "preferredTerm": "ADNI AVLT - List A Recall 5 Word 10",
          "submissionValue": "AVL01078",
          "synonyms": [
            "AVL01-List A Recall 5 Word 10"
          ]
        },
        {
          "conceptId": "C101974",
          "definition": "Auditory Verbal Learning Test Version A - List A, Recall 5, Word 11.",
          "preferredTerm": "ADNI AVLT - List A Recall 5 Word 11",
          "submissionValue": "AVL01079",
          "synonyms": [
            "AVL01-List A Recall 5 Word 11"
          ]
        },
        {
          "conceptId": "C101975",
          "definition": "Auditory Verbal Learning Test Version A - List A, Recall 5, Word 12.",
          "preferredTerm": "ADNI AVLT - List A Recall 5 Word 12",
          "submissionValue": "AVL01080",
          "synonyms": [
            "AVL01-List A Recall 5 Word 12"
          ]
        },
        {
          "conceptId": "C101976",
          "definition": "Auditory Verbal Learning Test Version A - List A, Recall 5, Word 13.",
          "preferredTerm": "ADNI AVLT - List A Recall 5 Word 13",
          "submissionValue": "AVL01081",
          "synonyms": [
            "AVL01-List A Recall 5 Word 13"
          ]
        },
        {
          "conceptId": "C101977",
          "definition": "Auditory Verbal Learning Test Version A - List A, Recall 5, Word 14.",
          "preferredTerm": "ADNI AVLT - List A Recall 5 Word 14",
          "submissionValue": "AVL01082",
          "synonyms": [
            "AVL01-List A Recall 5 Word 14"
          ]
        },
        {
          "conceptId": "C101978",
          "definition": "Auditory Verbal Learning Test Version A - List A, Recall 5, Word 15.",
          "preferredTerm": "ADNI AVLT - List A Recall 5 Word 15",
          "submissionValue": "AVL01083",
          "synonyms": [
            "AVL01-List A Recall 5 Word 15"
          ]
        },
        {
          "conceptId": "C101979",
          "definition": "Auditory Verbal Learning Test Version A - The number of words recalled from List A, fifth attempt.",
          "preferredTerm": "ADNI AVLT - List A Recall 5 Total",
          "submissionValue": "AVL01084",
          "synonyms": [
            "AVL01-List A Recall 5 Total"
          ]
        },
        {
          "conceptId": "C101980",
          "definition": "Auditory Verbal Learning Test Version A - The number of intrusions while recalling List A, fifth attempt.",
          "preferredTerm": "ADNI AVLT - List A Intrusions 5",
          "submissionValue": "AVL01085",
          "synonyms": [
            "AVL01-List A Intrusions 5"
          ]
        },
        {
          "conceptId": "C101981",
          "definition": "Auditory Verbal Learning Test Version A - List A, Recall 6 (after B Recall), Word 1.",
          "preferredTerm": "ADNI AVLT - List A Recall 6 (After B) Word 1",
          "submissionValue": "AVL01086",
          "synonyms": [
            "AVL01-List A Recall 6 (After B) Word 1"
          ]
        },
        {
          "conceptId": "C101982",
          "definition": "Auditory Verbal Learning Test Version A - List A, Recall 6 (after B Recall), Word 2.",
          "preferredTerm": "ADNI AVLT - List A Recall 6 (After B) Word 2",
          "submissionValue": "AVL01087",
          "synonyms": [
            "AVL01-List A Recall 6 (After B) Word 2"
          ]
        },
        {
          "conceptId": "C101983",
          "definition": "Auditory Verbal Learning Test Version A - List A, Recall 6 (after B Recall), Word 3.",
          "preferredTerm": "ADNI AVLT - List A Recall 6 (After B) Word 3",
          "submissionValue": "AVL01088",
          "synonyms": [
            "AVL01-List A Recall 6 (After B) Word 3"
          ]
        },
        {
          "conceptId": "C101984",
          "definition": "Auditory Verbal Learning Test Version A - List A, Recall 6 (after B Recall), Word 4.",
          "preferredTerm": "ADNI AVLT - List A Recall 6 (After B) Word 4",
          "submissionValue": "AVL01089",
          "synonyms": [
            "AVL01-List A Recall 6 (After B) Word 4"
          ]
        },
        {
          "conceptId": "C101985",
          "definition": "Auditory Verbal Learning Test Version A - List A, Recall 6 (after B Recall), Word 5.",
          "preferredTerm": "ADNI AVLT - List A Recall 6 (After B) Word 5",
          "submissionValue": "AVL01090",
          "synonyms": [
            "AVL01-List A Recall 6 (After B) Word 5"
          ]
        },
        {
          "conceptId": "C101986",
          "definition": "Auditory Verbal Learning Test Version A - List A, Recall 6 (after B Recall), Word 6.",
          "preferredTerm": "ADNI AVLT - List A Recall 6 (After B) Word 6",
          "submissionValue": "AVL01091",
          "synonyms": [
            "AVL01-List A Recall 6 (After B) Word 6"
          ]
        },
        {
          "conceptId": "C101987",
          "definition": "Auditory Verbal Learning Test Version A - List A, Recall 6 (after B Recall), Word 7.",
          "preferredTerm": "ADNI AVLT - List A Recall 6 (After B) Word 7",
          "submissionValue": "AVL01092",
          "synonyms": [
            "AVL01-List A Recall 6 (After B) Word 7"
          ]
        },
        {
          "conceptId": "C101988",
          "definition": "Auditory Verbal Learning Test Version A - List A, Recall 6 (after B Recall), Word 8.",
          "preferredTerm": "ADNI AVLT - List A Recall 6 (After B) Word 8",
          "submissionValue": "AVL01093",
          "synonyms": [
            "AVL01-List A Recall 6 (After B) Word 8"
          ]
        },
        {
          "conceptId": "C101989",
          "definition": "Auditory Verbal Learning Test Version A - List A, Recall 6 (after B Recall), Word 9.",
          "preferredTerm": "ADNI AVLT - List A Recall 6 (After B) Word 9",
          "submissionValue": "AVL01094",
          "synonyms": [
            "AVL01-List A Recall 6 (After B) Word 9"
          ]
        },
        {
          "conceptId": "C101990",
          "definition": "Auditory Verbal Learning Test Version A - List A, Recall 6 (after B Recall), Word 10.",
          "preferredTerm": "ADNI AVLT - List A Recall 6 (After B) Word 10",
          "submissionValue": "AVL01095",
          "synonyms": [
            "AVL01-List A Recall 6 (After B) Word 10"
          ]
        },
        {
          "conceptId": "C101991",
          "definition": "Auditory Verbal Learning Test Version A - List A, Recall 6 (after B Recall), Word 11.",
          "preferredTerm": "ADNI AVLT - List A Recall 6 (After B) Word 11",
          "submissionValue": "AVL01096",
          "synonyms": [
            "AVL01-List A Recall 6 (After B) Word 11"
          ]
        },
        {
          "conceptId": "C101992",
          "definition": "Auditory Verbal Learning Test Version A - List A, Recall 6 (after B Recall), Word 12.",
          "preferredTerm": "ADNI AVLT - List A Recall 6 (After B) Word 12",
          "submissionValue": "AVL01097",
          "synonyms": [
            "AVL01-List A Recall 6 (After B) Word 12"
          ]
        },
        {
          "conceptId": "C101993",
          "definition": "Auditory Verbal Learning Test Version A - List A, Recall 6 (after B Recall), Word 13.",
          "preferredTerm": "ADNI AVLT - List A Recall 6 (After B) Word 13",
          "submissionValue": "AVL01098",
          "synonyms": [
            "AVL01-List A Recall 6 (After B) Word 13"
          ]
        },
        {
          "conceptId": "C101994",
          "definition": "Auditory Verbal Learning Test Version A - List A, Recall 6 (after B Recall), Word 14.",
          "preferredTerm": "ADNI AVLT - List A Recall 6 (After B) Word 14",
          "submissionValue": "AVL01099",
          "synonyms": [
            "AVL01-List A Recall 6 (After B) Word 14"
          ]
        },
        {
          "conceptId": "C101995",
          "definition": "Auditory Verbal Learning Test Version A - List A, Recall 6 (after B Recall), Word 15.",
          "preferredTerm": "ADNI AVLT - List A Recall 6 (After B) Word 15",
          "submissionValue": "AVL01100",
          "synonyms": [
            "AVL01-List A Recall 6 (After B) Word 15"
          ]
        },
        {
          "conceptId": "C101996",
          "definition": "Auditory Verbal Learning Test Version A - The number of words recalled from List A, sixth attempt (after List B recall).",
          "preferredTerm": "ADNI AVLT - List A Recall 6 (After B) Total",
          "submissionValue": "AVL01101",
          "synonyms": [
            "AVL01-List A Recall 6 (After B) Total"
          ]
        },
        {
          "conceptId": "C101997",
          "definition": "Auditory Verbal Learning Test Version A - The number of intrusions while recalling List A, sixth attempt (after List B recall).",
          "preferredTerm": "ADNI AVLT - List A Intrusions 6",
          "submissionValue": "AVL01102",
          "synonyms": [
            "AVL01-List A Intrusions 6"
          ]
        },
        {
          "conceptId": "C101998",
          "definition": "Auditory Verbal Learning Test Version A - List B, Word 1.",
          "preferredTerm": "ADNI AVLT - List B Recall Word 1",
          "submissionValue": "AVL01103",
          "synonyms": [
            "AVL01-List B Recall Word 1"
          ]
        },
        {
          "conceptId": "C101999",
          "definition": "Auditory Verbal Learning Test Version A - List B, Word 2.",
          "preferredTerm": "ADNI AVLT - List B Recall Word 2",
          "submissionValue": "AVL01104",
          "synonyms": [
            "AVL01-List B Recall Word 2"
          ]
        },
        {
          "conceptId": "C102000",
          "definition": "Auditory Verbal Learning Test Version A - List B, Word 3.",
          "preferredTerm": "ADNI AVLT - List B Recall Word 3",
          "submissionValue": "AVL01105",
          "synonyms": [
            "AVL01-List B Recall Word 3"
          ]
        },
        {
          "conceptId": "C102001",
          "definition": "Auditory Verbal Learning Test Version A - List B, Word 4.",
          "preferredTerm": "ADNI AVLT - List B Recall Word 4",
          "submissionValue": "AVL01106",
          "synonyms": [
            "AVL01-List B Recall Word 4"
          ]
        },
        {
          "conceptId": "C102002",
          "definition": "Auditory Verbal Learning Test Version A - List B, Word 5.",
          "preferredTerm": "ADNI AVLT - List B Recall Word 5",
          "submissionValue": "AVL01107",
          "synonyms": [
            "AVL01-List B Recall Word 5"
          ]
        },
        {
          "conceptId": "C102003",
          "definition": "Auditory Verbal Learning Test Version A - List B, Word 6.",
          "preferredTerm": "ADNI AVLT - List B Recall Word 6",
          "submissionValue": "AVL01108",
          "synonyms": [
            "AVL01-List B Recall Word 6"
          ]
        },
        {
          "conceptId": "C102004",
          "definition": "Auditory Verbal Learning Test Version A - List B, Word 7.",
          "preferredTerm": "ADNI AVLT - List B Recall Word 7",
          "submissionValue": "AVL01109",
          "synonyms": [
            "AVL01-List B Recall Word 7"
          ]
        },
        {
          "conceptId": "C102005",
          "definition": "Auditory Verbal Learning Test Version A - List B, Word 8.",
          "preferredTerm": "ADNI AVLT - List B Recall Word 8",
          "submissionValue": "AVL01110",
          "synonyms": [
            "AVL01-List B Recall Word 8"
          ]
        },
        {
          "conceptId": "C102006",
          "definition": "Auditory Verbal Learning Test Version A - List B, Word 9.",
          "preferredTerm": "ADNI AVLT - List B Recall Word 9",
          "submissionValue": "AVL01111",
          "synonyms": [
            "AVL01-List B Recall Word 9"
          ]
        },
        {
          "conceptId": "C102007",
          "definition": "Auditory Verbal Learning Test Version A - List B, Word 10.",
          "preferredTerm": "ADNI AVLT - List B Recall Word 10",
          "submissionValue": "AVL01112",
          "synonyms": [
            "AVL01-List B Recall Word 10"
          ]
        },
        {
          "conceptId": "C102008",
          "definition": "Auditory Verbal Learning Test Version A - List B, Word 11.",
          "preferredTerm": "ADNI AVLT - List B Recall Word 11",
          "submissionValue": "AVL01113",
          "synonyms": [
            "AVL01-List B Recall Word 11"
          ]
        },
        {
          "conceptId": "C102009",
          "definition": "Auditory Verbal Learning Test Version A - List B, Word 12.",
          "preferredTerm": "ADNI AVLT - List B Recall Word 12",
          "submissionValue": "AVL01114",
          "synonyms": [
            "AVL01-List B Recall Word 12"
          ]
        },
        {
          "conceptId": "C102010",
          "definition": "Auditory Verbal Learning Test Version A - List B, Word 13.",
          "preferredTerm": "ADNI AVLT - List B Recall Word 13",
          "submissionValue": "AVL01115",
          "synonyms": [
            "AVL01-List B Recall Word 13"
          ]
        },
        {
          "conceptId": "C102011",
          "definition": "Auditory Verbal Learning Test Version A - List B, Word 14.",
          "preferredTerm": "ADNI AVLT - List B Recall Word 14",
          "submissionValue": "AVL01116",
          "synonyms": [
            "AVL01-List B Recall Word 14"
          ]
        },
        {
          "conceptId": "C102012",
          "definition": "Auditory Verbal Learning Test Version A - List B, Word 15.",
          "preferredTerm": "ADNI AVLT - List B Recall Word 15",
          "submissionValue": "AVL01117",
          "synonyms": [
            "AVL01-List B Recall Word 15"
          ]
        },
        {
          "conceptId": "C102013",
          "definition": "Auditory Verbal Learning Test Version A - The number of words recalled from List B.",
          "preferredTerm": "ADNI AVLT - List B Recall Total",
          "submissionValue": "AVL01118",
          "synonyms": [
            "AVL01-List B Recall Total"
          ]
        },
        {
          "conceptId": "C102014",
          "definition": "Auditory Verbal Learning Test Version A - The number of intrusions while recalling List B.",
          "preferredTerm": "ADNI AVLT - List B Intrusions",
          "submissionValue": "AVL01119",
          "synonyms": [
            "AVL01-List B Intrusions"
          ]
        },
        {
          "conceptId": "C102015",
          "definition": "Auditory Verbal Learning Test Version A - List A, 30 Minute Delay Recall, Word 1.",
          "preferredTerm": "ADNI AVLT - List A 30 Min Delay Recall Word 1",
          "submissionValue": "AVL01120",
          "synonyms": [
            "AVL01-List A 30 Min Delay Recall Word 1"
          ]
        },
        {
          "conceptId": "C102016",
          "definition": "Auditory Verbal Learning Test Version A - List A, 30 Minute Delay Recall, Word 2.",
          "preferredTerm": "ADNI AVLT - List A 30 Min Delay Recall Word 2",
          "submissionValue": "AVL01121",
          "synonyms": [
            "AVL01-List A 30 Min Delay Recall Word 2"
          ]
        },
        {
          "conceptId": "C102017",
          "definition": "Auditory Verbal Learning Test Version A - List A, 30 Minute Delay Recall, Word 3.",
          "preferredTerm": "ADNI AVLT - List A 30 Min Delay Recall Word 3",
          "submissionValue": "AVL01122",
          "synonyms": [
            "AVL01-List A 30 Min Delay Recall Word 3"
          ]
        },
        {
          "conceptId": "C102018",
          "definition": "Auditory Verbal Learning Test Version A - List A, 30 Minute Delay Recall, Word 4.",
          "preferredTerm": "ADNI AVLT - List A 30 Min Delay Recall Word 4",
          "submissionValue": "AVL01123",
          "synonyms": [
            "AVL01-List A 30 Min Delay Recall Word 4"
          ]
        },
        {
          "conceptId": "C102019",
          "definition": "Auditory Verbal Learning Test Version A - List A, 30 Minute Delay Recall, Word 5.",
          "preferredTerm": "ADNI AVLT - List A 30 Min Delay Recall Word 5",
          "submissionValue": "AVL01124",
          "synonyms": [
            "AVL01-List A 30 Min Delay Recall Word 5"
          ]
        },
        {
          "conceptId": "C102020",
          "definition": "Auditory Verbal Learning Test Version A - List A, 30 Minute Delay Recall, Word 6.",
          "preferredTerm": "ADNI AVLT - List A 30 Min Delay Recall Word 6",
          "submissionValue": "AVL01125",
          "synonyms": [
            "AVL01-List A 30 Min Delay Recall Word 6"
          ]
        },
        {
          "conceptId": "C102021",
          "definition": "Auditory Verbal Learning Test Version A - List A, 30 Minute Delay Recall, Word 7.",
          "preferredTerm": "ADNI AVLT - List A 30 Min Delay Recall Word 7",
          "submissionValue": "AVL01126",
          "synonyms": [
            "AVL01-List A 30 Min Delay Recall Word 7"
          ]
        },
        {
          "conceptId": "C102022",
          "definition": "Auditory Verbal Learning Test Version A - List A, 30 Minute Delay Recall, Word 8.",
          "preferredTerm": "ADNI AVLT - List A 30 Min Delay Recall Word 8",
          "submissionValue": "AVL01127",
          "synonyms": [
            "AVL01-List A 30 Min Delay Recall Word 8"
          ]
        },
        {
          "conceptId": "C102023",
          "definition": "Auditory Verbal Learning Test Version A - List A, 30 Minute Delay Recall, Word 9.",
          "preferredTerm": "ADNI AVLT - List A 30 Min Delay Recall Word 9",
          "submissionValue": "AVL01128",
          "synonyms": [
            "AVL01-List A 30 Min Delay Recall Word 9"
          ]
        },
        {
          "conceptId": "C102024",
          "definition": "Auditory Verbal Learning Test Version A - List A, 30 Minute Delay Recall, Word 10.",
          "preferredTerm": "ADNI AVLT - List A 30 Min Delay Recall Word 10",
          "submissionValue": "AVL01129",
          "synonyms": [
            "AVL01-List A 30 Min Delay Recall Word 10"
          ]
        },
        {
          "conceptId": "C102025",
          "definition": "Auditory Verbal Learning Test Version A - List A, 30 Minute Delay Recall, Word 11.",
          "preferredTerm": "ADNI AVLT - List A 30 Min Delay Recall Word 11",
          "submissionValue": "AVL01130",
          "synonyms": [
            "AVL01-List A 30 Min Delay Recall Word 11"
          ]
        },
        {
          "conceptId": "C102026",
          "definition": "Auditory Verbal Learning Test Version A - List A, 30 Minute Delay Recall, Word 12.",
          "preferredTerm": "ADNI AVLT - List A 30 Min Delay Recall Word 12",
          "submissionValue": "AVL01131",
          "synonyms": [
            "AVL01-List A 30 Min Delay Recall Word 12"
          ]
        },
        {
          "conceptId": "C102027",
          "definition": "Auditory Verbal Learning Test Version A - List A, 30 Minute Delay Recall, Word 13.",
          "preferredTerm": "ADNI AVLT - List A 30 Min Delay Recall Word 13",
          "submissionValue": "AVL01132",
          "synonyms": [
            "AVL01-List A 30 Min Delay Recall Word 13"
          ]
        },
        {
          "conceptId": "C102028",
          "definition": "Auditory Verbal Learning Test Version A - List A, 30 Minute Delay Recall, Word 14.",
          "preferredTerm": "ADNI AVLT - List A 30 Min Delay Recall Word 14",
          "submissionValue": "AVL01133",
          "synonyms": [
            "AVL01-List A 30 Min Delay Recall Word 14"
          ]
        },
        {
          "conceptId": "C102029",
          "definition": "Auditory Verbal Learning Test Version A - List A, 30 Minute Delay Recall, Word 15.",
          "preferredTerm": "ADNI AVLT - List A 30 Min Delay Recall Word 15",
          "submissionValue": "AVL01134",
          "synonyms": [
            "AVL01-List A 30 Min Delay Recall Word 15"
          ]
        },
        {
          "conceptId": "C102030",
          "definition": "Auditory Verbal Learning Test Version A - The number of words recalled from List A, 30 Minute Delay recall.",
          "preferredTerm": "ADNI AVLT - List A 30 Min Delay Recall Total",
          "submissionValue": "AVL01135",
          "synonyms": [
            "AVL01-List A 30 Min Delay Recall Total"
          ]
        },
        {
          "conceptId": "C102031",
          "definition": "Auditory Verbal Learning Test Version A - The number of intrusions while recalling List A, 30 Minute Delay.",
          "preferredTerm": "ADNI AVLT - List A 30 Min Delay Intrusions",
          "submissionValue": "AVL01136",
          "synonyms": [
            "AVL01-List A 30 Min Delay Intrusions"
          ]
        },
        {
          "conceptId": "C102032",
          "definition": "Auditory Verbal Learning Test Version A - The number of words correct on recognition test.",
          "preferredTerm": "ADNI AVLT - List A Recognition Total",
          "submissionValue": "AVL01137",
          "synonyms": [
            "AVL01-List A Recognition Total"
          ]
        },
        {
          "conceptId": "C102033",
          "definition": "Auditory Verbal Learning Test Version A - The number of intrusions on recognition test.",
          "preferredTerm": "ADNI AVLT - List A Recognition Intrusions",
          "submissionValue": "AVL01138",
          "synonyms": [
            "AVL01-List A Recognition Intrusions"
          ]
        }
      ]
    },
    {
      "conceptId": "C101808",
      "definition": "ADNI AVLT test name.",
      "extensible": "No",
      "name": "ADNI AVLT Test Name",
      "preferredTerm": "CDISC Questionnaire ADNI AVLT Test Name Terminology",
      "submissionValue": "AVLT TEST",
      "synonyms": [
        "ADNI AVLT Test Name"
      ],
      "terms": [
        {
          "conceptId": "C102031",
          "definition": "Auditory Verbal Learning Test Version A - The number of intrusions while recalling List A, 30 Minute Delay.",
          "preferredTerm": "ADNI AVLT - List A 30 Min Delay Intrusions",
          "submissionValue": "AVL01-List A 30 Min Delay Intrusions",
          "synonyms": [
            "AVL01-List A 30 Min Delay Intrusions"
          ]
        },
        {
          "conceptId": "C102030",
          "definition": "Auditory Verbal Learning Test Version A - The number of words recalled from List A, 30 Minute Delay recall.",
          "preferredTerm": "ADNI AVLT - List A 30 Min Delay Recall Total",
          "submissionValue": "AVL01-List A 30 Min Delay Recall Total",
          "synonyms": [
            "AVL01-List A 30 Min Delay Recall Total"
          ]
        },
        {
          "conceptId": "C102015",
          "definition": "Auditory Verbal Learning Test Version A - List A, 30 Minute Delay Recall, Word 1.",
          "preferredTerm": "ADNI AVLT - List A 30 Min Delay Recall Word 1",
          "submissionValue": "AVL01-List A 30 Min Delay Recall Word 1",
          "synonyms": [
            "AVL01-List A 30 Min Delay Recall Word 1"
          ]
        },
        {
          "conceptId": "C102024",
          "definition": "Auditory Verbal Learning Test Version A - List A, 30 Minute Delay Recall, Word 10.",
          "preferredTerm": "ADNI AVLT - List A 30 Min Delay Recall Word 10",
          "submissionValue": "AVL01-List A 30 Min Delay Recall Word 10",
          "synonyms": [
            "AVL01-List A 30 Min Delay Recall Word 10"
          ]
        },
        {
          "conceptId": "C102025",
          "definition": "Auditory Verbal Learning Test Version A - List A, 30 Minute Delay Recall, Word 11.",
          "preferredTerm": "ADNI AVLT - List A 30 Min Delay Recall Word 11",
          "submissionValue": "AVL01-List A 30 Min Delay Recall Word 11",
          "synonyms": [
            "AVL01-List A 30 Min Delay Recall Word 11"
          ]
        },
        {
          "conceptId": "C102026",
          "definition": "Auditory Verbal Learning Test Version A - List A, 30 Minute Delay Recall, Word 12.",
          "preferredTerm": "ADNI AVLT - List A 30 Min Delay Recall Word 12",
          "submissionValue": "AVL01-List A 30 Min Delay Recall Word 12",
          "synonyms": [
            "AVL01-List A 30 Min Delay Recall Word 12"
          ]
        },
        {
          "conceptId": "C102027",
          "definition": "Auditory Verbal Learning Test Version A - List A, 30 Minute Delay Recall, Word 13.",
          "preferredTerm": "ADNI AVLT - List A 30 Min Delay Recall Word 13",
          "submissionValue": "AVL01-List A 30 Min Delay Recall Word 13",
          "synonyms": [
            "AVL01-List A 30 Min Delay Recall Word 13"
          ]
        },
        {
          "conceptId": "C102028",
          "definition": "Auditory Verbal Learning Test Version A - List A, 30 Minute Delay Recall, Word 14.",
          "preferredTerm": "ADNI AVLT - List A 30 Min Delay Recall Word 14",
          "submissionValue": "AVL01-List A 30 Min Delay Recall Word 14",
          "synonyms": [
            "AVL01-List A 30 Min Delay Recall Word 14"
          ]
        },
        {
          "conceptId": "C102029",
          "definition": "Auditory Verbal Learning Test Version A - List A, 30 Minute Delay Recall, Word 15.",
          "preferredTerm": "ADNI AVLT - List A 30 Min Delay Recall Word 15",
          "submissionValue": "AVL01-List A 30 Min Delay Recall Word 15",
          "synonyms": [
            "AVL01-List A 30 Min Delay Recall Word 15"
          ]
        },
        {
          "conceptId": "C102016",
          "definition": "Auditory Verbal Learning Test Version A - List A, 30 Minute Delay Recall, Word 2.",
          "preferredTerm": "ADNI AVLT - List A 30 Min Delay Recall Word 2",
          "submissionValue": "AVL01-List A 30 Min Delay Recall Word 2",
          "synonyms": [
            "AVL01-List A 30 Min Delay Recall Word 2"
          ]
        },
        {
          "conceptId": "C102017",
          "definition": "Auditory Verbal Learning Test Version A - List A, 30 Minute Delay Recall, Word 3.",
          "preferredTerm": "ADNI AVLT - List A 30 Min Delay Recall Word 3",
          "submissionValue": "AVL01-List A 30 Min Delay Recall Word 3",
          "synonyms": [
            "AVL01-List A 30 Min Delay Recall Word 3"
          ]
        },
        {
          "conceptId": "C102018",
          "definition": "Auditory Verbal Learning Test Version A - List A, 30 Minute Delay Recall, Word 4.",
          "preferredTerm": "ADNI AVLT - List A 30 Min Delay Recall Word 4",
          "submissionValue": "AVL01-List A 30 Min Delay Recall Word 4",
          "synonyms": [
            "AVL01-List A 30 Min Delay Recall Word 4"
          ]
        },
        {
          "conceptId": "C102019",
          "definition": "Auditory Verbal Learning Test Version A - List A, 30 Minute Delay Recall, Word 5.",
          "preferredTerm": "ADNI AVLT - List A 30 Min Delay Recall Word 5",
          "submissionValue": "AVL01-List A 30 Min Delay Recall Word 5",
          "synonyms": [
            "AVL01-List A 30 Min Delay Recall Word 5"
          ]
        },
        {
          "conceptId": "C102020",
          "definition": "Auditory Verbal Learning Test Version A - List A, 30 Minute Delay Recall, Word 6.",
          "preferredTerm": "ADNI AVLT - List A 30 Min Delay Recall Word 6",
          "submissionValue": "AVL01-List A 30 Min Delay Recall Word 6",
          "synonyms": [
            "AVL01-List A 30 Min Delay Recall Word 6"
          ]
        },
        {
          "conceptId": "C102021",
          "definition": "Auditory Verbal Learning Test Version A - List A, 30 Minute Delay Recall, Word 7.",
          "preferredTerm": "ADNI AVLT - List A 30 Min Delay Recall Word 7",
          "submissionValue": "AVL01-List A 30 Min Delay Recall Word 7",
          "synonyms": [
            "AVL01-List A 30 Min Delay Recall Word 7"
          ]
        },
        {
          "conceptId": "C102022",
          "definition": "Auditory Verbal Learning Test Version A - List A, 30 Minute Delay Recall, Word 8.",
          "preferredTerm": "ADNI AVLT - List A 30 Min Delay Recall Word 8",
          "submissionValue": "AVL01-List A 30 Min Delay Recall Word 8",
          "synonyms": [
            "AVL01-List A 30 Min Delay Recall Word 8"
          ]
        },
        {
          "conceptId": "C102023",
          "definition": "Auditory Verbal Learning Test Version A - List A, 30 Minute Delay Recall, Word 9.",
          "preferredTerm": "ADNI AVLT - List A 30 Min Delay Recall Word 9",
          "submissionValue": "AVL01-List A 30 Min Delay Recall Word 9",
          "synonyms": [
            "AVL01-List A 30 Min Delay Recall Word 9"
          ]
        },
        {
          "conceptId": "C101912",
          "definition": "Auditory Verbal Learning Test Version A - The number of intrusions while recalling List A, first attempt.",
          "preferredTerm": "ADNI AVLT - List A Intrusions 1",
          "submissionValue": "AVL01-List A Intrusions 1",
          "synonyms": [
            "AVL01-List A Intrusions 1"
          ]
        },
        {
          "conceptId": "C101929",
          "definition": "Auditory Verbal Learning Test Version A - The number of intrusions while recalling List A, second attempt.",
          "preferredTerm": "ADNI AVLT - List A Intrusions 2",
          "submissionValue": "AVL01-List A Intrusions 2",
          "synonyms": [
            "AVL01-List A Intrusions 2"
          ]
        },
        {
          "conceptId": "C101946",
          "definition": "Auditory Verbal Learning Test Version A - The number of intrusions while recalling List A, third attempt.",
          "preferredTerm": "ADNI AVLT - List A Intrusions 3",
          "submissionValue": "AVL01-List A Intrusions 3",
          "synonyms": [
            "AVL01-List A Intrusions 3"
          ]
        },
        {
          "conceptId": "C101963",
          "definition": "Auditory Verbal Learning Test Version A - The number of intrusions while recalling List A, fourth attempt.",
          "preferredTerm": "ADNI AVLT - List A Intrusions 4",
          "submissionValue": "AVL01-List A Intrusions 4",
          "synonyms": [
            "AVL01-List A Intrusions 4"
          ]
        },
        {
          "conceptId": "C101980",
          "definition": "Auditory Verbal Learning Test Version A - The number of intrusions while recalling List A, fifth attempt.",
          "preferredTerm": "ADNI AVLT - List A Intrusions 5",
          "submissionValue": "AVL01-List A Intrusions 5",
          "synonyms": [
            "AVL01-List A Intrusions 5"
          ]
        },
        {
          "conceptId": "C101997",
          "definition": "Auditory Verbal Learning Test Version A - The number of intrusions while recalling List A, sixth attempt (after List B recall).",
          "preferredTerm": "ADNI AVLT - List A Intrusions 6",
          "submissionValue": "AVL01-List A Intrusions 6",
          "synonyms": [
            "AVL01-List A Intrusions 6"
          ]
        },
        {
          "conceptId": "C101911",
          "definition": "Auditory Verbal Learning Test Version A - The number of words recalled from List A, first attempt.",
          "preferredTerm": "ADNI AVLT - List A Recall 1 Total",
          "submissionValue": "AVL01-List A Recall 1 Total",
          "synonyms": [
            "AVL01-List A Recall 1 Total"
          ]
        },
        {
          "conceptId": "C101896",
          "definition": "Auditory Verbal Learning Test Version A - List A, Recall 1, Word 1.",
          "preferredTerm": "ADNI AVLT - List A Recall 1 Word 1",
          "submissionValue": "AVL01-List A Recall 1 Word 1",
          "synonyms": [
            "AVL01-List A Recall 1 Word 1"
          ]
        },
        {
          "conceptId": "C101905",
          "definition": "Auditory Verbal Learning Test Version A - List A, Recall 1, Word 10.",
          "preferredTerm": "ADNI AVLT - List A Recall 1 Word 10",
          "submissionValue": "AVL01-List A Recall 1 Word 10",
          "synonyms": [
            "AVL01-List A Recall 1 Word 10"
          ]
        },
        {
          "conceptId": "C101906",
          "definition": "Auditory Verbal Learning Test Version A - List A, Recall 1, Word 11.",
          "preferredTerm": "ADNI AVLT - List A Recall 1 Word 11",
          "submissionValue": "AVL01-List A Recall 1 Word 11",
          "synonyms": [
            "AVL01-List A Recall 1 Word 11"
          ]
        },
        {
          "conceptId": "C101907",
          "definition": "Auditory Verbal Learning Test Version A - List A, Recall 1, Word 12.",
          "preferredTerm": "ADNI AVLT - List A Recall 1 Word 12",
          "submissionValue": "AVL01-List A Recall 1 Word 12",
          "synonyms": [
            "AVL01-List A Recall 1 Word 12"
          ]
        },
        {
          "conceptId": "C101908",
          "definition": "Auditory Verbal Learning Test Version A - List A, Recall 1, Word 13.",
          "preferredTerm": "ADNI AVLT - List A Recall 1 Word 13",
          "submissionValue": "AVL01-List A Recall 1 Word 13",
          "synonyms": [
            "AVL01-List A Recall 1 Word 13"
          ]
        },
        {
          "conceptId": "C101909",
          "definition": "Auditory Verbal Learning Test Version A - List A, Recall 1, Word 14.",
          "preferredTerm": "ADNI AVLT - List A Recall 1 Word 14",
          "submissionValue": "AVL01-List A Recall 1 Word 14",
          "synonyms": [
            "AVL01-List A Recall 1 Word 14"
          ]
        },
        {
          "conceptId": "C101910",
          "definition": "Auditory Verbal Learning Test Version A - List A, Recall 1, Word 15.",
          "preferredTerm": "ADNI AVLT - List A Recall 1 Word 15",
          "submissionValue": "AVL01-List A Recall 1 Word 15",
          "synonyms": [
            "AVL01-List A Recall 1 Word 15"
          ]
        },
        {
          "conceptId": "C101897",
          "definition": "Auditory Verbal Learning Test Version A - List A, Recall 1, Word 2.",
          "preferredTerm": "ADNI AVLT - List A Recall 1 Word 2",
          "submissionValue": "AVL01-List A Recall 1 Word 2",
          "synonyms": [
            "AVL01-List A Recall 1 Word 2"
          ]
        },
        {
          "conceptId": "C101898",
          "definition": "Auditory Verbal Learning Test Version A - List A, Recall 1, Word 3.",
          "preferredTerm": "ADNI AVLT - List A Recall 1 Word 3",
          "submissionValue": "AVL01-List A Recall 1 Word 3",
          "synonyms": [
            "AVL01-List A Recall 1 Word 3"
          ]
        },
        {
          "conceptId": "C101899",
          "definition": "Auditory Verbal Learning Test Version A - List A, Recall 1, Word 4.",
          "preferredTerm": "ADNI AVLT - List A Recall 1 Word 4",
          "submissionValue": "AVL01-List A Recall 1 Word 4",
          "synonyms": [
            "AVL01-List A Recall 1 Word 4"
          ]
        },
        {
          "conceptId": "C101900",
          "definition": "Auditory Verbal Learning Test Version A - List A, Recall 1, Word 5.",
          "preferredTerm": "ADNI AVLT - List A Recall 1 Word 5",
          "submissionValue": "AVL01-List A Recall 1 Word 5",
          "synonyms": [
            "AVL01-List A Recall 1 Word 5"
          ]
        },
        {
          "conceptId": "C101901",
          "definition": "Auditory Verbal Learning Test Version A - List A, Recall 1, Word 6.",
          "preferredTerm": "ADNI AVLT - List A Recall 1 Word 6",
          "submissionValue": "AVL01-List A Recall 1 Word 6",
          "synonyms": [
            "AVL01-List A Recall 1 Word 6"
          ]
        },
        {
          "conceptId": "C101902",
          "definition": "Auditory Verbal Learning Test Version A - List A, Recall 1, Word 7.",
          "preferredTerm": "ADNI AVLT - List A Recall 1 Word 7",
          "submissionValue": "AVL01-List A Recall 1 Word 7",
          "synonyms": [
            "AVL01-List A Recall 1 Word 7"
          ]
        },
        {
          "conceptId": "C101903",
          "definition": "Auditory Verbal Learning Test Version A - List A, Recall 1, Word 8.",
          "preferredTerm": "ADNI AVLT - List A Recall 1 Word 8",
          "submissionValue": "AVL01-List A Recall 1 Word 8",
          "synonyms": [
            "AVL01-List A Recall 1 Word 8"
          ]
        },
        {
          "conceptId": "C101904",
          "definition": "Auditory Verbal Learning Test Version A - List A, Recall 1, Word 9.",
          "preferredTerm": "ADNI AVLT - List A Recall 1 Word 9",
          "submissionValue": "AVL01-List A Recall 1 Word 9",
          "synonyms": [
            "AVL01-List A Recall 1 Word 9"
          ]
        },
        {
          "conceptId": "C101928",
          "definition": "Auditory Verbal Learning Test Version A - The number of words recalled from List A, second attempt.",
          "preferredTerm": "ADNI AVLT - List A Recall 2 Total",
          "submissionValue": "AVL01-List A Recall 2 Total",
          "synonyms": [
            "AVL01-List A Recall 2 Total"
          ]
        },
        {
          "conceptId": "C101913",
          "definition": "Auditory Verbal Learning Test Version A - List A, Recall 2, Word 1.",
          "preferredTerm": "ADNI AVLT - List A Recall 2 Word 1",
          "submissionValue": "AVL01-List A Recall 2 Word 1",
          "synonyms": [
            "AVL01-List A Recall 2 Word 1"
          ]
        },
        {
          "conceptId": "C101922",
          "definition": "Auditory Verbal Learning Test Version A - List A, Recall 2, Word 10.",
          "preferredTerm": "ADNI AVLT - List A Recall 2 Word 10",
          "submissionValue": "AVL01-List A Recall 2 Word 10",
          "synonyms": [
            "AVL01-List A Recall 2 Word 10"
          ]
        },
        {
          "conceptId": "C101923",
          "definition": "Auditory Verbal Learning Test Version A - List A, Recall 2, Word 11.",
          "preferredTerm": "ADNI AVLT - List A Recall 2 Word 11",
          "submissionValue": "AVL01-List A Recall 2 Word 11",
          "synonyms": [
            "AVL01-List A Recall 2 Word 11"
          ]
        },
        {
          "conceptId": "C101924",
          "definition": "Auditory Verbal Learning Test Version A - List A, Recall 2, Word 12.",
          "preferredTerm": "ADNI AVLT - List A Recall 2 Word 12",
          "submissionValue": "AVL01-List A Recall 2 Word 12",
          "synonyms": [
            "AVL01-List A Recall 2 Word 12"
          ]
        },
        {
          "conceptId": "C101925",
          "definition": "Auditory Verbal Learning Test Version A - List A, Recall 2, Word 13.",
          "preferredTerm": "ADNI AVLT - List A Recall 2 Word 13",
          "submissionValue": "AVL01-List A Recall 2 Word 13",
          "synonyms": [
            "AVL01-List A Recall 2 Word 13"
          ]
        },
        {
          "conceptId": "C101926",
          "definition": "Auditory Verbal Learning Test Version A - List A, Recall 2, Word 14.",
          "preferredTerm": "ADNI AVLT - List A Recall 2 Word 14",
          "submissionValue": "AVL01-List A Recall 2 Word 14",
          "synonyms": [
            "AVL01-List A Recall 2 Word 14"
          ]
        },
        {
          "conceptId": "C101927",
          "definition": "Auditory Verbal Learning Test Version A - List A, Recall 2, Word 15.",
          "preferredTerm": "ADNI AVLT - List A Recall 2 Word 15",
          "submissionValue": "AVL01-List A Recall 2 Word 15",
          "synonyms": [
            "AVL01-List A Recall 2 Word 15"
          ]
        },
        {
          "conceptId": "C101914",
          "definition": "Auditory Verbal Learning Test Version A - List A, Recall 2, Word 2.",
          "preferredTerm": "ADNI AVLT - List A Recall 2 Word 2",
          "submissionValue": "AVL01-List A Recall 2 Word 2",
          "synonyms": [
            "AVL01-List A Recall 2 Word 2"
          ]
        },
        {
          "conceptId": "C101915",
          "definition": "Auditory Verbal Learning Test Version A - List A, Recall 2, Word 3.",
          "preferredTerm": "ADNI AVLT - List A Recall 2 Word 3",
          "submissionValue": "AVL01-List A Recall 2 Word 3",
          "synonyms": [
            "AVL01-List A Recall 2 Word 3"
          ]
        },
        {
          "conceptId": "C101916",
          "definition": "Auditory Verbal Learning Test Version A - List A, Recall 2, Word 4.",
          "preferredTerm": "ADNI AVLT - List A Recall 2 Word 4",
          "submissionValue": "AVL01-List A Recall 2 Word 4",
          "synonyms": [
            "AVL01-List A Recall 2 Word 4"
          ]
        },
        {
          "conceptId": "C101917",
          "definition": "Auditory Verbal Learning Test Version A - List A, Recall 2, Word 5.",
          "preferredTerm": "ADNI AVLT - List A Recall 2 Word 5",
          "submissionValue": "AVL01-List A Recall 2 Word 5",
          "synonyms": [
            "AVL01-List A Recall 2 Word 5"
          ]
        },
        {
          "conceptId": "C101918",
          "definition": "Auditory Verbal Learning Test Version A - List A, Recall 2, Word 6.",
          "preferredTerm": "ADNI AVLT - List A Recall 2 Word 6",
          "submissionValue": "AVL01-List A Recall 2 Word 6",
          "synonyms": [
            "AVL01-List A Recall 2 Word 6"
          ]
        },
        {
          "conceptId": "C101919",
          "definition": "Auditory Verbal Learning Test Version A - List A, Recall 2, Word 7.",
          "preferredTerm": "ADNI AVLT - List A Recall 2 Word 7",
          "submissionValue": "AVL01-List A Recall 2 Word 7",
          "synonyms": [
            "AVL01-List A Recall 2 Word 7"
          ]
        },
        {
          "conceptId": "C101920",
          "definition": "Auditory Verbal Learning Test Version A - List A, Recall 2, Word 8.",
          "preferredTerm": "ADNI AVLT - List A Recall 2 Word 8",
          "submissionValue": "AVL01-List A Recall 2 Word 8",
          "synonyms": [
            "AVL01-List A Recall 2 Word 8"
          ]
        },
        {
          "conceptId": "C101921",
          "definition": "Auditory Verbal Learning Test Version A - List A, Recall 2, Word 9.",
          "preferredTerm": "ADNI AVLT - List A Recall 2 Word 9",
          "submissionValue": "AVL01-List A Recall 2 Word 9",
          "synonyms": [
            "AVL01-List A Recall 2 Word 9"
          ]
        },
        {
          "conceptId": "C101945",
          "definition": "Auditory Verbal Learning Test Version A - The number of words recalled from List A, third attempt.",
          "preferredTerm": "ADNI AVLT - List A Recall 3 Total",
          "submissionValue": "AVL01-List A Recall 3 Total",
          "synonyms": [
            "AVL01-List A Recall 3 Total"
          ]
        },
        {
          "conceptId": "C101930",
          "definition": "Auditory Verbal Learning Test Version A - List A, Recall 3, Word 1.",
          "preferredTerm": "ADNI AVLT - List A Recall 3 Word 1",
          "submissionValue": "AVL01-List A Recall 3 Word 1",
          "synonyms": [
            "AVL01-List A Recall 3 Word 1"
          ]
        },
        {
          "conceptId": "C101939",
          "definition": "Auditory Verbal Learning Test Version A - List A, Recall 3, Word 10.",
          "preferredTerm": "ADNI AVLT - List A Recall 3 Word 10",
          "submissionValue": "AVL01-List A Recall 3 Word 10",
          "synonyms": [
            "AVL01-List A Recall 3 Word 10"
          ]
        },
        {
          "conceptId": "C101940",
          "definition": "Auditory Verbal Learning Test Version A - List A, Recall 3, Word 11.",
          "preferredTerm": "ADNI AVLT - List A Recall 3 Word 11",
          "submissionValue": "AVL01-List A Recall 3 Word 11",
          "synonyms": [
            "AVL01-List A Recall 3 Word 11"
          ]
        },
        {
          "conceptId": "C101941",
          "definition": "Auditory Verbal Learning Test Version A - List A, Recall 3, Word 12.",
          "preferredTerm": "ADNI AVLT - List A Recall 3 Word 12",
          "submissionValue": "AVL01-List A Recall 3 Word 12",
          "synonyms": [
            "AVL01-List A Recall 3 Word 12"
          ]
        },
        {
          "conceptId": "C101942",
          "definition": "Auditory Verbal Learning Test Version A - List A, Recall 3, Word 13.",
          "preferredTerm": "ADNI AVLT - List A Recall 3 Word 13",
          "submissionValue": "AVL01-List A Recall 3 Word 13",
          "synonyms": [
            "AVL01-List A Recall 3 Word 13"
          ]
        },
        {
          "conceptId": "C101943",
          "definition": "Auditory Verbal Learning Test Version A - List A, Recall 3, Word 14.",
          "preferredTerm": "ADNI AVLT - List A Recall 3 Word 14",
          "submissionValue": "AVL01-List A Recall 3 Word 14",
          "synonyms": [
            "AVL01-List A Recall 3 Word 14"
          ]
        },
        {
          "conceptId": "C101944",
          "definition": "Auditory Verbal Learning Test Version A - List A, Recall 3, Word 15.",
          "preferredTerm": "ADNI AVLT - List A Recall 3 Word 15",
          "submissionValue": "AVL01-List A Recall 3 Word 15",
          "synonyms": [
            "AVL01-List A Recall 3 Word 15"
          ]
        },
        {
          "conceptId": "C101931",
          "definition": "Auditory Verbal Learning Test Version A - List A, Recall 3, Word 2.",
          "preferredTerm": "ADNI AVLT - List A Recall 3 Word 2",
          "submissionValue": "AVL01-List A Recall 3 Word 2",
          "synonyms": [
            "AVL01-List A Recall 3 Word 2"
          ]
        },
        {
          "conceptId": "C101932",
          "definition": "Auditory Verbal Learning Test Version A - List A, Recall 3, Word 3.",
          "preferredTerm": "ADNI AVLT - List A Recall 3 Word 3",
          "submissionValue": "AVL01-List A Recall 3 Word 3",
          "synonyms": [
            "AVL01-List A Recall 3 Word 3"
          ]
        },
        {
          "conceptId": "C101933",
          "definition": "Auditory Verbal Learning Test Version A - List A, Recall 3, Word 4.",
          "preferredTerm": "ADNI AVLT - List A Recall 3 Word 4",
          "submissionValue": "AVL01-List A Recall 3 Word 4",
          "synonyms": [
            "AVL01-List A Recall 3 Word 4"
          ]
        },
        {
          "conceptId": "C101934",
          "definition": "Auditory Verbal Learning Test Version A - List A, Recall 3, Word 5.",
          "preferredTerm": "ADNI AVLT - List A Recall 3 Word 5",
          "submissionValue": "AVL01-List A Recall 3 Word 5",
          "synonyms": [
            "AVL01-List A Recall 3 Word 5"
          ]
        },
        {
          "conceptId": "C101935",
          "definition": "Auditory Verbal Learning Test Version A - List A, Recall 3, Word 6.",
          "preferredTerm": "ADNI AVLT - List A Recall 3 Word 6",
          "submissionValue": "AVL01-List A Recall 3 Word 6",
          "synonyms": [
            "AVL01-List A Recall 3 Word 6"
          ]
        },
        {
          "conceptId": "C101936",
          "definition": "Auditory Verbal Learning Test Version A - List A, Recall 3, Word 7.",
          "preferredTerm": "ADNI AVLT - List A Recall 3 Word 7",
          "submissionValue": "AVL01-List A Recall 3 Word 7",
          "synonyms": [
            "AVL01-List A Recall 3 Word 7"
          ]
        },
        {
          "conceptId": "C101937",
          "definition": "Auditory Verbal Learning Test Version A - List A, Recall 3, Word 8.",
          "preferredTerm": "ADNI AVLT - List A Recall 3 Word 8",
          "submissionValue": "AVL01-List A Recall 3 Word 8",
          "synonyms": [
            "AVL01-List A Recall 3 Word 8"
          ]
        },
        {
          "conceptId": "C101938",
          "definition": "Auditory Verbal Learning Test Version A - List A, Recall 3, Word 9.",
          "preferredTerm": "ADNI AVLT - List A Recall 3 Word 9",
          "submissionValue": "AVL01-List A Recall 3 Word 9",
          "synonyms": [
            "AVL01-List A Recall 3 Word 9"
          ]
        },
        {
          "conceptId": "C101962",
          "definition": "Auditory Verbal Learning Test Version A - The number of words recalled from List A, fourth attempt.",
          "preferredTerm": "ADNI AVLT - List A Recall 4 Total",
          "submissionValue": "AVL01-List A Recall 4 Total",
          "synonyms": [
            "AVL01-List A Recall 4 Total"
          ]
        },
        {
          "conceptId": "C101947",
          "definition": "Auditory Verbal Learning Test Version A - List A, Recall 4, Word 1.",
          "preferredTerm": "ADNI AVLT - List A Recall 4 Word 1",
          "submissionValue": "AVL01-List A Recall 4 Word 1",
          "synonyms": [
            "AVL01-List A Recall 4 Word 1"
          ]
        },
        {
          "conceptId": "C101956",
          "definition": "Auditory Verbal Learning Test Version A - List A, Recall 4, Word 10.",
          "preferredTerm": "ADNI AVLT - List A Recall 4 Word 10",
          "submissionValue": "AVL01-List A Recall 4 Word 10",
          "synonyms": [
            "AVL01-List A Recall 4 Word 10"
          ]
        },
        {
          "conceptId": "C101957",
          "definition": "Auditory Verbal Learning Test Version A - List A, Recall 4, Word 11.",
          "preferredTerm": "ADNI AVLT - List A Recall 4 Word 11",
          "submissionValue": "AVL01-List A Recall 4 Word 11",
          "synonyms": [
            "AVL01-List A Recall 4 Word 11"
          ]
        },
        {
          "conceptId": "C101958",
          "definition": "Auditory Verbal Learning Test Version A - List A, Recall 4, Word 12.",
          "preferredTerm": "ADNI AVLT - List A Recall 4 Word 12",
          "submissionValue": "AVL01-List A Recall 4 Word 12",
          "synonyms": [
            "AVL01-List A Recall 4 Word 12"
          ]
        },
        {
          "conceptId": "C101959",
          "definition": "Auditory Verbal Learning Test Version A - List A, Recall 4, Word 13.",
          "preferredTerm": "ADNI AVLT - List A Recall 4 Word 13",
          "submissionValue": "AVL01-List A Recall 4 Word 13",
          "synonyms": [
            "AVL01-List A Recall 4 Word 13"
          ]
        },
        {
          "conceptId": "C101960",
          "definition": "Auditory Verbal Learning Test Version A - List A, Recall 4, Word 14.",
          "preferredTerm": "ADNI AVLT - List A Recall 4 Word 14",
          "submissionValue": "AVL01-List A Recall 4 Word 14",
          "synonyms": [
            "AVL01-List A Recall 4 Word 14"
          ]
        },
        {
          "conceptId": "C101961",
          "definition": "Auditory Verbal Learning Test Version A - List A, Recall 4, Word 15.",
          "preferredTerm": "ADNI AVLT - List A Recall 4 Word 15",
          "submissionValue": "AVL01-List A Recall 4 Word 15",
          "synonyms": [
            "AVL01-List A Recall 4 Word 15"
          ]
        },
        {
          "conceptId": "C101948",
          "definition": "Auditory Verbal Learning Test Version A - List A, Recall 4, Word 2.",
          "preferredTerm": "ADNI AVLT - List A Recall 4 Word 2",
          "submissionValue": "AVL01-List A Recall 4 Word 2",
          "synonyms": [
            "AVL01-List A Recall 4 Word 2"
          ]
        },
        {
          "conceptId": "C101949",
          "definition": "Auditory Verbal Learning Test Version A - List A, Recall 4, Word 3.",
          "preferredTerm": "ADNI AVLT - List A Recall 4 Word 3",
          "submissionValue": "AVL01-List A Recall 4 Word 3",
          "synonyms": [
            "AVL01-List A Recall 4 Word 3"
          ]
        },
        {
          "conceptId": "C101950",
          "definition": "Auditory Verbal Learning Test Version A - List A, Recall 4, Word 4.",
          "preferredTerm": "ADNI AVLT - List A Recall 4 Word 4",
          "submissionValue": "AVL01-List A Recall 4 Word 4",
          "synonyms": [
            "AVL01-List A Recall 4 Word 4"
          ]
        },
        {
          "conceptId": "C101951",
          "definition": "Auditory Verbal Learning Test Version A - List A, Recall 4, Word 5.",
          "preferredTerm": "ADNI AVLT - List A Recall 4 Word 5",
          "submissionValue": "AVL01-List A Recall 4 Word 5",
          "synonyms": [
            "AVL01-List A Recall 4 Word 5"
          ]
        },
        {
          "conceptId": "C101952",
          "definition": "Auditory Verbal Learning Test Version A - List A, Recall 4, Word 6.",
          "preferredTerm": "ADNI AVLT - List A Recall 4 Word 6",
          "submissionValue": "AVL01-List A Recall 4 Word 6",
          "synonyms": [
            "AVL01-List A Recall 4 Word 6"
          ]
        },
        {
          "conceptId": "C101953",
          "definition": "Auditory Verbal Learning Test Version A - List A, Recall 4, Word 7.",
          "preferredTerm": "ADNI AVLT - List A Recall 4 Word 7",
          "submissionValue": "AVL01-List A Recall 4 Word 7",
          "synonyms": [
            "AVL01-List A Recall 4 Word 7"
          ]
        },
        {
          "conceptId": "C101954",
          "definition": "Auditory Verbal Learning Test Version A - List A, Recall 4, Word 8.",
          "preferredTerm": "ADNI AVLT - List A Recall 4 Word 8",
          "submissionValue": "AVL01-List A Recall 4 Word 8",
          "synonyms": [
            "AVL01-List A Recall 4 Word 8"
          ]
        },
        {
          "conceptId": "C101955",
          "definition": "Auditory Verbal Learning Test Version A - List A, Recall 4, Word 9.",
          "preferredTerm": "ADNI AVLT - List A Recall 4 Word 9",
          "submissionValue": "AVL01-List A Recall 4 Word 9",
          "synonyms": [
            "AVL01-List A Recall 4 Word 9"
          ]
        },
        {
          "conceptId": "C101979",
          "definition": "Auditory Verbal Learning Test Version A - The number of words recalled from List A, fifth attempt.",
          "preferredTerm": "ADNI AVLT - List A Recall 5 Total",
          "submissionValue": "AVL01-List A Recall 5 Total",
          "synonyms": [
            "AVL01-List A Recall 5 Total"
          ]
        },
        {
          "conceptId": "C101964",
          "definition": "Auditory Verbal Learning Test Version A - List A, Recall 5, Word 1.",
          "preferredTerm": "ADNI AVLT - List A Recall 5 Word 1",
          "submissionValue": "AVL01-List A Recall 5 Word 1",
          "synonyms": [
            "AVL01-List A Recall 5 Word 1"
          ]
        },
        {
          "conceptId": "C101973",
          "definition": "Auditory Verbal Learning Test Version A - List A, Recall 5, Word 10.",
          "preferredTerm": "ADNI AVLT - List A Recall 5 Word 10",
          "submissionValue": "AVL01-List A Recall 5 Word 10",
          "synonyms": [
            "AVL01-List A Recall 5 Word 10"
          ]
        },
        {
          "conceptId": "C101974",
          "definition": "Auditory Verbal Learning Test Version A - List A, Recall 5, Word 11.",
          "preferredTerm": "ADNI AVLT - List A Recall 5 Word 11",
          "submissionValue": "AVL01-List A Recall 5 Word 11",
          "synonyms": [
            "AVL01-List A Recall 5 Word 11"
          ]
        },
        {
          "conceptId": "C101975",
          "definition": "Auditory Verbal Learning Test Version A - List A, Recall 5, Word 12.",
          "preferredTerm": "ADNI AVLT - List A Recall 5 Word 12",
          "submissionValue": "AVL01-List A Recall 5 Word 12",
          "synonyms": [
            "AVL01-List A Recall 5 Word 12"
          ]
        },
        {
          "conceptId": "C101976",
          "definition": "Auditory Verbal Learning Test Version A - List A, Recall 5, Word 13.",
          "preferredTerm": "ADNI AVLT - List A Recall 5 Word 13",
          "submissionValue": "AVL01-List A Recall 5 Word 13",
          "synonyms": [
            "AVL01-List A Recall 5 Word 13"
          ]
        },
        {
          "conceptId": "C101977",
          "definition": "Auditory Verbal Learning Test Version A - List A, Recall 5, Word 14.",
          "preferredTerm": "ADNI AVLT - List A Recall 5 Word 14",
          "submissionValue": "AVL01-List A Recall 5 Word 14",
          "synonyms": [
            "AVL01-List A Recall 5 Word 14"
          ]
        },
        {
          "conceptId": "C101978",
          "definition": "Auditory Verbal Learning Test Version A - List A, Recall 5, Word 15.",
          "preferredTerm": "ADNI AVLT - List A Recall 5 Word 15",
          "submissionValue": "AVL01-List A Recall 5 Word 15",
          "synonyms": [
            "AVL01-List A Recall 5 Word 15"
          ]
        },
        {
          "conceptId": "C101965",
          "definition": "Auditory Verbal Learning Test Version A - List A, Recall 5, Word 2.",
          "preferredTerm": "ADNI AVLT - List A Recall 5 Word 2",
          "submissionValue": "AVL01-List A Recall 5 Word 2",
          "synonyms": [
            "AVL01-List A Recall 5 Word 2"
          ]
        },
        {
          "conceptId": "C101966",
          "definition": "Auditory Verbal Learning Test Version A - List A, Recall 5, Word 3.",
          "preferredTerm": "ADNI AVLT - List A Recall 5 Word 3",
          "submissionValue": "AVL01-List A Recall 5 Word 3",
          "synonyms": [
            "AVL01-List A Recall 5 Word 3"
          ]
        },
        {
          "conceptId": "C101967",
          "definition": "Auditory Verbal Learning Test Version A - List A, Recall 5, Word 4.",
          "preferredTerm": "ADNI AVLT - List A Recall 5 Word 4",
          "submissionValue": "AVL01-List A Recall 5 Word 4",
          "synonyms": [
            "AVL01-List A Recall 5 Word 4"
          ]
        },
        {
          "conceptId": "C101968",
          "definition": "Auditory Verbal Learning Test Version A - List A, Recall 5, Word 5.",
          "preferredTerm": "ADNI AVLT - List A Recall 5 Word 5",
          "submissionValue": "AVL01-List A Recall 5 Word 5",
          "synonyms": [
            "AVL01-List A Recall 5 Word 5"
          ]
        },
        {
          "conceptId": "C101969",
          "definition": "Auditory Verbal Learning Test Version A - List A, Recall 5, Word 6.",
          "preferredTerm": "ADNI AVLT - List A Recall 5 Word 6",
          "submissionValue": "AVL01-List A Recall 5 Word 6",
          "synonyms": [
            "AVL01-List A Recall 5 Word 6"
          ]
        },
        {
          "conceptId": "C101970",
          "definition": "Auditory Verbal Learning Test Version A - List A, Recall 5, Word 7.",
          "preferredTerm": "ADNI AVLT - List A Recall 5 Word 7",
          "submissionValue": "AVL01-List A Recall 5 Word 7",
          "synonyms": [
            "AVL01-List A Recall 5 Word 7"
          ]
        },
        {
          "conceptId": "C101971",
          "definition": "Auditory Verbal Learning Test Version A - List A, Recall 5, Word 8.",
          "preferredTerm": "ADNI AVLT - List A Recall 5 Word 8",
          "submissionValue": "AVL01-List A Recall 5 Word 8",
          "synonyms": [
            "AVL01-List A Recall 5 Word 8"
          ]
        },
        {
          "conceptId": "C101972",
          "definition": "Auditory Verbal Learning Test Version A - List A, Recall 5, Word 9.",
          "preferredTerm": "ADNI AVLT - List A Recall 5 Word 9",
          "submissionValue": "AVL01-List A Recall 5 Word 9",
          "synonyms": [
            "AVL01-List A Recall 5 Word 9"
          ]
        },
        {
          "conceptId": "C101996",
          "definition": "Auditory Verbal Learning Test Version A - The number of words recalled from List A, sixth attempt (after List B recall).",
          "preferredTerm": "ADNI AVLT - List A Recall 6 (After B) Total",
          "submissionValue": "AVL01-List A Recall 6 (After B) Total",
          "synonyms": [
            "AVL01-List A Recall 6 (After B) Total"
          ]
        },
        {
          "conceptId": "C101981",
          "definition": "Auditory Verbal Learning Test Version A - List A, Recall 6 (after B Recall), Word 1.",
          "preferredTerm": "ADNI AVLT - List A Recall 6 (After B) Word 1",
          "submissionValue": "AVL01-List A Recall 6 (After B) Word 1",
          "synonyms": [
            "AVL01-List A Recall 6 (After B) Word 1"
          ]
        },
        {
          "conceptId": "C101990",
          "definition": "Auditory Verbal Learning Test Version A - List A, Recall 6 (after B Recall), Word 10.",
          "preferredTerm": "ADNI AVLT - List A Recall 6 (After B) Word 10",
          "submissionValue": "AVL01-List A Recall 6 (After B) Word 10",
          "synonyms": [
            "AVL01-List A Recall 6 (After B) Word 10"
          ]
        },
        {
          "conceptId": "C101991",
          "definition": "Auditory Verbal Learning Test Version A - List A, Recall 6 (after B Recall), Word 11.",
          "preferredTerm": "ADNI AVLT - List A Recall 6 (After B) Word 11",
          "submissionValue": "AVL01-List A Recall 6 (After B) Word 11",
          "synonyms": [
            "AVL01-List A Recall 6 (After B) Word 11"
          ]
        },
        {
          "conceptId": "C101992",
          "definition": "Auditory Verbal Learning Test Version A - List A, Recall 6 (after B Recall), Word 12.",
          "preferredTerm": "ADNI AVLT - List A Recall 6 (After B) Word 12",
          "submissionValue": "AVL01-List A Recall 6 (After B) Word 12",
          "synonyms": [
            "AVL01-List A Recall 6 (After B) Word 12"
          ]
        },
        {
          "conceptId": "C101993",
          "definition": "Auditory Verbal Learning Test Version A - List A, Recall 6 (after B Recall), Word 13.",
          "preferredTerm": "ADNI AVLT - List A Recall 6 (After B) Word 13",
          "submissionValue": "AVL01-List A Recall 6 (After B) Word 13",
          "synonyms": [
            "AVL01-List A Recall 6 (After B) Word 13"
          ]
        },
        {
          "conceptId": "C101994",
          "definition": "Auditory Verbal Learning Test Version A - List A, Recall 6 (after B Recall), Word 14.",
          "preferredTerm": "ADNI AVLT - List A Recall 6 (After B) Word 14",
          "submissionValue": "AVL01-List A Recall 6 (After B) Word 14",
          "synonyms": [
            "AVL01-List A Recall 6 (After B) Word 14"
          ]
        },
        {
          "conceptId": "C101995",
          "definition": "Auditory Verbal Learning Test Version A - List A, Recall 6 (after B Recall), Word 15.",
          "preferredTerm": "ADNI AVLT - List A Recall 6 (After B) Word 15",
          "submissionValue": "AVL01-List A Recall 6 (After B) Word 15",
          "synonyms": [
            "AVL01-List A Recall 6 (After B) Word 15"
          ]
        },
        {
          "conceptId": "C101982",
          "definition": "Auditory Verbal Learning Test Version A - List A, Recall 6 (after B Recall), Word 2.",
          "preferredTerm": "ADNI AVLT - List A Recall 6 (After B) Word 2",
          "submissionValue": "AVL01-List A Recall 6 (After B) Word 2",
          "synonyms": [
            "AVL01-List A Recall 6 (After B) Word 2"
          ]
        },
        {
          "conceptId": "C101983",
          "definition": "Auditory Verbal Learning Test Version A - List A, Recall 6 (after B Recall), Word 3.",
          "preferredTerm": "ADNI AVLT - List A Recall 6 (After B) Word 3",
          "submissionValue": "AVL01-List A Recall 6 (After B) Word 3",
          "synonyms": [
            "AVL01-List A Recall 6 (After B) Word 3"
          ]
        },
        {
          "conceptId": "C101984",
          "definition": "Auditory Verbal Learning Test Version A - List A, Recall 6 (after B Recall), Word 4.",
          "preferredTerm": "ADNI AVLT - List A Recall 6 (After B) Word 4",
          "submissionValue": "AVL01-List A Recall 6 (After B) Word 4",
          "synonyms": [
            "AVL01-List A Recall 6 (After B) Word 4"
          ]
        },
        {
          "conceptId": "C101985",
          "definition": "Auditory Verbal Learning Test Version A - List A, Recall 6 (after B Recall), Word 5.",
          "preferredTerm": "ADNI AVLT - List A Recall 6 (After B) Word 5",
          "submissionValue": "AVL01-List A Recall 6 (After B) Word 5",
          "synonyms": [
            "AVL01-List A Recall 6 (After B) Word 5"
          ]
        },
        {
          "conceptId": "C101986",
          "definition": "Auditory Verbal Learning Test Version A - List A, Recall 6 (after B Recall), Word 6.",
          "preferredTerm": "ADNI AVLT - List A Recall 6 (After B) Word 6",
          "submissionValue": "AVL01-List A Recall 6 (After B) Word 6",
          "synonyms": [
            "AVL01-List A Recall 6 (After B) Word 6"
          ]
        },
        {
          "conceptId": "C101987",
          "definition": "Auditory Verbal Learning Test Version A - List A, Recall 6 (after B Recall), Word 7.",
          "preferredTerm": "ADNI AVLT - List A Recall 6 (After B) Word 7",
          "submissionValue": "AVL01-List A Recall 6 (After B) Word 7",
          "synonyms": [
            "AVL01-List A Recall 6 (After B) Word 7"
          ]
        },
        {
          "conceptId": "C101988",
          "definition": "Auditory Verbal Learning Test Version A - List A, Recall 6 (after B Recall), Word 8.",
          "preferredTerm": "ADNI AVLT - List A Recall 6 (After B) Word 8",
          "submissionValue": "AVL01-List A Recall 6 (After B) Word 8",
          "synonyms": [
            "AVL01-List A Recall 6 (After B) Word 8"
          ]
        },
        {
          "conceptId": "C101989",
          "definition": "Auditory Verbal Learning Test Version A - List A, Recall 6 (after B Recall), Word 9.",
          "preferredTerm": "ADNI AVLT - List A Recall 6 (After B) Word 9",
          "submissionValue": "AVL01-List A Recall 6 (After B) Word 9",
          "synonyms": [
            "AVL01-List A Recall 6 (After B) Word 9"
          ]
        },
        {
          "conceptId": "C102033",
          "definition": "Auditory Verbal Learning Test Version A - The number of intrusions on recognition test.",
          "preferredTerm": "ADNI AVLT - List A Recognition Intrusions",
          "submissionValue": "AVL01-List A Recognition Intrusions",
          "synonyms": [
            "AVL01-List A Recognition Intrusions"
          ]
        },
        {
          "conceptId": "C102032",
          "definition": "Auditory Verbal Learning Test Version A - The number of words correct on recognition test.",
          "preferredTerm": "ADNI AVLT - List A Recognition Total",
          "submissionValue": "AVL01-List A Recognition Total",
          "synonyms": [
            "AVL01-List A Recognition Total"
          ]
        },
        {
          "conceptId": "C102014",
          "definition": "Auditory Verbal Learning Test Version A - The number of intrusions while recalling List B.",
          "preferredTerm": "ADNI AVLT - List B Intrusions",
          "submissionValue": "AVL01-List B Intrusions",
          "synonyms": [
            "AVL01-List B Intrusions"
          ]
        },
        {
          "conceptId": "C102013",
          "definition": "Auditory Verbal Learning Test Version A - The number of words recalled from List B.",
          "preferredTerm": "ADNI AVLT - List B Recall Total",
          "submissionValue": "AVL01-List B Recall Total",
          "synonyms": [
            "AVL01-List B Recall Total"
          ]
        },
        {
          "conceptId": "C101998",
          "definition": "Auditory Verbal Learning Test Version A - List B, Word 1.",
          "preferredTerm": "ADNI AVLT - List B Recall Word 1",
          "submissionValue": "AVL01-List B Recall Word 1",
          "synonyms": [
            "AVL01-List B Recall Word 1"
          ]
        },
        {
          "conceptId": "C102007",
          "definition": "Auditory Verbal Learning Test Version A - List B, Word 10.",
          "preferredTerm": "ADNI AVLT - List B Recall Word 10",
          "submissionValue": "AVL01-List B Recall Word 10",
          "synonyms": [
            "AVL01-List B Recall Word 10"
          ]
        },
        {
          "conceptId": "C102008",
          "definition": "Auditory Verbal Learning Test Version A - List B, Word 11.",
          "preferredTerm": "ADNI AVLT - List B Recall Word 11",
          "submissionValue": "AVL01-List B Recall Word 11",
          "synonyms": [
            "AVL01-List B Recall Word 11"
          ]
        },
        {
          "conceptId": "C102009",
          "definition": "Auditory Verbal Learning Test Version A - List B, Word 12.",
          "preferredTerm": "ADNI AVLT - List B Recall Word 12",
          "submissionValue": "AVL01-List B Recall Word 12",
          "synonyms": [
            "AVL01-List B Recall Word 12"
          ]
        },
        {
          "conceptId": "C102010",
          "definition": "Auditory Verbal Learning Test Version A - List B, Word 13.",
          "preferredTerm": "ADNI AVLT - List B Recall Word 13",
          "submissionValue": "AVL01-List B Recall Word 13",
          "synonyms": [
            "AVL01-List B Recall Word 13"
          ]
        },
        {
          "conceptId": "C102011",
          "definition": "Auditory Verbal Learning Test Version A - List B, Word 14.",
          "preferredTerm": "ADNI AVLT - List B Recall Word 14",
          "submissionValue": "AVL01-List B Recall Word 14",
          "synonyms": [
            "AVL01-List B Recall Word 14"
          ]
        },
        {
          "conceptId": "C102012",
          "definition": "Auditory Verbal Learning Test Version A - List B, Word 15.",
          "preferredTerm": "ADNI AVLT - List B Recall Word 15",
          "submissionValue": "AVL01-List B Recall Word 15",
          "synonyms": [
            "AVL01-List B Recall Word 15"
          ]
        },
        {
          "conceptId": "C101999",
          "definition": "Auditory Verbal Learning Test Version A - List B, Word 2.",
          "preferredTerm": "ADNI AVLT - List B Recall Word 2",
          "submissionValue": "AVL01-List B Recall Word 2",
          "synonyms": [
            "AVL01-List B Recall Word 2"
          ]
        },
        {
          "conceptId": "C102000",
          "definition": "Auditory Verbal Learning Test Version A - List B, Word 3.",
          "preferredTerm": "ADNI AVLT - List B Recall Word 3",
          "submissionValue": "AVL01-List B Recall Word 3",
          "synonyms": [
            "AVL01-List B Recall Word 3"
          ]
        },
        {
          "conceptId": "C102001",
          "definition": "Auditory Verbal Learning Test Version A - List B, Word 4.",
          "preferredTerm": "ADNI AVLT - List B Recall Word 4",
          "submissionValue": "AVL01-List B Recall Word 4",
          "synonyms": [
            "AVL01-List B Recall Word 4"
          ]
        },
        {
          "conceptId": "C102002",
          "definition": "Auditory Verbal Learning Test Version A - List B, Word 5.",
          "preferredTerm": "ADNI AVLT - List B Recall Word 5",
          "submissionValue": "AVL01-List B Recall Word 5",
          "synonyms": [
            "AVL01-List B Recall Word 5"
          ]
        },
        {
          "conceptId": "C102003",
          "definition": "Auditory Verbal Learning Test Version A - List B, Word 6.",
          "preferredTerm": "ADNI AVLT - List B Recall Word 6",
          "submissionValue": "AVL01-List B Recall Word 6",
          "synonyms": [
            "AVL01-List B Recall Word 6"
          ]
        },
        {
          "conceptId": "C102004",
          "definition": "Auditory Verbal Learning Test Version A - List B, Word 7.",
          "preferredTerm": "ADNI AVLT - List B Recall Word 7",
          "submissionValue": "AVL01-List B Recall Word 7",
          "synonyms": [
            "AVL01-List B Recall Word 7"
          ]
        },
        {
          "conceptId": "C102005",
          "definition": "Auditory Verbal Learning Test Version A - List B, Word 8.",
          "preferredTerm": "ADNI AVLT - List B Recall Word 8",
          "submissionValue": "AVL01-List B Recall Word 8",
          "synonyms": [
            "AVL01-List B Recall Word 8"
          ]
        },
        {
          "conceptId": "C102006",
          "definition": "Auditory Verbal Learning Test Version A - List B, Word 9.",
          "preferredTerm": "ADNI AVLT - List B Recall Word 9",
          "submissionValue": "AVL01-List B Recall Word 9",
          "synonyms": [
            "AVL01-List B Recall Word 9"
          ]
        }
      ]
    },
    {
      "conceptId": "C112435",
      "definition": "Airway Questionnaire 20 test code.",
      "extensible": "No",
      "name": "Airway Questionnaire 20 Test Code",
      "preferredTerm": "CDISC Questionnaire AQ20 Test Code Terminology",
      "submissionValue": "AQ20 TESTCD",
      "synonyms": [
        "Airway Questionnaire 20 Test Code"
      ],
      "terms": [
        {
          "conceptId": "C112529",
          "definition": "Airway Questionnaire 20 - Do you cough often during the day?",
          "preferredTerm": "AQ20 - Cough Often During the Day",
          "submissionValue": "AQ0101",
          "synonyms": [
            "AQ01-Cough Often During Day"
          ]
        },
        {
          "conceptId": "C112530",
          "definition": "Airway Questionnaire 20 - Does your chest trouble often make you feel restless?",
          "preferredTerm": "AQ20 - Chest Trouble Make You Feel Restless",
          "submissionValue": "AQ0102",
          "synonyms": [
            "AQ01-Feel Restless Due to Chest Trouble"
          ]
        },
        {
          "conceptId": "C112531",
          "definition": "Airway Questionnaire 20 - Does gardening make you breathless?",
          "preferredTerm": "AQ20 - Gardening Make You Breathless",
          "submissionValue": "AQ0103",
          "synonyms": [
            "AQ01-Gardening Make You Breathless"
          ]
        },
        {
          "conceptId": "C112532",
          "definition": "Airway Questionnaire 20 - Do you worry when going to a friend's house that there might be something there that will upset your chest?",
          "preferredTerm": "AQ20 - Worry When Going to Friend House Something Will Upset Your Chest",
          "submissionValue": "AQ0104",
          "synonyms": [
            "AQ01-Chest Upset at Friend House"
          ]
        },
        {
          "conceptId": "C112533",
          "definition": "Airway Questionnaire 20 - Do you get chest problems when you come into contact with strong smells, exhaust fumes, cigarette smoke, perfume etc?",
          "preferredTerm": "AQ20 - Get Chest Problems When Contact With Strong Smells",
          "submissionValue": "AQ0105",
          "synonyms": [
            "AQ01-Chest Prob Smell/Fume/Smoke/Perfume"
          ]
        },
        {
          "conceptId": "C112534",
          "definition": "Airway Questionnaire 20 - Does your partner find your chest trouble upsetting?",
          "preferredTerm": "AQ20 - Partner Find Your Chest Trouble Upsetting",
          "submissionValue": "AQ0106",
          "synonyms": [
            "AQ01-Partner Upset by Your Chest Trouble"
          ]
        },
        {
          "conceptId": "C112535",
          "definition": "Airway Questionnaire 20 - Do you feel breathless when trying to sleep?",
          "preferredTerm": "AQ20 - Feel Breathless When Trying to Sleep",
          "submissionValue": "AQ0107",
          "synonyms": [
            "AQ01-Breathless When Trying to Sleep"
          ]
        },
        {
          "conceptId": "C112536",
          "definition": "Airway Questionnaire 20 - Do you worry about the long term effects of the drugs you take for your chest trouble?",
          "preferredTerm": "AQ20 - Worry About Long Term Effects of Drugs for Chest Trouble",
          "submissionValue": "AQ0108",
          "synonyms": [
            "AQ01-Long Term Effects of Drugs"
          ]
        },
        {
          "conceptId": "C112537",
          "definition": "Airway Questionnaire 20 - Does getting emotionally upset make your chest trouble worse?",
          "preferredTerm": "AQ20 - Getting Emotionally Upset Make Chest Trouble Worse",
          "submissionValue": "AQ0109",
          "synonyms": [
            "AQ01-Emotional Upset Worse Chest Trouble"
          ]
        },
        {
          "conceptId": "C112538",
          "definition": "Airway Questionnaire 20 - Are there times when you have difficulty getting around the house because of your chest trouble?",
          "preferredTerm": "AQ20 - Difficulty Getting Around the House Because of Chest Trouble",
          "submissionValue": "AQ0110",
          "synonyms": [
            "AQ01-Difficulty Getting Around the House"
          ]
        },
        {
          "conceptId": "C112539",
          "definition": "Airway Questionnaire 20 - Does your chest problem make you breathless when you do things at work? (paid employment).",
          "preferredTerm": "AQ20 - Chest Problem Make You Breathless at Work",
          "submissionValue": "AQ0111",
          "synonyms": [
            "AQ01-Breathless Carry out Work Activity"
          ]
        },
        {
          "conceptId": "C112540",
          "definition": "Airway Questionnaire 20 - Does walking upstairs make you breathless?",
          "preferredTerm": "AQ20 - Walking Upstairs Make You Breathless",
          "submissionValue": "AQ0112",
          "synonyms": [
            "AQ01-Breathless Walking Upstairs"
          ]
        },
        {
          "conceptId": "C112541",
          "definition": "Airway Questionnaire 20 - Do you get breathless doing housework?",
          "preferredTerm": "AQ20 - Get Breathless Doing Housework",
          "submissionValue": "AQ0113",
          "synonyms": [
            "AQ01-Get Breathless Doing Housework"
          ]
        },
        {
          "conceptId": "C112542",
          "definition": "Airway Questionnaire 20 - Does your chest trouble make you go home sooner than others after a night out?",
          "preferredTerm": "AQ20 - Chest Trouble Make You Go Home Sooner Than Others",
          "submissionValue": "AQ0114",
          "synonyms": [
            "AQ01-Go Home Sooner Than Others"
          ]
        },
        {
          "conceptId": "C112543",
          "definition": "Airway Questionnaire 20 - Do you suffer from breathlessness when you laugh?",
          "preferredTerm": "AQ20 - Suffer From Breathlessness When Laugh",
          "submissionValue": "AQ0115",
          "synonyms": [
            "AQ01-Breathlessness When Laugh"
          ]
        },
        {
          "conceptId": "C112544",
          "definition": "Airway Questionnaire 20 - Does your chest trouble often make you feel impatient?",
          "preferredTerm": "AQ20 - Chest Trouble Make You Feel Impatient",
          "submissionValue": "AQ0116",
          "synonyms": [
            "AQ01-Impatient Due to Chest Trouble"
          ]
        },
        {
          "conceptId": "C112545",
          "definition": "Airway Questionnaire 20 - Do you think the fullness of your life is limited by your chest trouble?",
          "preferredTerm": "AQ20 - Fullness of Life is Limited by Chest Trouble",
          "submissionValue": "AQ0117",
          "synonyms": [
            "AQ01-Full Life Limited by Chest Trouble"
          ]
        },
        {
          "conceptId": "C112546",
          "definition": "Airway Questionnaire 20 - Do you feel drained after a cold because of your chest trouble?",
          "preferredTerm": "AQ20 - Feel Drained After a Cold Because of Chest Trouble",
          "submissionValue": "AQ0118",
          "synonyms": [
            "AQ01-Drained After a Cold"
          ]
        },
        {
          "conceptId": "C112547",
          "definition": "Airway Questionnaire 20 - Do you have a feeling of chest heaviness?",
          "preferredTerm": "AQ20 - Feeling of Chest Heaviness",
          "submissionValue": "AQ0119",
          "synonyms": [
            "AQ01-Feeling of Chest Heaviness"
          ]
        },
        {
          "conceptId": "C112548",
          "definition": "Airway Questionnaire 20 - Do you worry a lot about your chest trouble?",
          "preferredTerm": "AQ20 - Worry a Lot About Chest Trouble",
          "submissionValue": "AQ0120",
          "synonyms": [
            "AQ01-Worry About Chest Trouble"
          ]
        }
      ]
    },
    {
      "conceptId": "C112434",
      "definition": "Airway Questionnaire 20 test name.",
      "extensible": "No",
      "name": "Airway Questionnaire 20 Test Name",
      "preferredTerm": "CDISC Questionnaire AQ20 Test Name Terminology",
      "submissionValue": "AQ20 TEST",
      "synonyms": [
        "Airway Questionnaire 20 Test Name"
      ],
      "terms": [
        {
          "conceptId": "C112539",
          "definition": "Airway Questionnaire 20 - Does your chest problem make you breathless when you do things at work? (paid employment).",
          "preferredTerm": "AQ20 - Chest Problem Make You Breathless at Work",
          "submissionValue": "AQ01-Breathless Carry out Work Activity",
          "synonyms": [
            "AQ01-Breathless Carry out Work Activity"
          ]
        },
        {
          "conceptId": "C112540",
          "definition": "Airway Questionnaire 20 - Does walking upstairs make you breathless?",
          "preferredTerm": "AQ20 - Walking Upstairs Make You Breathless",
          "submissionValue": "AQ01-Breathless Walking Upstairs",
          "synonyms": [
            "AQ01-Breathless Walking Upstairs"
          ]
        },
        {
          "conceptId": "C112535",
          "definition": "Airway Questionnaire 20 - Do you feel breathless when trying to sleep?",
          "preferredTerm": "AQ20 - Feel Breathless When Trying to Sleep",
          "submissionValue": "AQ01-Breathless When Trying to Sleep",
          "synonyms": [
            "AQ01-Breathless When Trying to Sleep"
          ]
        },
        {
          "conceptId": "C112543",
          "definition": "Airway Questionnaire 20 - Do you suffer from breathlessness when you laugh?",
          "preferredTerm": "AQ20 - Suffer From Breathlessness When Laugh",
          "submissionValue": "AQ01-Breathlessness When Laugh",
          "synonyms": [
            "AQ01-Breathlessness When Laugh"
          ]
        },
        {
          "conceptId": "C112533",
          "definition": "Airway Questionnaire 20 - Do you get chest problems when you come into contact with strong smells, exhaust fumes, cigarette smoke, perfume etc?",
          "preferredTerm": "AQ20 - Get Chest Problems When Contact With Strong Smells",
          "submissionValue": "AQ01-Chest Prob Smell/Fume/Smoke/Perfume",
          "synonyms": [
            "AQ01-Chest Prob Smell/Fume/Smoke/Perfume"
          ]
        },
        {
          "conceptId": "C112532",
          "definition": "Airway Questionnaire 20 - Do you worry when going to a friend's house that there might be something there that will upset your chest?",
          "preferredTerm": "AQ20 - Worry When Going to Friend House Something Will Upset Your Chest",
          "submissionValue": "AQ01-Chest Upset at Friend House",
          "synonyms": [
            "AQ01-Chest Upset at Friend House"
          ]
        },
        {
          "conceptId": "C112529",
          "definition": "Airway Questionnaire 20 - Do you cough often during the day?",
          "preferredTerm": "AQ20 - Cough Often During the Day",
          "submissionValue": "AQ01-Cough Often During Day",
          "synonyms": [
            "AQ01-Cough Often During Day"
          ]
        },
        {
          "conceptId": "C112538",
          "definition": "Airway Questionnaire 20 - Are there times when you have difficulty getting around the house because of your chest trouble?",
          "preferredTerm": "AQ20 - Difficulty Getting Around the House Because of Chest Trouble",
          "submissionValue": "AQ01-Difficulty Getting Around the House",
          "synonyms": [
            "AQ01-Difficulty Getting Around the House"
          ]
        },
        {
          "conceptId": "C112546",
          "definition": "Airway Questionnaire 20 - Do you feel drained after a cold because of your chest trouble?",
          "preferredTerm": "AQ20 - Feel Drained After a Cold Because of Chest Trouble",
          "submissionValue": "AQ01-Drained After a Cold",
          "synonyms": [
            "AQ01-Drained After a Cold"
          ]
        },
        {
          "conceptId": "C112537",
          "definition": "Airway Questionnaire 20 - Does getting emotionally upset make your chest trouble worse?",
          "preferredTerm": "AQ20 - Getting Emotionally Upset Make Chest Trouble Worse",
          "submissionValue": "AQ01-Emotional Upset Worse Chest Trouble",
          "synonyms": [
            "AQ01-Emotional Upset Worse Chest Trouble"
          ]
        },
        {
          "conceptId": "C112530",
          "definition": "Airway Questionnaire 20 - Does your chest trouble often make you feel restless?",
          "preferredTerm": "AQ20 - Chest Trouble Make You Feel Restless",
          "submissionValue": "AQ01-Feel Restless Due to Chest Trouble",
          "synonyms": [
            "AQ01-Feel Restless Due to Chest Trouble"
          ]
        },
        {
          "conceptId": "C112547",
          "definition": "Airway Questionnaire 20 - Do you have a feeling of chest heaviness?",
          "preferredTerm": "AQ20 - Feeling of Chest Heaviness",
          "submissionValue": "AQ01-Feeling of Chest Heaviness",
          "synonyms": [
            "AQ01-Feeling of Chest Heaviness"
          ]
        },
        {
          "conceptId": "C112545",
          "definition": "Airway Questionnaire 20 - Do you think the fullness of your life is limited by your chest trouble?",
          "preferredTerm": "AQ20 - Fullness of Life is Limited by Chest Trouble",
          "submissionValue": "AQ01-Full Life Limited by Chest Trouble",
          "synonyms": [
            "AQ01-Full Life Limited by Chest Trouble"
          ]
        },
        {
          "conceptId": "C112531",
          "definition": "Airway Questionnaire 20 - Does gardening make you breathless?",
          "preferredTerm": "AQ20 - Gardening Make You Breathless",
          "submissionValue": "AQ01-Gardening Make You Breathless",
          "synonyms": [
            "AQ01-Gardening Make You Breathless"
          ]
        },
        {
          "conceptId": "C112541",
          "definition": "Airway Questionnaire 20 - Do you get breathless doing housework?",
          "preferredTerm": "AQ20 - Get Breathless Doing Housework",
          "submissionValue": "AQ01-Get Breathless Doing Housework",
          "synonyms": [
            "AQ01-Get Breathless Doing Housework"
          ]
        },
        {
          "conceptId": "C112542",
          "definition": "Airway Questionnaire 20 - Does your chest trouble make you go home sooner than others after a night out?",
          "preferredTerm": "AQ20 - Chest Trouble Make You Go Home Sooner Than Others",
          "submissionValue": "AQ01-Go Home Sooner Than Others",
          "synonyms": [
            "AQ01-Go Home Sooner Than Others"
          ]
        },
        {
          "conceptId": "C112544",
          "definition": "Airway Questionnaire 20 - Does your chest trouble often make you feel impatient?",
          "preferredTerm": "AQ20 - Chest Trouble Make You Feel Impatient",
          "submissionValue": "AQ01-Impatient Due to Chest Trouble",
          "synonyms": [
            "AQ01-Impatient Due to Chest Trouble"
          ]
        },
        {
          "conceptId": "C112536",
          "definition": "Airway Questionnaire 20 - Do you worry about the long term effects of the drugs you take for your chest trouble?",
          "preferredTerm": "AQ20 - Worry About Long Term Effects of Drugs for Chest Trouble",
          "submissionValue": "AQ01-Long Term Effects of Drugs",
          "synonyms": [
            "AQ01-Long Term Effects of Drugs"
          ]
        },
        {
          "conceptId": "C112534",
          "definition": "Airway Questionnaire 20 - Does your partner find your chest trouble upsetting?",
          "preferredTerm": "AQ20 - Partner Find Your Chest Trouble Upsetting",
          "submissionValue": "AQ01-Partner Upset by Your Chest Trouble",
          "synonyms": [
            "AQ01-Partner Upset by Your Chest Trouble"
          ]
        },
        {
          "conceptId": "C112548",
          "definition": "Airway Questionnaire 20 - Do you worry a lot about your chest trouble?",
          "preferredTerm": "AQ20 - Worry a Lot About Chest Trouble",
          "submissionValue": "AQ01-Worry About Chest Trouble",
          "synonyms": [
            "AQ01-Worry About Chest Trouble"
          ]
        }
      ]
    },
    {
      "conceptId": "C100132",
      "definition": "ADAS-Cog CDISC Version test code.",
      "extensible": "No",
      "name": "Alzheimer's Disease Assessment Scale - Cognitive CDISC Version Test Code",
      "preferredTerm": "CDISC Questionnaire ADAS-Cog CDISC Version Test Code Terminology",
      "submissionValue": "ADAS-Cog CDISC Version TESTCD",
      "synonyms": [
        "Alzheimer's Disease Assessment Scale - Cognitive CDISC Version Test Code"
      ],
      "terms": [
        {
          "conceptId": "C100209",
          "definition": "Alzheimer's Disease Assessment Scale-Cognitive CDISC Version - Summary score for commands.",
          "preferredTerm": "CDISC ADAS-Cog - Commands Summary Score",
          "submissionValue": "ADCCMD",
          "synonyms": [
            "Commands"
          ]
        },
        {
          "conceptId": "C100210",
          "definition": "Alzheimer's Disease Assessment Scale-Cognitive CDISC Version - Commands task for making a fist.",
          "preferredTerm": "CDISC ADAS-Cog - Commands: Fist",
          "submissionValue": "ADCCMD01",
          "synonyms": [
            "Commands: Fist"
          ]
        },
        {
          "conceptId": "C100211",
          "definition": "Alzheimer's Disease Assessment Scale-Cognitive CDISC Version - Commands task for pointing to the ceiling then to the floor.",
          "preferredTerm": "CDISC ADAS-Cog - Commands: Ceiling",
          "submissionValue": "ADCCMD02",
          "synonyms": [
            "Commands: Ceiling"
          ]
        },
        {
          "conceptId": "C100212",
          "definition": "Alzheimer's Disease Assessment Scale-Cognitive CDISC Version - Commands task for put the pencil on top of the card and then put it back.",
          "preferredTerm": "CDISC ADAS-Cog - Commands: Pencil",
          "submissionValue": "ADCCMD03",
          "synonyms": [
            "Commands: Pencil"
          ]
        },
        {
          "conceptId": "C100213",
          "definition": "Alzheimer's Disease Assessment Scale-Cognitive CDISC Version - Commands task for put the watch on the other side of the pencil and then turn over the card.",
          "preferredTerm": "CDISC ADAS-Cog - Commands: Watch",
          "submissionValue": "ADCCMD04",
          "synonyms": [
            "Commands: Watch"
          ]
        },
        {
          "conceptId": "C100214",
          "definition": "Alzheimer's Disease Assessment Scale-Cognitive CDISC Version - Commands task for tap each shoulder twice with two fingers keeping your eyes shut.",
          "preferredTerm": "CDISC ADAS-Cog - Commands: Shoulder",
          "submissionValue": "ADCCMD05",
          "synonyms": [
            "Commands: Shoulder"
          ]
        },
        {
          "conceptId": "C100278",
          "definition": "Alzheimer's Disease Assessment Scale-Cognitive CDISC Version - Ability to comprehend speech.",
          "preferredTerm": "CDISC ADAS-Cog - Comprehension",
          "submissionValue": "ADCCMP",
          "synonyms": [
            "Comprehension"
          ]
        },
        {
          "conceptId": "C100279",
          "definition": "Alzheimer's Disease Assessment Scale-Cognitive CDISC Version - Ability to concentrate or easily be distracted.",
          "preferredTerm": "CDISC ADAS-Cog - Concentration/Distractibility",
          "submissionValue": "ADCCON",
          "synonyms": [
            "Concentration/Distractibility"
          ]
        },
        {
          "conceptId": "C100226",
          "definition": "Alzheimer's Disease Assessment Scale-Cognitive CDISC Version - Summary score for constructional praxis.",
          "preferredTerm": "CDISC ADAS-Cog - Constructional Praxis Summary Score",
          "submissionValue": "ADCCP",
          "synonyms": [
            "Constructional Praxis"
          ]
        },
        {
          "conceptId": "C100227",
          "definition": "Alzheimer's Disease Assessment Scale-Cognitive CDISC Version - Constructional praxis task for copying a circle.",
          "preferredTerm": "CDISC ADAS-Cog - Constructional Praxis: Circle",
          "submissionValue": "ADCCP01",
          "synonyms": [
            "Constructional Praxis: Circle"
          ]
        },
        {
          "conceptId": "C100228",
          "definition": "Alzheimer's Disease Assessment Scale-Cognitive CDISC Version - Constructional praxis task for copying two overlapping rectangles.",
          "preferredTerm": "CDISC ADAS-Cog - Constructional Praxis: 2 Rectangles",
          "submissionValue": "ADCCP02",
          "synonyms": [
            "Constructional Praxis: 2 Rectangles"
          ]
        },
        {
          "conceptId": "C100229",
          "definition": "Alzheimer's Disease Assessment Scale-Cognitive CDISC Version - Constructional praxis task for copying a diamond.",
          "preferredTerm": "CDISC ADAS-Cog - Constructional Praxis: Diamond",
          "submissionValue": "ADCCP03",
          "synonyms": [
            "Constructional Praxis: Diamond"
          ]
        },
        {
          "conceptId": "C100230",
          "definition": "Alzheimer's Disease Assessment Scale-Cognitive CDISC Version - Constructional praxis task for copying a cube.",
          "preferredTerm": "CDISC ADAS-Cog - Constructional Praxis: Cube",
          "submissionValue": "ADCCP04",
          "synonyms": [
            "Constructional Praxis: Cube"
          ]
        },
        {
          "conceptId": "C100231",
          "definition": "Alzheimer's Disease Assessment Scale-Cognitive CDISC Version - Constructional praxis attempted to draw, but drew no forms correctly.",
          "preferredTerm": "CDISC ADAS-Cog - Attempt to Draw",
          "submissionValue": "ADCCPS",
          "synonyms": [
            "Attempt to Draw"
          ]
        },
        {
          "conceptId": "C100277",
          "definition": "Alzheimer's Disease Assessment Scale-Cognitive CDISC Version - Difficulty finding the desired word in spontaneous speech.",
          "preferredTerm": "CDISC ADAS-Cog - Word Difficulty in Spontaneous Speech",
          "submissionValue": "ADCDIF",
          "synonyms": [
            "Word Finding Difficulty in Spont Speech"
          ]
        },
        {
          "conceptId": "C100215",
          "definition": "Alzheimer's Disease Assessment Scale-Cognitive CDISC Version - Summary score for delayed word recall.",
          "preferredTerm": "CDISC ADAS-Cog - Delayed Word Recall Summary Score",
          "submissionValue": "ADCDRL",
          "synonyms": [
            "Delayed Word Recall"
          ]
        },
        {
          "conceptId": "C100216",
          "definition": "Alzheimer's Disease Assessment Scale-Cognitive CDISC Version - Delayed word recall task for word 1.",
          "preferredTerm": "CDISC ADAS-Cog - Delayed Word Recall: Word 1",
          "submissionValue": "ADCDRL01",
          "synonyms": [
            "Delayed Word Recall: Word [1]"
          ]
        },
        {
          "conceptId": "C100217",
          "definition": "Alzheimer's Disease Assessment Scale-Cognitive CDISC Version - Delayed word recall task for word 2.",
          "preferredTerm": "CDISC ADAS-Cog - Delayed Word Recall: Word 2",
          "submissionValue": "ADCDRL02",
          "synonyms": [
            "Delayed Word Recall: Word [2]"
          ]
        },
        {
          "conceptId": "C100218",
          "definition": "Alzheimer's Disease Assessment Scale-Cognitive CDISC Version - Delayed word recall task for word 3.",
          "preferredTerm": "CDISC ADAS-Cog - Delayed Word Recall: Word 3",
          "submissionValue": "ADCDRL03",
          "synonyms": [
            "Delayed Word Recall: Word [3]"
          ]
        },
        {
          "conceptId": "C100219",
          "definition": "Alzheimer's Disease Assessment Scale-Cognitive CDISC Version - Delayed word recall task for word 4.",
          "preferredTerm": "CDISC ADAS-Cog - Delayed Word Recall: Word 4",
          "submissionValue": "ADCDRL04",
          "synonyms": [
            "Delayed Word Recall: Word [4]"
          ]
        },
        {
          "conceptId": "C100220",
          "definition": "Alzheimer's Disease Assessment Scale-Cognitive CDISC Version - Delayed word recall task for word 5.",
          "preferredTerm": "CDISC ADAS-Cog - Delayed Word Recall: Word 5",
          "submissionValue": "ADCDRL05",
          "synonyms": [
            "Delayed Word Recall: Word [5]"
          ]
        },
        {
          "conceptId": "C100221",
          "definition": "Alzheimer's Disease Assessment Scale-Cognitive CDISC Version - Delayed word recall task for word 6.",
          "preferredTerm": "CDISC ADAS-Cog - Delayed Word Recall: Word 6",
          "submissionValue": "ADCDRL06",
          "synonyms": [
            "Delayed Word Recall: Word [6]"
          ]
        },
        {
          "conceptId": "C100222",
          "definition": "Alzheimer's Disease Assessment Scale-Cognitive CDISC Version - Delayed word recall task for word 7.",
          "preferredTerm": "CDISC ADAS-Cog - Delayed Word Recall: Word 7",
          "submissionValue": "ADCDRL07",
          "synonyms": [
            "Delayed Word Recall: Word [7]"
          ]
        },
        {
          "conceptId": "C100223",
          "definition": "Alzheimer's Disease Assessment Scale-Cognitive CDISC Version - Delayed word recall task for word 8.",
          "preferredTerm": "CDISC ADAS-Cog - Delayed Word Recall: Word 8",
          "submissionValue": "ADCDRL08",
          "synonyms": [
            "Delayed Word Recall: Word [8]"
          ]
        },
        {
          "conceptId": "C100224",
          "definition": "Alzheimer's Disease Assessment Scale-Cognitive CDISC Version - Delayed word recall task for word 9.",
          "preferredTerm": "CDISC ADAS-Cog - Delayed Word Recall: Word 9",
          "submissionValue": "ADCDRL09",
          "synonyms": [
            "Delayed Word Recall: Word [9]"
          ]
        },
        {
          "conceptId": "C100225",
          "definition": "Alzheimer's Disease Assessment Scale-Cognitive CDISC Version - Delayed word recall task for word 10.",
          "preferredTerm": "CDISC ADAS-Cog - Delayed Word Recall: Word 10",
          "submissionValue": "ADCDRL10",
          "synonyms": [
            "Delayed Word Recall: Word [10]"
          ]
        },
        {
          "conceptId": "C100232",
          "definition": "Alzheimer's Disease Assessment Scale-Cognitive CDISC Version - Summary score for ideational praxis.",
          "preferredTerm": "CDISC ADAS-Cog - Ideational Praxis Summary Score",
          "submissionValue": "ADCIP",
          "synonyms": [
            "Ideational Praxis"
          ]
        },
        {
          "conceptId": "C100233",
          "definition": "Alzheimer's Disease Assessment Scale-Cognitive CDISC Version - Ideational praxis task for folding the paper.",
          "preferredTerm": "CDISC ADAS-Cog - Ideational Praxis: Fold",
          "submissionValue": "ADCIP01",
          "synonyms": [
            "Ideational Praxis: Fold"
          ]
        },
        {
          "conceptId": "C100234",
          "definition": "Alzheimer's Disease Assessment Scale-Cognitive CDISC Version - Ideational praxis task for put the paper in the envelop.",
          "preferredTerm": "CDISC ADAS-Cog - Ideational Praxis: Insert",
          "submissionValue": "ADCIP02",
          "synonyms": [
            "Ideational Praxis: Insert"
          ]
        },
        {
          "conceptId": "C100235",
          "definition": "Alzheimer's Disease Assessment Scale-Cognitive CDISC Version - Ideational praxis task for seal the envelop.",
          "preferredTerm": "CDISC ADAS-Cog - Ideational Praxis: Seal",
          "submissionValue": "ADCIP03",
          "synonyms": [
            "Ideational Praxis: Seal"
          ]
        },
        {
          "conceptId": "C100236",
          "definition": "Alzheimer's Disease Assessment Scale-Cognitive CDISC Version - Ideational praxis task for address the envelop to yourself.",
          "preferredTerm": "CDISC ADAS-Cog - Ideational Praxis: Address",
          "submissionValue": "ADCIP04",
          "synonyms": [
            "Ideational Praxis: Address"
          ]
        },
        {
          "conceptId": "C100237",
          "definition": "Alzheimer's Disease Assessment Scale-Cognitive CDISC Version - Ideational praxis task for showing where the stamp goes.",
          "preferredTerm": "CDISC ADAS-Cog - Ideational Praxis: Stamp",
          "submissionValue": "ADCIP05",
          "synonyms": [
            "Ideational Praxis: Stamp"
          ]
        },
        {
          "conceptId": "C100284",
          "definition": "Alzheimer's Disease Assessment Scale-Cognitive CDISC Version - Summary score for the executive function maze tasks.",
          "preferredTerm": "CDISC ADAS-Cog - Executive Function Maze Summary Score",
          "submissionValue": "ADCMZ",
          "synonyms": [
            "Executive Function Maze"
          ]
        },
        {
          "conceptId": "C100285",
          "definition": "Alzheimer's Disease Assessment Scale-Cognitive CDISC Version - Number of errors during the executive function maze task.",
          "preferredTerm": "CDISC ADAS-Cog - Executive Function Maze: Errors",
          "submissionValue": "ADCMZ01",
          "synonyms": [
            "Executive Function Maze: Errors"
          ]
        },
        {
          "conceptId": "C100286",
          "definition": "Alzheimer's Disease Assessment Scale-Cognitive CDISC Version - The time in seconds stored in ISO 8601 time for the executive function maze task.",
          "preferredTerm": "CDISC ADAS-Cog - Executive Function Maze: Time",
          "submissionValue": "ADCMZ02",
          "synonyms": [
            "Executive Function Maze: Time"
          ]
        },
        {
          "conceptId": "C100280",
          "definition": "Alzheimer's Disease Assessment Scale-Cognitive CDISC Version - Summary score for the number cancellation tasks.",
          "preferredTerm": "CDISC ADAS-Cog - Number Cancellation Summary Score",
          "submissionValue": "ADCNC",
          "synonyms": [
            "Number Cancellation"
          ]
        },
        {
          "conceptId": "C100281",
          "definition": "Alzheimer's Disease Assessment Scale-Cognitive CDISC Version - Number of targets hit during the number cancellation task.",
          "preferredTerm": "CDISC ADAS-Cog - Number Cancellation: Correct",
          "submissionValue": "ADCNC01",
          "synonyms": [
            "Number Cancellation: Correct"
          ]
        },
        {
          "conceptId": "C100282",
          "definition": "Alzheimer's Disease Assessment Scale-Cognitive CDISC Version - Number of errors during the number cancellation task.",
          "preferredTerm": "CDISC ADAS-Cog - Number Cancellation: Errors",
          "submissionValue": "ADCNC02",
          "synonyms": [
            "Number Cancellation: Errors"
          ]
        },
        {
          "conceptId": "C100283",
          "definition": "Alzheimer's Disease Assessment Scale-Cognitive CDISC Version - Number of times reminded for the number cancellation task.",
          "preferredTerm": "CDISC ADAS-Cog - Number Cancellation: Remind",
          "submissionValue": "ADCNC03",
          "synonyms": [
            "Number Cancellation: Remind"
          ]
        },
        {
          "conceptId": "C100191",
          "definition": "Alzheimer's Disease Assessment Scale-Cognitive CDISC Version - Naming task summary score for object and fingers.",
          "preferredTerm": "CDISC ADAS-Cog - Naming Objects and Fingers Summary Score",
          "submissionValue": "ADCOF",
          "synonyms": [
            "Naming Objects and Fingers"
          ]
        },
        {
          "conceptId": "C100204",
          "definition": "Alzheimer's Disease Assessment Scale-Cognitive CDISC Version - Naming task for fingers of the dominant hand, thumb.",
          "preferredTerm": "CDISC ADAS-Cog - Naming Objects and Fingers: Thumb",
          "submissionValue": "ADCOFF01",
          "synonyms": [
            "Naming Objects and Fingers: Thumb"
          ]
        },
        {
          "conceptId": "C100205",
          "definition": "Alzheimer's Disease Assessment Scale-Cognitive CDISC Version - Naming task for fingers of the dominant hand, index, or pointer finger.",
          "preferredTerm": "CDISC ADAS-Cog - Naming Objects and Fingers: Pointer",
          "submissionValue": "ADCOFF02",
          "synonyms": [
            "Naming Objects and Fingers: Pointer"
          ]
        },
        {
          "conceptId": "C100206",
          "definition": "Alzheimer's Disease Assessment Scale-Cognitive CDISC Version - Naming task for fingers of the dominant hand, middle finger.",
          "preferredTerm": "CDISC ADAS-Cog - Naming Objects and Fingers: Middle",
          "submissionValue": "ADCOFF03",
          "synonyms": [
            "Naming Objects and Fingers: Middle"
          ]
        },
        {
          "conceptId": "C100207",
          "definition": "Alzheimer's Disease Assessment Scale-Cognitive CDISC Version - Naming task for fingers of the dominant hand, ring finger.",
          "preferredTerm": "CDISC ADAS-Cog - Naming Objects and Fingers: Ring",
          "submissionValue": "ADCOFF04",
          "synonyms": [
            "Naming Objects and Fingers: Ring"
          ]
        },
        {
          "conceptId": "C100208",
          "definition": "Alzheimer's Disease Assessment Scale-Cognitive CDISC Version - Naming task for fingers of the dominant hand, little finger or pinky.",
          "preferredTerm": "CDISC ADAS-Cog - Naming Objects and Fingers: Pinky",
          "submissionValue": "ADCOFF05",
          "synonyms": [
            "Naming Objects and Fingers: Pinky"
          ]
        },
        {
          "conceptId": "C100192",
          "definition": "Alzheimer's Disease Assessment Scale-Cognitive CDISC Version - Naming task for object 1.",
          "preferredTerm": "CDISC ADAS-Cog - Naming Objects and Fingers: 1",
          "submissionValue": "ADCOFO01",
          "synonyms": [
            "Naming Objects and Fingers: 1"
          ]
        },
        {
          "conceptId": "C100193",
          "definition": "Alzheimer's Disease Assessment Scale-Cognitive CDISC Version - Naming task for object 2.",
          "preferredTerm": "CDISC ADAS-Cog - Naming Objects and Fingers: 2",
          "submissionValue": "ADCOFO02",
          "synonyms": [
            "Naming Objects and Fingers: 2"
          ]
        },
        {
          "conceptId": "C100194",
          "definition": "Alzheimer's Disease Assessment Scale-Cognitive CDISC Version - Naming task for object 3.",
          "preferredTerm": "CDISC ADAS-Cog - Naming Objects and Fingers: 3",
          "submissionValue": "ADCOFO03",
          "synonyms": [
            "Naming Objects and Fingers: 3"
          ]
        },
        {
          "conceptId": "C100195",
          "definition": "Alzheimer's Disease Assessment Scale-Cognitive CDISC Version - Naming task for object 4.",
          "preferredTerm": "CDISC ADAS-Cog - Naming Objects and Fingers: 4",
          "submissionValue": "ADCOFO04",
          "synonyms": [
            "Naming Objects and Fingers: 4"
          ]
        },
        {
          "conceptId": "C100196",
          "definition": "Alzheimer's Disease Assessment Scale-Cognitive CDISC Version - Naming task for object 5.",
          "preferredTerm": "CDISC ADAS-Cog - Naming Objects and Fingers: 5",
          "submissionValue": "ADCOFO05",
          "synonyms": [
            "Naming Objects and Fingers: 5"
          ]
        },
        {
          "conceptId": "C100197",
          "definition": "Alzheimer's Disease Assessment Scale-Cognitive CDISC Version - Naming task for object 6.",
          "preferredTerm": "CDISC ADAS-Cog - Naming Objects and Fingers: 6",
          "submissionValue": "ADCOFO06",
          "synonyms": [
            "Naming Objects and Fingers: 6"
          ]
        },
        {
          "conceptId": "C100198",
          "definition": "Alzheimer's Disease Assessment Scale-Cognitive CDISC Version - Naming task for object 7.",
          "preferredTerm": "CDISC ADAS-Cog - Naming Objects and Fingers: 7",
          "submissionValue": "ADCOFO07",
          "synonyms": [
            "Naming Objects and Fingers: 7"
          ]
        },
        {
          "conceptId": "C100199",
          "definition": "Alzheimer's Disease Assessment Scale-Cognitive CDISC Version - Naming task for object 8.",
          "preferredTerm": "CDISC ADAS-Cog - Naming Objects and Fingers: 8",
          "submissionValue": "ADCOFO08",
          "synonyms": [
            "Naming Objects and Fingers: 8"
          ]
        },
        {
          "conceptId": "C100200",
          "definition": "Alzheimer's Disease Assessment Scale-Cognitive CDISC Version - Naming task for object 9.",
          "preferredTerm": "CDISC ADAS-Cog - Naming Objects and Fingers: 9",
          "submissionValue": "ADCOFO09",
          "synonyms": [
            "Naming Objects and Fingers: 9"
          ]
        },
        {
          "conceptId": "C100201",
          "definition": "Alzheimer's Disease Assessment Scale-Cognitive CDISC Version - Naming task for object 10.",
          "preferredTerm": "CDISC ADAS-Cog - Naming Objects and Fingers: 10",
          "submissionValue": "ADCOFO10",
          "synonyms": [
            "Naming Objects and Fingers: 10"
          ]
        },
        {
          "conceptId": "C100202",
          "definition": "Alzheimer's Disease Assessment Scale-Cognitive CDISC Version - Naming task for object 11.",
          "preferredTerm": "CDISC ADAS-Cog - Naming Objects and Fingers: 11",
          "submissionValue": "ADCOFO11",
          "synonyms": [
            "Naming Objects and Fingers: 11"
          ]
        },
        {
          "conceptId": "C100203",
          "definition": "Alzheimer's Disease Assessment Scale-Cognitive CDISC Version - Naming task for object 12.",
          "preferredTerm": "CDISC ADAS-Cog - Naming Objects and Fingers: 12",
          "submissionValue": "ADCOFO12",
          "synonyms": [
            "Naming Objects and Fingers: 12"
          ]
        },
        {
          "conceptId": "C100238",
          "definition": "Alzheimer's Disease Assessment Scale-Cognitive CDISC Version - Summary score for orientation.",
          "preferredTerm": "CDISC ADAS-Cog - Orientation Summary Score",
          "submissionValue": "ADCOR",
          "synonyms": [
            "Orientation"
          ]
        },
        {
          "conceptId": "C100239",
          "definition": "Alzheimer's Disease Assessment Scale-Cognitive CDISC Version - Orientation task for knowing one's own full name.",
          "preferredTerm": "CDISC ADAS-Cog - Orientation: Full Name",
          "submissionValue": "ADCOR01",
          "synonyms": [
            "Orientation: Full Name"
          ]
        },
        {
          "conceptId": "C100240",
          "definition": "Alzheimer's Disease Assessment Scale-Cognitive CDISC Version - Orientation task for knowing the current month.",
          "preferredTerm": "CDISC ADAS-Cog - Orientation: Month",
          "submissionValue": "ADCOR02",
          "synonyms": [
            "Orientation: Month"
          ]
        },
        {
          "conceptId": "C100241",
          "definition": "Alzheimer's Disease Assessment Scale-Cognitive CDISC Version - Orientation task for knowing the current day.",
          "preferredTerm": "CDISC ADAS-Cog - Orientation: Date",
          "submissionValue": "ADCOR03",
          "synonyms": [
            "Orientation: Date"
          ]
        },
        {
          "conceptId": "C100242",
          "definition": "Alzheimer's Disease Assessment Scale-Cognitive CDISC Version - Orientation task for knowing the current year.",
          "preferredTerm": "CDISC ADAS-Cog - Orientation: Year",
          "submissionValue": "ADCOR04",
          "synonyms": [
            "Orientation: Year"
          ]
        },
        {
          "conceptId": "C100243",
          "definition": "Alzheimer's Disease Assessment Scale-Cognitive CDISC Version - Orientation task for knowing the current day of the week.",
          "preferredTerm": "CDISC ADAS-Cog - Orientation: Day of Week",
          "submissionValue": "ADCOR05",
          "synonyms": [
            "Orientation: Day of Week"
          ]
        },
        {
          "conceptId": "C100244",
          "definition": "Alzheimer's Disease Assessment Scale-Cognitive CDISC Version - Orientation task for knowing the current season.",
          "preferredTerm": "CDISC ADAS-Cog - Orientation: Season",
          "submissionValue": "ADCOR06",
          "synonyms": [
            "Orientation: Season"
          ]
        },
        {
          "conceptId": "C100245",
          "definition": "Alzheimer's Disease Assessment Scale-Cognitive CDISC Version - Orientation task for knowing the current place.",
          "preferredTerm": "CDISC ADAS-Cog - Orientation: Place",
          "submissionValue": "ADCOR07",
          "synonyms": [
            "Orientation: Place"
          ]
        },
        {
          "conceptId": "C100246",
          "definition": "Alzheimer's Disease Assessment Scale-Cognitive CDISC Version - Orientation task for knowing the approximate current clock time.",
          "preferredTerm": "CDISC ADAS-Cog - Orientation: Time",
          "submissionValue": "ADCOR08",
          "synonyms": [
            "Orientation: Time"
          ]
        },
        {
          "conceptId": "C100247",
          "definition": "Alzheimer's Disease Assessment Scale-Cognitive CDISC Version - Summary score for word recognition across trials 1-3.",
          "preferredTerm": "CDISC ADAS-Cog - Word Recognition Summary Score",
          "submissionValue": "ADCRG",
          "synonyms": [
            "Word Recognition"
          ]
        },
        {
          "conceptId": "C100248",
          "definition": "Alzheimer's Disease Assessment Scale-Cognitive CDISC Version - Sub-score for word recognition trial 1.",
          "preferredTerm": "CDISC ADAS-Cog - Word Recognition Trial 1 Summary Score",
          "submissionValue": "ADCRGT01",
          "synonyms": [
            "Word Recognition Trial 1"
          ]
        },
        {
          "conceptId": "C100249",
          "definition": "Alzheimer's Disease Assessment Scale-Cognitive CDISC Version - Sub-score for word recognition trial 2.",
          "preferredTerm": "CDISC ADAS-Cog - Word Recognition Trial 2 Summary Score",
          "submissionValue": "ADCRGT02",
          "synonyms": [
            "Word Recognition Trial 2"
          ]
        },
        {
          "conceptId": "C100250",
          "definition": "Alzheimer's Disease Assessment Scale-Cognitive CDISC Version - Sub-score for word recognition trial 3.",
          "preferredTerm": "CDISC ADAS-Cog - Word Recognition Trial 3 Summary Score",
          "submissionValue": "ADCRGT03",
          "synonyms": [
            "Word Recognition Trial 3"
          ]
        },
        {
          "conceptId": "C100251",
          "definition": "Alzheimer's Disease Assessment Scale-Cognitive CDISC Version - Word recognition task for word 1 Trials 1, 2, 3.",
          "preferredTerm": "CDISC ADAS-Cog - Word Recognition: Word 1",
          "submissionValue": "ADCRGW01",
          "synonyms": [
            "Word Recognition: Word [1]"
          ]
        },
        {
          "conceptId": "C100252",
          "definition": "Alzheimer's Disease Assessment Scale-Cognitive CDISC Version - Word recognition task for word 2 Trials 1, 2, 3.",
          "preferredTerm": "CDISC ADAS-Cog - Word Recognition: Word 2",
          "submissionValue": "ADCRGW02",
          "synonyms": [
            "Word Recognition: Word [2]"
          ]
        },
        {
          "conceptId": "C100253",
          "definition": "Alzheimer's Disease Assessment Scale-Cognitive CDISC Version - Word recognition task for word 3 Trials 1, 2, 3.",
          "preferredTerm": "CDISC ADAS-Cog - Word Recognition: Word 3",
          "submissionValue": "ADCRGW03",
          "synonyms": [
            "Word Recognition: Word [3]"
          ]
        },
        {
          "conceptId": "C100254",
          "definition": "Alzheimer's Disease Assessment Scale-Cognitive CDISC Version - Word recognition task for word 4 Trials 1, 2, 3.",
          "preferredTerm": "CDISC ADAS-Cog - Word Recognition: Word 4",
          "submissionValue": "ADCRGW04",
          "synonyms": [
            "Word Recognition: Word [4]"
          ]
        },
        {
          "conceptId": "C100255",
          "definition": "Alzheimer's Disease Assessment Scale-Cognitive CDISC Version - Word recognition task for word 5 Trials 1, 2, 3.",
          "preferredTerm": "CDISC ADAS-Cog - Word Recognition: Word 5",
          "submissionValue": "ADCRGW05",
          "synonyms": [
            "Word Recognition: Word [5]"
          ]
        },
        {
          "conceptId": "C100256",
          "definition": "Alzheimer's Disease Assessment Scale-Cognitive CDISC Version - Word recognition task for word 6 Trials 1, 2, 3.",
          "preferredTerm": "CDISC ADAS-Cog - Word Recognition: Word 6",
          "submissionValue": "ADCRGW06",
          "synonyms": [
            "Word Recognition: Word [6]"
          ]
        },
        {
          "conceptId": "C100257",
          "definition": "Alzheimer's Disease Assessment Scale-Cognitive CDISC Version - Word recognition task for word 7 Trials 1, 2, 3.",
          "preferredTerm": "CDISC ADAS-Cog - Word Recognition: Word 7",
          "submissionValue": "ADCRGW07",
          "synonyms": [
            "Word Recognition: Word [7]"
          ]
        },
        {
          "conceptId": "C100258",
          "definition": "Alzheimer's Disease Assessment Scale-Cognitive CDISC Version - Word recognition task for word 8 Trials 1, 2, 3.",
          "preferredTerm": "CDISC ADAS-Cog - Word Recognition: Word 8",
          "submissionValue": "ADCRGW08",
          "synonyms": [
            "Word Recognition: Word [8]"
          ]
        },
        {
          "conceptId": "C100259",
          "definition": "Alzheimer's Disease Assessment Scale-Cognitive CDISC Version - Word recognition task for word 9 Trials 1, 2, 3.",
          "preferredTerm": "CDISC ADAS-Cog - Word Recognition: Word 9",
          "submissionValue": "ADCRGW09",
          "synonyms": [
            "Word Recognition: Word [9]"
          ]
        },
        {
          "conceptId": "C100260",
          "definition": "Alzheimer's Disease Assessment Scale-Cognitive CDISC Version - Word recognition task for word 10 Trials 1, 2, 3.",
          "preferredTerm": "CDISC ADAS-Cog - Word Recognition: Word 10",
          "submissionValue": "ADCRGW10",
          "synonyms": [
            "Word Recognition: Word [10]"
          ]
        },
        {
          "conceptId": "C100261",
          "definition": "Alzheimer's Disease Assessment Scale-Cognitive CDISC Version - Word recognition task for word 11 Trials 1, 2, 3.",
          "preferredTerm": "CDISC ADAS-Cog - Word Recognition: Word 11",
          "submissionValue": "ADCRGW11",
          "synonyms": [
            "Word Recognition: Word [11]"
          ]
        },
        {
          "conceptId": "C100262",
          "definition": "Alzheimer's Disease Assessment Scale-Cognitive CDISC Version - Word recognition task for word 12 Trials 1, 2, 3.",
          "preferredTerm": "CDISC ADAS-Cog - Word Recognition: Word 12",
          "submissionValue": "ADCRGW12",
          "synonyms": [
            "Word Recognition: Word [12]"
          ]
        },
        {
          "conceptId": "C100263",
          "definition": "Alzheimer's Disease Assessment Scale-Cognitive CDISC Version - Word recognition task for word 13 Trials 1, 2, 3.",
          "preferredTerm": "CDISC ADAS-Cog - Word Recognition: Word 13",
          "submissionValue": "ADCRGW13",
          "synonyms": [
            "Word Recognition: Word [13]"
          ]
        },
        {
          "conceptId": "C100264",
          "definition": "Alzheimer's Disease Assessment Scale-Cognitive CDISC Version - Word recognition task for word 14 Trials 1, 2, 3.",
          "preferredTerm": "CDISC ADAS-Cog - Word Recognition: Word 14",
          "submissionValue": "ADCRGW14",
          "synonyms": [
            "Word Recognition: Word [14]"
          ]
        },
        {
          "conceptId": "C100265",
          "definition": "Alzheimer's Disease Assessment Scale-Cognitive CDISC Version - Word recognition task for word 15 Trials 1, 2, 3.",
          "preferredTerm": "CDISC ADAS-Cog - Word Recognition: Word 15",
          "submissionValue": "ADCRGW15",
          "synonyms": [
            "Word Recognition: Word [15]"
          ]
        },
        {
          "conceptId": "C100266",
          "definition": "Alzheimer's Disease Assessment Scale-Cognitive CDISC Version - Word recognition task for word 16 Trials 1, 2, 3.",
          "preferredTerm": "CDISC ADAS-Cog - Word Recognition: Word 16",
          "submissionValue": "ADCRGW16",
          "synonyms": [
            "Word Recognition: Word [16]"
          ]
        },
        {
          "conceptId": "C100267",
          "definition": "Alzheimer's Disease Assessment Scale-Cognitive CDISC Version - Word recognition task for word 17 Trials 1, 2, 3.",
          "preferredTerm": "CDISC ADAS-Cog - Word Recognition: Word 17",
          "submissionValue": "ADCRGW17",
          "synonyms": [
            "Word Recognition: Word [17]"
          ]
        },
        {
          "conceptId": "C100268",
          "definition": "Alzheimer's Disease Assessment Scale-Cognitive CDISC Version - Word recognition task for word 18 Trials 1, 2, 3.",
          "preferredTerm": "CDISC ADAS-Cog - Word Recognition: Word 18",
          "submissionValue": "ADCRGW18",
          "synonyms": [
            "Word Recognition: Word [18]"
          ]
        },
        {
          "conceptId": "C100269",
          "definition": "Alzheimer's Disease Assessment Scale-Cognitive CDISC Version - Word recognition task for word 19 Trials 1, 2, 3.",
          "preferredTerm": "CDISC ADAS-Cog - Word Recognition: Word 19",
          "submissionValue": "ADCRGW19",
          "synonyms": [
            "Word Recognition: Word [19]"
          ]
        },
        {
          "conceptId": "C100270",
          "definition": "Alzheimer's Disease Assessment Scale-Cognitive CDISC Version - Word recognition task for word 20 Trials 1, 2, 3.",
          "preferredTerm": "CDISC ADAS-Cog - Word Recognition: Word 20",
          "submissionValue": "ADCRGW20",
          "synonyms": [
            "Word Recognition: Word [20]"
          ]
        },
        {
          "conceptId": "C100271",
          "definition": "Alzheimer's Disease Assessment Scale-Cognitive CDISC Version - Word recognition task for word 21 Trials 1, 2, 3.",
          "preferredTerm": "CDISC ADAS-Cog - Word Recognition: Word 21",
          "submissionValue": "ADCRGW21",
          "synonyms": [
            "Word Recognition: Word [21]"
          ]
        },
        {
          "conceptId": "C100272",
          "definition": "Alzheimer's Disease Assessment Scale-Cognitive CDISC Version - Word recognition task for word 22 Trials 1, 2, 3.",
          "preferredTerm": "CDISC ADAS-Cog - Word Recognition: Word 22",
          "submissionValue": "ADCRGW22",
          "synonyms": [
            "Word Recognition: Word [22]"
          ]
        },
        {
          "conceptId": "C100273",
          "definition": "Alzheimer's Disease Assessment Scale-Cognitive CDISC Version - Word recognition task for word 23 Trials 1, 2, 3.",
          "preferredTerm": "CDISC ADAS-Cog - Word Recognition: Word 23",
          "submissionValue": "ADCRGW23",
          "synonyms": [
            "Word Recognition: Word [23]"
          ]
        },
        {
          "conceptId": "C100274",
          "definition": "Alzheimer's Disease Assessment Scale-Cognitive CDISC Version - Word recognition task for word 24 Trials 1, 2, 3.",
          "preferredTerm": "CDISC ADAS-Cog - Word Recognition: Word 24",
          "submissionValue": "ADCRGW24",
          "synonyms": [
            "Word Recognition: Word [24]"
          ]
        },
        {
          "conceptId": "C100275",
          "definition": "Alzheimer's Disease Assessment Scale-Cognitive CDISC Version - Remembering test instructions.",
          "preferredTerm": "CDISC ADAS-Cog - Remembering Test Instructions",
          "submissionValue": "ADCRI",
          "synonyms": [
            "Remembering Test Instructions"
          ]
        },
        {
          "conceptId": "C100177",
          "definition": "Alzheimer's Disease Assessment Scale-Cognitive CDISC Version - Word recall task word average score of trials 1, 2, 3.",
          "preferredTerm": "CDISC ADAS-Cog - Word Recall Average Score",
          "submissionValue": "ADCRL",
          "synonyms": [
            "Word Recall"
          ]
        },
        {
          "conceptId": "C100178",
          "definition": "Alzheimer's Disease Assessment Scale-Cognitive CDISC Version - Sub-score for word recall task trial 1.",
          "preferredTerm": "CDISC ADAS-Cog - Word Recall Trial 1 Subscore",
          "submissionValue": "ADCRLT01",
          "synonyms": [
            "Word Recall Trial 1"
          ]
        },
        {
          "conceptId": "C100179",
          "definition": "Alzheimer's Disease Assessment Scale-Cognitive CDISC Version - Sub-score for word recall task trial 2.",
          "preferredTerm": "CDISC ADAS-Cog - Word Recall Trial 2 Subscore",
          "submissionValue": "ADCRLT02",
          "synonyms": [
            "Word Recall Trial 2"
          ]
        },
        {
          "conceptId": "C100180",
          "definition": "Alzheimer's Disease Assessment Scale-Cognitive CDISC Version - Sub-score for word recall task trial 3.",
          "preferredTerm": "CDISC ADAS-Cog - Word Recall Trial 3 Subscore",
          "submissionValue": "ADCRLT03",
          "synonyms": [
            "Word Recall Trial 3"
          ]
        },
        {
          "conceptId": "C100181",
          "definition": "Alzheimer's Disease Assessment Scale-Cognitive CDISC Version - Word recall task word 1 for trial 1, 2, 3.",
          "preferredTerm": "CDISC ADAS-Cog - Word Recall: Word 1",
          "submissionValue": "ADCRLW01",
          "synonyms": [
            "Word Recall: Word [1]"
          ]
        },
        {
          "conceptId": "C100182",
          "definition": "Alzheimer's Disease Assessment Scale-Cognitive CDISC Version - Word recall task word 2 for trial 1, 2, 3.",
          "preferredTerm": "CDISC ADAS-Cog - Word Recall: Word 2",
          "submissionValue": "ADCRLW02",
          "synonyms": [
            "Word Recall: Word [2]"
          ]
        },
        {
          "conceptId": "C100183",
          "definition": "Alzheimer's Disease Assessment Scale-Cognitive CDISC Version - Word recall task word 3 for trial 1, 2, 3.",
          "preferredTerm": "CDISC ADAS-Cog - Word Recall: Word 3",
          "submissionValue": "ADCRLW03",
          "synonyms": [
            "Word Recall: Word [3]"
          ]
        },
        {
          "conceptId": "C100184",
          "definition": "Alzheimer's Disease Assessment Scale-Cognitive CDISC Version - Word recall task word 4 for trial 1, 2, 3.",
          "preferredTerm": "CDISC ADAS-Cog - Word Recall: Word 4",
          "submissionValue": "ADCRLW04",
          "synonyms": [
            "Word Recall: Word [4]"
          ]
        },
        {
          "conceptId": "C100185",
          "definition": "Alzheimer's Disease Assessment Scale-Cognitive CDISC Version - Word recall task word 5 for trial 1, 2, 3.",
          "preferredTerm": "CDISC ADAS-Cog - Word Recall: Word 5",
          "submissionValue": "ADCRLW05",
          "synonyms": [
            "Word Recall: Word [5]"
          ]
        },
        {
          "conceptId": "C100186",
          "definition": "Alzheimer's Disease Assessment Scale-Cognitive CDISC Version - Word recall task word 6 for trial 1, 2, 3.",
          "preferredTerm": "CDISC ADAS-Cog - Word Recall: Word 6",
          "submissionValue": "ADCRLW06",
          "synonyms": [
            "Word Recall: Word [6]"
          ]
        },
        {
          "conceptId": "C100187",
          "definition": "Alzheimer's Disease Assessment Scale-Cognitive CDISC Version - Word recall task word 7 for trial 1, 2, 3.",
          "preferredTerm": "CDISC ADAS-Cog - Word Recall: Word 7",
          "submissionValue": "ADCRLW07",
          "synonyms": [
            "Word Recall: Word [7]"
          ]
        },
        {
          "conceptId": "C100188",
          "definition": "Alzheimer's Disease Assessment Scale-Cognitive CDISC Version - Word recall task word 8 for trial 1, 2, 3.",
          "preferredTerm": "CDISC ADAS-Cog - Word Recall: Word 8",
          "submissionValue": "ADCRLW08",
          "synonyms": [
            "Word Recall: Word [8]"
          ]
        },
        {
          "conceptId": "C100189",
          "definition": "Alzheimer's Disease Assessment Scale-Cognitive CDISC Version - Word recall task word 9 for trial 1, 2, 3.",
          "preferredTerm": "CDISC ADAS-Cog - Word Recall: Word 9",
          "submissionValue": "ADCRLW09",
          "synonyms": [
            "Word Recall: Word [9]"
          ]
        },
        {
          "conceptId": "C100190",
          "definition": "Alzheimer's Disease Assessment Scale-Cognitive CDISC Version - Word recall task word 10 for trial 1, 2, 3.",
          "preferredTerm": "CDISC ADAS-Cog - Word Recall: Word 10",
          "submissionValue": "ADCRLW10",
          "synonyms": [
            "Word Recall: Word [10]"
          ]
        },
        {
          "conceptId": "C100276",
          "definition": "Alzheimer's Disease Assessment Scale-Cognitive CDISC Version - Global rating of the quality of speech, or difficulty in making oneself understood.",
          "preferredTerm": "CDISC ADAS-Cog - Spoken Language Ability",
          "submissionValue": "ADCSL",
          "synonyms": [
            "Spoken Language Ability"
          ]
        }
      ]
    },
    {
      "conceptId": "C100131",
      "definition": "ADAS-Cog CDISC Version test name.",
      "extensible": "No",
      "name": "Alzheimer's Disease Assessment Scale - Cognitive CDISC Version Test Name",
      "preferredTerm": "CDISC Questionnaire ADAS-Cog CDISC Version Test Name Terminology",
      "submissionValue": "ADAS-Cog CDISC Version TEST",
      "synonyms": [
        "Alzheimer's Disease Assessment Scale - Cognitive CDISC Version Test Name"
      ],
      "terms": [
        {
          "conceptId": "C100231",
          "definition": "Alzheimer's Disease Assessment Scale-Cognitive CDISC Version - Constructional praxis attempted to draw, but drew no forms correctly.",
          "preferredTerm": "CDISC ADAS-Cog - Attempt to Draw",
          "submissionValue": "Attempt to Draw",
          "synonyms": [
            "Attempt to Draw"
          ]
        },
        {
          "conceptId": "C100209",
          "definition": "Alzheimer's Disease Assessment Scale-Cognitive CDISC Version - Summary score for commands.",
          "preferredTerm": "CDISC ADAS-Cog - Commands Summary Score",
          "submissionValue": "Commands",
          "synonyms": [
            "Commands"
          ]
        },
        {
          "conceptId": "C100211",
          "definition": "Alzheimer's Disease Assessment Scale-Cognitive CDISC Version - Commands task for pointing to the ceiling then to the floor.",
          "preferredTerm": "CDISC ADAS-Cog - Commands: Ceiling",
          "submissionValue": "Commands: Ceiling",
          "synonyms": [
            "Commands: Ceiling"
          ]
        },
        {
          "conceptId": "C100210",
          "definition": "Alzheimer's Disease Assessment Scale-Cognitive CDISC Version - Commands task for making a fist.",
          "preferredTerm": "CDISC ADAS-Cog - Commands: Fist",
          "submissionValue": "Commands: Fist",
          "synonyms": [
            "Commands: Fist"
          ]
        },
        {
          "conceptId": "C100212",
          "definition": "Alzheimer's Disease Assessment Scale-Cognitive CDISC Version - Commands task for put the pencil on top of the card and then put it back.",
          "preferredTerm": "CDISC ADAS-Cog - Commands: Pencil",
          "submissionValue": "Commands: Pencil",
          "synonyms": [
            "Commands: Pencil"
          ]
        },
        {
          "conceptId": "C100214",
          "definition": "Alzheimer's Disease Assessment Scale-Cognitive CDISC Version - Commands task for tap each shoulder twice with two fingers keeping your eyes shut.",
          "preferredTerm": "CDISC ADAS-Cog - Commands: Shoulder",
          "submissionValue": "Commands: Shoulder",
          "synonyms": [
            "Commands: Shoulder"
          ]
        },
        {
          "conceptId": "C100213",
          "definition": "Alzheimer's Disease Assessment Scale-Cognitive CDISC Version - Commands task for put the watch on the other side of the pencil and then turn over the card.",
          "preferredTerm": "CDISC ADAS-Cog - Commands: Watch",
          "submissionValue": "Commands: Watch",
          "synonyms": [
            "Commands: Watch"
          ]
        },
        {
          "conceptId": "C100278",
          "definition": "Alzheimer's Disease Assessment Scale-Cognitive CDISC Version - Ability to comprehend speech.",
          "preferredTerm": "CDISC ADAS-Cog - Comprehension",
          "submissionValue": "Comprehension",
          "synonyms": [
            "Comprehension"
          ]
        },
        {
          "conceptId": "C100279",
          "definition": "Alzheimer's Disease Assessment Scale-Cognitive CDISC Version - Ability to concentrate or easily be distracted.",
          "preferredTerm": "CDISC ADAS-Cog - Concentration/Distractibility",
          "submissionValue": "Concentration/Distractibility",
          "synonyms": [
            "Concentration/Distractibility"
          ]
        },
        {
          "conceptId": "C100226",
          "definition": "Alzheimer's Disease Assessment Scale-Cognitive CDISC Version - Summary score for constructional praxis.",
          "preferredTerm": "CDISC ADAS-Cog - Constructional Praxis Summary Score",
          "submissionValue": "Constructional Praxis",
          "synonyms": [
            "Constructional Praxis"
          ]
        },
        {
          "conceptId": "C100228",
          "definition": "Alzheimer's Disease Assessment Scale-Cognitive CDISC Version - Constructional praxis task for copying two overlapping rectangles.",
          "preferredTerm": "CDISC ADAS-Cog - Constructional Praxis: 2 Rectangles",
          "submissionValue": "Constructional Praxis: 2 Rectangles",
          "synonyms": [
            "Constructional Praxis: 2 Rectangles"
          ]
        },
        {
          "conceptId": "C100227",
          "definition": "Alzheimer's Disease Assessment Scale-Cognitive CDISC Version - Constructional praxis task for copying a circle.",
          "preferredTerm": "CDISC ADAS-Cog - Constructional Praxis: Circle",
          "submissionValue": "Constructional Praxis: Circle",
          "synonyms": [
            "Constructional Praxis: Circle"
          ]
        },
        {
          "conceptId": "C100230",
          "definition": "Alzheimer's Disease Assessment Scale-Cognitive CDISC Version - Constructional praxis task for copying a cube.",
          "preferredTerm": "CDISC ADAS-Cog - Constructional Praxis: Cube",
          "submissionValue": "Constructional Praxis: Cube",
          "synonyms": [
            "Constructional Praxis: Cube"
          ]
        },
        {
          "conceptId": "C100229",
          "definition": "Alzheimer's Disease Assessment Scale-Cognitive CDISC Version - Constructional praxis task for copying a diamond.",
          "preferredTerm": "CDISC ADAS-Cog - Constructional Praxis: Diamond",
          "submissionValue": "Constructional Praxis: Diamond",
          "synonyms": [
            "Constructional Praxis: Diamond"
          ]
        },
        {
          "conceptId": "C100215",
          "definition": "Alzheimer's Disease Assessment Scale-Cognitive CDISC Version - Summary score for delayed word recall.",
          "preferredTerm": "CDISC ADAS-Cog - Delayed Word Recall Summary Score",
          "submissionValue": "Delayed Word Recall",
          "synonyms": [
            "Delayed Word Recall"
          ]
        },
        {
          "conceptId": "C100216",
          "definition": "Alzheimer's Disease Assessment Scale-Cognitive CDISC Version - Delayed word recall task for word 1.",
          "preferredTerm": "CDISC ADAS-Cog - Delayed Word Recall: Word 1",
          "submissionValue": "Delayed Word Recall: Word [1]",
          "synonyms": [
            "Delayed Word Recall: Word [1]"
          ]
        },
        {
          "conceptId": "C100225",
          "definition": "Alzheimer's Disease Assessment Scale-Cognitive CDISC Version - Delayed word recall task for word 10.",
          "preferredTerm": "CDISC ADAS-Cog - Delayed Word Recall: Word 10",
          "submissionValue": "Delayed Word Recall: Word [10]",
          "synonyms": [
            "Delayed Word Recall: Word [10]"
          ]
        },
        {
          "conceptId": "C100217",
          "definition": "Alzheimer's Disease Assessment Scale-Cognitive CDISC Version - Delayed word recall task for word 2.",
          "preferredTerm": "CDISC ADAS-Cog - Delayed Word Recall: Word 2",
          "submissionValue": "Delayed Word Recall: Word [2]",
          "synonyms": [
            "Delayed Word Recall: Word [2]"
          ]
        },
        {
          "conceptId": "C100218",
          "definition": "Alzheimer's Disease Assessment Scale-Cognitive CDISC Version - Delayed word recall task for word 3.",
          "preferredTerm": "CDISC ADAS-Cog - Delayed Word Recall: Word 3",
          "submissionValue": "Delayed Word Recall: Word [3]",
          "synonyms": [
            "Delayed Word Recall: Word [3]"
          ]
        },
        {
          "conceptId": "C100219",
          "definition": "Alzheimer's Disease Assessment Scale-Cognitive CDISC Version - Delayed word recall task for word 4.",
          "preferredTerm": "CDISC ADAS-Cog - Delayed Word Recall: Word 4",
          "submissionValue": "Delayed Word Recall: Word [4]",
          "synonyms": [
            "Delayed Word Recall: Word [4]"
          ]
        },
        {
          "conceptId": "C100220",
          "definition": "Alzheimer's Disease Assessment Scale-Cognitive CDISC Version - Delayed word recall task for word 5.",
          "preferredTerm": "CDISC ADAS-Cog - Delayed Word Recall: Word 5",
          "submissionValue": "Delayed Word Recall: Word [5]",
          "synonyms": [
            "Delayed Word Recall: Word [5]"
          ]
        },
        {
          "conceptId": "C100221",
          "definition": "Alzheimer's Disease Assessment Scale-Cognitive CDISC Version - Delayed word recall task for word 6.",
          "preferredTerm": "CDISC ADAS-Cog - Delayed Word Recall: Word 6",
          "submissionValue": "Delayed Word Recall: Word [6]",
          "synonyms": [
            "Delayed Word Recall: Word [6]"
          ]
        },
        {
          "conceptId": "C100222",
          "definition": "Alzheimer's Disease Assessment Scale-Cognitive CDISC Version - Delayed word recall task for word 7.",
          "preferredTerm": "CDISC ADAS-Cog - Delayed Word Recall: Word 7",
          "submissionValue": "Delayed Word Recall: Word [7]",
          "synonyms": [
            "Delayed Word Recall: Word [7]"
          ]
        },
        {
          "conceptId": "C100223",
          "definition": "Alzheimer's Disease Assessment Scale-Cognitive CDISC Version - Delayed word recall task for word 8.",
          "preferredTerm": "CDISC ADAS-Cog - Delayed Word Recall: Word 8",
          "submissionValue": "Delayed Word Recall: Word [8]",
          "synonyms": [
            "Delayed Word Recall: Word [8]"
          ]
        },
        {
          "conceptId": "C100224",
          "definition": "Alzheimer's Disease Assessment Scale-Cognitive CDISC Version - Delayed word recall task for word 9.",
          "preferredTerm": "CDISC ADAS-Cog - Delayed Word Recall: Word 9",
          "submissionValue": "Delayed Word Recall: Word [9]",
          "synonyms": [
            "Delayed Word Recall: Word [9]"
          ]
        },
        {
          "conceptId": "C100284",
          "definition": "Alzheimer's Disease Assessment Scale-Cognitive CDISC Version - Summary score for the executive function maze tasks.",
          "preferredTerm": "CDISC ADAS-Cog - Executive Function Maze Summary Score",
          "submissionValue": "Executive Function Maze",
          "synonyms": [
            "Executive Function Maze"
          ]
        },
        {
          "conceptId": "C100285",
          "definition": "Alzheimer's Disease Assessment Scale-Cognitive CDISC Version - Number of errors during the executive function maze task.",
          "preferredTerm": "CDISC ADAS-Cog - Executive Function Maze: Errors",
          "submissionValue": "Executive Function Maze: Errors",
          "synonyms": [
            "Executive Function Maze: Errors"
          ]
        },
        {
          "conceptId": "C100286",
          "definition": "Alzheimer's Disease Assessment Scale-Cognitive CDISC Version - The time in seconds stored in ISO 8601 time for the executive function maze task.",
          "preferredTerm": "CDISC ADAS-Cog - Executive Function Maze: Time",
          "submissionValue": "Executive Function Maze: Time",
          "synonyms": [
            "Executive Function Maze: Time"
          ]
        },
        {
          "conceptId": "C100232",
          "definition": "Alzheimer's Disease Assessment Scale-Cognitive CDISC Version - Summary score for ideational praxis.",
          "preferredTerm": "CDISC ADAS-Cog - Ideational Praxis Summary Score",
          "submissionValue": "Ideational Praxis",
          "synonyms": [
            "Ideational Praxis"
          ]
        },
        {
          "conceptId": "C100236",
          "definition": "Alzheimer's Disease Assessment Scale-Cognitive CDISC Version - Ideational praxis task for address the envelop to yourself.",
          "preferredTerm": "CDISC ADAS-Cog - Ideational Praxis: Address",
          "submissionValue": "Ideational Praxis: Address",
          "synonyms": [
            "Ideational Praxis: Address"
          ]
        },
        {
          "conceptId": "C100233",
          "definition": "Alzheimer's Disease Assessment Scale-Cognitive CDISC Version - Ideational praxis task for folding the paper.",
          "preferredTerm": "CDISC ADAS-Cog - Ideational Praxis: Fold",
          "submissionValue": "Ideational Praxis: Fold",
          "synonyms": [
            "Ideational Praxis: Fold"
          ]
        },
        {
          "conceptId": "C100234",
          "definition": "Alzheimer's Disease Assessment Scale-Cognitive CDISC Version - Ideational praxis task for put the paper in the envelop.",
          "preferredTerm": "CDISC ADAS-Cog - Ideational Praxis: Insert",
          "submissionValue": "Ideational Praxis: Insert",
          "synonyms": [
            "Ideational Praxis: Insert"
          ]
        },
        {
          "conceptId": "C100235",
          "definition": "Alzheimer's Disease Assessment Scale-Cognitive CDISC Version - Ideational praxis task for seal the envelop.",
          "preferredTerm": "CDISC ADAS-Cog - Ideational Praxis: Seal",
          "submissionValue": "Ideational Praxis: Seal",
          "synonyms": [
            "Ideational Praxis: Seal"
          ]
        },
        {
          "conceptId": "C100237",
          "definition": "Alzheimer's Disease Assessment Scale-Cognitive CDISC Version - Ideational praxis task for showing where the stamp goes.",
          "preferredTerm": "CDISC ADAS-Cog - Ideational Praxis: Stamp",
          "submissionValue": "Ideational Praxis: Stamp",
          "synonyms": [
            "Ideational Praxis: Stamp"
          ]
        },
        {
          "conceptId": "C100191",
          "definition": "Alzheimer's Disease Assessment Scale-Cognitive CDISC Version - Naming task summary score for object and fingers.",
          "preferredTerm": "CDISC ADAS-Cog - Naming Objects and Fingers Summary Score",
          "submissionValue": "Naming Objects and Fingers",
          "synonyms": [
            "Naming Objects and Fingers"
          ]
        },
        {
          "conceptId": "C100192",
          "definition": "Alzheimer's Disease Assessment Scale-Cognitive CDISC Version - Naming task for object 1.",
          "preferredTerm": "CDISC ADAS-Cog - Naming Objects and Fingers: 1",
          "submissionValue": "Naming Objects and Fingers: 1",
          "synonyms": [
            "Naming Objects and Fingers: 1"
          ]
        },
        {
          "conceptId": "C100201",
          "definition": "Alzheimer's Disease Assessment Scale-Cognitive CDISC Version - Naming task for object 10.",
          "preferredTerm": "CDISC ADAS-Cog - Naming Objects and Fingers: 10",
          "submissionValue": "Naming Objects and Fingers: 10",
          "synonyms": [
            "Naming Objects and Fingers: 10"
          ]
        },
        {
          "conceptId": "C100202",
          "definition": "Alzheimer's Disease Assessment Scale-Cognitive CDISC Version - Naming task for object 11.",
          "preferredTerm": "CDISC ADAS-Cog - Naming Objects and Fingers: 11",
          "submissionValue": "Naming Objects and Fingers: 11",
          "synonyms": [
            "Naming Objects and Fingers: 11"
          ]
        },
        {
          "conceptId": "C100203",
          "definition": "Alzheimer's Disease Assessment Scale-Cognitive CDISC Version - Naming task for object 12.",
          "preferredTerm": "CDISC ADAS-Cog - Naming Objects and Fingers: 12",
          "submissionValue": "Naming Objects and Fingers: 12",
          "synonyms": [
            "Naming Objects and Fingers: 12"
          ]
        },
        {
          "conceptId": "C100193",
          "definition": "Alzheimer's Disease Assessment Scale-Cognitive CDISC Version - Naming task for object 2.",
          "preferredTerm": "CDISC ADAS-Cog - Naming Objects and Fingers: 2",
          "submissionValue": "Naming Objects and Fingers: 2",
          "synonyms": [
            "Naming Objects and Fingers: 2"
          ]
        },
        {
          "conceptId": "C100194",
          "definition": "Alzheimer's Disease Assessment Scale-Cognitive CDISC Version - Naming task for object 3.",
          "preferredTerm": "CDISC ADAS-Cog - Naming Objects and Fingers: 3",
          "submissionValue": "Naming Objects and Fingers: 3",
          "synonyms": [
            "Naming Objects and Fingers: 3"
          ]
        },
        {
          "conceptId": "C100195",
          "definition": "Alzheimer's Disease Assessment Scale-Cognitive CDISC Version - Naming task for object 4.",
          "preferredTerm": "CDISC ADAS-Cog - Naming Objects and Fingers: 4",
          "submissionValue": "Naming Objects and Fingers: 4",
          "synonyms": [
            "Naming Objects and Fingers: 4"
          ]
        },
        {
          "conceptId": "C100196",
          "definition": "Alzheimer's Disease Assessment Scale-Cognitive CDISC Version - Naming task for object 5.",
          "preferredTerm": "CDISC ADAS-Cog - Naming Objects and Fingers: 5",
          "submissionValue": "Naming Objects and Fingers: 5",
          "synonyms": [
            "Naming Objects and Fingers: 5"
          ]
        },
        {
          "conceptId": "C100197",
          "definition": "Alzheimer's Disease Assessment Scale-Cognitive CDISC Version - Naming task for object 6.",
          "preferredTerm": "CDISC ADAS-Cog - Naming Objects and Fingers: 6",
          "submissionValue": "Naming Objects and Fingers: 6",
          "synonyms": [
            "Naming Objects and Fingers: 6"
          ]
        },
        {
          "conceptId": "C100198",
          "definition": "Alzheimer's Disease Assessment Scale-Cognitive CDISC Version - Naming task for object 7.",
          "preferredTerm": "CDISC ADAS-Cog - Naming Objects and Fingers: 7",
          "submissionValue": "Naming Objects and Fingers: 7",
          "synonyms": [
            "Naming Objects and Fingers: 7"
          ]
        },
        {
          "conceptId": "C100199",
          "definition": "Alzheimer's Disease Assessment Scale-Cognitive CDISC Version - Naming task for object 8.",
          "preferredTerm": "CDISC ADAS-Cog - Naming Objects and Fingers: 8",
          "submissionValue": "Naming Objects and Fingers: 8",
          "synonyms": [
            "Naming Objects and Fingers: 8"
          ]
        },
        {
          "conceptId": "C100200",
          "definition": "Alzheimer's Disease Assessment Scale-Cognitive CDISC Version - Naming task for object 9.",
          "preferredTerm": "CDISC ADAS-Cog - Naming Objects and Fingers: 9",
          "submissionValue": "Naming Objects and Fingers: 9",
          "synonyms": [
            "Naming Objects and Fingers: 9"
          ]
        },
        {
          "conceptId": "C100206",
          "definition": "Alzheimer's Disease Assessment Scale-Cognitive CDISC Version - Naming task for fingers of the dominant hand, middle finger.",
          "preferredTerm": "CDISC ADAS-Cog - Naming Objects and Fingers: Middle",
          "submissionValue": "Naming Objects and Fingers: Middle",
          "synonyms": [
            "Naming Objects and Fingers: Middle"
          ]
        },
        {
          "conceptId": "C100208",
          "definition": "Alzheimer's Disease Assessment Scale-Cognitive CDISC Version - Naming task for fingers of the dominant hand, little finger or pinky.",
          "preferredTerm": "CDISC ADAS-Cog - Naming Objects and Fingers: Pinky",
          "submissionValue": "Naming Objects and Fingers: Pinky",
          "synonyms": [
            "Naming Objects and Fingers: Pinky"
          ]
        },
        {
          "conceptId": "C100205",
          "definition": "Alzheimer's Disease Assessment Scale-Cognitive CDISC Version - Naming task for fingers of the dominant hand, index, or pointer finger.",
          "preferredTerm": "CDISC ADAS-Cog - Naming Objects and Fingers: Pointer",
          "submissionValue": "Naming Objects and Fingers: Pointer",
          "synonyms": [
            "Naming Objects and Fingers: Pointer"
          ]
        },
        {
          "conceptId": "C100207",
          "definition": "Alzheimer's Disease Assessment Scale-Cognitive CDISC Version - Naming task for fingers of the dominant hand, ring finger.",
          "preferredTerm": "CDISC ADAS-Cog - Naming Objects and Fingers: Ring",
          "submissionValue": "Naming Objects and Fingers: Ring",
          "synonyms": [
            "Naming Objects and Fingers: Ring"
          ]
        },
        {
          "conceptId": "C100204",
          "definition": "Alzheimer's Disease Assessment Scale-Cognitive CDISC Version - Naming task for fingers of the dominant hand, thumb.",
          "preferredTerm": "CDISC ADAS-Cog - Naming Objects and Fingers: Thumb",
          "submissionValue": "Naming Objects and Fingers: Thumb",
          "synonyms": [
            "Naming Objects and Fingers: Thumb"
          ]
        },
        {
          "conceptId": "C100280",
          "definition": "Alzheimer's Disease Assessment Scale-Cognitive CDISC Version - Summary score for the number cancellation tasks.",
          "preferredTerm": "CDISC ADAS-Cog - Number Cancellation Summary Score",
          "submissionValue": "Number Cancellation",
          "synonyms": [
            "Number Cancellation"
          ]
        },
        {
          "conceptId": "C100281",
          "definition": "Alzheimer's Disease Assessment Scale-Cognitive CDISC Version - Number of targets hit during the number cancellation task.",
          "preferredTerm": "CDISC ADAS-Cog - Number Cancellation: Correct",
          "submissionValue": "Number Cancellation: Correct",
          "synonyms": [
            "Number Cancellation: Correct"
          ]
        },
        {
          "conceptId": "C100282",
          "definition": "Alzheimer's Disease Assessment Scale-Cognitive CDISC Version - Number of errors during the number cancellation task.",
          "preferredTerm": "CDISC ADAS-Cog - Number Cancellation: Errors",
          "submissionValue": "Number Cancellation: Errors",
          "synonyms": [
            "Number Cancellation: Errors"
          ]
        },
        {
          "conceptId": "C100283",
          "definition": "Alzheimer's Disease Assessment Scale-Cognitive CDISC Version - Number of times reminded for the number cancellation task.",
          "preferredTerm": "CDISC ADAS-Cog - Number Cancellation: Remind",
          "submissionValue": "Number Cancellation: Remind",
          "synonyms": [
            "Number Cancellation: Remind"
          ]
        },
        {
          "conceptId": "C100238",
          "definition": "Alzheimer's Disease Assessment Scale-Cognitive CDISC Version - Summary score for orientation.",
          "preferredTerm": "CDISC ADAS-Cog - Orientation Summary Score",
          "submissionValue": "Orientation",
          "synonyms": [
            "Orientation"
          ]
        },
        {
          "conceptId": "C100241",
          "definition": "Alzheimer's Disease Assessment Scale-Cognitive CDISC Version - Orientation task for knowing the current day.",
          "preferredTerm": "CDISC ADAS-Cog - Orientation: Date",
          "submissionValue": "Orientation: Date",
          "synonyms": [
            "Orientation: Date"
          ]
        },
        {
          "conceptId": "C100243",
          "definition": "Alzheimer's Disease Assessment Scale-Cognitive CDISC Version - Orientation task for knowing the current day of the week.",
          "preferredTerm": "CDISC ADAS-Cog - Orientation: Day of Week",
          "submissionValue": "Orientation: Day of Week",
          "synonyms": [
            "Orientation: Day of Week"
          ]
        },
        {
          "conceptId": "C100239",
          "definition": "Alzheimer's Disease Assessment Scale-Cognitive CDISC Version - Orientation task for knowing one's own full name.",
          "preferredTerm": "CDISC ADAS-Cog - Orientation: Full Name",
          "submissionValue": "Orientation: Full Name",
          "synonyms": [
            "Orientation: Full Name"
          ]
        },
        {
          "conceptId": "C100240",
          "definition": "Alzheimer's Disease Assessment Scale-Cognitive CDISC Version - Orientation task for knowing the current month.",
          "preferredTerm": "CDISC ADAS-Cog - Orientation: Month",
          "submissionValue": "Orientation: Month",
          "synonyms": [
            "Orientation: Month"
          ]
        },
        {
          "conceptId": "C100245",
          "definition": "Alzheimer's Disease Assessment Scale-Cognitive CDISC Version - Orientation task for knowing the current place.",
          "preferredTerm": "CDISC ADAS-Cog - Orientation: Place",
          "submissionValue": "Orientation: Place",
          "synonyms": [
            "Orientation: Place"
          ]
        },
        {
          "conceptId": "C100244",
          "definition": "Alzheimer's Disease Assessment Scale-Cognitive CDISC Version - Orientation task for knowing the current season.",
          "preferredTerm": "CDISC ADAS-Cog - Orientation: Season",
          "submissionValue": "Orientation: Season",
          "synonyms": [
            "Orientation: Season"
          ]
        },
        {
          "conceptId": "C100246",
          "definition": "Alzheimer's Disease Assessment Scale-Cognitive CDISC Version - Orientation task for knowing the approximate current clock time.",
          "preferredTerm": "CDISC ADAS-Cog - Orientation: Time",
          "submissionValue": "Orientation: Time",
          "synonyms": [
            "Orientation: Time"
          ]
        },
        {
          "conceptId": "C100242",
          "definition": "Alzheimer's Disease Assessment Scale-Cognitive CDISC Version - Orientation task for knowing the current year.",
          "preferredTerm": "CDISC ADAS-Cog - Orientation: Year",
          "submissionValue": "Orientation: Year",
          "synonyms": [
            "Orientation: Year"
          ]
        },
        {
          "conceptId": "C100275",
          "definition": "Alzheimer's Disease Assessment Scale-Cognitive CDISC Version - Remembering test instructions.",
          "preferredTerm": "CDISC ADAS-Cog - Remembering Test Instructions",
          "submissionValue": "Remembering Test Instructions",
          "synonyms": [
            "Remembering Test Instructions"
          ]
        },
        {
          "conceptId": "C100276",
          "definition": "Alzheimer's Disease Assessment Scale-Cognitive CDISC Version - Global rating of the quality of speech, or difficulty in making oneself understood.",
          "preferredTerm": "CDISC ADAS-Cog - Spoken Language Ability",
          "submissionValue": "Spoken Language Ability",
          "synonyms": [
            "Spoken Language Ability"
          ]
        },
        {
          "conceptId": "C100277",
          "definition": "Alzheimer's Disease Assessment Scale-Cognitive CDISC Version - Difficulty finding the desired word in spontaneous speech.",
          "preferredTerm": "CDISC ADAS-Cog - Word Difficulty in Spontaneous Speech",
          "submissionValue": "Word Finding Difficulty in Spont Speech",
          "synonyms": [
            "Word Finding Difficulty in Spont Speech"
          ]
        },
        {
          "conceptId": "C100177",
          "definition": "Alzheimer's Disease Assessment Scale-Cognitive CDISC Version - Word recall task word average score of trials 1, 2, 3.",
          "preferredTerm": "CDISC ADAS-Cog - Word Recall Average Score",
          "submissionValue": "Word Recall",
          "synonyms": [
            "Word Recall"
          ]
        },
        {
          "conceptId": "C100178",
          "definition": "Alzheimer's Disease Assessment Scale-Cognitive CDISC Version - Sub-score for word recall task trial 1.",
          "preferredTerm": "CDISC ADAS-Cog - Word Recall Trial 1 Subscore",
          "submissionValue": "Word Recall Trial 1",
          "synonyms": [
            "Word Recall Trial 1"
          ]
        },
        {
          "conceptId": "C100179",
          "definition": "Alzheimer's Disease Assessment Scale-Cognitive CDISC Version - Sub-score for word recall task trial 2.",
          "preferredTerm": "CDISC ADAS-Cog - Word Recall Trial 2 Subscore",
          "submissionValue": "Word Recall Trial 2",
          "synonyms": [
            "Word Recall Trial 2"
          ]
        },
        {
          "conceptId": "C100180",
          "definition": "Alzheimer's Disease Assessment Scale-Cognitive CDISC Version - Sub-score for word recall task trial 3.",
          "preferredTerm": "CDISC ADAS-Cog - Word Recall Trial 3 Subscore",
          "submissionValue": "Word Recall Trial 3",
          "synonyms": [
            "Word Recall Trial 3"
          ]
        },
        {
          "conceptId": "C100181",
          "definition": "Alzheimer's Disease Assessment Scale-Cognitive CDISC Version - Word recall task word 1 for trial 1, 2, 3.",
          "preferredTerm": "CDISC ADAS-Cog - Word Recall: Word 1",
          "submissionValue": "Word Recall: Word [1]",
          "synonyms": [
            "Word Recall: Word [1]"
          ]
        },
        {
          "conceptId": "C100190",
          "definition": "Alzheimer's Disease Assessment Scale-Cognitive CDISC Version - Word recall task word 10 for trial 1, 2, 3.",
          "preferredTerm": "CDISC ADAS-Cog - Word Recall: Word 10",
          "submissionValue": "Word Recall: Word [10]",
          "synonyms": [
            "Word Recall: Word [10]"
          ]
        },
        {
          "conceptId": "C100182",
