{"_links": {"parentPackage": {"href": "/mdr/ct/packages/sdtmct-2021-03-26", "title": "SDTM Controlled Terminology Package 45 Effective 2021-03-26", "type": "Terminology"}, "priorVersion": {"href": "/mdr/ct/packages/sdtmct-2020-12-18/codelists/C100142", "title": "CDISC Functional Test MMSE Test Code Terminology", "type": "Code List"}, "rootItem": {"href": "/mdr/root/ct/sdtmct/codelists/C100142", "title": "Version-agnostic anchor resource for codelist C100142", "type": "Root Value Domain"}, "self": {"href": "/mdr/ct/packages/sdtmct-2021-03-26/codelists/C100142", "title": "CDISC Functional Test MMSE Test Code Terminology", "type": "Code List"}}, "conceptId": "C100142", "definition": "Mini-Mental State Examination test code.", "extensible": "false", "name": "Mini-Mental State Examination Functional Test Test Code", "preferredTerm": "CDISC Functional Test MMSE Test Code Terminology", "submissionValue": "MMS1TC", "synonyms": ["Mini-Mental State Examination Functional Test Test Code"], "terms": [{"conceptId": "C100543", "definition": "Mini-Mental State Examination - What is the year?", "preferredTerm": "MMSE - What Is the Year", "submissionValue": "MMS101A", "synonyms": ["MMS1-What Is the Year"]}, {"conceptId": "C100544", "definition": "Mini-Mental State Examination - What is the season?", "preferredTerm": "MMSE - What Is the Season", "submissionValue": "MMS101B", "synonyms": ["MMS1-What Is the Season"]}, {"conceptId": "C100547", "definition": "Mini-Mental State Examination - What is the month of the year?", "preferredTerm": "MMSE - What Is the Month of Year", "submissionValue": "MMS101C", "synonyms": ["MMS1-What Is the Month of Year"]}, {"conceptId": "C100546", "definition": "Mini-Mental State Examination - What is the day of the week?", "preferredTerm": "MMSE - What Is the Day of Week", "submissionValue": "MMS101D", "synonyms": ["MMS1-What Is the Day of Week"]}, {"conceptId": "C100545", "definition": "Mini-Mental State Examination - What is the date?", "preferredTerm": "MMSE - What Is the Date", "submissionValue": "MMS101E", "synonyms": ["MMS1-What Is the Date"]}, {"conceptId": "C100549", "definition": "Mini-Mental State Examination - Where are we now? What is the state (province)?", "preferredTerm": "MMSE - What Is the State", "submissionValue": "MMS102A", "synonyms": ["MMS1-What Is the State"]}, {"conceptId": "C100550", "definition": "Mini-Mental State Examination - Where are we now? What is the county (or city/town)?", "preferredTerm": "MMSE - What Is the County", "submissionValue": "MMS102B", "synonyms": ["MMS1-What Is the County"]}, {"conceptId": "C100551", "definition": "Mini-Mental State Examination - Where are we now? What is the city/town (or part of city/neighborhood)?", "preferredTerm": "MMSE - What Is the City or Town", "submissionValue": "MMS102C", "synonyms": ["MMS1-What Is the City/Town"]}, {"conceptId": "C100552", "definition": "Mini-Mental State Examination - Where are we now? What is the building (name or type)?", "preferredTerm": "MMSE - What Is the Building", "submissionValue": "MMS102D", "synonyms": ["MMS1-What Is the Building"]}, {"conceptId": "C100553", "definition": "Mini-Mental State Examination - Where are we now? What is the floor of the building (room number or address)?", "preferredTerm": "MMSE - What Is the Floor", "submissionValue": "MMS102E", "synonyms": ["MMS1-What Is the Floor"]}, {"conceptId": "C100555", "definition": "Mini-Mental State Examination - Now repeat those words back to me: Word 1.", "preferredTerm": "MMSE - Repeat Word 1", "submissionValue": "MMS103A", "synonyms": ["MMS1-Repeat Word 1"]}, {"conceptId": "C100556", "definition": "Mini-Mental State Examination - Now repeat those words back to me: Word 2.", "preferredTerm": "MMSE - Repeat Word 2", "submissionValue": "MMS103B", "synonyms": ["MMS1-Repeat Word 2"]}, {"conceptId": "C100557", "definition": "Mini-Mental State Examination - Now repeat those words back to me: Word 3.", "preferredTerm": "MMSE - Repeat Word 3", "submissionValue": "MMS103C", "synonyms": ["MMS1-Repeat Word 3"]}, {"conceptId": "C100570", "definition": "Mini-Mental State Examination - Attention and calculation subtotal.", "preferredTerm": "MMSE - Attention and Calculation Subtotal", "submissionValue": "MMS104", "synonyms": ["MMS1-Attention and Calculation Subtotal"]}, {"conceptId": "C100559", "definition": "Mini-Mental State Examination - What is 100 take away 7 [93]?", "preferredTerm": "MMSE - What is 100 Take Away 7", "submissionValue": "MMS104AA", "synonyms": ["MMS1-What is 100 Take Away 7"]}, {"conceptId": "C100560", "definition": "Mini-Mental State Examination - Keep going [86].", "preferredTerm": "MMSE - Keep Subtracting 7 Step 2", "submissionValue": "MMS104AB", "synonyms": ["MMS1-Keep Subtracting 7 Step 2"]}, {"conceptId": "C100561", "definition": "Mini-Mental State Examination - Keep going [79].", "preferredTerm": "MMSE - Keep Subtracting 7 Step 3", "submissionValue": "MMS104AC", "synonyms": ["MMS1-Keep Subtracting 7 Step 3"]}, {"conceptId": "C100562", "definition": "Mini-Mental State Examination - Keep going [72].", "preferredTerm": "MMSE - Keep Subtracting 7 Step 4", "submissionValue": "MMS104AD", "synonyms": ["MMS1-Keep Subtracting 7 Step 4"]}, {"conceptId": "C100563", "definition": "Mini-Mental State Examination - Keep going [65].", "preferredTerm": "MMSE - Keep Subtracting 7 Step 5", "submissionValue": "MMS104AE", "synonyms": ["MMS1-Keep Subtracting 7 Step 5"]}, {"conceptId": "C100565", "definition": "Mini-Mental State Examination - Spell backward, letter 1.", "preferredTerm": "MMSE - Spell Backward Letter 1", "submissionValue": "MMS104BA", "synonyms": ["MMS1-Spell Backward Letter 1"]}, {"conceptId": "C100566", "definition": "Mini-Mental State Examination - Spell backward, letter 2.", "preferredTerm": "MMSE - Spell Backward Letter 2", "submissionValue": "MMS104BB", "synonyms": ["MMS1-Spell Backward Letter 2"]}, {"conceptId": "C100567", "definition": "Mini-Mental State Examination - Spell backward, letter 3.", "preferredTerm": "MMSE - Spell Backward Letter 3", "submissionValue": "MMS104BC", "synonyms": ["MMS1-Spell Backward Letter 3"]}, {"conceptId": "C100568", "definition": "Mini-Mental State Examination - Spell backward, letter 4.", "preferredTerm": "MMSE - Spell Backward Letter 4", "submissionValue": "MMS104BD", "synonyms": ["MMS1-Spell Backward Letter 4"]}, {"conceptId": "C100569", "definition": "Mini-Mental State Examination - Spell backward, letter 5.", "preferredTerm": "MMSE - Spell Backward Letter 5", "submissionValue": "MMS104BE", "synonyms": ["MMS1-Spell Backward Letter 5"]}, {"conceptId": "C100572", "definition": "Mini-Mental State Examination - What were those three words I asked you to remember: Word 1?", "preferredTerm": "MMSE - Recall Word 1", "submissionValue": "MMS105A", "synonyms": ["MMS1-Recall Word 1"]}, {"conceptId": "C100573", "definition": "Mini-Mental State Examination - What were those three words I asked you to remember: Word 2?", "preferredTerm": "MMSE - Recall Word 2", "submissionValue": "MMS105B", "synonyms": ["MMS1-Recall Word 2"]}, {"conceptId": "C100574", "definition": "Mini-Mental State Examination - What were those three words I asked you to remember: Word 3?", "preferredTerm": "MMSE - Recall Word 3", "submissionValue": "MMS105C", "synonyms": ["MMS1-Recall Word 3"]}, {"conceptId": "C100576", "definition": "Mini-Mental State Examination - What is this: Object 1?", "preferredTerm": "MMSE - Naming Object 1", "submissionValue": "MMS106A", "synonyms": ["MMS1-Naming Object 1"]}, {"conceptId": "C100577", "definition": "Mini-Mental State Examination - What is this: Object 2?", "preferredTerm": "MMSE - Naming Object 2", "submissionValue": "MMS106B", "synonyms": ["MMS1-Naming Object 2"]}, {"conceptId": "C100578", "definition": "Mini-Mental State Examination - Now I am going to ask you to repeat what I say. Ready? \"No ifs, ands, or buts.\" Now you say that.", "preferredTerm": "MMSE - Repeat What I Say", "submissionValue": "MMS107", "synonyms": ["MMS1-Repeat What I Say"]}, {"conceptId": "C100580", "definition": "Mini-Mental State Examination - Listen carefully because I am going to ask you to do something. Take this paper in your right hand.", "preferredTerm": "MMSE - Take in Right Hand", "submissionValue": "MMS108A", "synonyms": ["MMS1-Take in Right Hand"]}, {"conceptId": "C100581", "definition": "Mini-Mental State Examination - Fold it in half.", "preferredTerm": "MMSE - Fold in Half", "submissionValue": "MMS108B", "synonyms": ["MMS1-Fold in Half"]}, {"conceptId": "C100582", "definition": "Mini-Mental State Examination - And put it on the floor (or table).", "preferredTerm": "MMSE - Put on Floor or Table", "submissionValue": "MMS108C", "synonyms": ["MMS1-Put on Floor (or Table)"]}, {"conceptId": "C100583", "definition": "Mini-Mental State Examination - Please read this and do what it says.", "preferredTerm": "MMSE - Read This and Do What It Says", "submissionValue": "MMS109", "synonyms": ["MMS1-Read This and Do What It Says"]}, {"conceptId": "C100584", "definition": "Mini-Mental State Examination - Please write a sentence.", "preferredTerm": "MMSE - Write a Sentence", "submissionValue": "MMS110", "synonyms": ["MMS1-Write a Sentence"]}, {"conceptId": "C100585", "definition": "Mini-Mental State Examination - Please copy this design.", "preferredTerm": "MMSE - Copy This Design", "submissionValue": "MMS111", "synonyms": ["MMS1-Copy This Design"]}, {"conceptId": "C100586", "definition": "Mini-Mental State Examination - Total score.", "preferredTerm": "MMSE - Total Score", "submissionValue": "MMS112", "synonyms": ["MMS1-Total Score"]}, {"conceptId": "C136234", "definition": "Mini-Mental State Examination - Assessment of level of consciousness.", "preferredTerm": "MMSE - Level of Consciousness", "submissionValue": "MMS113", "synonyms": ["MMS1-Level of Consciousness"]}]}