{"_links": {"parentPackage": {"href": "/mdr/ct/packages/sdtmct-2021-03-26", "title": "SDTM Controlled Terminology Package 45 Effective 2021-03-26", "type": "Terminology"}, "priorVersion": {"href": "/mdr/ct/packages/sdtmct-2020-12-18/codelists/C100130", "title": "CDISC SDTM Relationship to Subject Terminology", "type": "Code List"}, "rootItem": {"href": "/mdr/root/ct/sdtmct/codelists/C100130", "title": "Version-agnostic anchor resource for codelist C100130", "type": "Root Value Domain"}, "self": {"href": "/mdr/ct/packages/sdtmct-2021-03-26/codelists/C100130", "title": "CDISC SDTM Relationship to Subject Terminology", "type": "Code List"}}, "conceptId": "C100130", "definition": "The relationship of a person to a study subject.", "extensible": "true", "name": "Relationship to Subject", "preferredTerm": "CDISC SDTM Relationship to Subject Terminology", "submissionValue": "RELSUB", "synonyms": ["Relationship to Subject"], "terms": [{"conceptId": "C130052", "definition": "A person whose association to an individual is unintentional.", "preferredTerm": "Accidental Association", "submissionValue": "ACCIDENTAL ASSOCIATE"}, {"conceptId": "C96569", "definition": "A female relative who is a sibling of either of the biological parents, and who share a common ancestor. (NCI)", "preferredTerm": "Biological Aunt", "submissionValue": "AUNT, BIOLOGICAL", "synonyms": ["Biological Aunt"]}, {"conceptId": "C96575", "definition": "A female relative who is a sibling of the biological mother, and who both share a common ancestor. (NCI)", "preferredTerm": "Biological Maternal Aunt", "submissionValue": "AUNT, BIOLOGICAL MATERNAL", "synonyms": ["Biological Maternal Aunt"]}, {"conceptId": "C96581", "definition": "A female relative who is a sibling of the biological father, and who both share a common ancestor. (NCI)", "preferredTerm": "Biological Paternal Aunt", "submissionValue": "AUNT, BIOLOGICAL PATERNAL", "synonyms": ["Biological Paternal Aunt"]}, {"conceptId": "C71384", "definition": "An individual that shares genetic makeup with another individual.", "preferredTerm": "Biological Relative", "submissionValue": "BIOLOGICALLY RELATED"}, {"conceptId": "C130053", "definition": "An individual that does not share any genetic makeup with another individual.", "preferredTerm": "Biologically Unrelated", "submissionValue": "BIOLOGICALLY UNRELATED"}, {"conceptId": "C96570", "definition": "A male who shares with his sibling the genetic makeup inherited from one or both of their shared biological parents.", "preferredTerm": "Biological Brother", "submissionValue": "BROTHER, BIOLOGICAL", "synonyms": ["Biological Brother"]}, {"conceptId": "C96656", "definition": "A male who shares with his sibling the genetic makeup inherited from only the biological mother.", "preferredTerm": "Half-brother with Mother as Common Parent", "submissionValue": "BROTHER, BIOLOGICAL MATERNAL HALF", "synonyms": ["Half-brother with Mother as Common Parent"]}, {"conceptId": "C96655", "definition": "A male who shares with his sibling the genetic makeup inherited from only the biological father.", "preferredTerm": "Half-brother with Father as Common Parent", "submissionValue": "BROTHER, BIOLOGICAL PATERNAL HALF", "synonyms": ["Half-brother with Father as Common Parent"]}, {"conceptId": "C111201", "definition": "A male who shares with his sibling the genetic makeup inherited from both of the biological parents.", "preferredTerm": "Full Brother", "submissionValue": "BROTHER, FULL"}, {"conceptId": "C71402", "definition": "A male who shares with his sibling the genetic makeup inherited from only one of the biological parents.", "preferredTerm": "Half Brother", "submissionValue": "BROTHER, HALF", "synonyms": ["Half Brother"]}, {"conceptId": "C17445", "definition": "The primary person in charge of the care of a patient, usually a family member or a designated health care professional. (NCI)", "preferredTerm": "Caregiver", "submissionValue": "CAREGIVER", "synonyms": ["Caregiver"]}, {"conceptId": "C150886", "definition": "A biological or non-biological first generation offspring, including but not limited to biological children (including those born outside of marriage), adopted children, step children, and foster children. (NCI)", "preferredTerm": "Child Relation", "submissionValue": "CHILD"}, {"conceptId": "C42708", "definition": "A son or daughter with genetic makeup inherited from the parent.", "preferredTerm": "Offspring", "submissionValue": "CHILD, BIOLOGICAL", "synonyms": ["Biological Child"]}, {"conceptId": "C85499", "definition": "An individual, such as a physician, nurse practitioner or other health care professional, who takes responsibility for a subject's care.", "preferredTerm": "Clinician", "submissionValue": "CLINICIAN", "synonyms": ["Clinician"]}, {"conceptId": "C96571", "definition": "A relative who is the offspring of a sibling of either of the biological parents, and who share a common ancestor. (NCI)", "preferredTerm": "Biological Cousin", "submissionValue": "COUSIN, BIOLOGICAL", "synonyms": ["Biological Cousin"]}, {"conceptId": "C96576", "definition": "A relative who is the offspring of a sibling of the biological mother and share a common ancestor.", "preferredTerm": "Biological Maternal Cousin", "submissionValue": "COUSIN, BIOLOGICAL MATERNAL", "synonyms": ["Biological Maternal Cousin"]}, {"conceptId": "C96582", "definition": "A relative who is the offspring of a sibling of the biological father and share a common ancestor.", "preferredTerm": "Biological Paternal Cousin", "submissionValue": "COUSIN, BIOLOGICAL PATERNAL", "synonyms": ["Biological Paternal Cousin"]}, {"conceptId": "C150887", "definition": "A female progeny with genetic makeup inherited from the parent.", "preferredTerm": "Biological Daughter", "submissionValue": "DAUGHTER, BIOLOGICAL"}, {"conceptId": "C53262", "definition": "Person declares that a domestic partnership relationship exists. (HL7)", "preferredTerm": "Domestic Partnership", "submissionValue": "DOMESTIC PARTNER", "synonyms": ["Domestic Partner"]}, {"conceptId": "C48284", "definition": "One that contributes something. (NCI)", "preferredTerm": "Donor", "submissionValue": "DONOR", "synonyms": ["Donor"]}, {"conceptId": "C132448", "definition": "Someone from whom blood is removed for transplantation or other purpose.", "preferredTerm": "Blood Donor", "submissionValue": "DONOR, BLOOD"}, {"conceptId": "C130054", "definition": "Someone from whom one or more kidneys are removed for transplantation or other purpose.", "preferredTerm": "Kidney Donor", "submissionValue": "DONOR, KIDNEY"}, {"conceptId": "C100810", "definition": "Someone from whom an organ is removed for transplantation or other purpose.", "preferredTerm": "Organ Donor", "submissionValue": "DONOR, ORGAN", "synonyms": ["Organ Donor"]}, {"conceptId": "C25168", "definition": "Someone from whom tissue is removed for transplantation or other purpose.", "preferredTerm": "Tissue Donor", "submissionValue": "DONOR, TISSUE", "synonyms": ["Tissue Donor"]}, {"conceptId": "C102873", "definition": "One who instructs or educates others.", "preferredTerm": "Teacher", "submissionValue": "EDUCATOR"}, {"conceptId": "C41256", "definition": "Any of the individuals who are descended from a common progenitor, related by marriage or other legal tie.", "preferredTerm": "Family Member", "submissionValue": "FAMILY MEMBER", "synonyms": ["Family Member"]}, {"conceptId": "C25174", "definition": "A male parent.", "preferredTerm": "Father", "submissionValue": "FATHER"}, {"conceptId": "C96572", "definition": "A male who contributes to the genetic makeup of his offspring through the fertilization of an ovum by his sperm. (NCI)", "preferredTerm": "Biological Father", "submissionValue": "FATHER, BIOLOGICAL", "synonyms": ["Biological Father"]}, {"conceptId": "C166092", "definition": "The biological father of the offspring of the female subject.", "preferredTerm": "Biological Father of Subject's Child", "submissionValue": "FATHER, BIOLOGICAL OF SUBJECT'S CHILD"}, {"conceptId": "C154851", "definition": "A male who has acquired children through marriage.", "preferredTerm": "Step Father", "submissionValue": "FATHER, STEP"}, {"conceptId": "C72884", "definition": "A person whom an individual knows, likes, and trusts. (NCI)", "preferredTerm": "Friend", "submissionValue": "FRIEND"}, {"conceptId": "C100805", "definition": "A biological child of an individual's biological child.", "preferredTerm": "Biological Grandchild", "submissionValue": "GRANDCHILD, BIOLOGICAL", "synonyms": ["Biological Grandchild"]}, {"conceptId": "C96573", "definition": "A male relative who is the biological father of either the biological mother or the biological father. (NCI)", "preferredTerm": "Biological Grandfather", "submissionValue": "GRANDFATHER, BIOLOGICAL", "synonyms": ["Biological Grandfather"]}, {"conceptId": "C96577", "definition": "A male relative who is the biological father of the biological mother. (NCI)", "preferredTerm": "Biological Maternal Grandfather", "submissionValue": "GRANDFATHER, BIOLOGICAL MATERNAL", "synonyms": ["Biological Maternal Grandfather"]}, {"conceptId": "C96583", "definition": "A male relative who is the biological father of the biological father. (NCI)", "preferredTerm": "Biological Paternal Grandfather", "submissionValue": "GRANDFATHER, BIOLOGICAL PATERNAL", "synonyms": ["Biological Paternal Grandfather"]}, {"conceptId": "C96574", "definition": "A female relative who is the biological mother of either the biological mother or the biological father. (NCI)", "preferredTerm": "Biological Grandmother", "submissionValue": "GRANDMOTHER, BIOLOGICAL", "synonyms": ["Biological Grandmother"]}, {"conceptId": "C96578", "definition": "A female relative who is the biological mother of the biological mother. (NCI)", "preferredTerm": "Biological Maternal Grandmother", "submissionValue": "GRANDMOTHER, BIOLOGICAL MATERNAL", "synonyms": ["Biological Maternal Grandmother"]}, {"conceptId": "C96584", "definition": "A female relative who is the biological mother of the biological father. (NCI)", "preferredTerm": "Biological Paternal Grandmother", "submissionValue": "GRANDMOTHER, BIOLOGICAL PATERNAL", "synonyms": ["Biological Paternal Grandmother"]}, {"conceptId": "C100806", "definition": "A biological parent of the biological father or biological mother.", "preferredTerm": "Biological Grandparent", "submissionValue": "GRANDPARENT, BIOLOGICAL", "synonyms": ["Biological Grandparent"]}, {"conceptId": "C111248", "definition": "A relative who is the biological parent of the biological mother.", "preferredTerm": "Maternal Biological Grandparent", "submissionValue": "GRANDPARENT, BIOLOGICAL MATERNAL"}, {"conceptId": "C111286", "definition": "A relative who is the biological parent of the biological father.", "preferredTerm": "Paternal Biological Grandparent", "submissionValue": "GRANDPARENT, BIOLOGICAL PATERNAL"}, {"conceptId": "C132449", "definition": "An individual who is considered part of the social unit comprising one or more individuals living together (all of whom need not be related) in the same dwelling.", "preferredTerm": "Household Member", "submissionValue": "HOUSEHOLD MEMBER"}, {"conceptId": "C71588", "definition": "A male partner in marriage. (NCI)", "preferredTerm": "Husband", "submissionValue": "HUSBAND"}, {"conceptId": "C25189", "definition": "A female parent.", "preferredTerm": "Mother", "submissionValue": "MOTHER"}, {"conceptId": "C96580", "definition": "A female who contributes to the genetic makeup of her offspring from the fertilization of her ovum. (NCI)", "preferredTerm": "Biological Mother", "submissionValue": "MOTHER, BIOLOGICAL", "synonyms": ["Biological Mother"]}, {"conceptId": "C166093", "definition": "The biological mother of the offspring of the male subject.", "preferredTerm": "Biological Mother of Subject's Child", "submissionValue": "MOTHER, BIOLOGICAL OF SUBJECT'S CHILD"}, {"conceptId": "C132450", "definition": "A female who has acquired children through marriage.", "preferredTerm": "Stepmother", "submissionValue": "MOTHER, STEP"}, {"conceptId": "C20821", "definition": "A professional healthcare provider who has graduated from a nursing program.", "preferredTerm": "Nurse", "submissionValue": "NURSE", "synonyms": ["Nurse"]}, {"conceptId": "C42709", "definition": "A mother or a father.", "preferredTerm": "Parent", "submissionValue": "PARENT"}, {"conceptId": "C100811", "definition": "An individual who provides support to a pregnant individual.", "preferredTerm": "Pregnancy Partner", "submissionValue": "PREGNANCY PARTNER", "synonyms": ["Pregnancy Partner"]}, {"conceptId": "C21480", "definition": "Any individual related biologically or legally to another individual.", "preferredTerm": "Relative", "submissionValue": "RELATIVE"}, {"conceptId": "C132451", "definition": "Any biological relative of an individual's biological father.", "preferredTerm": "Biological Relative, Paternal", "submissionValue": "RELATIVE, BIOLOGICAL PATERNAL"}, {"conceptId": "C161420", "definition": "Any individual related biologically to another individual and considered immediate family as in the case of a parent, sibling or child. (NCI)", "preferredTerm": "First Degree Biological Relative", "submissionValue": "RELATIVE, BIOLOGICAL, FIRST DEGREE"}, {"conceptId": "C161421", "definition": "Any individual related biologically to another individual and considered one degree removed from the immediate family as in the case of grandparents, aunts and uncles. (NCI)", "preferredTerm": "Second Degree Biological Relative", "submissionValue": "RELATIVE, BIOLOGICAL, SECOND DEGREE"}, {"conceptId": "C21481", "definition": "Any individual related biologically or legally to another individual and considered immediate family as in the case of a spouse, parent, sibling or child.", "preferredTerm": "First Degree Relative", "submissionValue": "RELATIVE, FIRST DEGREE", "synonyms": ["First Degree Relative"]}, {"conceptId": "C127782", "definition": "Any individual related biologically or legally to another individual and residing in the same residence.", "preferredTerm": "Household Relative", "submissionValue": "RELATIVE, HOUSEHOLD"}, {"conceptId": "C127783", "definition": "Any individual related biologically or legally to another individual and not residing in the same residence.", "preferredTerm": "Non-household Relative", "submissionValue": "RELATIVE, NON-HOUSEHOLD"}, {"conceptId": "C19811", "definition": "Any individual related biologically or legally to another individual and considered one degree removed from the immediate family as in the case of in-laws, grandparents, aunts and uncles.", "preferredTerm": "Second Degree Relative", "submissionValue": "RELATIVE, SECOND DEGREE", "synonyms": ["Second Degree Relative"]}, {"conceptId": "C100808", "definition": "Any individual related biologically or legally to another individual and considered two degrees removed from the immediate family as in the case of cousins.", "preferredTerm": "Third Degree Relative", "submissionValue": "RELATIVE, THIRD DEGREE", "synonyms": ["Third Degree Relative"]}, {"conceptId": "C127784", "definition": "Any individual with whom the subject attends or attended the same school.", "preferredTerm": "Schoolmate", "submissionValue": "SCHOOLMATE"}, {"conceptId": "C100812", "definition": "A person with whom one has had sexual relations.", "preferredTerm": "Sexual Partner", "submissionValue": "SEXUAL PARTNER", "synonyms": ["Sexual Partner"]}, {"conceptId": "C25204", "definition": "A person's brother or sister.", "preferredTerm": "Sibling", "submissionValue": "SIBLING"}, {"conceptId": "C100809", "definition": "A person's brother or sister with whom they share a genetic makeup inherited from their shared biological parents.", "preferredTerm": "Biological Sibling", "submissionValue": "SIBLING, BIOLOGICAL", "synonyms": ["Biological Sibling"]}, {"conceptId": "C71390", "definition": "A person's brother or sister with whom they share a genetic makeup inherited from both of their shared biological parents.", "preferredTerm": "Full Sibling", "submissionValue": "SIBLING, FULL"}, {"conceptId": "C71391", "definition": "A person's brother or sister with whom they share a genetic makeup inherited from one of their shared biological parents.", "preferredTerm": "Half Sibling", "submissionValue": "SIBLING, HALF"}, {"conceptId": "C96586", "definition": "A female who shares with her sibling the genetic makeup inherited from one or both of their shared biological parents.", "preferredTerm": "Biological Sister", "submissionValue": "SISTER, BIOLOGICAL", "synonyms": ["Biological Sister"]}, {"conceptId": "C96658", "definition": "A female who shares with her sibling the genetic makeup inherited from only the biological mother.", "preferredTerm": "Half-sister with Mother as Common Parent", "submissionValue": "SISTER, BIOLOGICAL MATERNAL HALF", "synonyms": ["Half-sister with Mother as Common Parent"]}, {"conceptId": "C96657", "definition": "A female who shares with her sibling the genetic makeup inherited from only the biological father.", "preferredTerm": "Half-sister with Father as Common Parent", "submissionValue": "SISTER, BIOLOGICAL PATERNAL HALF", "synonyms": ["Half-sister with Father as Common Parent"]}, {"conceptId": "C111202", "definition": "A female who shares with her sibling the genetic makeup inherited from both of the biological parents.", "preferredTerm": "Full Sister", "submissionValue": "SISTER, FULL"}, {"conceptId": "C71403", "definition": "A female who shares with her sibling the genetic makeup inherited from only one of the biological parents.", "preferredTerm": "Half Sister", "submissionValue": "SISTER, HALF", "synonyms": ["Half Sister"]}, {"conceptId": "C150888", "definition": "A male progeny with genetic makeup inherited from the parent.", "preferredTerm": "Biological Son", "submissionValue": "SON, BIOLOGICAL"}, {"conceptId": "C62649", "definition": "A person's partner in marriage. (NCI)", "preferredTerm": "Spouse", "submissionValue": "SPOUSE", "synonyms": ["Spouse"]}, {"conceptId": "C132452", "definition": "An individual that is believed likely to have transmitted a disease to another individual.", "preferredTerm": "Suspected Source Case", "submissionValue": "SUSPECTED SOURCE CASE"}, {"conceptId": "C63861", "definition": "A person skilled in the performance of the technical or procedural aspects of a profession. (NCI)", "preferredTerm": "Technician", "submissionValue": "TECHNICIAN", "synonyms": ["Technician"]}, {"conceptId": "C73427", "definition": "Either of two offspring born from the same pregnancy. (NCI)", "preferredTerm": "Twin", "submissionValue": "TWIN", "synonyms": ["Twin"]}, {"conceptId": "C73428", "definition": "Either of the two offspring resulting from two separately fertilized ovums during the same pregnancy.", "preferredTerm": "Fraternal Twin", "submissionValue": "TWIN, DIZYGOTIC", "synonyms": ["Dizygotic Twin"]}, {"conceptId": "C73429", "definition": "Either of the two offspring resulting from a shared ovum. (NCI)", "preferredTerm": "Identical Twin", "submissionValue": "TWIN, MONOZYGOTIC", "synonyms": ["Monozygotic Twin"]}, {"conceptId": "C96587", "definition": "A male relative who is a sibling of either of the biological parents, and who share a common ancestor. (NCI)", "preferredTerm": "Biological Uncle", "submissionValue": "UNCLE, BIOLOGICAL", "synonyms": ["Biological Uncle"]}, {"conceptId": "C96579", "definition": "A male relative who is a sibling of the biological mother, and who both share a common ancestor. (NCI)", "preferredTerm": "Biological Maternal Uncle", "submissionValue": "UNCLE, BIOLOGICAL MATERNAL", "synonyms": ["Biological Maternal Uncle"]}, {"conceptId": "C96585", "definition": "A male relative who is a sibling of the biological father, and who both share a common ancestor. (NCI)", "preferredTerm": "Biological Paternal Uncle", "submissionValue": "UNCLE, BIOLOGICAL PATERNAL", "synonyms": ["Biological Paternal Uncle"]}, {"conceptId": "C71587", "definition": "A female partner in marriage.", "preferredTerm": "Wife", "submissionValue": "WIFE"}]}