{"_links": {"parentPackage": {"href": "/mdr/ct/packages/sdtmct-2021-03-26", "title": "SDTM Controlled Terminology Package 45 Effective 2021-03-26", "type": "Terminology"}, "priorVersion": {"href": "/mdr/ct/packages/sdtmct-2020-12-18/codelists/C100133", "title": "CDISC Clinical Classification BPRS-A Test Name Terminology", "type": "Code List"}, "rootItem": {"href": "/mdr/root/ct/sdtmct/codelists/C100133", "title": "Version-agnostic anchor resource for codelist C100133", "type": "Root Value Domain"}, "self": {"href": "/mdr/ct/packages/sdtmct-2021-03-26/codelists/C100133", "title": "CDISC Clinical Classification BPRS-A Test Name Terminology", "type": "Code List"}}, "conceptId": "C100133", "definition": "The Brief Psychiatric Rating Scale-A test name.", "extensible": "false", "name": "Brief Psychiatric Rating Scale-A Clinical Classification Test Name", "preferredTerm": "CDISC Clinical Classification BPRS-A Test Name Terminology", "submissionValue": "BPRSA1TN", "synonyms": ["Brief Psychiatric Rating Scale-A Clinical Classification Test Name"], "terms": [{"conceptId": "C100373", "definition": "Brief Psychiatric Rating Scale-A - Anxiety.", "preferredTerm": "BPRS-A - Anxiety", "submissionValue": "BPRSA1-Anxiety", "synonyms": ["BPRSA1-Anxiety"]}, {"conceptId": "C100387", "definition": "Brief Psychiatric Rating Scale-A - Blunted Affect.", "preferredTerm": "BPRS-A - Blunted Affect", "submissionValue": "BPRSA1-Blunted Affect", "synonyms": ["BPRSA1-Blunted Affect"]}, {"conceptId": "C100375", "definition": "Brief Psychiatric Rating Scale-A - Conceptual Disorganization.", "preferredTerm": "BPRS-A - Conceptual Disorganization", "submissionValue": "BPRSA1-Conceptual Disorganization", "synonyms": ["BPRSA1-Conceptual Disorganization"]}, {"conceptId": "C100380", "definition": "Brief Psychiatric Rating Scale-A - Depressive Mood.", "preferredTerm": "BPRS-A - Depressive Mood", "submissionValue": "BPRSA1-Depressive Mood", "synonyms": ["BPRSA1-Depressive Mood"]}, {"conceptId": "C100389", "definition": "Brief Psychiatric Rating Scale-A - Disorientation.", "preferredTerm": "BPRS-A - Disorientation", "submissionValue": "BPRSA1-Disorientation", "synonyms": ["BPRSA1-Disorientation"]}, {"conceptId": "C100374", "definition": "Brief Psychiatric Rating Scale-A - Emotional Withdrawal.", "preferredTerm": "BPRS-A - Emotional Withdrawal", "submissionValue": "BPRSA1-Emotional Withdrawal", "synonyms": ["BPRSA1-Emotional Withdrawal"]}, {"conceptId": "C100388", "definition": "Brief Psychiatric Rating Scale-A - Excitement.", "preferredTerm": "BPRS-A - Excitement", "submissionValue": "BPRSA1-Excitement", "synonyms": ["BPRSA1-Excitement"]}, {"conceptId": "C100379", "definition": "Brief Psychiatric Rating Scale-A - Grandiosity.", "preferredTerm": "BPRS-A - Grandiosity", "submissionValue": "BPRSA1-Grandiosity", "synonyms": ["BPRSA1-Grandiosity"]}, {"conceptId": "C100376", "definition": "Brief Psychiatric Rating Scale-A - Guilt Feelings.", "preferredTerm": "BPRS-A - Guilt Feelings", "submissionValue": "BPRSA1-Guilt Feelings", "synonyms": ["BPRSA1-Guilt Feelings"]}, {"conceptId": "C100383", "definition": "Brief Psychiatric Rating Scale-A - Hallucinatory Behavior.", "preferredTerm": "BPRS-A - Hallucinatory Behavior", "submissionValue": "BPRSA1-Hallucinatory Behavior", "synonyms": ["BPRSA1-Hallucinatory Behavior"]}, {"conceptId": "C100381", "definition": "Brief Psychiatric Rating Scale-A - Hostility.", "preferredTerm": "BPRS-A - Hostility", "submissionValue": "BPRSA1-Hostility", "synonyms": ["BPRSA1-Hostility"]}, {"conceptId": "C100378", "definition": "Brief Psychiatric Rating Scale-A - Mannerisms and Posturing.", "preferredTerm": "BPRS-A - Mannerisms and Posturing", "submissionValue": "BPRSA1-Mannerisms and Posturing", "synonyms": ["BPRSA1-Mannerisms and Posturing"]}, {"conceptId": "C100384", "definition": "Brief Psychiatric Rating Scale-A - Motor Retardation.", "preferredTerm": "BPRS-A - Motor Retardation", "submissionValue": "BPRSA1-Motor Retardation", "synonyms": ["BPRSA1-Motor Retardation"]}, {"conceptId": "C100372", "definition": "Brief Psychiatric Rating Scale-A - Somatic Concern.", "preferredTerm": "BPRS-A - Somatic Concern", "submissionValue": "BPRSA1-Somatic Concern", "synonyms": ["BPRSA1-Somatic Concern"]}, {"conceptId": "C100382", "definition": "Brief Psychiatric Rating Scale-A - Suspiciousness.", "preferredTerm": "BPRS-A - Suspiciousness", "submissionValue": "BPRSA1-Suspiciousness", "synonyms": ["BPRSA1-Suspiciousness"]}, {"conceptId": "C100377", "definition": "Brief Psychiatric Rating Scale-A - Tension.", "preferredTerm": "BPRS-A - Tension", "submissionValue": "BPRSA1-Tension", "synonyms": ["BPRSA1-Tension"]}, {"conceptId": "C100385", "definition": "Brief Psychiatric Rating Scale-A - Uncooperativeness.", "preferredTerm": "BPRS-A - Uncooperativeness", "submissionValue": "BPRSA1-Uncooperativeness", "synonyms": ["BPRSA1-Uncooperativeness"]}, {"conceptId": "C100386", "definition": "Brief Psychiatric Rating Scale-A - Unusual Thought Content.", "preferredTerm": "BPRS-A - Unusual Thought Content", "submissionValue": "BPRSA1-Unusual Thought Content", "synonyms": ["BPRSA1-Unusual Thought Content"]}]}