{"_links": {"parentPackage": {"href": "/mdr/ct/packages/sdtmct-2021-03-26", "title": "SDTM Controlled Terminology Package 45 Effective 2021-03-26", "type": "Terminology"}, "priorVersion": {"href": "/mdr/ct/packages/sdtmct-2020-12-18/codelists/C100170", "title": "CDISC Clinical Classification KPS Scale Test Code Terminology", "type": "Code List"}, "rootItem": {"href": "/mdr/root/ct/sdtmct/codelists/C100170", "title": "Version-agnostic anchor resource for codelist C100170", "type": "Root Value Domain"}, "self": {"href": "/mdr/ct/packages/sdtmct-2021-03-26/codelists/C100170", "title": "CDISC Clinical Classification KPS Scale Test Code Terminology", "type": "Code List"}}, "conceptId": "C100170", "definition": "Karnofsky Performance Status Scale test code.", "extensible": "false", "name": "Karnofsky Performance Status Scale Clinical Classification Test Code", "preferredTerm": "CDISC Clinical Classification KPS Scale Test Code Terminology", "submissionValue": "KPSS01TC", "synonyms": ["Karnofsky Performance Status Scale Clinical Classification Test Code"], "terms": [{"conceptId": "C100417", "definition": "Karnofsky Performance Status Scale - Karnofsky Performance Status.", "preferredTerm": "KPS Scale - Karnofsky Performance Status", "submissionValue": "KPSS0101", "synonyms": ["KPSS01-Karnofsky Performance Status"]}]}