{"_links": {"parentPackage": {"href": "/mdr/ct/packages/sdtmct-2021-03-26", "title": "SDTM Controlled Terminology Package 45 Effective 2021-03-26", "type": "Terminology"}, "priorVersion": {"href": "/mdr/ct/packages/sdtmct-2020-12-18/codelists/C103483", "title": "CDISC Questionnaire PHQ-15 Test Code Terminology", "type": "Code List"}, "rootItem": {"href": "/mdr/root/ct/sdtmct/codelists/C103483", "title": "Version-agnostic anchor resource for codelist C103483", "type": "Root Value Domain"}, "self": {"href": "/mdr/ct/packages/sdtmct-2021-03-26/codelists/C103483", "title": "CDISC Questionnaire PHQ-15 Test Code Terminology", "type": "Code List"}}, "conceptId": "C103483", "definition": "Patient Health Questionnaire - 15 test code.", "extensible": "false", "name": "Patient Health Questionnaire - 15 Item Questionnaire Test Code", "preferredTerm": "CDISC Questionnaire PHQ-15 Test Code Terminology", "submissionValue": "PHQ02TC", "synonyms": ["Patient Health Questionnaire - 15 Item Questionnaire Test Code"], "terms": [{"conceptId": "C103715", "definition": "Patient Health Questionnaire - 15 - Stomach pain.", "preferredTerm": "PHQ-15 - Stomach Pain", "submissionValue": "PHQ0201", "synonyms": ["PHQ02-Stomach Pain"]}, {"conceptId": "C103716", "definition": "Patient Health Questionnaire - 15 - Back pain.", "preferredTerm": "PHQ-15 - Back Pain", "submissionValue": "PHQ0202", "synonyms": ["PHQ02-Back Pain"]}, {"conceptId": "C103717", "definition": "Patient Health Questionnaire - 15 - Pain in your arms, legs, or joints (knees, hips, etc.).", "preferredTerm": "PHQ-15 - Pain In Your Arms, Legs, or Joints", "submissionValue": "PHQ0203", "synonyms": ["PHQ02-Pain In Your Arms, Legs, or Joints"]}, {"conceptId": "C103718", "definition": "Patient Health Questionnaire - 15 - Menstrual cramps or other problems with your periods [Women only].", "preferredTerm": "PHQ-15 - Menstrual Cramp or Other Problems with Your Periods", "submissionValue": "PHQ0204", "synonyms": ["PHQ02-Menstrual Cramp/Problem Periods"]}, {"conceptId": "C103719", "definition": "Patient Health Questionnaire - 15 - Headaches.", "preferredTerm": "PHQ-15 - Headaches", "submissionValue": "PHQ0205", "synonyms": ["PHQ02-Headaches"]}, {"conceptId": "C103720", "definition": "Patient Health Questionnaire - 15 - Chest pain.", "preferredTerm": "PHQ-15 - Chest Pain", "submissionValue": "PHQ0206", "synonyms": ["PHQ02-Chest Pain"]}, {"conceptId": "C103721", "definition": "Patient Health Questionnaire - 15 - Dizziness.", "preferredTerm": "PHQ-15 - Dizziness", "submissionValue": "PHQ0207", "synonyms": ["PHQ02-Dizziness"]}, {"conceptId": "C103722", "definition": "Patient Health Questionnaire - 15 - Fainting spells.", "preferredTerm": "PHQ-15 - Fainting Spells", "submissionValue": "PHQ0208", "synonyms": ["PHQ02-Fainting Spells"]}, {"conceptId": "C103723", "definition": "Patient Health Questionnaire - 15 - Feeling your heart pound or race.", "preferredTerm": "PHQ-15 - Feeling Your Heart Pound or Race", "submissionValue": "PHQ0209", "synonyms": ["PHQ02-Feeling Your Heart Pound or Race"]}, {"conceptId": "C103724", "definition": "Patient Health Questionnaire - 15 - Shortness of breath.", "preferredTerm": "PHQ-15 - Shortness of Breath", "submissionValue": "PHQ0210", "synonyms": ["PHQ02-Shortness of Breath"]}, {"conceptId": "C103725", "definition": "Patient Health Questionnaire - 15 - Pain or problems during sexual intercourse.", "preferredTerm": "PHQ-15 - Pain or Problems During Sexual Intercourse", "submissionValue": "PHQ0211", "synonyms": ["PHQ02-Pain/Problems During Intercourse"]}, {"conceptId": "C103726", "definition": "Patient Health Questionnaire - 15 - Constipation, loose bowels, or diarrhea.", "preferredTerm": "PHQ-15 - Constipation, Loose Bowels, or Diarrhea", "submissionValue": "PHQ0212", "synonyms": ["PHQ02-Constipation/Loose Bowels/Diarrhea"]}, {"conceptId": "C103727", "definition": "Patient Health Questionnaire - 15 - Nausea, gas, or indigestion.", "preferredTerm": "PHQ-15 - Nausea, Gas, or Indigestion", "submissionValue": "PHQ0213", "synonyms": ["PHQ02-Nausea, Gas, or Indigestion"]}, {"conceptId": "C103728", "definition": "Patient Health Questionnaire - 15 - Feeling tired or having low energy.", "preferredTerm": "PHQ-15 - Feeling Tired or Having Low Energy", "submissionValue": "PHQ0214", "synonyms": ["PHQ02-Feeling Tired or Having Low Energy"]}, {"conceptId": "C103729", "definition": "Patient Health Questionnaire - 15 - Trouble sleeping.", "preferredTerm": "PHQ-15 - Trouble Sleeping", "submissionValue": "PHQ0215", "synonyms": ["PHQ02-Trouble Sleeping"]}, {"conceptId": "C124782", "definition": "Patient Health Questionnaire - 15 - Total score.", "preferredTerm": "PHQ-15 - Total Score", "submissionValue": "PHQ0216", "synonyms": ["PHQ02-Total Score"]}]}