{"_links": {"parentPackage": {"href": "/mdr/ct/packages/sdtmct-2021-03-26", "title": "SDTM Controlled Terminology Package 45 Effective 2021-03-26", "type": "Terminology"}, "priorVersion": {"href": "/mdr/ct/packages/sdtmct-2020-12-18/codelists/C112436", "title": "CDISC Clinical Classification DS Test Name Terminology", "type": "Code List"}, "rootItem": {"href": "/mdr/root/ct/sdtmct/codelists/C112436", "title": "Version-agnostic anchor resource for codelist C112436", "type": "Root Value Domain"}, "self": {"href": "/mdr/ct/packages/sdtmct-2021-03-26/codelists/C112436", "title": "CDISC Clinical Classification DS Test Name Terminology", "type": "Code List"}}, "conceptId": "C112436", "definition": "Disease Steps test name.", "extensible": "false", "name": "Disease Steps Clinical Classification Test Name", "preferredTerm": "CDISC Clinical Classification DS Test Name Terminology", "submissionValue": "DS01TN", "synonyms": ["Disease Steps Clinical Classification Test Name"], "terms": [{"conceptId": "C112549", "definition": "Disease Steps - Methods: For Disease Steps, classification of a patient is determined by history and neurologic examination as well as course of MS.", "preferredTerm": "DS - Disease Steps Classification", "submissionValue": "DS01-Disease Steps Classification", "synonyms": ["DS01-Disease Steps Classification"]}]}