{"_links": {"parentPackage": {"href": "/mdr/ct/packages/sdtmct-2021-03-26", "title": "SDTM Controlled Terminology Package 45 Effective 2021-03-26", "type": "Terminology"}, "priorVersion": {"href": "/mdr/ct/packages/sdtmct-2020-12-18/codelists/C113854", "title": "CDISC Questionnaire Bowel Control Scale Test Code Terminology", "type": "Code List"}, "rootItem": {"href": "/mdr/root/ct/sdtmct/codelists/C113854", "title": "Version-agnostic anchor resource for codelist C113854", "type": "Root Value Domain"}, "self": {"href": "/mdr/ct/packages/sdtmct-2021-03-26/codelists/C113854", "title": "CDISC Questionnaire Bowel Control Scale Test Code Terminology", "type": "Code List"}}, "conceptId": "C113854", "definition": "Bowel Control Scale test code.", "extensible": "false", "name": "Bowel Control Scale Questionnaire Test Code", "preferredTerm": "CDISC Questionnaire Bowel Control Scale Test Code Terminology", "submissionValue": "BWCS01TC", "synonyms": ["Bowel Control Scale Questionnaire Test Code"], "terms": [{"conceptId": "C113957", "definition": "Bowel Control Scale - During the past 4 weeks, how often have you been constipated?", "preferredTerm": "BWCS - Been Constipated", "submissionValue": "BWCS0101", "synonyms": ["BWCS01-Been Constipated"]}, {"conceptId": "C113958", "definition": "Bowel Control Scale - During the past 4 weeks, how often have you lost control of your bowels or had an accident?", "preferredTerm": "BWCS - Lost Control of Your Bowels", "submissionValue": "BWCS0102", "synonyms": ["BWCS01-Lost Control of Bowels"]}, {"conceptId": "C113959", "definition": "Bowel Control Scale - During the past 4 weeks, how often have you almost lost control of your bowels or almost had an accident?", "preferredTerm": "BWCS - Almost Lost Control of Your Bowels", "submissionValue": "BWCS0103", "synonyms": ["BWCS01-Almost Lost Control of Bowels"]}, {"conceptId": "C113960", "definition": "Bowel Control Scale - During the past 4 weeks, how often have you altered your activities because of bowel control problems?", "preferredTerm": "BWCS - Altered Activities Because Bowel Control Problems", "submissionValue": "BWCS0104", "synonyms": ["BWCS01-Altered Activity Because Bowels"]}, {"conceptId": "C113961", "definition": "Bowel Control Scale - During the past 4 weeks, how much have bowel problems restricted your overall lifestyle?", "preferredTerm": "BWCS - Bowel Problems Restrict Overall Lifestyle", "submissionValue": "BWCS0105", "synonyms": ["BWCS01-Bowels Restricted Lifestyle"]}]}