{"_links": {"parentPackage": {"href": "/mdr/ct/packages/sdtmct-2021-03-26", "title": "SDTM Controlled Terminology Package 45 Effective 2021-03-26", "type": "Terminology"}, "priorVersion": {"href": "/mdr/ct/packages/sdtmct-2020-12-18/codelists/C120983", "title": "CDISC Functional Test BACS Test Code Terminology", "type": "Code List"}, "rootItem": {"href": "/mdr/root/ct/sdtmct/codelists/C120983", "title": "Version-agnostic anchor resource for codelist C120983", "type": "Root Value Domain"}, "self": {"href": "/mdr/ct/packages/sdtmct-2021-03-26/codelists/C120983", "title": "CDISC Functional Test BACS Test Code Terminology", "type": "Code List"}}, "conceptId": "C120983", "definition": "Brief Assessment of Cognition in Schizophrenia test code.", "extensible": "false", "name": "Brief Assessment of Cognition in Schizophrenia Functional Test Test Code", "preferredTerm": "CDISC Functional Test BACS Test Code Terminology", "submissionValue": "BACS1TC", "synonyms": ["Brief Assessment of Cognition in Schizophrenia Functional Test Test Code"], "terms": [{"conceptId": "C121050", "definition": "Brief Assessment of Cognition in Schizophrenia - Verbal Memory-Number of items recalled on each trial.", "preferredTerm": "BACS - Number of Items Recalled", "submissionValue": "BACS101", "synonyms": ["BACS1-Number of Items Recalled"]}, {"conceptId": "C121051", "definition": "Brief Assessment of Cognition in Schizophrenia - Verbal Memory-Total number of items recalled.", "preferredTerm": "BACS - Number of Items Recalled Total", "submissionValue": "BACS101A", "synonyms": ["BACS1-Number of Items Recalled Total"]}, {"conceptId": "C121052", "definition": "Brief Assessment of Cognition in Schizophrenia - Digit Sequencing-Number of correct sequences.", "preferredTerm": "BACS - Number of Correct Sequences", "submissionValue": "BACS102", "synonyms": ["BACS1-Number of Correct Sequences"]}, {"conceptId": "C121053", "definition": "Brief Assessment of Cognition in Schizophrenia - Token Motor Task-Total number of tokens left on the table.", "preferredTerm": "BACS - Number of Tokens Left on the Table", "submissionValue": "BACS103A", "synonyms": ["BACS1-Number of Tokens Left on the Table"]}, {"conceptId": "C121054", "definition": "Brief Assessment of Cognition in Schizophrenia - Token Motor Task-Total number of tokens placed in the container.", "preferredTerm": "BACS - Total Number Tokens in Container", "submissionValue": "BACS103B", "synonyms": ["BACS1-Total Number Tokens in Container"]}, {"conceptId": "C121055", "definition": "Brief Assessment of Cognition in Schizophrenia Questionnaire - Token Motor Task-Total number of tokens incorrectly placed in container.", "preferredTerm": "BACS - Number Tokens Incorrectly Placed", "submissionValue": "BACS103C", "synonyms": ["BACS1-Number Tokens Incorrectly Placed"]}, {"conceptId": "C121056", "definition": "Brief Assessment of Cognition in Schizophrenia Questionnaire - Token Motor Task-Number of tokens correctly placed.", "preferredTerm": "BACS - Number of Tokens Correctly Placed", "submissionValue": "BACS103D", "synonyms": ["BACS1-Number of Tokens Correctly Placed"]}, {"conceptId": "C121057", "definition": "Brief Assessment of Cognition in Schizophrenia Questionnaire - Verbal Fluency-Category instances.", "preferredTerm": "BACS - Category Instances", "submissionValue": "BACS104A", "synonyms": ["BACS1-Category Instances"]}, {"conceptId": "C121058", "definition": "Brief Assessment of Cognition in Schizophrenia Questionnaire - Verbal Fluency-Letter fluency 1.", "preferredTerm": "BACS - Letter Fluency 1", "submissionValue": "BACS104B", "synonyms": ["BACS1-Letter Fluency 1"]}, {"conceptId": "C121059", "definition": "Brief Assessment of Cognition in Schizophrenia Questionnaire - Verbal Fluency-Letter fluency 2.", "preferredTerm": "BACS - Letter Fluency 2", "submissionValue": "BACS104C", "synonyms": ["BACS1-Letter Fluency 2"]}, {"conceptId": "C121060", "definition": "Brief Assessment of Cognition in Schizophrenia Questionnaire - Verbal Fluency-Total number of Verbal Fluency items.", "preferredTerm": "BACS - Verbal Fluency Total", "submissionValue": "BACS104D", "synonyms": ["BACS1-Verbal Fluency Total"]}, {"conceptId": "C121061", "definition": "Brief Assessment of Cognition in Schizophrenia Questionnaire - Symbol Coding-Raw score.", "preferredTerm": "BACS - Symbol Coding Raw Score", "submissionValue": "BACS105", "synonyms": ["BACS1-Symbol Coding Raw Score"]}, {"conceptId": "C121062", "definition": "Brief Assessment of Cognition in Schizophrenia Questionnaire - Tower of London-Number of correct responses.", "preferredTerm": "BACS - Tower of London Correct Responses", "submissionValue": "BACS106", "synonyms": ["BACS1-Tower of London Correct Responses"]}]}