{"_links": {"parentPackage": {"href": "/mdr/ct/packages/sdtmct-2021-03-26", "title": "SDTM Controlled Terminology Package 45 Effective 2021-03-26", "type": "Terminology"}, "priorVersion": {"href": "/mdr/ct/packages/sdtmct-2020-12-18/codelists/C132525", "title": "CDISC Questionnaire TSQM Version 1.4 Test Code Terminology", "type": "Code List"}, "rootItem": {"href": "/mdr/root/ct/sdtmct/codelists/C132525", "title": "Version-agnostic anchor resource for codelist C132525", "type": "Root Value Domain"}, "self": {"href": "/mdr/ct/packages/sdtmct-2021-03-26/codelists/C132525", "title": "CDISC Questionnaire TSQM Version 1.4 Test Code Terminology", "type": "Code List"}}, "conceptId": "C132525", "definition": "Treatment Satisfaction Questionnaire for Medication Version 1.4 test code.", "extensible": "false", "name": "Treatment Satisfaction Questionnaire for Medication Version 1.4 Questionnaire Test Code", "preferredTerm": "CDISC Questionnaire TSQM Version 1.4 Test Code Terminology", "submissionValue": "TSQM01TC", "synonyms": ["Treatment Satisfaction Questionnaire for Medication Version 1.4 Questionnaire Test Code"], "terms": [{"conceptId": "C132618", "definition": "Treatment Satisfaction Questionnaire for Medication - How satisfied or dissatisfied are you with the ability of the medication to prevent or treat your condition?", "preferredTerm": "TSQM Version 1.4 - Medication to Prevent or Treat Condition", "submissionValue": "TSQM0101", "synonyms": ["TSQM01-Med to Prevent/Treat Condition"]}, {"conceptId": "C132619", "definition": "Treatment Satisfaction Questionnaire for Medication - How satisfied or dissatisfied are you with the way the medication relieves your symptoms?", "preferredTerm": "TSQM Version 1.4 - Way Medication Relieves Symptoms", "submissionValue": "TSQM0102", "synonyms": ["TSQM01-Way Medication Relieves Symptoms"]}, {"conceptId": "C132620", "definition": "Treatment Satisfaction Questionnaire for Medication - How satisfied or dissatisfied are you with the amount of time it takes the medication to start working?", "preferredTerm": "TSQM Version 1.4 - Time Takes Medication to Start Working", "submissionValue": "TSQM0103", "synonyms": ["TSQM01-Time Takes Med to Start Working"]}, {"conceptId": "C132621", "definition": "Treatment Satisfaction Questionnaire for Medication - As a result of taking this medication, do you experience any side effects at all?", "preferredTerm": "TSQM Version 1.4 - Experience Any Side Effect at All", "submissionValue": "TSQM0104", "synonyms": ["TSQM01-Experience Any Side Effect at All"]}, {"conceptId": "C132622", "definition": "Treatment Satisfaction Questionnaire for Medication - How bothersome are the side effects of the medication you take to treat your condition?", "preferredTerm": "TSQM Version 1.4 - How Bothersome Are Side Effects", "submissionValue": "TSQM0105", "synonyms": ["TSQM01-How Bothersome Are Side Effects"]}, {"conceptId": "C132623", "definition": "Treatment Satisfaction Questionnaire for Medication - To what extent do the side effects interfere with your physical health and ability to function (i.e., strength, energy levels, etc.)?", "preferredTerm": "TSQM Version 1.4 - Interfere With Physical Health", "submissionValue": "TSQM0106", "synonyms": ["TSQM01-Interfere With Physical Health"]}, {"conceptId": "C132624", "definition": "Treatment Satisfaction Questionnaire for Medication - To what extent do the side effects interfere with your mental function (i.e., ability to think clearly, stay awake, etc.)?", "preferredTerm": "TSQM Version 1.4 - Interfere With Mental Function", "submissionValue": "TSQM0107", "synonyms": ["TSQM01-Interfere With Mental Function"]}, {"conceptId": "C132625", "definition": "Treatment Satisfaction Questionnaire for Medication - To what degree have medication side effects affected your overall satisfaction with the medication?", "preferredTerm": "TSQM Version 1.4 - Side Effect Affect Overall Satisfaction", "submissionValue": "TSQM0108", "synonyms": ["TSQM01-Side Effect Affect Overall Satisf"]}, {"conceptId": "C132626", "definition": "Treatment Satisfaction Questionnaire for Medication - How easy or difficult is it to use the medication in its current form?", "preferredTerm": "TSQM Version 1.4 - Easy or Difficult Use Medication", "submissionValue": "TSQM0109", "synonyms": ["TSQM01-Easy/Difficult Use Medication"]}, {"conceptId": "C132627", "definition": "Treatment Satisfaction Questionnaire for Medication - How easy or difficult is it to plan when you will use the medication each time?", "preferredTerm": "TSQM Version 1.4 - Easy or Difficult to Plan Use of Medication", "submissionValue": "TSQM0110", "synonyms": ["TSQM01-Easy/Difficult to Plan Use of Med"]}, {"conceptId": "C132628", "definition": "Treatment Satisfaction Questionnaire for Medication - How convenient or inconvenient is it to take the medication as instructed?", "preferredTerm": "TSQM Version 1.4 - Convenient or Inconvenient Take Medication", "submissionValue": "TSQM0111", "synonyms": ["TSQM01-Convenient/Inconvenient Take Med"]}, {"conceptId": "C132629", "definition": "Treatment Satisfaction Questionnaire for Medication - Overall, how confident are you that taking this medication is a good thing for you?", "preferredTerm": "TSQM Version 1.4 - Confident Medication Is Good for You", "submissionValue": "TSQM0112", "synonyms": ["TSQM01-Confident Med Is Good for You"]}, {"conceptId": "C132630", "definition": "Treatment Satisfaction Questionnaire for Medication - How certain are you that the good things about your medication outweigh the bad things?", "preferredTerm": "TSQM Version 1.4 - Certain Good Things Outweigh Bad", "submissionValue": "TSQM0113", "synonyms": ["TSQM01-Certain Good Things Outweigh Bad"]}, {"conceptId": "C132631", "definition": "Treatment Satisfaction Questionnaire for Medication - Taking all things into account, how satisfied or dissatisfied are you with this medication?", "preferredTerm": "TSQM Version 1.4 - Satisfied or Dissatisfied With Medication", "submissionValue": "TSQM0114", "synonyms": ["TSQM01-Satisfied/Dissatisfied With Med"]}]}