{"_links": {"parentPackage": {"href": "/mdr/ct/packages/sdtmct-2021-03-26", "title": "SDTM Controlled Terminology Package 45 Effective 2021-03-26", "type": "Terminology"}, "priorVersion": {"href": "/mdr/ct/packages/sdtmct-2020-12-18/codelists/C135690", "title": "CDISC Questionnaire LEC-5 Standard Version Test Code Terminology", "type": "Code List"}, "rootItem": {"href": "/mdr/root/ct/sdtmct/codelists/C135690", "title": "Version-agnostic anchor resource for codelist C135690", "type": "Root Value Domain"}, "self": {"href": "/mdr/ct/packages/sdtmct-2021-03-26/codelists/C135690", "title": "CDISC Questionnaire LEC-5 Standard Version Test Code Terminology", "type": "Code List"}}, "conceptId": "C135690", "definition": "Life Events Checklist for DSM-5 Standard Version test code.", "extensible": "false", "name": "Life Events Checklist for DSM-5 Standard Version Questionnaire Test Code", "preferredTerm": "CDISC Questionnaire LEC-5 Standard Version Test Code Terminology", "submissionValue": "LEC01TC", "synonyms": ["Life Events Checklist for DSM-5 Standard Version Questionnaire Test Code"], "terms": [{"conceptId": "C135820", "definition": "Life Events Checklist for DSM-5, Standard Version - Natural disaster (for example, flood, hurricane, tornado, earthquake): Happened to me.", "preferredTerm": "LEC-5 Standard Version - Natural Disaster: Happened", "submissionValue": "LEC0101A", "synonyms": ["LEC01-Natural Disaster: Happened"]}, {"conceptId": "C135821", "definition": "Life Events Checklist for DSM-5, Standard Version - Natural disaster (for example, flood, hurricane, tornado, earthquake): Witnessed it.", "preferredTerm": "LEC-5 Standard Version - Natural Disaster: Witnessed", "submissionValue": "LEC0101B", "synonyms": ["LEC01-Natural Disaster: Witnessed"]}, {"conceptId": "C135822", "definition": "Life Events Checklist for DSM-5, Standard Version - Natural disaster (for example, flood, hurricane, tornado, earthquake): Learned about it.", "preferredTerm": "LEC-5 Standard Version - Natural Disaster: Learned", "submissionValue": "LEC0101C", "synonyms": ["LEC01-Natural Disaster: Learned"]}, {"conceptId": "C135823", "definition": "Life Events Checklist for DSM-5, Standard Version - Natural disaster (for example, flood, hurricane, tornado, earthquake): Part of my job.", "preferredTerm": "LEC-5 Standard Version - Natural Disaster: Job", "submissionValue": "LEC0101D", "synonyms": ["LEC01-Natural Disaster: Job"]}, {"conceptId": "C135824", "definition": "Life Events Checklist for DSM-5, Standard Version - Natural disaster (for example, flood, hurricane, tornado, earthquake): Not sure.", "preferredTerm": "LEC-5 Standard Version - Natural Disaster: Not Sure", "submissionValue": "LEC0101E", "synonyms": ["LEC01-Natural Disaster: Not Sure"]}, {"conceptId": "C135825", "definition": "Life Events Checklist for DSM-5, Standard Version - Natural disaster (for example, flood, hurricane, tornado, earthquake): Doesn't apply.", "preferredTerm": "LEC-5 Standard Version - Natural Disaster: Not Apply", "submissionValue": "LEC0101F", "synonyms": ["LEC01-Natural Disaster: Not Apply"]}, {"conceptId": "C135826", "definition": "Life Events Checklist for DSM-5, Standard Version - Fire or explosion: Happened to me.", "preferredTerm": "LEC-5 Standard Version - Fire or Explosion: Happened", "submissionValue": "LEC0102A", "synonyms": ["LEC01-Fire or Explosion: Happened"]}, {"conceptId": "C135827", "definition": "Life Events Checklist for DSM-5, Standard Version - Fire or explosion: Witnessed it.", "preferredTerm": "LEC-5 Standard Version - Fire or Explosion: Witnessed", "submissionValue": "LEC0102B", "synonyms": ["LEC01-Fire or Explosion: Witnessed"]}, {"conceptId": "C135828", "definition": "Life Events Checklist for DSM-5, Standard Version - Fire or explosion: Learned about it.", "preferredTerm": "LEC-5 Standard Version - Fire or Explosion: Learned", "submissionValue": "LEC0102C", "synonyms": ["LEC01-Fire or Explosion: Learned"]}, {"conceptId": "C135829", "definition": "Life Events Checklist for DSM-5, Standard Version - Fire or explosion: Part of my job.", "preferredTerm": "LEC-5 Standard Version - Fire or Explosion: Job", "submissionValue": "LEC0102D", "synonyms": ["LEC01-Fire or Explosion: Job"]}, {"conceptId": "C135830", "definition": "Life Events Checklist for DSM-5, Standard Version - Fire or explosion: Not sure.", "preferredTerm": "LEC-5 Standard Version - Fire or Explosion: Not Sure", "submissionValue": "LEC0102E", "synonyms": ["LEC01-Fire or Explosion: Not Sure"]}, {"conceptId": "C135831", "definition": "Life Events Checklist for DSM-5, Standard Version - Fire or explosion: Doesn't apply.", "preferredTerm": "LEC-5 Standard Version - Fire or Explosion: Not Apply", "submissionValue": "LEC0102F", "synonyms": ["LEC01-Fire or Explosion: Not Apply"]}, {"conceptId": "C135832", "definition": "Life Events Checklist for DSM-5, Standard Version - Transportation accident (for example, car accident, boat accident, train wreck, plane crash): Happened to me.", "preferredTerm": "LEC-5 Standard Version - Transportation Accident: Happened", "submissionValue": "LEC0103A", "synonyms": ["LEC01-Transportation Accident: Happened"]}, {"conceptId": "C135833", "definition": "Life Events Checklist for DSM-5, Standard Version - Transportation accident (for example, car accident, boat accident, train wreck, plane crash): Witnessed it.", "preferredTerm": "LEC-5 Standard Version - Transportation Accident: Witnessed", "submissionValue": "LEC0103B", "synonyms": ["LEC01-Transportation Accident: Witnessed"]}, {"conceptId": "C135834", "definition": "Life Events Checklist for DSM-5, Standard Version - Transportation accident (for example, car accident, boat accident, train wreck, plane crash): Learned about it.", "preferredTerm": "LEC-5 Standard Version - Transportation Accident: Learned", "submissionValue": "LEC0103C", "synonyms": ["LEC01-Transportation Accident: Learned"]}, {"conceptId": "C135835", "definition": "Life Events Checklist for DSM-5, Standard Version - Transportation accident (for example, car accident, boat accident, train wreck, plane crash): Part of my job.", "preferredTerm": "LEC-5 Standard Version - Transportation Accident: Job", "submissionValue": "LEC0103D", "synonyms": ["LEC01-Transportation Accident: Job"]}, {"conceptId": "C135836", "definition": "Life Events Checklist for DSM-5, Standard Version - Transportation accident (for example, car accident, boat accident, train wreck, plane crash): Not sure.", "preferredTerm": "LEC-5 Standard Version - Transportation Accident: Not Sure", "submissionValue": "LEC0103E", "synonyms": ["LEC01-Transportation Accident: Not Sure"]}, {"conceptId": "C135837", "definition": "Life Events Checklist for DSM-5, Standard Version - Transportation accident (for example, car accident, boat accident, train wreck, plane crash): Doesn't apply.", "preferredTerm": "LEC-5 Standard Version - Transportation Accident: Not Apply", "submissionValue": "LEC0103F", "synonyms": ["LEC01-Transportation Accident: Not Apply"]}, {"conceptId": "C135838", "definition": "Life Events Checklist for DSM-5, Standard Version - Serious accident at work, home, or during recreational activity: Happened to me.", "preferredTerm": "LEC-5 Standard Version - Serious Accident: Happened", "submissionValue": "LEC0104A", "synonyms": ["LEC01-Serious Accident: Happened"]}, {"conceptId": "C135839", "definition": "Life Events Checklist for DSM-5, Standard Version - Serious accident at work, home, or during recreational activity: Witnessed it.", "preferredTerm": "LEC-5 Standard Version - Serious Accident: Witnessed", "submissionValue": "LEC0104B", "synonyms": ["LEC01-Serious Accident: Witnessed"]}, {"conceptId": "C135840", "definition": "Life Events Checklist for DSM-5, Standard Version - Serious accident at work, home, or during recreational activity: Learned about it.", "preferredTerm": "LEC-5 Standard Version - Serious Accident: Learned", "submissionValue": "LEC0104C", "synonyms": ["LEC01-Serious Accident: Learned"]}, {"conceptId": "C135841", "definition": "Life Events Checklist for DSM-5, Standard Version - Serious accident at work, home, or during recreational activity: Part of my job.", "preferredTerm": "LEC-5 Standard Version - Serious Accident: Job", "submissionValue": "LEC0104D", "synonyms": ["LEC01-Serious Accident: Job"]}, {"conceptId": "C135842", "definition": "Life Events Checklist for DSM-5, Standard Version - Serious accident at work, home, or during recreational activity: Not sure.", "preferredTerm": "LEC-5 Standard Version - Serious Accident: Not Sure", "submissionValue": "LEC0104E", "synonyms": ["LEC01-Serious Accident: Not Sure"]}, {"conceptId": "C135843", "definition": "Life Events Checklist for DSM-5, Standard Version - Serious accident at work, home, or during recreational activity: Doesn't apply.", "preferredTerm": "LEC-5 Standard Version - Serious Accident: Not Apply", "submissionValue": "LEC0104F", "synonyms": ["LEC01-Serious Accident: Not Apply"]}, {"conceptId": "C135844", "definition": "Life Events Checklist for DSM-5, Standard Version - Exposure to toxic substance (for example, dangerous chemicals, radiation): Happened to me.", "preferredTerm": "LEC-5 Standard Version - Toxic Substance: Happened", "submissionValue": "LEC0105A", "synonyms": ["LEC01-Toxic Substance: Happened"]}, {"conceptId": "C135845", "definition": "Life Events Checklist for DSM-5, Standard Version - Exposure to toxic substance (for example, dangerous chemicals, radiation): Witnessed it.", "preferredTerm": "LEC-5 Standard Version - Toxic Substance: Witnessed", "submissionValue": "LEC0105B", "synonyms": ["LEC01-Toxic Substance: Witnessed"]}, {"conceptId": "C135846", "definition": "Life Events Checklist for DSM-5, Standard Version - Exposure to toxic substance (for example, dangerous chemicals, radiation): Learned about it.", "preferredTerm": "LEC-5 Standard Version - Toxic Substance: Learned", "submissionValue": "LEC0105C", "synonyms": ["LEC01-Toxic Substance: Learned"]}, {"conceptId": "C135847", "definition": "Life Events Checklist for DSM-5, Standard Version - Exposure to toxic substance (for example, dangerous chemicals, radiation): Part of my job.", "preferredTerm": "LEC-5 Standard Version - Toxic Substance: Job", "submissionValue": "LEC0105D", "synonyms": ["LEC01-Toxic Substance: Job"]}, {"conceptId": "C135848", "definition": "Life Events Checklist for DSM-5, Standard Version - Exposure to toxic substance (for example, dangerous chemicals, radiation): Not sure.", "preferredTerm": "LEC-5 Standard Version - Toxic Substance: Not Sure", "submissionValue": "LEC0105E", "synonyms": ["LEC01-Toxic Substance: Not Sure"]}, {"conceptId": "C135849", "definition": "Life Events Checklist for DSM-5, Standard Version - Exposure to toxic substance (for example, dangerous chemicals, radiation): Doesn't apply.", "preferredTerm": "LEC-5 Standard Version - Toxic Substance: Not Apply", "submissionValue": "LEC0105F", "synonyms": ["LEC01-Toxic Substance: Not Apply"]}, {"conceptId": "C135850", "definition": "Life Events Checklist for DSM-5, Standard Version - Physical assault (for example, being attacked, hit, slapped, kicked, beaten up): Happened to me.", "preferredTerm": "LEC-5 Standard Version - Physical Assault: Happened", "submissionValue": "LEC0106A", "synonyms": ["LEC01-Physical Assault: Happened"]}, {"conceptId": "C135851", "definition": "Life Events Checklist for DSM-5, Standard Version - Physical assault (for example, being attacked, hit, slapped, kicked, beaten up): Witnessed it.", "preferredTerm": "LEC-5 Standard Version - Physical Assault: Witnessed", "submissionValue": "LEC0106B", "synonyms": ["LEC01-Physical Assault: Witnessed"]}, {"conceptId": "C135852", "definition": "Life Events Checklist for DSM-5, Standard Version - Physical assault (for example, being attacked, hit, slapped, kicked, beaten up): Learned about it.", "preferredTerm": "LEC-5 Standard Version - Physical Assault: Learned", "submissionValue": "LEC0106C", "synonyms": ["LEC01-Physical Assault: Learned"]}, {"conceptId": "C135853", "definition": "Life Events Checklist for DSM-5, Standard Version - Physical assault (for example, being attacked, hit, slapped, kicked, beaten up): Part of my job.", "preferredTerm": "LEC-5 Standard Version - Physical Assault: Job", "submissionValue": "LEC0106D", "synonyms": ["LEC01-Physical Assault: Job"]}, {"conceptId": "C135854", "definition": "Life Events Checklist for DSM-5, Standard Version - Physical assault (for example, being attacked, hit, slapped, kicked, beaten up): Not sure.", "preferredTerm": "LEC-5 Standard Version - Physical Assault: Not Sure", "submissionValue": "LEC0106E", "synonyms": ["LEC01-Physical Assault: Not Sure"]}, {"conceptId": "C135855", "definition": "Life Events Checklist for DSM-5, Standard Version - Physical assault (for example, being attacked, hit, slapped, kicked, beaten up): Doesn't apply.", "preferredTerm": "LEC-5 Standard Version - Physical Assault: Not Apply", "submissionValue": "LEC0106F", "synonyms": ["LEC01-Physical Assault: Not Apply"]}, {"conceptId": "C135856", "definition": "Life Events Checklist for DSM-5, Standard Version - Assault with a weapon (for example, being shot, stabbed, threatened with a knife, gun, bomb): Happened to me.", "preferredTerm": "LEC-5 Standard Version - Assault With a Weapon: Happened", "submissionValue": "LEC0107A", "synonyms": ["LEC01-Assault With a Weapon: Happened"]}, {"conceptId": "C135857", "definition": "Life Events Checklist for DSM-5, Standard Version - Assault with a weapon (for example, being shot, stabbed, threatened with a knife, gun, bomb): Witnessed it.", "preferredTerm": "LEC-5 Standard Version - Assault With a Weapon: Witnessed", "submissionValue": "LEC0107B", "synonyms": ["LEC01-Assault With a Weapon: Witnessed"]}, {"conceptId": "C135858", "definition": "Life Events Checklist for DSM-5, Standard Version - Assault with a weapon (for example, being shot, stabbed, threatened with a knife, gun, bomb): Learned about it.", "preferredTerm": "LEC-5 Standard Version - Assault With a Weapon: Learned", "submissionValue": "LEC0107C", "synonyms": ["LEC01-Assault With a Weapon: Learned"]}, {"conceptId": "C135859", "definition": "Life Events Checklist for DSM-5, Standard Version - Assault with a weapon (for example, being shot, stabbed, threatened with a knife, gun, bomb): Part of my job.", "preferredTerm": "LEC-5 Standard Version - Assault With a Weapon: Job", "submissionValue": "LEC0107D", "synonyms": ["LEC01-Assault With a Weapon: Job"]}, {"conceptId": "C135860", "definition": "Life Events Checklist for DSM-5, Standard Version - Assault with a weapon (for example, being shot, stabbed, threatened with a knife, gun, bomb): Not sure.", "preferredTerm": "LEC-5 Standard Version - Assault With a Weapon: Not Sure", "submissionValue": "LEC0107E", "synonyms": ["LEC01-Assault With a Weapon: Not Sure"]}, {"conceptId": "C135861", "definition": "Life Events Checklist for DSM-5, Standard Version - Assault with a weapon (for example, being shot, stabbed, threatened with a knife, gun, bomb): Doesn't apply.", "preferredTerm": "LEC-5 Standard Version - Assault With a Weapon: Not Apply", "submissionValue": "LEC0107F", "synonyms": ["LEC01-Assault With a Weapon: Not Apply"]}, {"conceptId": "C135862", "definition": "Life Events Checklist for DSM-5, Standard Version - Sexual assault (rape, attempted rape, made to perform any type of sexual act through force or threat of harm): Happened to me.", "preferredTerm": "LEC-5 Standard Version - Sexual Assault: Happened", "submissionValue": "LEC0108A", "synonyms": ["LEC01-Sexual Assault: Happened"]}, {"conceptId": "C135863", "definition": "Life Events Checklist for DSM-5, Standard Version - Sexual assault (rape, attempted rape, made to perform any type of sexual act through force or threat of harm): Witnessed it.", "preferredTerm": "LEC-5 Standard Version - Sexual Assault: Witnessed", "submissionValue": "LEC0108B", "synonyms": ["LEC01-Sexual Assault: Witnessed"]}, {"conceptId": "C135864", "definition": "Life Events Checklist for DSM-5, Standard Version - Sexual assault (rape, attempted rape, made to perform any type of sexual act through force or threat of harm): Learned about it.", "preferredTerm": "LEC-5 Standard Version - Sexual Assault: Learned", "submissionValue": "LEC0108C", "synonyms": ["LEC01-Sexual Assault: Learned"]}, {"conceptId": "C135865", "definition": "Life Events Checklist for DSM-5, Standard Version - Sexual assault (rape, attempted rape, made to perform any type of sexual act through force or threat of harm): Part of my job.", "preferredTerm": "LEC-5 Standard Version - Sexual Assault: Job", "submissionValue": "LEC0108D", "synonyms": ["LEC01-Sexual Assault: Job"]}, {"conceptId": "C135866", "definition": "Life Events Checklist for DSM-5, Standard Version - Sexual assault (rape, attempted rape, made to perform any type of sexual act through force or threat of harm): Not sure.", "preferredTerm": "LEC-5 Standard Version - Sexual Assault: Not Sure", "submissionValue": "LEC0108E", "synonyms": ["LEC01-Sexual Assault: Not Sure"]}, {"conceptId": "C135867", "definition": "Life Events Checklist for DSM-5, Standard Version - Sexual assault (rape, attempted rape, made to perform any type of sexual act through force or threat of harm): Doesn't apply.", "preferredTerm": "LEC-5 Standard Version - Sexual Assault: Not Apply", "submissionValue": "LEC0108F", "synonyms": ["LEC01-Sexual Assault: Not Apply"]}, {"conceptId": "C135868", "definition": "Life Events Checklist for DSM-5, Standard Version - Other unwanted or uncomfortable sexual experience: Happened to me.", "preferredTerm": "LEC-5 Standard Version - Unwanted Sex Experience: Happened", "submissionValue": "LEC0109A", "synonyms": ["LEC01-Unwanted Sex Experience: Happened"]}, {"conceptId": "C135869", "definition": "Life Events Checklist for DSM-5, Standard Version - Other unwanted or uncomfortable sexual experience: Witnessed it.", "preferredTerm": "LEC-5 Standard Version - Unwanted Sex Experience: Witnessed", "submissionValue": "LEC0109B", "synonyms": ["LEC01-Unwanted Sex Experience: Witnessed"]}, {"conceptId": "C135870", "definition": "Life Events Checklist for DSM-5, Standard Version - Other unwanted or uncomfortable sexual experience: Learned about it.", "preferredTerm": "LEC-5 Standard Version - Unwanted Sex Experience: Learned", "submissionValue": "LEC0109C", "synonyms": ["LEC01-Unwanted Sex Experience: Learned"]}, {"conceptId": "C135871", "definition": "Life Events Checklist for DSM-5, Standard Version - Other unwanted or uncomfortable sexual experience: Part of my job.", "preferredTerm": "LEC-5 Standard Version - Unwanted Sex Experience: Job", "submissionValue": "LEC0109D", "synonyms": ["LEC01-Unwanted Sex Experience: Job"]}, {"conceptId": "C135872", "definition": "Life Events Checklist for DSM-5, Standard Version - Other unwanted or uncomfortable sexual experience: Not sure.", "preferredTerm": "LEC-5 Standard Version - Unwanted Sex Experience: Not Sure", "submissionValue": "LEC0109E", "synonyms": ["LEC01-Unwanted Sex Experience: Not Sure"]}, {"conceptId": "C135873", "definition": "Life Events Checklist for DSM-5, Standard Version - Other unwanted or uncomfortable sexual experience: Doesn't apply.", "preferredTerm": "LEC-5 Standard Version - Unwanted Sex Experience: Not Apply", "submissionValue": "LEC0109F", "synonyms": ["LEC01-Unwanted Sex Experience: Not Apply"]}, {"conceptId": "C135874", "definition": "Life Events Checklist for DSM-5, Standard Version - Combat or exposure to a war-zone (in the military or as a civilian): Happened to me.", "preferredTerm": "LEC-5 Standard Version - Combat or Exposure to War-Zone: Happened", "submissionValue": "LEC0110A", "synonyms": ["LEC01-Combat/Exp to War-Zone: Happened"]}, {"conceptId": "C135875", "definition": "Life Events Checklist for DSM-5, Standard Version - Combat or exposure to a war-zone (in the military or as a civilian): Witnessed it.", "preferredTerm": "LEC-5 Standard Version - Combat or Exposure to War-Zone: Witnessed", "submissionValue": "LEC0110B", "synonyms": ["LEC01-Combat/Exp to War-Zone: Witnessed"]}, {"conceptId": "C135876", "definition": "Life Events Checklist for DSM-5, Standard Version - Combat or exposure to a war-zone (in the military or as a civilian): Learned about it.", "preferredTerm": "LEC-5 Standard Version - Combat or Exposure to War-Zone: Learned", "submissionValue": "LEC0110C", "synonyms": ["LEC01-Combat/Exp to War-Zone: Learned"]}, {"conceptId": "C135877", "definition": "Life Events Checklist for DSM-5, Standard Version - Combat or exposure to a war-zone (in the military or as a civilian): Part of my job.", "preferredTerm": "LEC-5 Standard Version - Combat or Exposure to War-Zone: Job", "submissionValue": "LEC0110D", "synonyms": ["LEC01-Combat/Exp to War-Zone: Job"]}, {"conceptId": "C135878", "definition": "Life Events Checklist for DSM-5, Standard Version - Combat or exposure to a war-zone (in the military or as a civilian): Not sure.", "preferredTerm": "LEC-5 Standard Version - Combat or Exposure to War-Zone: Not Sure", "submissionValue": "LEC0110E", "synonyms": ["LEC01-Combat/Exp to War-Zone: Not Sure"]}, {"conceptId": "C135879", "definition": "Life Events Checklist for DSM-5, Standard Version - Combat or exposure to a war-zone (in the military or as a civilian): Doesn't apply.", "preferredTerm": "LEC-5 Standard Version - Combat or Exposure to War-Zone: Not Apply", "submissionValue": "LEC0110F", "synonyms": ["LEC01-Combat/Exp to War-Zone: Not Apply"]}, {"conceptId": "C135880", "definition": "Life Events Checklist for DSM-5, Standard Version - Captivity (for example, being kidnapped, abducted, held hostage, prisoner of war): Happened to me.", "preferredTerm": "LEC-5 Standard Version - Captivity: Happened", "submissionValue": "LEC0111A", "synonyms": ["LEC01-Captivity: Happened"]}, {"conceptId": "C135881", "definition": "Life Events Checklist for DSM-5, Standard Version - Captivity (for example, being kidnapped, abducted, held hostage, prisoner of war): Witnessed it.", "preferredTerm": "LEC-5 Standard Version - Captivity: Witnessed", "submissionValue": "LEC0111B", "synonyms": ["LEC01-Captivity: Witnessed"]}, {"conceptId": "C135882", "definition": "Life Events Checklist for DSM-5, Standard Version - Captivity (for example, being kidnapped, abducted, held hostage, prisoner of war): Learned about it.", "preferredTerm": "LEC-5 Standard Version - Captivity: Learned", "submissionValue": "LEC0111C", "synonyms": ["LEC01-Captivity: Learned"]}, {"conceptId": "C135883", "definition": "Life Events Checklist for DSM-5, Standard Version - Captivity (for example, being kidnapped, abducted, held hostage, prisoner of war): Part of my job.", "preferredTerm": "LEC-5 Standard Version - Captivity: Job", "submissionValue": "LEC0111D", "synonyms": ["LEC01-Captivity: Job"]}, {"conceptId": "C135884", "definition": "Life Events Checklist for DSM-5, Standard Version - Captivity (for example, being kidnapped, abducted, held hostage, prisoner of war): Not sure.", "preferredTerm": "LEC-5 Standard Version - Captivity: Not Sure", "submissionValue": "LEC0111E", "synonyms": ["LEC01-Captivity: Not Sure"]}, {"conceptId": "C135885", "definition": "Life Events Checklist for DSM-5, Standard Version - Captivity (for example, being kidnapped, abducted, held hostage, prisoner of war): Doesn't apply.", "preferredTerm": "LEC-5 Standard Version - Captivity: Not Apply", "submissionValue": "LEC0111F", "synonyms": ["LEC01-Captivity: Not Apply"]}, {"conceptId": "C135886", "definition": "Life Events Checklist for DSM-5, Standard Version - Life-threatening illness or injury: Happened to me.", "preferredTerm": "LEC-5 Standard Version - Life-threatening Illness: Happened", "submissionValue": "LEC0112A", "synonyms": ["LEC01-Life-threatening Illness: Happened"]}, {"conceptId": "C135887", "definition": "Life Events Checklist for DSM-5, Standard Version - Life-threatening illness or injury: Witnessed it.", "preferredTerm": "LEC-5 Standard Version - Life-threatening Illness: Witnessed", "submissionValue": "LEC0112B", "synonyms": ["LEC01-Life-threatening Illness: Witness"]}, {"conceptId": "C135888", "definition": "Life Events Checklist for DSM-5, Standard Version - Life-threatening illness or injury: Learned about it.", "preferredTerm": "LEC-5 Standard Version - Life-threatening Illness: Learned", "submissionValue": "LEC0112C", "synonyms": ["LEC01-Life-threatening Illness: Learned"]}, {"conceptId": "C135889", "definition": "Life Events Checklist for DSM-5, Standard Version - Life-threatening illness or injury: Part of my job.", "preferredTerm": "LEC-5 Standard Version - Life-threatening Illness: Job", "submissionValue": "LEC0112D", "synonyms": ["LEC01-Life-threatening Illness: Job"]}, {"conceptId": "C135890", "definition": "Life Events Checklist for DSM-5, Standard Version - Life-threatening illness or injury: Not sure.", "preferredTerm": "LEC-5 Standard Version - Life-threatening Illness: Not Sure", "submissionValue": "LEC0112E", "synonyms": ["LEC01-Life-threatening Illness: Not Sure"]}, {"conceptId": "C135891", "definition": "Life Events Checklist for DSM-5, Standard Version - Life-threatening illness or injury: Doesn't apply.", "preferredTerm": "LEC-5 Standard Version - Life-threatening Illness: Not Apply", "submissionValue": "LEC0112F", "synonyms": ["LEC01-Life-threatening Illness: No Apply"]}, {"conceptId": "C135892", "definition": "Life Events Checklist for DSM-5, Standard Version - Severe human suffering: Happened to me.", "preferredTerm": "LEC-5 Standard Version - Severe Human Suffering: Happened", "submissionValue": "LEC0113A", "synonyms": ["LEC01-Severe Human Suffering: Happened"]}, {"conceptId": "C135893", "definition": "Life Events Checklist for DSM-5, Standard Version - Severe human suffering: Witnessed it.", "preferredTerm": "LEC-5 Standard Version - Severe Human Suffering: Witnessed", "submissionValue": "LEC0113B", "synonyms": ["LEC01-Severe Human Suffering: Witnessed"]}, {"conceptId": "C135894", "definition": "Life Events Checklist for DSM-5, Standard Version - Severe human suffering: Learned about it.", "preferredTerm": "LEC-5 Standard Version - Severe Human Suffering: Learned", "submissionValue": "LEC0113C", "synonyms": ["LEC01-Severe Human Suffering: Learned"]}, {"conceptId": "C135895", "definition": "Life Events Checklist for DSM-5, Standard Version - Severe human suffering: Part of my job.", "preferredTerm": "LEC-5 Standard Version - Severe Human Suffering: Job", "submissionValue": "LEC0113D", "synonyms": ["LEC01-Severe Human Suffering: Job"]}, {"conceptId": "C135896", "definition": "Life Events Checklist for DSM-5, Standard Version - Severe human suffering: Not sure.", "preferredTerm": "LEC-5 Standard Version - Severe Human Suffering: Not Sure", "submissionValue": "LEC0113E", "synonyms": ["LEC01-Severe Human Suffering: Not Sure"]}, {"conceptId": "C135897", "definition": "Life Events Checklist for DSM-5, Standard Version - Severe human suffering: Doesn't apply.", "preferredTerm": "LEC-5 Standard Version - Severe Human Suffering: Not Apply", "submissionValue": "LEC0113F", "synonyms": ["LEC01-Severe Human Suffering: Not Apply"]}, {"conceptId": "C135898", "definition": "Life Events Checklist for DSM-5, Standard Version - Sudden violent death (for example, homicide, suicide): Happened to me.", "preferredTerm": "LEC-5 Standard Version - Sudden Violent Death: Happened", "submissionValue": "LEC0114A", "synonyms": ["LEC01-Sudden Violent Death: Happened"]}, {"conceptId": "C135899", "definition": "Life Events Checklist for DSM-5, Standard Version - Sudden violent death (for example, homicide, suicide): Witnessed it.", "preferredTerm": "LEC-5 Standard Version - Sudden Violent Death: Witnessed", "submissionValue": "LEC0114B", "synonyms": ["LEC01-Sudden Violent Death: Witnessed"]}, {"conceptId": "C135900", "definition": "Life Events Checklist for DSM-5, Standard Version - Sudden violent death (for example, homicide, suicide): Learned about it.", "preferredTerm": "LEC-5 Standard Version - Sudden Violent Death: Learned", "submissionValue": "LEC0114C", "synonyms": ["LEC01-Sudden Violent Death: Learned"]}, {"conceptId": "C135901", "definition": "Life Events Checklist for DSM-5, Standard Version - Sudden violent death (for example, homicide, suicide): Part of my job.", "preferredTerm": "LEC-5 Standard Version - Sudden Violent Death: Job", "submissionValue": "LEC0114D", "synonyms": ["LEC01-Sudden Violent Death: Job"]}, {"conceptId": "C135902", "definition": "Life Events Checklist for DSM-5, Standard Version - Sudden violent death (for example, homicide, suicide): Not sure.", "preferredTerm": "LEC-5 Standard Version - Sudden Violent Death: Not Sure", "submissionValue": "LEC0114E", "synonyms": ["LEC01-Sudden Violent Death: Not Sure"]}, {"conceptId": "C135903", "definition": "Life Events Checklist for DSM-5, Standard Version - Sudden violent death (for example, homicide, suicide): Doesn't apply.", "preferredTerm": "LEC-5 Standard Version - Sudden Violent Death: Not Apply", "submissionValue": "LEC0114F", "synonyms": ["LEC01-Sudden Violent Death: Not Apply"]}, {"conceptId": "C135904", "definition": "Life Events Checklist for DSM-5, Standard Version - Sudden accidental death: Happened to me.", "preferredTerm": "LEC-5 Standard Version - Sudden Accidental Death: Happened", "submissionValue": "LEC0115A", "synonyms": ["LEC01-Sudden Accidental Death: Happened"]}, {"conceptId": "C135905", "definition": "Life Events Checklist for DSM-5, Standard Version - Sudden accidental death: Witnessed it.", "preferredTerm": "LEC-5 Standard Version - Sudden Accidental Death: Witnessed", "submissionValue": "LEC0115B", "synonyms": ["LEC01-Sudden Accidental Death: Witnessed"]}, {"conceptId": "C135906", "definition": "Life Events Checklist for DSM-5, Standard Version - Sudden accidental death: Learned about it.", "preferredTerm": "LEC-5 Standard Version - Sudden Accidental Death: Learned", "submissionValue": "LEC0115C", "synonyms": ["LEC01-Sudden Accidental Death: Learned"]}, {"conceptId": "C135907", "definition": "Life Events Checklist for DSM-5, Standard Version - Sudden accidental death: Part of my job.", "preferredTerm": "LEC-5 Standard Version - Sudden Accidental Death: Job", "submissionValue": "LEC0115D", "synonyms": ["LEC01-Sudden Accidental Death: Job"]}, {"conceptId": "C135908", "definition": "Life Events Checklist for DSM-5, Standard Version - Sudden accidental death: Not sure.", "preferredTerm": "LEC-5 Standard Version - Sudden Accidental Death: Not Sure", "submissionValue": "LEC0115E", "synonyms": ["LEC01-Sudden Accidental Death: Not Sure"]}, {"conceptId": "C135909", "definition": "Life Events Checklist for DSM-5, Standard Version - Sudden accidental death: Doesn't apply.", "preferredTerm": "LEC-5 Standard Version - Sudden Accidental Death: Not Apply", "submissionValue": "LEC0115F", "synonyms": ["LEC01-Sudden Accidental Death: Not Apply"]}, {"conceptId": "C135910", "definition": "Life Events Checklist for DSM-5, Standard Version - Serious injury, harm, or death you caused to someone else: Happened to me.", "preferredTerm": "LEC-5 Standard Version - Serious Injury Caused: Happened", "submissionValue": "LEC0116A", "synonyms": ["LEC01-Serious Injury Caused: Happened"]}, {"conceptId": "C135911", "definition": "Life Events Checklist for DSM-5, Standard Version - Serious injury, harm, or death you caused to someone else: Witnessed it.", "preferredTerm": "LEC-5 Standard Version - Serious Injury Caused: Witnessed", "submissionValue": "LEC0116B", "synonyms": ["LEC01-Serious Injury Caused: Witnessed"]}, {"conceptId": "C135912", "definition": "Life Events Checklist for DSM-5, Standard Version - Serious injury, harm, or death you caused to someone else: Learned about it.", "preferredTerm": "LEC-5 Standard Version - Serious Injury Caused: Learned", "submissionValue": "LEC0116C", "synonyms": ["LEC01-Serious Injury Caused: Learned"]}, {"conceptId": "C135913", "definition": "Life Events Checklist for DSM-5, Standard Version - Serious injury, harm, or death you caused to someone else: Part of my job.", "preferredTerm": "LEC-5 Standard Version - Serious Injury Caused: Job", "submissionValue": "LEC0116D", "synonyms": ["LEC01-Serious Injury Caused: Job"]}, {"conceptId": "C135914", "definition": "Life Events Checklist for DSM-5, Standard Version - Serious injury, harm, or death you caused to someone else: Not sure.", "preferredTerm": "LEC-5 Standard Version - Serious Injury Caused: Not Sure", "submissionValue": "LEC0116E", "synonyms": ["LEC01-Serious Injury Caused: Not Sure"]}, {"conceptId": "C135915", "definition": "Life Events Checklist for DSM-5, Standard Version - Serious injury, harm, or death you caused to someone else: Doesn't apply.", "preferredTerm": "LEC-5 Standard Version - Serious Injury Caused: Not Apply", "submissionValue": "LEC0116F", "synonyms": ["LEC01-Serious Injury Caused: Not Apply"]}, {"conceptId": "C135916", "definition": "Life Events Checklist for DSM-5, Standard Version - Any other very stressful event or experience: Happened to me.", "preferredTerm": "LEC-5 Standard Version - Other Stressful Event: Happened", "submissionValue": "LEC0117A", "synonyms": ["LEC01-Other Stressful Event: Happened"]}, {"conceptId": "C135917", "definition": "Life Events Checklist for DSM-5, Standard Version - Any other very stressful event or experience: Witnessed it.", "preferredTerm": "LEC-5 Standard Version - Other Stressful Event: Witnessed", "submissionValue": "LEC0117B", "synonyms": ["LEC01-Other Stressful Event: Witnessed"]}, {"conceptId": "C135918", "definition": "Life Events Checklist for DSM-5, Standard Version - Any other very stressful event or experience: Learned about it.", "preferredTerm": "LEC-5 Standard Version - Other Stressful Event: Learned", "submissionValue": "LEC0117C", "synonyms": ["LEC01-Other Stressful Event: Learned"]}, {"conceptId": "C135919", "definition": "Life Events Checklist for DSM-5, Standard Version - Any other very stressful event or experience: Part of my job.", "preferredTerm": "LEC-5 Standard Version - Other Stressful Event: Job", "submissionValue": "LEC0117D", "synonyms": ["LEC01-Other Stressful Event: Job"]}, {"conceptId": "C135920", "definition": "Life Events Checklist for DSM-5, Standard Version - Any other very stressful event or experience: Not sure.", "preferredTerm": "LEC-5 Standard Version - Other Stressful Event: Not Sure", "submissionValue": "LEC0117E", "synonyms": ["LEC01-Other Stressful Event: Not Sure"]}, {"conceptId": "C135921", "definition": "Life Events Checklist for DSM-5, Standard Version - Any other very stressful event or experience: Doesn't apply.", "preferredTerm": "LEC-5 Standard Version - Other Stressful Event: Not Apply", "submissionValue": "LEC0117F", "synonyms": ["LEC01-Other Stressful Event: Not Apply"]}]}