{"_links": {"parentPackage": {"href": "/mdr/ct/packages/sdtmct-2021-03-26", "title": "SDTM Controlled Terminology Package 45 Effective 2021-03-26", "type": "Terminology"}, "priorVersion": {"href": "/mdr/ct/packages/sdtmct-2020-12-18/codelists/C138258", "title": "CDISC Questionnaire PedsQL Neuromuscular Module Version 3.0 Young Adult Report Test Name Terminology", "type": "Code List"}, "rootItem": {"href": "/mdr/root/ct/sdtmct/codelists/C138258", "title": "Version-agnostic anchor resource for codelist C138258", "type": "Root Value Domain"}, "self": {"href": "/mdr/ct/packages/sdtmct-2021-03-26/codelists/C138258", "title": "CDISC Questionnaire PedsQL Neuromuscular Module Version 3.0 Young Adult Report Test Name Terminology", "type": "Code List"}}, "conceptId": "C138258", "definition": "Pediatric Quality of Life Neuromuscular Module Version 3 Young Adult test name.", "extensible": "false", "name": "Pediatric Quality of Life Neuromuscular Module Version 3 Young Adult Questionnaire Test Name", "preferredTerm": "CDISC Questionnaire PedsQL Neuromuscular Module Version 3.0 Young Adult Report Test Name Terminology", "submissionValue": "PQL01TN", "synonyms": ["Pediatric Quality of Life Neuromuscular Module Version 3 Young Adult Questionnaire Test Name"], "terms": [{"conceptId": "C138862", "definition": "Pediatric Quality of Life Neuromuscular Module Version 3 Young Adult - In the past one month, how much of a problem has this been for you: My back feels stiff.", "preferredTerm": "PedsQL Neuromuscular Module Version 3.0 Young Adult Report - Back Feels Stiff", "submissionValue": "PQL01-Back Feels Stiff", "synonyms": ["PQL01-Back Feels Stiff"]}, {"conceptId": "C138881", "definition": "Pediatric Quality of Life Neuromuscular Module Version 3 Young Adult - In the past one month, how much of a problem has this been for you: I do not have the equipment I need.", "preferredTerm": "PedsQL Neuromuscular Module Version 3.0 Young Adult Report - Do Not Have Equipment Need", "submissionValue": "PQL01-Do Not Have Equipment Need", "synonyms": ["PQL01-Do Not Have Equipment Need"]}, {"conceptId": "C138880", "definition": "Pediatric Quality of Life Neuromuscular Module Version 3 Young Adult - In the past one month, how much of a problem has this been for you: I think my family has a lot of problems.", "preferredTerm": "PedsQL Neuromuscular Module Version 3.0 Young Adult Report - Family Has Lot of Problems", "submissionValue": "PQL01-Family Has Lot of Problems", "synonyms": ["PQL01-Family Has Lot of Problems"]}, {"conceptId": "C138861", "definition": "Pediatric Quality of Life Neuromuscular Module Version 3 Young Adult - In the past one month, how much of a problem has this been for you: I feel tired.", "preferredTerm": "PedsQL Neuromuscular Module Version 3.0 Young Adult Report - Feel Tired", "submissionValue": "PQL01-Feel Tired", "synonyms": ["PQL01-Feel Tired"]}, {"conceptId": "C138870", "definition": "Pediatric Quality of Life Neuromuscular Module Version 3 Young Adult - In the past one month, how much of a problem has this been for you: I get hurt accidentally.", "preferredTerm": "PedsQL Neuromuscular Module Version 3.0 Young Adult Report - Get Hurt Accidentally", "submissionValue": "PQL01-Get Hurt Accidentally", "synonyms": ["PQL01-Get Hurt Accidentally"]}, {"conceptId": "C138858", "definition": "Pediatric Quality of Life Neuromuscular Module Version 3 Young Adult - In the past one month, how much of a problem has this been for you: I get sick easily.", "preferredTerm": "PedsQL Neuromuscular Module Version 3.0 Young Adult Report - Get Sick Easily", "submissionValue": "PQL01-Get Sick Easily", "synonyms": ["PQL01-Get Sick Easily"]}, {"conceptId": "C138859", "definition": "Pediatric Quality of Life Neuromuscular Module Version 3 Young Adult - In the past one month, how much of a problem has this been for you: I get sores and/or rashes.", "preferredTerm": "PedsQL Neuromuscular Module Version 3.0 Young Adult Report - Get Sores and/or Rashes", "submissionValue": "PQL01-Get Sores and/or Rashes", "synonyms": ["PQL01-Get Sores and/or Rashes"]}, {"conceptId": "C138864", "definition": "Pediatric Quality of Life Neuromuscular Module Version 3 Young Adult - In the past one month, how much of a problem has this been for you: My hands are weak.", "preferredTerm": "PedsQL Neuromuscular Module Version 3.0 Young Adult Report - Hands Are Weak", "submissionValue": "PQL01-Hands Are Weak", "synonyms": ["PQL01-Hands Are Weak"]}, {"conceptId": "C138875", "definition": "Pediatric Quality of Life Neuromuscular Module Version 3 Young Adult - In the past one month, how much of a problem has this been for you: It is hard for me to ask the doctors and nurses questions.", "preferredTerm": "PedsQL Neuromuscular Module Version 3.0 Young Adult Report - Hard Ask Doctors and Nurses Questions", "submissionValue": "PQL01-Hard Ask Doctors/Nurses Questions", "synonyms": ["PQL01-Hard Ask Doctors/Nurses Questions"]}, {"conceptId": "C138876", "definition": "Pediatric Quality of Life Neuromuscular Module Version 3 Young Adult - In the past one month, how much of a problem has this been for you: It is hard for me to explain my illness to other people.", "preferredTerm": "PedsQL Neuromuscular Module Version 3.0 Young Adult Report - Hard Explain Illness to People", "submissionValue": "PQL01-Hard Explain Illness to People", "synonyms": ["PQL01-Hard Explain Illness to People"]}, {"conceptId": "C138877", "definition": "Pediatric Quality of Life Neuromuscular Module Version 3 Young Adult - In the past one month, how much of a problem has this been for you: It is hard for my family to plan activities like vacations.", "preferredTerm": "PedsQL Neuromuscular Module Version 3.0 Young Adult Report - Hard for Family to Plan Activities", "submissionValue": "PQL01-Hard for Family to Plan Activities", "synonyms": ["PQL01-Hard for Family to Plan Activities"]}, {"conceptId": "C138878", "definition": "Pediatric Quality of Life Neuromuscular Module Version 3 Young Adult - In the past one month, how much of a problem has this been for you: It is hard for my family to get enough rest.", "preferredTerm": "PedsQL Neuromuscular Module Version 3.0 Young Adult Report - Hard for Family to Rest", "submissionValue": "PQL01-Hard for Family to Rest", "synonyms": ["PQL01-Hard for Family to Rest"]}, {"conceptId": "C138874", "definition": "Pediatric Quality of Life Neuromuscular Module Version 3 Young Adult - In the past one month, how much of a problem has this been for you: It is hard for me to tell the doctors and nurses how I feel.", "preferredTerm": "PedsQL Neuromuscular Module Version 3.0 Young Adult Report - Hard Tell Doctors and Nurses How Feel", "submissionValue": "PQL01-Hard Tell Doctors/Nurses How Feel", "synonyms": ["PQL01-Hard Tell Doctors/Nurses How Feel"]}, {"conceptId": "C138857", "definition": "Pediatric Quality of Life Neuromuscular Module Version 3 Young Adult - In the past one month, how much of a problem has this been for you: It is hard to breathe.", "preferredTerm": "PedsQL Neuromuscular Module Version 3.0 Young Adult Report - Hard to Breathe", "submissionValue": "PQL01-Hard to Breathe", "synonyms": ["PQL01-Hard to Breathe"]}, {"conceptId": "C138866", "definition": "Pediatric Quality of Life Neuromuscular Module Version 3 Young Adult - In the past one month, how much of a problem has this been for you: It is hard to gain or lose weight when I want to.", "preferredTerm": "PedsQL Neuromuscular Module Version 3.0 Young Adult Report - Hard to Gain or Lose Weight", "submissionValue": "PQL01-Hard to Gain/Lose Weight", "synonyms": ["PQL01-Hard to Gain/Lose Weight"]}, {"conceptId": "C138873", "definition": "Pediatric Quality of Life Neuromuscular Module Version 3 Young Adult - In the past one month, how much of a problem has this been for you: It is hard for me to go places with my equipment.", "preferredTerm": "PedsQL Neuromuscular Module Version 3.0 Young Adult Report - Hard to Go Places With Equipment", "submissionValue": "PQL01-Hard to Go Places With Equipment", "synonyms": ["PQL01-Hard to Go Places With Equipment"]}, {"conceptId": "C138868", "definition": "Pediatric Quality of Life Neuromuscular Module Version 3 Young Adult - In the past one month, how much of a problem has this been for you: It is hard to swallow food.", "preferredTerm": "PedsQL Neuromuscular Module Version 3.0 Young Adult Report - Hard to Swallow Food", "submissionValue": "PQL01-Hard to Swallow Food", "synonyms": ["PQL01-Hard to Swallow Food"]}, {"conceptId": "C138872", "definition": "Pediatric Quality of Life Neuromuscular Module Version 3 Young Adult - In the past one month, how much of a problem has this been for you: It is hard to turn myself during the night.", "preferredTerm": "PedsQL Neuromuscular Module Version 3.0 Young Adult Report - Hard to Turn During Night", "submissionValue": "PQL01-Hard to Turn During Night", "synonyms": ["PQL01-Hard to Turn During Night"]}, {"conceptId": "C138865", "definition": "Pediatric Quality of Life Neuromuscular Module Version 3 Young Adult - In the past one month, how much of a problem has this been for you: It is hard to use the bathroom.", "preferredTerm": "PedsQL Neuromuscular Module Version 3.0 Young Adult Report - Hard to Use Bathroom", "submissionValue": "PQL01-Hard to Use Bathroom", "synonyms": ["PQL01-Hard to Use Bathroom"]}, {"conceptId": "C138867", "definition": "Pediatric Quality of Life Neuromuscular Module Version 3 Young Adult - In the past one month, how much of a problem has this been for you: It is hard to use my hands.", "preferredTerm": "PedsQL Neuromuscular Module Version 3.0 Young Adult Report - Hard to Use Hands", "submissionValue": "PQL01-Hard to Use Hands", "synonyms": ["PQL01-Hard to Use Hands"]}, {"conceptId": "C138860", "definition": "Pediatric Quality of Life Neuromuscular Module Version 3 Young Adult - In the past one month, how much of a problem has this been for you: My legs hurt.", "preferredTerm": "PedsQL Neuromuscular Module Version 3.0 Young Adult Report - Legs Hurt", "submissionValue": "PQL01-Legs Hurt", "synonyms": ["PQL01-Legs Hurt"]}, {"conceptId": "C138869", "definition": "Pediatric Quality of Life Neuromuscular Module Version 3 Young Adult - In the past one month, how much of a problem has this been for you: It takes me a long time to bathe or shower.", "preferredTerm": "PedsQL Neuromuscular Module Version 3.0 Young Adult Report - Long Time to Bathe or Shower", "submissionValue": "PQL01-Long Time to Bathe/Shower", "synonyms": ["PQL01-Long Time to Bathe/Shower"]}, {"conceptId": "C138879", "definition": "Pediatric Quality of Life Neuromuscular Module Version 3 Young Adult - In the past one month, how much of a problem has this been for you: I think money is a problem in our family.", "preferredTerm": "PedsQL Neuromuscular Module Version 3.0 Young Adult Report - Money Problem in Our Family", "submissionValue": "PQL01-Money Problem in Our Family", "synonyms": ["PQL01-Money Problem in Our Family"]}, {"conceptId": "C138871", "definition": "Pediatric Quality of Life Neuromuscular Module Version 3 Young Adult - In the past one month, how much of a problem has this been for you: I take a long time to eat.", "preferredTerm": "PedsQL Neuromuscular Module Version 3.0 Young Adult Report - Take Long Time to Eat", "submissionValue": "PQL01-Take Long Time to Eat", "synonyms": ["PQL01-Take Long Time to Eat"]}, {"conceptId": "C138863", "definition": "Pediatric Quality of Life Neuromuscular Module Version 3 Young Adult - In the past one month, how much of a problem has this been for you: I wake up tired.", "preferredTerm": "PedsQL Neuromuscular Module Version 3.0 Young Adult Report - Wake Up Tired", "submissionValue": "PQL01-Wake Up Tired", "synonyms": ["PQL01-Wake Up Tired"]}]}