{"_links": {"parentPackage": {"href": "/mdr/ct/packages/sdtmct-2021-03-26", "title": "SDTM Controlled Terminology Package 45 Effective 2021-03-26", "type": "Terminology"}, "priorVersion": {"href": "/mdr/ct/packages/sdtmct-2020-12-18/codelists/C141661", "title": "CDISC Functional Test 4-Stair Descend Test Code Terminology", "type": "Code List"}, "rootItem": {"href": "/mdr/root/ct/sdtmct/codelists/C141661", "title": "Version-agnostic anchor resource for codelist C141661", "type": "Root Value Domain"}, "self": {"href": "/mdr/ct/packages/sdtmct-2021-03-26/codelists/C141661", "title": "CDISC Functional Test 4-Stair Descend Test Code Terminology", "type": "Code List"}}, "conceptId": "C141661", "definition": "4-Stair Descend test code.", "extensible": "false", "name": "4-Stair Descend Functional Test Test Code", "preferredTerm": "CDISC Functional Test 4-Stair Descend Test Code Terminology", "submissionValue": "D4STR1TC", "synonyms": ["4-Stair Descend Functional Test Test Code"], "terms": [{"conceptId": "C174104", "definition": "4-Stair Descend - Was the 4-stair descend performed?", "preferredTerm": "4-Stair Descend - Was 4-Stair Descend Performed", "submissionValue": "D4STR101", "synonyms": ["D4STR1-Was 4-Stair Descend Performed"]}, {"conceptId": "C141704", "definition": "4-Stair Descend - If yes, time taken to do 4-stair descend.", "preferredTerm": "4-Stair Descend - Time to Do 4-Stair Descend", "submissionValue": "D4STR102", "synonyms": ["D4STR1-Time to Do 4-Stair Descend"]}, {"conceptId": "C147591", "definition": "4-Stair Descend - If yes, did subject wear orthoses?", "preferredTerm": "4-Stair Descend - Wear Orthoses", "submissionValue": "D4STR103", "synonyms": ["D4STR1-Wear Orthoses"]}, {"conceptId": "C141705", "definition": "4-Stair Descend - Test grade.", "preferredTerm": "4-Stair Descend - Test Grade", "submissionValue": "D4STR104", "synonyms": ["D4STR1-Test Grade"]}]}