{"_links": {"parentPackage": {"href": "/mdr/ct/packages/sdtmct-2021-03-26", "title": "SDTM Controlled Terminology Package 45 Effective 2021-03-26", "type": "Terminology"}, "priorVersion": {"href": "/mdr/ct/packages/sdtmct-2020-12-18/codelists/C150777", "title": "CDISC Questionnaire FACT-BRM Version 4 Test Name Terminology", "type": "Code List"}, "rootItem": {"href": "/mdr/root/ct/sdtmct/codelists/C150777", "title": "Version-agnostic anchor resource for codelist C150777", "type": "Root Value Domain"}, "self": {"href": "/mdr/ct/packages/sdtmct-2021-03-26/codelists/C150777", "title": "CDISC Questionnaire FACT-BRM Version 4 Test Name Terminology", "type": "Code List"}}, "conceptId": "C150777", "definition": "Functional Assessment of Cancer Therapy-Biologic Response Modifiers Version 4 test name.", "extensible": "false", "name": "Functional Assessment of Cancer Therapy-Biologic Response Modifiers Version 4 Questionnaire Test Name", "preferredTerm": "CDISC Questionnaire FACT-BRM Version 4 Test Name Terminology", "submissionValue": "FAC062TN", "synonyms": ["Functional Assessment of Cancer Therapy-Biologic Response Modifiers Version 4 Questionnaire Test Name"], "terms": [{"conceptId": "C151160", "definition": "Functional Assessment of Cancer Therapy-Biologic Response Modifiers Version 4 - Physical Well-Being: I am bothered by side effects of treatment.", "preferredTerm": "FACT-BRM Version 4 - Bothered by Treatment Side Effect", "submissionValue": "FAC062-Bothered by Treatment Side Effect", "synonyms": ["FAC062-Bothered by Treatment Side Effect"]}, {"conceptId": "C151182", "definition": "Functional Assessment of Cancer Therapy-Biologic Response Modifiers Version 4 - Functional Well-Being: I am content with the quality of my life right now.", "preferredTerm": "FACT-BRM Version 4 - Content With Quality of My Life", "submissionValue": "FAC062-Content With Quality of My Life", "synonyms": ["FAC062-Content With Quality of My Life"]}, {"conceptId": "C151181", "definition": "Functional Assessment of Cancer Therapy-Biologic Response Modifiers Version 4 - Functional Well-Being: I am enjoying the things I usually do for fun.", "preferredTerm": "FACT-BRM Version 4 - Enjoy Things I Usually Do for Fun", "submissionValue": "FAC062-Enjoy Things I Usually Do for Fun", "synonyms": ["FAC062-Enjoy Things I Usually Do for Fun"]}, {"conceptId": "C151164", "definition": "Functional Assessment of Cancer Therapy-Biologic Response Modifiers Version 4 - Social/Family Well-Being: I get emotional support from my family.", "preferredTerm": "FACT-BRM Version 4 - Get Emotional Support From Family", "submissionValue": "FAC062-Get Emotional Support From Family", "synonyms": ["FAC062-Get Emotional Support From Family"]}, {"conceptId": "C151178", "definition": "Functional Assessment of Cancer Therapy-Biologic Response Modifiers Version 4 - Functional Well-Being: I am able to enjoy life.", "preferredTerm": "FACT-BRM Version 4 - I Am Able to Enjoy Life", "submissionValue": "FAC062-I Am Able to Enjoy Life", "synonyms": ["FAC062-I Am Able to Enjoy Life"]}, {"conceptId": "C151176", "definition": "Functional Assessment of Cancer Therapy-Biologic Response Modifiers Version 4 - Functional Well-Being: I am able to work (include work at home).", "preferredTerm": "FACT-BRM Version 4 - I Am Able to Work", "submissionValue": "FAC062-I Am Able to Work", "synonyms": ["FAC062-I Am Able to Work"]}, {"conceptId": "C151188", "definition": "Functional Assessment of Cancer Therapy-Biologic Response Modifiers Version 4 - Additional Concerns-Physical: I am bothered by fevers (episodes of high body temperature).", "preferredTerm": "FACT-BRM Version 4 - I Am Bothered by Fevers", "submissionValue": "FAC062-I Am Bothered by Fevers", "synonyms": ["FAC062-I Am Bothered by Fevers"]}, {"conceptId": "C151189", "definition": "Functional Assessment of Cancer Therapy-Biologic Response Modifiers Version 4 - Additional Concerns-Physical: I am bothered by sweating.", "preferredTerm": "FACT-BRM Version 4 - I Am Bothered by Sweating", "submissionValue": "FAC062-I Am Bothered by Sweating", "synonyms": ["FAC062-I Am Bothered by Sweating"]}, {"conceptId": "C151187", "definition": "Functional Assessment of Cancer Therapy-Biologic Response Modifiers Version 4 - Additional Concerns-Physical: I am bothered by the chills.", "preferredTerm": "FACT-BRM Version 4 - I Am Bothered by the Chills", "submissionValue": "FAC062-I Am Bothered by the Chills", "synonyms": ["FAC062-I Am Bothered by the Chills"]}, {"conceptId": "C151162", "definition": "Functional Assessment of Cancer Therapy-Biologic Response Modifiers Version 4 - Physical Well-Being: I am forced to spend time in bed.", "preferredTerm": "FACT-BRM Version 4 - I Am Forced to Spend Time in Bed", "submissionValue": "FAC062-I Am Forced to Spend Time in Bed", "synonyms": ["FAC062-I Am Forced to Spend Time in Bed"]}, {"conceptId": "C151169", "definition": "Functional Assessment of Cancer Therapy-Biologic Response Modifiers Version 4 - Social/Family Well-Being: I am satisfied with my sex life.", "preferredTerm": "FACT-BRM Version 4 - I Am Satisfied With My Sex Life", "submissionValue": "FAC062-I Am Satisfied With My Sex Life", "synonyms": ["FAC062-I Am Satisfied With My Sex Life"]}, {"conceptId": "C151180", "definition": "Functional Assessment of Cancer Therapy-Biologic Response Modifiers Version 4 - Functional Well-Being: I am sleeping well.", "preferredTerm": "FACT-BRM Version 4 - I Am Sleeping Well", "submissionValue": "FAC062-I Am Sleeping Well", "synonyms": ["FAC062-I Am Sleeping Well"]}, {"conceptId": "C151163", "definition": "Functional Assessment of Cancer Therapy-Biologic Response Modifiers Version 4 - Social/Family Well-Being: I feel close to my friends.", "preferredTerm": "FACT-BRM Version 4 - I Feel Close to My Friends", "submissionValue": "FAC062-I Feel Close to My Friends", "synonyms": ["FAC062-I Feel Close to My Friends"]}, {"conceptId": "C151168", "definition": "Functional Assessment of Cancer Therapy-Biologic Response Modifiers Version 4 - Social/Family Well-Being: I feel close to my partner (or the person who is my main support).", "preferredTerm": "FACT-BRM Version 4 - I Feel Close to My Partner", "submissionValue": "FAC062-I Feel Close to My Partner", "synonyms": ["FAC062-I Feel Close to My Partner"]}, {"conceptId": "C151161", "definition": "Functional Assessment of Cancer Therapy-Biologic Response Modifiers Version 4 - Physical Well-Being: I feel ill.", "preferredTerm": "FACT-BRM Version 4 - I Feel Ill", "submissionValue": "FAC062-I Feel Ill", "synonyms": ["FAC062-I Feel Ill"]}, {"conceptId": "C151195", "definition": "Functional Assessment of Cancer Therapy-Biologic Response Modifiers Version 4 - Additional Concerns-Mental: I feel motivated to do things.", "preferredTerm": "FACT-BRM Version 4 - I Feel Motivated to Do Things", "submissionValue": "FAC062-I Feel Motivated to Do Things", "synonyms": ["FAC062-I Feel Motivated to Do Things"]}, {"conceptId": "C151173", "definition": "Functional Assessment of Cancer Therapy-Biologic Response Modifiers Version 4 - Emotional Well-Being: I feel nervous.", "preferredTerm": "FACT-BRM Version 4 - I Feel Nervous", "submissionValue": "FAC062-I Feel Nervous", "synonyms": ["FAC062-I Feel Nervous"]}, {"conceptId": "C151170", "definition": "Functional Assessment of Cancer Therapy-Biologic Response Modifiers Version 4 - Emotional Well-Being: I feel sad.", "preferredTerm": "FACT-BRM Version 4 - I Feel Sad", "submissionValue": "FAC062-I Feel Sad", "synonyms": ["FAC062-I Feel Sad"]}, {"conceptId": "C151184", "definition": "Functional Assessment of Cancer Therapy-Biologic Response Modifiers Version 4 - Additional Concerns-Physical: I feel weak all over.", "preferredTerm": "FACT-BRM Version 4 - I Feel Weak All Over", "submissionValue": "FAC062-I Feel Weak All Over", "synonyms": ["FAC062-I Feel Weak All Over"]}, {"conceptId": "C151193", "definition": "Functional Assessment of Cancer Therapy-Biologic Response Modifiers Version 4 - Additional Concerns-Mental: I get annoyed easily.", "preferredTerm": "FACT-BRM Version 4 - I Get Annoyed Easily", "submissionValue": "FAC062-I Get Annoyed Easily", "synonyms": ["FAC062-I Get Annoyed Easily"]}, {"conceptId": "C151192", "definition": "Functional Assessment of Cancer Therapy-Biologic Response Modifiers Version 4 - Additional Concerns-Mental: I get depressed easily.", "preferredTerm": "FACT-BRM Version 4 - I Get Depressed Easily", "submissionValue": "FAC062-I Get Depressed Easily", "synonyms": ["FAC062-I Get Depressed Easily"]}, {"conceptId": "C151165", "definition": "Functional Assessment of Cancer Therapy-Biologic Response Modifiers Version 4 - Social/Family Well-Being: I get support from my friends.", "preferredTerm": "FACT-BRM Version 4 - I Get Support From My Friends", "submissionValue": "FAC062-I Get Support From My Friends", "synonyms": ["FAC062-I Get Support From My Friends"]}, {"conceptId": "C151183", "definition": "Functional Assessment of Cancer Therapy-Biologic Response Modifiers Version 4 - Additional Concerns-Physical: I get tired easily.", "preferredTerm": "FACT-BRM Version 4 - I Get Tired Easily", "submissionValue": "FAC062-I Get Tired Easily", "synonyms": ["FAC062-I Get Tired Easily"]}, {"conceptId": "C151185", "definition": "Functional Assessment of Cancer Therapy-Biologic Response Modifiers Version 4 - Additional Concerns-Physical: I have a good appetite.", "preferredTerm": "FACT-BRM Version 4 - I Have a Good Appetite", "submissionValue": "FAC062-I Have a Good Appetite", "synonyms": ["FAC062-I Have a Good Appetite"]}, {"conceptId": "C151156", "definition": "Functional Assessment of Cancer Therapy-Biologic Response Modifiers Version 4 - Physical Well-Being: I have a lack of energy.", "preferredTerm": "FACT-BRM Version 4 - I Have a Lack of Energy", "submissionValue": "FAC062-I Have a Lack of Energy", "synonyms": ["FAC062-I Have a Lack of Energy"]}, {"conceptId": "C151179", "definition": "Functional Assessment of Cancer Therapy-Biologic Response Modifiers Version 4 - Functional Well-Being: I have accepted my illness.", "preferredTerm": "FACT-BRM Version 4 - I Have Accepted My Illness", "submissionValue": "FAC062-I Have Accepted My Illness", "synonyms": ["FAC062-I Have Accepted My Illness"]}, {"conceptId": "C151194", "definition": "Functional Assessment of Cancer Therapy-Biologic Response Modifiers Version 4 - Additional Concerns-Mental: I have emotional ups and downs.", "preferredTerm": "FACT-BRM Version 4 - I Have Emotional Ups and Downs", "submissionValue": "FAC062-I Have Emotional Ups and Downs", "synonyms": ["FAC062-I Have Emotional Ups and Downs"]}, {"conceptId": "C151157", "definition": "Functional Assessment of Cancer Therapy-Biologic Response Modifiers Version 4 - Physical Well-Being: I have nausea.", "preferredTerm": "FACT-BRM Version 4 - I Have Nausea", "submissionValue": "FAC062-I Have Nausea", "synonyms": ["FAC062-I Have Nausea"]}, {"conceptId": "C151159", "definition": "Functional Assessment of Cancer Therapy-Biologic Response Modifiers Version 4 - Physical Well-Being: I have pain.", "preferredTerm": "FACT-BRM Version 4 - I Have Pain", "submissionValue": "FAC062-I Have Pain", "synonyms": ["FAC062-I Have Pain"]}, {"conceptId": "C151186", "definition": "Functional Assessment of Cancer Therapy-Biologic Response Modifiers Version 4 - Additional Concerns-Physical: I have pain in my joints.", "preferredTerm": "FACT-BRM Version 4 - I Have Pain in My Joints", "submissionValue": "FAC062-I Have Pain in My Joints", "synonyms": ["FAC062-I Have Pain in My Joints"]}, {"conceptId": "C151190", "definition": "Functional Assessment of Cancer Therapy-Biologic Response Modifiers Version 4 - Additional Concerns-Mental: I have trouble concentrating.", "preferredTerm": "FACT-BRM Version 4 - I Have Trouble Concentrating", "submissionValue": "FAC062-I Have Trouble Concentrating", "synonyms": ["FAC062-I Have Trouble Concentrating"]}, {"conceptId": "C151191", "definition": "Functional Assessment of Cancer Therapy-Biologic Response Modifiers Version 4 - Additional Concerns-Mental: I have trouble remembering things.", "preferredTerm": "FACT-BRM Version 4 - I Have Trouble Remembering Things", "submissionValue": "FAC062-I Have Trouble Remembering Things", "synonyms": ["FAC062-I Have Trouble Remembering Things"]}, {"conceptId": "C151174", "definition": "Functional Assessment of Cancer Therapy-Biologic Response Modifiers Version 4 - Emotional Well-Being: I worry about dying.", "preferredTerm": "FACT-BRM Version 4 - I Worry About Dying", "submissionValue": "FAC062-I Worry About Dying", "synonyms": ["FAC062-I Worry About Dying"]}, {"conceptId": "C151172", "definition": "Functional Assessment of Cancer Therapy-Biologic Response Modifiers Version 4 - Emotional Well-Being: I am losing hope in the fight against my illness.", "preferredTerm": "FACT-BRM Version 4 - Losing Hope Against Illness", "submissionValue": "FAC062-Losing Hope Against Illness", "synonyms": ["FAC062-Losing Hope Against Illness"]}, {"conceptId": "C151166", "definition": "Functional Assessment of Cancer Therapy-Biologic Response Modifiers Version 4 - Social/Family Well-Being: My family has accepted my illness.", "preferredTerm": "FACT-BRM Version 4 - My Family Has Accepted My Illness", "submissionValue": "FAC062-My Family Has Accepted My Illness", "synonyms": ["FAC062-My Family Has Accepted My Illness"]}, {"conceptId": "C151177", "definition": "Functional Assessment of Cancer Therapy-Biologic Response Modifiers Version 4 - Functional Well-Being: My work (include work at home) is fulfilling.", "preferredTerm": "FACT-BRM Version 4 - My Work Is Fulfilling", "submissionValue": "FAC062-My Work Is Fulfilling", "synonyms": ["FAC062-My Work Is Fulfilling"]}, {"conceptId": "C151167", "definition": "Functional Assessment of Cancer Therapy-Biologic Response Modifiers Version 4 - Social/Family Well-Being: I am satisfied with family communication about my illness.", "preferredTerm": "FACT-BRM Version 4 - Satisfied Communication Illness", "submissionValue": "FAC062-Satisfied Communication Illness", "synonyms": ["FAC062-Satisfied Communication Illness"]}, {"conceptId": "C151171", "definition": "Functional Assessment of Cancer Therapy-Biologic Response Modifiers Version 4 - Emotional Well-Being: I am satisfied with how I am coping with my illness.", "preferredTerm": "FACT-BRM Version 4 - Satisfied With How I Am Coping", "submissionValue": "FAC062-Satisfied With How I Am Coping", "synonyms": ["FAC062-Satisfied With How I Am Coping"]}, {"conceptId": "C151158", "definition": "Functional Assessment of Cancer Therapy-Biologic Response Modifiers Version 4 - Physical Well-Being: Because of my physical condition, I have trouble meeting the needs of my family.", "preferredTerm": "FACT-BRM Version 4 - Trouble Meeting Needs of Family", "submissionValue": "FAC062-Trouble Meeting Needs of Family", "synonyms": ["FAC062-Trouble Meeting Needs of Family"]}, {"conceptId": "C151175", "definition": "Functional Assessment of Cancer Therapy-Biologic Response Modifiers Version 4 - Emotional Well-Being: I worry that my condition will get worse.", "preferredTerm": "FACT-BRM Version 4 - Worry My Condition Will Get Worse", "submissionValue": "FAC062-Worry My Condition Will Get Worse", "synonyms": ["FAC062-Worry My Condition Will Get Worse"]}]}