{"_links": {"parentPackage": {"href": "/mdr/ct/packages/sdtmct-2021-03-26", "title": "SDTM Controlled Terminology Package 45 Effective 2021-03-26", "type": "Terminology"}, "priorVersion": {"href": "/mdr/ct/packages/sdtmct-2020-12-18/codelists/C163387", "title": "CDISC Questionnaire ANSD Version 1.0 Test Code Terminology", "type": "Code List"}, "rootItem": {"href": "/mdr/root/ct/sdtmct/codelists/C163387", "title": "Version-agnostic anchor resource for codelist C163387", "type": "Root Value Domain"}, "self": {"href": "/mdr/ct/packages/sdtmct-2021-03-26/codelists/C163387", "title": "CDISC Questionnaire ANSD Version 1.0 Test Code Terminology", "type": "Code List"}}, "conceptId": "C163387", "definition": "Asthma Nighttime Symptom Diary v1.0 test code.", "extensible": "false", "name": "Asthma Nighttime Symptom Diary v1.0 Questionnaire Test Code", "preferredTerm": "CDISC Questionnaire ANSD Version 1.0 Test Code Terminology", "submissionValue": "ANSD01TC", "synonyms": ["Asthma Nighttime Symptom Diary v1.0 Questionnaire Test Code"], "terms": [{"conceptId": "C163825", "definition": "Asthma Nighttime Symptom Diary v1.0 - Please rate your difficulty breathing at its worst since you went to bed last night.", "preferredTerm": "ANSD Version 1.0 - Rate Breathing at Its Worst", "submissionValue": "ANSD0101", "synonyms": ["ANSD01-Rate Breathing at Its Worst"]}, {"conceptId": "C163826", "definition": "Asthma Nighttime Symptom Diary v1.0 - Please rate your wheezing at its worst since you went to bed last night.", "preferredTerm": "ANSD Version 1.0 - Rate Wheezing at Its Worst", "submissionValue": "ANSD0102", "synonyms": ["ANSD01-Rate Wheezing at Its Worst"]}, {"conceptId": "C163827", "definition": "Asthma Nighttime Symptom Diary v1.0 - Please rate your shortness of breath at its worst since you went to bed last night.", "preferredTerm": "ANSD Version 1.0 - Rate Shortness of Breath at Worst", "submissionValue": "ANSD0103", "synonyms": ["ANSD01-Rate Shortness of Breath at Worst"]}, {"conceptId": "C163828", "definition": "Asthma Nighttime Symptom Diary v1.0 - Please rate your chest tightness at its worst since you went to bed last night.", "preferredTerm": "ANSD Version 1.0 - Rate Chest Tightness at Its Worst", "submissionValue": "ANSD0104", "synonyms": ["ANSD01-Rate Chest Tightness at Its Worst"]}, {"conceptId": "C163829", "definition": "Asthma Nighttime Symptom Diary v1.0 - Please rate your chest pain at its worst since you went to bed last night.", "preferredTerm": "ANSD Version 1.0 - Rate Chest Pain at Its Worst", "submissionValue": "ANSD0105", "synonyms": ["ANSD01-Rate Chest Pain at Its Worst"]}, {"conceptId": "C163830", "definition": "Asthma Nighttime Symptom Diary v1.0 - Please rate your cough at its worst since you went to bed last night.", "preferredTerm": "ANSD Version 1.0 - Rate Cough at Its Worst", "submissionValue": "ANSD0106", "synonyms": ["ANSD01-Rate Cough at Its Worst"]}, {"conceptId": "C163831", "definition": "Asthma Nighttime Symptom Diary v1.0 - Total score.", "preferredTerm": "ANSD Version 1.0 - Total Score", "submissionValue": "ANSD0107", "synonyms": ["ANSD01-Total Score"]}]}