{"_links": {"parentPackage": {"href": "/mdr/ct/packages/sdtmct-2021-03-26", "title": "SDTM Controlled Terminology Package 45 Effective 2021-03-26", "type": "Terminology"}, "priorVersion": {"href": "/mdr/ct/packages/sdtmct-2020-12-18/codelists/C170443", "title": "CDISC SDTM Subcategory for Disposition Event Terminology", "type": "Code List"}, "rootItem": {"href": "/mdr/root/ct/sdtmct/codelists/C170443", "title": "Version-agnostic anchor resource for codelist C170443", "type": "Root Value Domain"}, "self": {"href": "/mdr/ct/packages/sdtmct-2021-03-26/codelists/C170443", "title": "CDISC SDTM Subcategory for Disposition Event Terminology", "type": "Code List"}}, "conceptId": "C170443", "definition": "Terminology relevant to the subcategory for disposition events.", "extensible": "true", "name": "Subcategory for Disposition Event", "preferredTerm": "CDISC SDTM Subcategory for Disposition Event Terminology", "submissionValue": "DSSCAT", "synonyms": ["Subcategory for Disposition Event"], "terms": [{"conceptId": "C170569", "definition": "The act of taking part in a study.", "preferredTerm": "Study Participation", "submissionValue": "STUDY PARTICIPATION"}, {"conceptId": "C170570", "definition": "The act of taking part in the treatment phase of a study.", "preferredTerm": "Study Treatment Phase Participation", "submissionValue": "STUDY TREATMENT"}]}