{"_links": {"parentPackage": {"href": "/mdr/ct/packages/sdtmct-2021-03-26", "title": "SDTM Controlled Terminology Package 45 Effective 2021-03-26", "type": "Terminology"}, "priorVersion": {"href": "/mdr/ct/packages/sdtmct-2020-12-18/codelists/C171412", "title": "CDISC Clinical Classification SAS Test Name Terminology", "type": "Code List"}, "rootItem": {"href": "/mdr/root/ct/sdtmct/codelists/C171412", "title": "Version-agnostic anchor resource for codelist C171412", "type": "Root Value Domain"}, "self": {"href": "/mdr/ct/packages/sdtmct-2021-03-26/codelists/C171412", "title": "CDISC Clinical Classification SAS Test Name Terminology", "type": "Code List"}}, "conceptId": "C171412", "definition": "Riker Sedation-Agitation Scale test name.", "extensible": "false", "name": "Riker Sedation-Agitation Scale Clinical Classification Test Name", "preferredTerm": "CDISC Clinical Classification SAS Test Name Terminology", "submissionValue": "SAS01TN", "synonyms": ["Riker Sedation-Agitation Scale Clinical Classification Test Name"], "terms": [{"conceptId": "C171420", "definition": "Riker Sedation-Agitation Scale - Score.", "preferredTerm": "SAS - Score", "submissionValue": "SAS01-Score", "synonyms": ["SAS01-Score"]}]}