{"_links": {"parentPackage": {"href": "/mdr/ct/packages/sdtmct-2021-03-26", "title": "SDTM Controlled Terminology Package 45 Effective 2021-03-26", "type": "Terminology"}, "priorVersion": {"href": "/mdr/ct/packages/sdtmct-2020-12-18/codelists/C174225", "title": "CDISC SDTM Microbiology Findings Test Details Terminology", "type": "Code List"}, "rootItem": {"href": "/mdr/root/ct/sdtmct/codelists/C174225", "title": "Version-agnostic anchor resource for codelist C174225", "type": "Root Value Domain"}, "self": {"href": "/mdr/ct/packages/sdtmct-2021-03-26/codelists/C174225", "title": "CDISC SDTM Microbiology Findings Test Details Terminology", "type": "Code List"}}, "conceptId": "C174225", "definition": "Terminology relevant to the additional descriptions of the test being performed to produce the microbiology finding.", "extensible": "true", "name": "Microbiology Findings Test Details", "preferredTerm": "CDISC SDTM Microbiology Findings Test Details Terminology", "submissionValue": "MBFTSDTL", "synonyms": ["Microbiology Findings Test Details"], "terms": [{"conceptId": "C174332", "definition": "A measurement of the total cells of a pre-specified type in a specimen.", "preferredTerm": "Specified Cell Count Test", "submissionValue": "CELL COUNT"}, {"conceptId": "C174333", "definition": "A measurement of the total number of microbial colonies of a pre-specified microorganism in a specimen.", "preferredTerm": "Specified Colony Count Test", "submissionValue": "COLONY COUNT"}, {"conceptId": "C174330", "definition": "The determination of presence or absence of an entity in a specimen.", "preferredTerm": "Biological Detection Test", "submissionValue": "DETECTION"}, {"conceptId": "C161328", "definition": "The cycle number where the fluorescence of the target is detected above the background signal or a pre-set threshold. This value may be used for the computation of the concentration of a target in a polymerase chain reaction (PCR).", "preferredTerm": "Threshold Cycle", "submissionValue": "QUANTIFICATION CYCLE NUMBER", "synonyms": ["Cp Number", "Crossing point Number", "Ct", "Ct Number", "Cycle Threshold", "Cycle Threshold #", "Cycle Threshold Number", "Elbow Value", "TOP Number", "Take-off Point Number", "Threshold Cycle", "Threshold Cycle Number"]}, {"conceptId": "C174331", "definition": "A measurement of the total number of viral particles of a pre-specified virus in a specimen.", "preferredTerm": "Specified Viral Load Test", "submissionValue": "VIRAL LOAD"}]}