{"_links": {"parentPackage": {"href": "/mdr/ct/packages/sdtmct-2021-03-26", "title": "SDTM Controlled Terminology Package 45 Effective 2021-03-26", "type": "Terminology"}, "rootItem": {"href": "/mdr/root/ct/sdtmct/codelists/C177705", "title": "Version-agnostic anchor resource for codelist C177705", "type": "Root Value Domain"}, "self": {"href": "/mdr/ct/packages/sdtmct-2021-03-26/codelists/C177705", "title": "CDISC Questionnaire SF8 v1.0 Acute Test Name Terminology", "type": "Code List"}}, "conceptId": "C177705", "definition": "Short Form 8 Health Survey Acute, US Version 1.0 test name.", "extensible": "false", "name": "Short Form 8 Health Survey Acute, US Version 1.0 Questionnaire Test Name", "preferredTerm": "CDISC Questionnaire SF8 v1.0 Acute Test Name Terminology", "submissionValue": "SF82TN", "synonyms": ["Short Form 8 Health Survey Acute, US Version 1.0 Questionnaire Test Name"], "terms": [{"conceptId": "C177817", "definition": "The Short Form 8 Health Survey Acute, US Version 1.0 - During the past week, how much have you been bothered by emotional problems (such as feeling anxious, depressed or irritable)?", "preferredTerm": "SF8 v1.0 Acute - Bothered by Emotional Problems", "submissionValue": "SF82-Bothered by Emotional Problems", "synonyms": ["SF82-Bothered by Emotional Problems"]}, {"conceptId": "C177813", "definition": "The Short Form 8 Health Survey Acute, US Version 1.0 - During the past week, how much difficulty did you have doing your daily work, both at home and away from home, because of your physical health?", "preferredTerm": "SF8 v1.0 Acute - Difficulty Doing Daily Work", "submissionValue": "SF82-Difficulty Doing Daily Work", "synonyms": ["SF82-Difficulty Doing Daily Work"]}, {"conceptId": "C177818", "definition": "The Short Form 8 Health Survey Acute, US Version 1.0 - During the past week, how much did personal or emotional problems keep you from doing your usual work, school or other daily activities?", "preferredTerm": "SF8 v1.0 Acute - Emotional Problems Keep From Work", "submissionValue": "SF82-Emotional Problems Keep From Work", "synonyms": ["SF82-Emotional Problems Keep From Work"]}, {"conceptId": "C177814", "definition": "The Short Form 8 Health Survey Acute, US Version 1.0 - How much bodily pain have you had during the past week?", "preferredTerm": "SF8 v1.0 Acute - How Much Bodily Pain Have You Had", "submissionValue": "SF82-How Much Bodily Pain Have You Had", "synonyms": ["SF82-How Much Bodily Pain Have You Had"]}, {"conceptId": "C177815", "definition": "The Short Form 8 Health Survey Acute, US Version 1.0 - During the past week, how much energy did you have?", "preferredTerm": "SF8 v1.0 Acute - How Much Energy Did You Have", "submissionValue": "SF82-How Much Energy Did You Have", "synonyms": ["SF82-How Much Energy Did You Have"]}, {"conceptId": "C177812", "definition": "The Short Form 8 Health Survey Acute, US Version 1.0 - During the past week, how much did physical health problems limit your usual physical activities (walking, climbing stairs)?", "preferredTerm": "SF8 v1.0 Acute - How Much Limit Physical Activities", "submissionValue": "SF82-How Much Limit Physical Activities", "synonyms": ["SF82-How Much Limit Physical Activities"]}, {"conceptId": "C177811", "definition": "The Short Form 8 Health Survey Acute, US Version 1.0 - Overall, how would you rate your health during the past week?", "preferredTerm": "SF8 v1.0 Acute - Overall How You Rate Your Health", "submissionValue": "SF82-Overall How You Rate Your Health", "synonyms": ["SF82-Overall How You Rate Your Health"]}, {"conceptId": "C177816", "definition": "The Short Form 8 Health Survey Acute, US Version 1.0 - During the past week, how much did your physical health or emotional problems limit your usual social activities with family or friends?", "preferredTerm": "SF8 v1.0 Acute - Physical, Emotional Limit Activities", "submissionValue": "SF82-Physical/Emotional Limit Activities", "synonyms": ["SF82-Physical/Emotional Limit Activities"]}]}