{"_links": {"parentPackage": {"href": "/mdr/ct/packages/sdtmct-2021-03-26", "title": "SDTM Controlled Terminology Package 45 Effective 2021-03-26", "type": "Terminology"}, "rootItem": {"href": "/mdr/root/ct/sdtmct/codelists/C177720", "title": "Version-agnostic anchor resource for codelist C177720", "type": "Root Value Domain"}, "self": {"href": "/mdr/ct/packages/sdtmct-2021-03-26/codelists/C177720", "title": "CDISC Questionnaire SF12 v2.0 Standard Test Code Terminology", "type": "Code List"}}, "conceptId": "C177720", "definition": "Short Form 12 Health Survey Standard, US Version 2.0 test code.", "extensible": "false", "name": "Short Form 12 Health Survey Standard, US Version 2.0 Questionnaire Test Code", "preferredTerm": "CDISC Questionnaire SF12 v2.0 Standard Test Code Terminology", "submissionValue": "SF123TC", "synonyms": ["Short Form 12 Health Survey Standard, US Version 2.0 Questionnaire Test Code"], "terms": [{"conceptId": "C177883", "definition": "The Short Form 12 Health Survey Standard, US Version 2.0 - In general, would you say your health is.", "preferredTerm": "SF12 v2.0 Standard - In General You Say Your Health Is", "submissionValue": "SF12301", "synonyms": ["SF123-In General You Say Your Health Is"]}, {"conceptId": "C177884", "definition": "The Short Form 12 Health Survey Standard, US Version 2.0 - How much does your health now limit you in - moderate activities, such as moving a table, pushing a vacuum cleaner, bowling, or playing golf.", "preferredTerm": "SF12 v2.0 Standard - Limit Moderate Activities", "submissionValue": "SF12302A", "synonyms": ["SF123-Limit Moderate Activities"]}, {"conceptId": "C177885", "definition": "The Short Form 12 Health Survey Standard, US Version 2.0 - How much does your health now limit you in - climbing several flights of stairs.", "preferredTerm": "SF12 v2.0 Standard - Limit Climbing Several Flights", "submissionValue": "SF12302B", "synonyms": ["SF123-Limit Climbing Several Flights"]}, {"conceptId": "C177886", "definition": "The Short Form 12 Health Survey Standard, US Version 2.0 - During the past 4 weeks, how much of the time have you had any of the following problems with your work or other regular daily activities as a result of your physical health - accomplished less than you would like.", "preferredTerm": "SF12 v2.0 Standard - Physical: Accomplished Less", "submissionValue": "SF12303A", "synonyms": ["SF123-Physical: Accomplished Less"]}, {"conceptId": "C177887", "definition": "The Short Form 12 Health Survey Standard, US Version 2.0 - During the past 4 weeks, how much of the time have you had any of the following problems with your work or other regular daily activities as a result of your physical health - were limited in the kind of work or other activities.", "preferredTerm": "SF12 v2.0 Standard - Physical: Limited Kind of Work", "submissionValue": "SF12303B", "synonyms": ["SF123-Physical: Limited Kind of Work"]}, {"conceptId": "C177888", "definition": "The Short Form 12 Health Survey Standard, US Version 2.0 - During the past 4 weeks, how much of the time have you had any of the following problems with your work or other regular daily activities as a result of any emotional problems (such as feeling depressed or anxious) - accomplished less than you would like.", "preferredTerm": "SF12 v2.0 Standard - Emotional: Accomplished Less", "submissionValue": "SF12304A", "synonyms": ["SF123-Emotional: Accomplished Less"]}, {"conceptId": "C177889", "definition": "The Short Form 12 Health Survey Standard, US Version 2.0 - During the past 4 weeks, how much of the time have you had any of the following problems with your work or other regular daily activities as a result of any emotional problems (such as feeling depressed or anxious) - did work or other activities less carefully than usual.", "preferredTerm": "SF12 v2.0 Standard - Emotional: Did Work Less Carefully", "submissionValue": "SF12304B", "synonyms": ["SF123-Emotional: Did Work Less Carefully"]}, {"conceptId": "C177890", "definition": "The Short Form 12 Health Survey Standard, US Version 2.0 - During the past 4 weeks, how much did pain interfere with your normal work (including both work outside the home and housework)?", "preferredTerm": "SF12 v2.0 Standard - Pain Interfere With Normal Work", "submissionValue": "SF12305", "synonyms": ["SF123-Pain Interfere With Normal Work"]}, {"conceptId": "C177891", "definition": "The Short Form 12 Health Survey Standard, US Version 2.0 - Please give the one answer that comes closest to the way you have been feeling. How much of the time during the past 4 weeks - have you felt calm and peaceful?", "preferredTerm": "SF12 v2.0 Standard - Have You Felt Calm and Peaceful", "submissionValue": "SF12306A", "synonyms": ["SF123-Have You Felt Calm and Peaceful"]}, {"conceptId": "C177892", "definition": "The Short Form 12 Health Survey Standard, US Version 2.0 - Please give the one answer that comes closest to the way you have been feeling. How much of the time during the past 4 weeks - did you have a lot of energy?", "preferredTerm": "SF12 v2.0 Standard - Did You Have a Lot of Energy", "submissionValue": "SF12306B", "synonyms": ["SF123-Did You Have a Lot of Energy"]}, {"conceptId": "C177893", "definition": "The Short Form 12 Health Survey Standard, US Version 2.0 - Please give the one answer that comes closest to the way you have been feeling. How much of the time during the past 4 weeks - have you felt downhearted and depressed?", "preferredTerm": "SF12 v2.0 Standard - You Felt Downhearted and Depressed", "submissionValue": "SF12306C", "synonyms": ["SF123-You Felt Downhearted and Depressed"]}, {"conceptId": "C177894", "definition": "The Short Form 12 Health Survey Standard, US Version 2.0 - During the past 4 weeks, how much of the time has your physical health or emotional problems interfered with your social activities (like visiting friends, relatives, etc.)?", "preferredTerm": "SF12 v2.0 Standard - Time Physical Health, Emotional Interfered", "submissionValue": "SF12307", "synonyms": ["SF123-Time Phys/Emotional Interfered"]}]}