{"_links": {"parentPackage": {"href": "/mdr/ct/packages/sdtmct-2021-03-26", "title": "SDTM Controlled Terminology Package 45 Effective 2021-03-26", "type": "Terminology"}, "rootItem": {"href": "/mdr/root/ct/sdtmct/codelists/C177707", "title": "Version-agnostic anchor resource for codelist C177707", "type": "Root Value Domain"}, "self": {"href": "/mdr/ct/packages/sdtmct-2021-03-26/codelists/C177707", "title": "CDISC Questionnaire SF8 v1.0 Standard Test Name Terminology", "type": "Code List"}}, "conceptId": "C177707", "definition": "Short Form 8 Health Survey Standard, US Version 1.0 test name.", "extensible": "false", "name": "Short Form 8 Health Survey Standard, US Version 1.0 Questionnaire Test Name", "preferredTerm": "CDISC Questionnaire SF8 v1.0 Standard Test Name Terminology", "submissionValue": "SF81TN", "synonyms": ["Short Form 8 Health Survey Standard, US Version 1.0 Questionnaire Test Name"], "terms": [{"conceptId": "C177825", "definition": "The Short Form 8 Health Survey Standard, US Version 1.0 - During the past 4 weeks, how much have you been bothered by emotional problems (such as feeling anxious, depressed or irritable)?", "preferredTerm": "SF8 v1.0 Standard - Bothered by Emotional Problems", "submissionValue": "SF81-Bothered by Emotional Problems", "synonyms": ["SF81-Bothered by Emotional Problems"]}, {"conceptId": "C177821", "definition": "The Short Form 8 Health Survey Standard, US Version 1.0 - During the past 4 weeks, how much difficulty did you have doing your daily work, both at home and away from home, because of your physical health?", "preferredTerm": "SF8 v1.0 Standard - Difficulty Doing Daily Work", "submissionValue": "SF81-Difficulty Doing Daily Work", "synonyms": ["SF81-Difficulty Doing Daily Work"]}, {"conceptId": "C177826", "definition": "The Short Form 8 Health Survey Standard, US Version 1.0 - During the past 4 weeks, how much did personal or emotional problems keep you from doing your usual work, school or other daily activities?", "preferredTerm": "SF8 v1.0 Standard - Emotional Problems Keep From Work", "submissionValue": "SF81-Emotional Problems Keep From Work", "synonyms": ["SF81-Emotional Problems Keep From Work"]}, {"conceptId": "C177822", "definition": "The Short Form 8 Health Survey Standard, US Version 1.0 - How much bodily pain have you had during the past 4 weeks?", "preferredTerm": "SF8 v1.0 Standard - How Much Bodily Pain You Have Had", "submissionValue": "SF81-How Much Bodily Pain You Have Had", "synonyms": ["SF81-How Much Bodily Pain You Have Had"]}, {"conceptId": "C177823", "definition": "The Short Form 8 Health Survey Standard, US Version 1.0 - During the past 4 weeks, how much energy did you have?", "preferredTerm": "SF8 v1.0 Standard - How Much Energy Did You Have", "submissionValue": "SF81-How Much Energy Did You Have", "synonyms": ["SF81-How Much Energy Did You Have"]}, {"conceptId": "C177820", "definition": "The Short Form 8 Health Survey Standard, US Version 1.0 - During the past 4 weeks, how much did physical health problems limit your usual physical activities (walking, climbing stairs)?.", "preferredTerm": "SF8 v1.0 Standard - How Much Limit Physical Activities", "submissionValue": "SF81-How Much Limit Physical Activities", "synonyms": ["SF81-How Much Limit Physical Activities"]}, {"conceptId": "C177819", "definition": "The Short Form 8 Health Survey Standard, US Version 1.0 - Overall, how would you rate your health during the past 4 weeks?", "preferredTerm": "SF8 v1.0 Standard - Overall How You Rate Your Health", "submissionValue": "SF81-Overall How You Rate Your Health", "synonyms": ["SF81-Overall How You Rate Your Health"]}, {"conceptId": "C177824", "definition": "The Short Form 8 Health Survey Standard, US Version 1.0 - During the past 4 weeks, how much did your physical health or emotional problems limit your usual social activities with family or friends?", "preferredTerm": "SF8 v1.0 Standard - Physical, Emotional Limit Activities", "submissionValue": "SF81-Physical/Emotional Limit Activities", "synonyms": ["SF81-Physical/Emotional Limit Activities"]}]}