{"_links": {"parentPackage": {"href": "/mdr/ct/packages/sdtmct-2021-03-26", "title": "SDTM Controlled Terminology Package 45 Effective 2021-03-26", "type": "Terminology"}, "rootItem": {"href": "/mdr/root/ct/sdtmct/codelists/C177908", "title": "Version-agnostic anchor resource for codelist C177908", "type": "Root Value Domain"}, "self": {"href": "/mdr/ct/packages/sdtmct-2021-03-26/codelists/C177908", "title": "CDISC SDTM Collected Summarized Value Type Response Terminology", "type": "Code List"}}, "conceptId": "C177908", "definition": "A terminology codelist relevant to the summary type for the source collected result or dose value.", "extensible": "true", "name": "Collected Summarized Value Type Response", "preferredTerm": "CDISC SDTM Collected Summarized Value Type Response Terminology", "submissionValue": "COLSTYP", "synonyms": ["Collected Summarized Value Type Response"], "terms": [{"conceptId": "C53319", "definition": "The sum of the values of all observations or data points divided by the number of observations; an arithmetical average. (CDISC Glossary)", "preferredTerm": "Mean", "submissionValue": "MEAN"}]}