{"_links": {"parentPackage": {"href": "/mdr/ct/packages/sdtmct-2021-03-26", "title": "SDTM Controlled Terminology Package 45 Effective 2021-03-26", "type": "Terminology"}, "rootItem": {"href": "/mdr/root/ct/sdtmct/codelists/C177718", "title": "Version-agnostic anchor resource for codelist C177718", "type": "Root Value Domain"}, "self": {"href": "/mdr/ct/packages/sdtmct-2021-03-26/codelists/C177718", "title": "CDISC Questionnaire SF12 v2.0 Acute Test Code Terminology", "type": "Code List"}}, "conceptId": "C177718", "definition": "Short Form 12 Health Survey Acute, US Version 2.0 test code.", "extensible": "false", "name": "Short Form 12 Health Survey Acute, US Version 2.0 Questionnaire Test Code", "preferredTerm": "CDISC Questionnaire SF12 v2.0 Acute Test Code Terminology", "submissionValue": "SF124TC", "synonyms": ["Short Form 12 Health Survey Acute, US Version 2.0 Questionnaire Test Code"], "terms": [{"conceptId": "C177871", "definition": "The Short Form 12 Health Survey Acute, US Version 2.0 - In general, would you say your health is.", "preferredTerm": "SF12 v2.0 Acute - In General You Say Your Health Is", "submissionValue": "SF12401", "synonyms": ["SF124-In General You Say Your Health Is"]}, {"conceptId": "C177872", "definition": "The Short Form 12 Health Survey Acute, US Version 2.0 - The following questions are about activities you might do during a typical day. Does your health now limit you in these activities?", "preferredTerm": "SF12 v2.0 Acute - Limit Moderate Activities", "submissionValue": "SF12402A", "synonyms": ["SF124-Limit Moderate Activities"]}, {"conceptId": "C177873", "definition": "The Short Form 12 Health Survey Acute, US Version 2.0 - How much does your health now limit you in - climbing several flights of stairs.", "preferredTerm": "SF12 v2.0 Acute - Limit Climbing Several Flights", "submissionValue": "SF12402B", "synonyms": ["SF124-Limit Climbing Several Flights"]}, {"conceptId": "C177874", "definition": "The Short Form 12 Health Survey Acute, US Version 2.0 - During the past week, how much of the time have you had any of the following problems with your work or other regular daily activities as a result of your physical health - accomplished less than you would like.", "preferredTerm": "SF12 v2.0 Acute - Physical: Accomplished Less", "submissionValue": "SF12403A", "synonyms": ["SF124-Physical: Accomplished Less"]}, {"conceptId": "C177875", "definition": "The Short Form 12 Health Survey Acute, US Version 2.0 - During the past week, how much of the time have you had any of the following problems with your work or other regular daily activities as a result of your physical health - were limited in the kind of work or other activities.", "preferredTerm": "SF12 v2.0 Acute - Physical: Limited Kind of Work", "submissionValue": "SF12403B", "synonyms": ["SF124-Physical: Limited Kind of Work"]}, {"conceptId": "C177876", "definition": "The Short Form 12 Health Survey Acute, US Version 2.0 - During the past week, how much of the time have you had any of the following problems with your work or other regular daily activities as a result of any emotional problems (such as feeling depressed or anxious) - accomplished less than you would like.", "preferredTerm": "SF12 v2.0 Acute - Emotional: Accomplished Less", "submissionValue": "SF12404A", "synonyms": ["SF124-Emotional: Accomplished Less"]}, {"conceptId": "C177877", "definition": "The Short Form 12 Health Survey Acute, US Version 2.0 - During the past week, how much of the time have you had any of the following problems with your work or other regular daily activities as a result of any emotional problems (such as feeling depressed or anxious) - did work or other activities less carefully than usual.", "preferredTerm": "SF12 v2.0 Acute - Emotional: Did Work Less Carefully", "submissionValue": "SF12404B", "synonyms": ["SF124-Emotional: Did Work Less Carefully"]}, {"conceptId": "C177878", "definition": "The Short Form 12 Health Survey Acute, US Version 2.0 - During the past week, how much did pain interfere with your normal work (including both work outside the home and housework)?", "preferredTerm": "SF12 v2.0 Acute - Pain Interfere With Normal Work", "submissionValue": "SF12405", "synonyms": ["SF124-Pain Interfere With Normal Work"]}, {"conceptId": "C177879", "definition": "The Short Form 12 Health Survey Acute, US Version 2.0 - Please give the one answer that comes closest to the way you have been feeling. How much of the time during the past week - have you felt calm and peaceful?", "preferredTerm": "SF12 v2.0 Acute - Have You Felt Calm and Peaceful", "submissionValue": "SF12406A", "synonyms": ["SF124-Have You Felt Calm and Peaceful"]}, {"conceptId": "C177880", "definition": "The Short Form 12 Health Survey Acute, US Version 2.0 - Please give the one answer that comes closest to the way you have been feeling. How much of the time during the past week - did you have a lot of energy?", "preferredTerm": "SF12 v2.0 Acute - Did You Have a Lot of Energy", "submissionValue": "SF12406B", "synonyms": ["SF124-Did You Have a Lot of Energy"]}, {"conceptId": "C177881", "definition": "The Short Form 12 Health Survey Acute, US Version 2.0 - Please give the one answer that comes closest to the way you have been feeling. How much of the time during the past week - have you felt downhearted and depressed?", "preferredTerm": "SF12 v2.0 Acute - You Felt Downhearted and Depressed", "submissionValue": "SF12406C", "synonyms": ["SF124-You Felt Downhearted and Depressed"]}, {"conceptId": "C177882", "definition": "The Short Form 12 Health Survey Acute, US Version 2.0 - During the past week, how much of the time has your physical health or emotional problems interfered with your social activities (like visiting friends, relatives, etc.)?", "preferredTerm": "SF12 v2.0 Acute - Time Physical Health, Emotional Interfered", "submissionValue": "SF12407", "synonyms": ["SF124-Time Phys/Emotional Interfered"]}]}