{"_links": {"parentPackage": {"href": "/mdr/ct/packages/sdtmct-2021-03-26", "title": "SDTM Controlled Terminology Package 45 Effective 2021-03-26", "type": "Terminology"}, "priorVersion": {"href": "/mdr/ct/packages/sdtmct-2020-12-18/codelists/C66733", "title": "CDISC SDTM Size Terminology", "type": "Code List"}, "rootItem": {"href": "/mdr/root/ct/sdtmct/codelists/C66733", "title": "Version-agnostic anchor resource for codelist C66733", "type": "Root Value Domain"}, "self": {"href": "/mdr/ct/packages/sdtmct-2021-03-26/codelists/C66733", "title": "CDISC SDTM Size Terminology", "type": "Code List"}}, "conceptId": "C66733", "definition": "A terminology codelist relevant to the physical magnitude of something.", "extensible": "true", "name": "Size Response", "preferredTerm": "CDISC SDTM Size Terminology", "submissionValue": "SIZE", "synonyms": ["Size Response"], "terms": [{"conceptId": "C49508", "definition": "Of considerable or relatively great size, extent, or capacity. (NCI)", "preferredTerm": "Large", "submissionValue": "LARGE"}, {"conceptId": "C49507", "definition": "Mid-way between small and large in number, quantity, magnitude or extent. (NCI)", "preferredTerm": "Medium", "submissionValue": "MEDIUM"}, {"conceptId": "C25376", "definition": "Limited in number, quantity, magnitude or extent. (NCI)", "preferredTerm": "Small", "submissionValue": "SMALL"}]}