{"_links": {"parentPackage": {"href": "/mdr/ct/packages/sendct-2017-12-22", "title": "SEND Controlled Terminology Package 32 Effective 2017-12-22", "type": "Terminology"}, "priorVersion": {"href": "/mdr/ct/packages/sendct-2017-09-29/codelists/C89974", "title": "CDISC SEND Microscopic Findings Test Code Terminology", "type": "Code List"}, "rootItem": {"href": "/mdr/root/ct/sendct/codelists/C89974", "title": "Version-agnostic anchor resource for codelist C89974", "type": "Root Value Domain"}, "self": {"href": "/mdr/ct/packages/sendct-2017-12-22/codelists/C89974", "title": "CDISC SEND Microscopic Findings Test Code Terminology", "type": "Code List"}}, "conceptId": "C89974", "definition": "Terminology for the test codes concerned with the non-clinical findings from a specimen that are visible by microscopic analysis.", "extensible": "true", "name": "SEND Microscopic Findings Test Code", "preferredTerm": "CDISC SEND Microscopic Findings Test Code Terminology", "submissionValue": "MITESTCD", "synonyms": ["SEND Microscopic Findings Test Code"], "terms": [{"conceptId": "C90424", "definition": "An assessment by microscope (e.g., light, electron, confocal, etc.).", "preferredTerm": "Microscopic Examination", "submissionValue": "MIEXAM", "synonyms": ["Microscopic Examination"]}]}