{"_links": {"parentPackage": {"href": "/mdr/ct/packages/sendct-2017-06-30", "title": "SEND Controlled Terminology Package 30 Effective 2017-06-30", "type": "Terminology"}, "priorVersion": {"href": "/mdr/ct/packages/sendct-2017-03-31/codelists/C124321", "title": "CDISC SEND Nonclinical DART Trial Phases Terminology", "type": "Code List"}, "rootItem": {"href": "/mdr/root/ct/sendct/codelists/C124321", "title": "Version-agnostic anchor resource for codelist C124321", "type": "Root Value Domain"}, "self": {"href": "/mdr/ct/packages/sendct-2017-06-30/codelists/C124321", "title": "CDISC SEND Nonclinical DART Trial Phases Terminology", "type": "Code List"}}, "conceptId": "C124321", "definition": "Terminology related to intervals of time associated with the defined phases of Developmental and Reproductive Toxicology (DART) studies.", "extensible": "true", "name": "Nonclinical DART Trial Phases", "preferredTerm": "CDISC SEND Nonclinical DART Trial Phases Terminology", "submissionValue": "NCDPHASE", "synonyms": ["Nonclinical DART Trial Phases"], "terms": [{"conceptId": "C124602", "definition": "The protocol defined period of time beginning with evidence of mating observation until cesarean section or delivery.", "preferredTerm": "Non-Clinical Gestation Trial Phase", "submissionValue": "GESTATION"}, {"conceptId": "C124603", "definition": "The protocol defined period of time from the start of cohabitation until evidence of mating is observed or the animals are separated.", "preferredTerm": "Non-Clinical Pairing Trial Phase", "submissionValue": "PAIRING"}, {"conceptId": "C124604", "definition": "The protocol defined period of time in a study that begins immediately after the birth of the subject.", "preferredTerm": "Non-Clinical Postnatal Trial Phase", "submissionValue": "POSTNATAL"}, {"conceptId": "C124605", "definition": "The protocol defined period of time in a study that occurs after the paired subjects are separated. This includes all males and females with no evidence of mating.", "preferredTerm": "Non-Clinical Postpairing Trial Phase", "submissionValue": "POSTPAIRING", "synonyms": ["Post-cohabitation"]}, {"conceptId": "C124606", "definition": "The protocol defined period of time in a study prior to cohabitation.", "preferredTerm": "Non-Clinical Premating Trial Phase", "submissionValue": "PREMATING", "synonyms": ["Pre-pairing"]}]}