{"_links": {"parentPackage": {"href": "/mdr/ct/packages/sendct-2017-06-30", "title": "SEND Controlled Terminology Package 30 Effective 2017-06-30", "type": "Terminology"}, "priorVersion": {"href": "/mdr/ct/packages/sendct-2017-03-31/codelists/C128684", "title": "CDISC SDTM PK Unit of Measure Gram Weight Terminology", "type": "Code List"}, "rootItem": {"href": "/mdr/root/ct/sendct/codelists/C128684", "title": "Version-agnostic anchor resource for codelist C128684", "type": "Root Value Domain"}, "self": {"href": "/mdr/ct/packages/sendct-2017-06-30/codelists/C128684", "title": "CDISC SDTM PK Unit of Measure Gram Weight Terminology", "type": "Code List"}}, "conceptId": "C128684", "definition": "Units of measure for pharmacokinetic data and parameters normalized by weight in grams.", "extensible": "true", "name": "PK Units of Measure - Weight g", "preferredTerm": "CDISC SDTM PK Unit of Measure Gram Weight Terminology", "submissionValue": "PKUWG", "synonyms": ["PK Units of Measure - Weight g"], "terms": [{"conceptId": "C85657", "definition": "Liters per day (flow rate), divided by grams (weight) or milliliters per day (flow rate), divided by milligrams (dose).", "preferredTerm": "Liter per Gram per Day", "submissionValue": "(L/day)/g", "synonyms": ["(L/day)/g", "(mL/day)/mg"]}, {"conceptId": "C85658", "definition": "Liters per hour (flow rate), divided by grams (weight) or milliliters per hour (flow rate), divided by milligrams (dose).", "preferredTerm": "Liter per Gram per Hour", "submissionValue": "(L/h)/g", "synonyms": ["(L/h)/g", "(mL/h)/mg"]}, {"conceptId": "C85659", "definition": "Liters per minute (flow rate), divided by grams (weight) or milliliters per minute (flow rate), divided by milligrams (dose).", "preferredTerm": "Liter per Gram per Minute", "submissionValue": "(L/min)/g", "synonyms": ["(L/min)/g", "(mL/min)/mg"]}, {"conceptId": "C73755", "definition": "Milliliters per gram per day or liters per day (flow rate), divided by kilograms (weight) or milliliters per day (flow rate), divided by grams (weight).", "preferredTerm": "Milliliter per Gram per Day", "submissionValue": "(mL/day)/g", "synonyms": ["(L/day)/kg", "(mL/day)/g", "mL/g/day"]}, {"conceptId": "C73756", "definition": "Milliliters per gram per hour or liters per hour (flow rate), divided by kilograms (weight) or milliliters per hour (flow rate), divided by grams (weight).", "preferredTerm": "Milliliter per Gram per Hour", "submissionValue": "(mL/h)/g", "synonyms": ["(L/h)/kg", "(mL/h)/g", "mL/g/h"]}, {"conceptId": "C73757", "definition": "Milliliters per gram per minute or liters per minute (flow rate), divided by kilograms (weight) or milliliters per minute (flow rate), divided by grams (weight).", "preferredTerm": "Milliliter per Gram per Minute", "submissionValue": "(mL/min)/g", "synonyms": ["(L/min)/kg", "(mL/min)/g", "mL/g/min"]}, {"conceptId": "C119377", "definition": "International units per milliliter (concentration), divided by grams (weight) or milli-international units per milliliter (concentration), divided by milligrams (dose) or micro-international units per milliliter (concentration), divided by micrograms (dose).", "preferredTerm": "International Unit per Milliliter per Gram", "submissionValue": "IU/mL/g", "synonyms": ["IU/mL/g", "mIU/mL/mg", "uIU/mL/ug"]}, {"conceptId": "C42577", "definition": "Liters (volume), divided by grams (weight) or milliliters (volume), divided by milligrams (dose).", "preferredTerm": "Cubic Meter per Kilogram", "submissionValue": "L/g"}, {"conceptId": "C112244", "definition": "Days times picograms per milliliter (area under the curve), divided by kilograms (weight) or days times femtograms per milliliter (area under the curve), divided by grams (weight).", "preferredTerm": "Day Times Femtogram Per Milliliter Per Gram", "submissionValue": "day*fg/mL/g", "synonyms": ["day*fg/mL/g", "day*pg/mL/kg"]}, {"conceptId": "C112246", "definition": "Days times grams per milliliter (area under the curve), divided by grams (weight).", "preferredTerm": "Day Times Gram Per Milliliter Per Gram", "submissionValue": "day*g/mL/g"}, {"conceptId": "C112247", "definition": "Days times grams per milliliter (area under the curve), divided by kilograms (weight); or days times milligrams per milliliter (area under the curve), divided by grams (weight); or days times micrograms per milliliter (area under the curve), divided by milligrams (dose); or days times nanograms per milliliter (area under the curve), divided by micrograms (dose).", "preferredTerm": "Day Times Gram Per Milliliter Per Kilogram", "submissionValue": "day*mg/mL/g", "synonyms": ["day*g/mL/kg", "day*mg/mL/g", "day*ng/mL/ug", "day*ug/mL/mg"]}, {"conceptId": "C112254", "definition": "Days times moles per liter (area under the curve), divided by kilograms (weight) or days times millimoles per liter (area under the curve), divided by grams (weight).", "preferredTerm": "Day Times Millimole Per Liter Per Gram", "submissionValue": "day*mmol/L/g", "synonyms": ["day*mmol/L/g", "day*mol/L/kg"]}, {"conceptId": "C112256", "definition": "Days times moles per liter (area under the curve), divided by grams (weight).", "preferredTerm": "Day Times Mole Per Liter Per Gram", "submissionValue": "day*mol/L/g"}, {"conceptId": "C112249", "definition": "Days times micrograms per milliliter (area under the curve), divided by kilograms (weight) or days times nanograms per milliliter (area under the curve), divided by grams (weight).", "preferredTerm": "Day Times Microgram Per Milliliter Per Kilogram", "submissionValue": "day*ng/mL/g", "synonyms": ["day*ng/mL/g", "day*ug/mL/kg"]}, {"conceptId": "C112251", "definition": "Days times micromoles per liter (area under the curve), divided by kilograms (weight) or days times nanomoles per liter (area under the curve), divided by grams (weight).", "preferredTerm": "Day Times Micromole Per Liter Per Kilogram", "submissionValue": "day*nmol/L/g", "synonyms": ["day*nmol/L/g", "day*umol/L/kg"]}, {"conceptId": "C112259", "definition": "Days times nanograms per milliliter (area under the curve), divided by kilograms (weight) or days times picograms per milliliter (area under the curve), divided by grams (weight).", "preferredTerm": "Day Times Nanogram Per Milliliter Per Kilogram", "submissionValue": "day*pg/mL/g", "synonyms": ["day*ng/mL/kg", "day*pg/mL/g"]}, {"conceptId": "C112261", "definition": "Days times nanomoles per liter (area under the curve), divided by kilograms (weight) or days times picomoles per liter (area under the curve), divided by grams (weight).", "preferredTerm": "Day Times Nanomole Per Liter Per Kilogram", "submissionValue": "day*pmol/L/g", "synonyms": ["day*nmol/L/kg", "day*pmol/L/g"]}, {"conceptId": "C112248", "definition": "Days times milligrams per milliliter (area under the curve), divided by kilograms (weight) or days times micrograms per milliliter (area under the curve), divided by grams (weight).", "preferredTerm": "Day Times Microgram Per Milliliter Per Gram", "submissionValue": "day*ug/mL/g", "synonyms": ["day*mg/mL/kg", "day*ug/mL/g"]}, {"conceptId": "C112250", "definition": "Days times millimoles per liter (area under the curve), divided by kilograms (weight) or days times micromoles per liter (area under the curve), divided by grams (weight).", "preferredTerm": "Day Times Micromole Per Liter Per Gram", "submissionValue": "day*umol/L/g", "synonyms": ["day*mmol/L/kg", "day*umol/L/g"]}, {"conceptId": "C119347", "definition": "Picograms per milliliter (concentration), divided by kilograms (weight) or femtograms per milliliter (concentration), divided by grams (weight).", "preferredTerm": "Femtogram per Milliliter per Gram", "submissionValue": "fg/mL/g", "synonyms": ["fg/mL/g", "pg/mL/kg"]}, {"conceptId": "C119361", "definition": "Grams per milliliter (concentration), divided by grams (weight) or milligrams per milliliter (concentration), divided by milligrams (dose) or micrograms per milliliter (concentration), divided by micrograms (dose).", "preferredTerm": "Gram per Milliliter per Gram", "submissionValue": "g/mL/g", "synonyms": ["g/mL/g", "mg/mL/mg", "ug/mL/ug"]}, {"conceptId": "C85636", "definition": "Hours times picograms per milliliter (area under the curve), divided by kilograms (weight) or hours times femtograms per milliliter (area under the curve), divided by grams (weight).", "preferredTerm": "Hour Times Picogram per Milliliter per Kilogram", "submissionValue": "h*fg/mL/g", "synonyms": ["h*fg/mL/g", "h*pg/mL/kg"]}, {"conceptId": "C112300", "definition": "Hours times grams per milliliter (area under the curve), divided by grams (weight).", "preferredTerm": "Hour Times Gram Per Milliliter Per Gram", "submissionValue": "h*g/mL/g"}, {"conceptId": "C85617", "definition": "Hours times grams per milliliter (area under the curve), divided by kilograms (weight) or hours times milligrams per milliliter (area under the curve), divided by grams (weight) or hours times micrograms per milliliter (area under the curve), divided by milligrams (dose).", "preferredTerm": "Hour Times Microgram per Milliliter per Milligram", "submissionValue": "h*mg/mL/g", "synonyms": ["h*g/mL/kg", "h*mg/mL/g", "h*ug/mL/mg"]}, {"conceptId": "C106530", "definition": "Hours times moles per liter (area under the curve), divided by kilograms (weight) or hours times millimoles per liter (area under the curve), divided by grams (weight).", "preferredTerm": "Hour times Millimole Per Liter Per Gram", "submissionValue": "h*mmol/L/g", "synonyms": ["h*mmol/L/g", "h*mol/L/kg"]}, {"conceptId": "C106531", "definition": "Hours times millimoles per liter (area under the curve), divided by kilograms (weight); or hours times micromoles per liter (area under the curve), divided by grams (weight); or hours times nanomoles per liter (area under the curve), divided by milligrams (dose); or hours times picomoles per liter (area under the curve), divided by micrograms (dose).", "preferredTerm": "Hour times Mole Per Liter Per Gram", "submissionValue": "h*mol/L/g", "synonyms": ["h*mmol/L/mg", "h*mol/L/g", "h*umol/L/ug"]}, {"conceptId": "C85625", "definition": "Hours times micrograms per milliliter (area under the curve), divided by kilograms (weight) or hours times nanograms per milliliter (area under the curve), divided by grams (weight) or hours times picograms per milliliter (area under the curve), divided by milligrams (dose).", "preferredTerm": "Hour Times Nanogram per Milliliter per Gram", "submissionValue": "h*ng/mL/g", "synonyms": ["h*ng/mL/g", "h*pg/mL/mg", "h*ug/mL/kg"]}, {"conceptId": "C112304", "definition": "Hours times micromoles per liter (area under the curve), divided by kilograms (weight) or hours times nanomoles per liter (area under the curve), divided by grams (weight).", "preferredTerm": "Hour Times Micromole Per Liter Per Kilogram", "submissionValue": "h*nmol/L/g", "synonyms": ["h*nmol/L/g", "h*umol/L/kg"]}, {"conceptId": "C85626", "definition": "Hours times nanograms per milliliter (area under the curve), divided by kilograms (weight) or hours times picograms per milliliter (area under the curve), divided by grams (weight).", "preferredTerm": "Hour Times Nanogram per Milliliter per Kilogram", "submissionValue": "h*pg/mL/g", "synonyms": ["h*ng/mL/kg", "h*pg/mL/g"]}, {"conceptId": "C106532", "definition": "Hours times nanomoles per liter (area under the curve), divided by kilograms (weight) or hours times picomoles per liter (area under the curve), divided by grams (weight).", "preferredTerm": "Hour times Picomole Per Liter Per Gram", "submissionValue": "h*pmol/L/g", "synonyms": ["h*nmol/L/kg", "h*pmol/L/g"]}, {"conceptId": "C85627", "definition": "Hours times milligrams per milliliter (area under the curve), divided by kilograms (weight) or hours times micrograms per milliliter (area under the curve), divided by grams (weight) or hours times nanograms per milliliter (area under the curve), divided by milligrams (dose).", "preferredTerm": "Hour Times Nanogram per Milliliter per Milligram", "submissionValue": "h*ug/mL/g", "synonyms": ["h*mg/mL/kg", "h*ng/mL/mg", "h*ug/mL/g"]}, {"conceptId": "C112307", "definition": "Hours times millimoles per liter (area under the curve), divided by kilograms (weight); or hours times micromoles per liter (area under the curve), divided by grams (weight); or hours times nanomoles per liter (area under the curve), divided by milligrams (dose); or hours times picomoles per liter (area under the curve), divided by micrograms (dose).", "preferredTerm": "Hour Times Millimole Per Liter Per Kilogram", "submissionValue": "h*umol/L/g", "synonyms": ["h*mmol/L/kg", "h*nmol/L/mg", "h*pmol/L/ug", "h*umol/L/g"]}, {"conceptId": "C119378", "definition": "International units per milliliter (concentration), divided by kilograms (weight) or milli-international units per milliliter (concentration), divided by grams (weight) or micro-international units per milliliter (concentration), divided by milligrams (dose).", "preferredTerm": "International Unit per Milliliter per Kilogram", "submissionValue": "mIU/mL/g", "synonyms": ["IU/mL/kg", "mIU/mL/g", "uIU/mL/mg"]}, {"conceptId": "C73725", "definition": "Liters (volume) divided by kilograms (weight) or milliliters (volume), divided by grams (weight).", "preferredTerm": "Liter per Kilogram", "submissionValue": "mL/g", "synonyms": ["L/kg", "mL/g"]}, {"conceptId": "C85710", "definition": "Grams per milliliter (concentration), divided by kilograms (weight) or milligrams per milliliter (concentration), divided by grams (weight) or micrograms per milliliter (concentration), divided by milligrams (dose) or nanograms per milliliter (concentration), divided by micrograms (dose).", "preferredTerm": "Milligram per Liter per Milligram", "submissionValue": "mg/mL/g", "synonyms": ["g/mL/kg", "mg/mL/g", "ng/mL/ug", "ug/mL/mg"]}, {"conceptId": "C112334", "definition": "Minutes times picograms per milliliter (area under the curve), divided by kilograms (weight) or minutes times femtograms per milliliter (area under the curve), divided by grams (weight).", "preferredTerm": "Minute Times Femtogram Per Milliliter Per Gram", "submissionValue": "min*fg/mL/g", "synonyms": ["min*fg/mL/g", "min*pg/mL/kg"]}, {"conceptId": "C112336", "definition": "Minutes times grams per milliliter (area under the curve), divided by grams (weight).", "preferredTerm": "Minute Times Gram Per Milliliter Per Gram", "submissionValue": "min*g/mL/g"}, {"conceptId": "C112337", "definition": "Minutes times grams per milliliter (area under the curve), divided by kilograms (weight) or minutes times milligrams per milliliter (area under the curve), divided by grams (weight).", "preferredTerm": "Minute Times Gram Per Milliliter Per Kilogram", "submissionValue": "min*mg/mL/g", "synonyms": ["min*g/mL/kg", "min*mg/mL/g"]}, {"conceptId": "C112344", "definition": "Minutes times moles per liter (area under the curve), divided by kilograms (weight) or minutes times millimoles per liter (area under the curve), divided by grams (weight).", "preferredTerm": "Minute Times Millimole Per Liter Per Gram", "submissionValue": "min*mmol/L/g", "synonyms": ["min*mmol/L/g", "min*mol/L/kg"]}, {"conceptId": "C112346", "definition": "Minutes times moles per liter (area under the curve), divided by grams (weight).", "preferredTerm": "Minute Times Mole Per Liter Per Gram", "submissionValue": "min*mol/L/g"}, {"conceptId": "C112339", "definition": "Minutes times micrograms per milliliter (area under the curve), divided by kilograms (weight) or minutes times nanograms per milliliter (area under the curve), divided by grams (weight).", "preferredTerm": "Minute Times Microgram Per Milliliter Per Kilogram", "submissionValue": "min*ng/mL/g", "synonyms": ["min*ng/mL/g", "min*ug/mL/kg"]}, {"conceptId": "C112341", "definition": "Minutes times micromoles per liter (area under the curve), divided by kilograms (weight) or minutes times nanomoles per liter (area under the curve), divided by grams (weight).", "preferredTerm": "Minute Times Micromole Per Liter Per Kilogram", "submissionValue": "min*nmol/L/g", "synonyms": ["min*nmol/L/g", "min*umol/L/kg"]}, {"conceptId": "C112349", "definition": "Minutes times nanograms per milliliter (area under the curve), divided by kilograms (weight) or minutes times picograms per milliliter (area under the curve), divided by grams (weight).", "preferredTerm": "Minute Times Nanogram Per Milliliter Per Kilogram", "submissionValue": "min*pg/mL/g", "synonyms": ["min*ng/mL/kg", "min*pg/mL/g"]}, {"conceptId": "C112351", "definition": "Minutes times nanomoles per liter (area under the curve), divided by kilograms (weight) or minutes times picomoles per liter (area under the curve), divided by grams (weight).", "preferredTerm": "Minute Times Nanomole Per Liter Per Kilogram", "submissionValue": "min*pmol/L/g", "synonyms": ["min*nmol/L/kg", "min*pmol/L/g"]}, {"conceptId": "C112338", "definition": "Minutes times milligrams per milliliter (area under the curve), divided by kilograms (weight) or minutes times micrograms per milliliter (area under the curve), divided by grams (weight).", "preferredTerm": "Minute Times Microgram Per Milliliter Per Gram", "submissionValue": "min*ug/mL/g", "synonyms": ["min*mg/mL/kg", "min*ug/mL/g"]}, {"conceptId": "C112340", "definition": "Minutes times millimoles per liter (area under the curve), divided by kilograms (weight) or minutes times micromoles per liter (area under the curve), divided by grams (weight).", "preferredTerm": "Minute Times Micromole Per Liter Per Gram", "submissionValue": "min*umol/L/g", "synonyms": ["min*mmol/L/kg", "min*umol/L/g"]}, {"conceptId": "C119423", "definition": "Moles per liter (concentration), divided by kilograms (weight) or millimoles per liter (concentration), divided by grams (weight) or micromoles per liter (concentration), divided by milligrams (dose) or nanomoles per liter (concentration), divided by micrograms (dose).", "preferredTerm": "Millimole per Liter per Gram", "submissionValue": "mmol/L/g", "synonyms": ["mmol/L/g", "mol/L/kg", "nmol/L/ug", "umol/L/mg"]}, {"conceptId": "C119426", "definition": "Moles per liter (concentration), divided by grams (weight) or millimoles per liter (concentration), divided by milligrams (dose) or micromoles per liter (concentration), divided by micrograms (dose).", "preferredTerm": "Millimole per Liter per Milligram", "submissionValue": "mol/L/g", "synonyms": ["mmol/L/mg", "mol/L/g", "umol/L/ug"]}, {"conceptId": "C119351", "definition": "Micrograms per milliliter (concentration), divided by kilograms (weight) or nanograms per milliliter (concentration), divided by grams (weight) or picograms per milliliter (concentration), divided by milligrams (dose) or femtograms per milliliter (concentration), divided by micrograms (dose).", "preferredTerm": "Femtogram per Milliliter per Microgram", "submissionValue": "ng/mL/g", "synonyms": ["fg/mL/ug", "ng/mL/g", "pg/mL/mg", "ug/mL/kg"]}, {"conceptId": "C119467", "definition": "Micromoles per liter (concentration), divided by kilograms (weight) or nanomoles per liter (concentration), divided by grams (weight) or picomoles per liter (concentration), divided by milligrams (dose).", "preferredTerm": "Nanomole per Liter per Gram", "submissionValue": "nmol/L/g", "synonyms": ["nmol/L/g", "pmol/L/mg", "umol/L/kg"]}, {"conceptId": "C85752", "definition": "Nanomoles per gram.", "preferredTerm": "Nanomole per Gram", "submissionValue": "nmol/g", "synonyms": ["nmol/g", "pmol/mg", "umol/kg"]}, {"conceptId": "C85746", "definition": "Nanograms per milliliter (concentration), divided by kilograms (weight) or picograms per milliliter (concentration), divided by grams (weight) or femtograms per milliliter (concentration), divided by milligrams (dose).", "preferredTerm": "Nanogram per Milliliter per Kilogram", "submissionValue": "pg/mL/g", "synonyms": ["fg/mL/mg", "ng/mL/kg", "pg/mL/g"]}, {"conceptId": "C119468", "definition": "Nanomoles per liter (concentration), divided by kilograms (weight) or picomoles per liter (concentration), divided by grams (weight).", "preferredTerm": "Nanomole per Liter per Kilogram", "submissionValue": "pmol/L/g", "synonyms": ["nmol/L/kg", "pmol/L/g"]}, {"conceptId": "C119408", "definition": "Milli-international units per milliliter (concentration), divided by kilograms (weight) or micro-international units per milliliter (concentration), divided by grams (weight).", "preferredTerm": "Milli-International Unit per Milliliter per Kilogram", "submissionValue": "uIU/mL/g", "synonyms": ["mIU/mL/kg", "uIU/mL/g"]}, {"conceptId": "C85747", "definition": "Milligrams per milliliter (concentration), divided by kilograms (weight) or micrograms per milliliter (concentration), divided by grams (weight) or nanograms per milliliter (concentration), divided by milligrams (dose) or picograms per milliliter (concentration), divided by micrograms (dose).", "preferredTerm": "Nanogram per Milliliter per Milligram", "submissionValue": "ug/mL/g", "synonyms": ["mg/mL/kg", "ng/mL/mg", "pg/mL/ug", "ug/mL/g"]}, {"conceptId": "C85784", "definition": "Millimoles per liter (concentration), divided by kilograms (weight) or micromoles per liter (concentration), divided by grams (weight) or nanomoles per liter (concentration), divided by milligrams (dose) or picomoles per liter (concentration), divided by micrograms (dose).", "preferredTerm": "Picomole per Liter per Microgram", "submissionValue": "umol/L/g", "synonyms": ["mmol/L/kg", "nmol/L/mg", "pmol/L/ug", "umol/L/g"]}]}