{"_links": {"parentPackage": {"href": "/mdr/ct/packages/sendct-2017-06-30", "title": "SEND Controlled Terminology Package 30 Effective 2017-06-30", "type": "Terminology"}, "priorVersion": {"href": "/mdr/ct/packages/sendct-2017-03-31/codelists/C85494", "title": "CDISC SDTM Pharmacokinetic Parameter Unit of Measure Terminology", "type": "Code List"}, "rootItem": {"href": "/mdr/root/ct/sendct/codelists/C85494", "title": "Version-agnostic anchor resource for codelist C85494", "type": "Root Value Domain"}, "self": {"href": "/mdr/ct/packages/sendct-2017-06-30/codelists/C85494", "title": "CDISC SDTM Pharmacokinetic Parameter Unit of Measure Terminology", "type": "Code List"}}, "conceptId": "C85494", "definition": "Units of measure for pharmacokinetic data and parameters.", "extensible": "true", "name": "PK Units of Measure", "preferredTerm": "CDISC SDTM Pharmacokinetic Parameter Unit of Measure Terminology", "submissionValue": "PKUNIT", "synonyms": ["PK Units of Measure"], "terms": [{"conceptId": "C25613", "definition": "One hundred times the quotient of one quantity divided by another, with the same units of measurement.", "preferredTerm": "Percentage", "submissionValue": "%", "synonyms": ["Percentage"]}, {"conceptId": "C120727", "definition": "Liters per day (flow rate), divided by kilograms per meter squared (body mass index).", "preferredTerm": "Liter per Day per Kilogram per Meter Squared", "submissionValue": "(L/day)/(kg/m2)"}, {"conceptId": "C120738", "definition": "Liters per day (flow rate), divided by meters squared (surface area).", "preferredTerm": "Liter per Day per Meter Squared", "submissionValue": "(L/day)/m2"}, {"conceptId": "C120739", "definition": "Liters per hour (flow rate), divided by kilograms per meter squared (body mass index).", "preferredTerm": "Liter per Hour per Kilogram per Meter Squared", "submissionValue": "(L/h)/(kg/m2)"}, {"conceptId": "C105494", "definition": "Liters per hour (flow rate), divided by meters squared (surface area).", "preferredTerm": "Liter Per Hour Per Square Meter", "submissionValue": "(L/h)/m2", "synonyms": ["(L/h)/m2", "L/h/m2"]}, {"conceptId": "C120750", "definition": "Liters per minute (flow rate), divided by kilograms per meter squared (body mass index).", "preferredTerm": "Liter per Minute per Kilogram per Meter Squared", "submissionValue": "(L/min)/(kg/m2)"}, {"conceptId": "C105496", "definition": "Liters per minute (flow rate), divided by meters squared (surface area).", "preferredTerm": "Liter Per Minute Per Square Meter", "submissionValue": "(L/min)/m2", "synonyms": ["(L/min)/m2", "L/min/m2"]}, {"conceptId": "C120761", "definition": "Milliliters per day (flow rate), divided by kilograms per meter squared (body mass index).", "preferredTerm": "Milliliter per Day per Kilogram per Meter Squared", "submissionValue": "(mL/day)/(kg/m2)"}, {"conceptId": "C120773", "definition": "Milliliters per day (flow rate), divided by meters squared (surface area).", "preferredTerm": "Milliliter per Day per Meter Squared", "submissionValue": "(mL/day)/m2"}, {"conceptId": "C120776", "definition": "Milliliters per hour (flow rate), divided by kilograms per meter squared (body mass index).", "preferredTerm": "Milliliter per Hour per Kilogram per Meter Squared", "submissionValue": "(mL/h)/(kg/m2)"}, {"conceptId": "C120788", "definition": "Milliliters per hour (flow rate), divided by meters squared (surface area).", "preferredTerm": "Milliliter per Hour per Meter Squared", "submissionValue": "(mL/h)/m2"}, {"conceptId": "C120791", "definition": "Milliliters per minute (flow rate), divided by kilograms per meter squared (body mass index).", "preferredTerm": "Milliliter per Minute per Kilogram per Meter Squared", "submissionValue": "(mL/min)/(kg/m2)"}, {"conceptId": "C120803", "definition": "Milliliters per minute (flow rate), divided by meters squared (surface area).", "preferredTerm": "Milliliter per Minute per Meter Squared", "submissionValue": "(mL/min)/m2"}, {"conceptId": "C25473", "definition": "A rate of occurrences within a period of time equal to one day.", "preferredTerm": "Daily", "submissionValue": "/day", "synonyms": ["Daily"]}, {"conceptId": "C66966", "definition": "A rate of occurrences within a period of time equal to one hour.", "preferredTerm": "Per Hour", "submissionValue": "/h", "synonyms": ["Per Hour"]}, {"conceptId": "C66967", "definition": "A rate of occurrences within a period of time equal to one minute.", "preferredTerm": "Per Minute", "submissionValue": "/min"}, {"conceptId": "C85645", "definition": "A unit of substance (biologic activity) flow rate equal to one international unit per day.", "preferredTerm": "International Unit per Day", "submissionValue": "IU/day"}, {"conceptId": "C85646", "definition": "A unit of substance (biologic activity) flow rate equal to one international unit per hour.", "preferredTerm": "International Unit per Hour", "submissionValue": "IU/h", "synonyms": ["IU/h"]}, {"conceptId": "C67377", "definition": "A unit of concentration (biologic activity) equal to one international unit of substance per milliliter of solution.", "preferredTerm": "International Unit per Milliliter", "submissionValue": "IU/mL", "synonyms": ["IE/mL", "International Unit per Milliliter", "Kilo International Unit per Liter", "kIU/L"]}, {"conceptId": "C119366", "definition": "International units per milliliter (concentration), divided by kilograms per meter squared (body mass index).", "preferredTerm": "International Unit per Milliliter per Kilogram per Meter Squared", "submissionValue": "IU/mL/(kg/m2)"}, {"conceptId": "C119379", "definition": "International units per milliliter (concentration), divided by meters squared (surface area).", "preferredTerm": "International Unit per Milliliter per Meter Squared", "submissionValue": "IU/mL/m2"}, {"conceptId": "C85647", "definition": "A unit of substance (biologic activity) flow rate equal to one international unit per minute.", "preferredTerm": "International Unit per Minute", "submissionValue": "IU/min", "synonyms": ["IU/min"]}, {"conceptId": "C48505", "definition": "A unit of volume equal to one thousandth (10E-3) of a cubic meter, the cubic meter being the standard derived unit of volume in the International System of Units (SI).", "preferredTerm": "Liter", "submissionValue": "L", "synonyms": ["Liter"]}, {"conceptId": "C120806", "definition": "Liters (volume), divided by kilograms per meter squared (body mass index).", "preferredTerm": "Liter per Kilogram per Meter Squared", "submissionValue": "L/(kg/m2)"}, {"conceptId": "C123561", "definition": "Liters (volume), divided by milligrams per day (daily dose).", "preferredTerm": "Liter Divided by Milligram Per Day", "submissionValue": "L/(mg/day)", "synonyms": ["mL/(ug/day)"]}, {"conceptId": "C123562", "definition": "Liters (volume), divided by milligrams per meter squared (dose normalized by surface area).", "preferredTerm": "Liter Divided by Milligram per Meter Squared", "submissionValue": "L/(mg/m2)", "synonyms": ["mL/(ug/m2)"]}, {"conceptId": "C123563", "definition": "Liters (volume), divided by micrograms per day (daily dose).", "preferredTerm": "Liter Divided by Microgram per Day", "submissionValue": "L/(ug/day)"}, {"conceptId": "C69110", "definition": "A unit of flow rate equal to one liter per day.", "preferredTerm": "Liter per Day", "submissionValue": "L/day"}, {"conceptId": "C69160", "definition": "A unit of flow rate equal to one liter per hour.", "preferredTerm": "Liter per Hour", "submissionValue": "L/h"}, {"conceptId": "C120814", "definition": "Liters (volume), divided by meters squared (surface area).", "preferredTerm": "Liter per Meter Squared", "submissionValue": "L/m2"}, {"conceptId": "C67388", "definition": "A unit of flow rate equal to one liter per minute.", "preferredTerm": "Liter per Minute", "submissionValue": "L/min"}, {"conceptId": "C44256", "definition": "The quotient of one quantity divided by another, with the same units of measurement.", "preferredTerm": "Ratio", "submissionValue": "RATIO"}, {"conceptId": "C25301", "definition": "A unit of measurement of time equal to 24 hours.", "preferredTerm": "Day", "submissionValue": "day"}, {"conceptId": "C85583", "definition": "Days times femtograms per milliliter (area under the curve).", "preferredTerm": "Day Times Femtogram per Milliliter", "submissionValue": "day*fg/mL"}, {"conceptId": "C111167", "definition": "Days times femtograms per milliliter (area under the curve), divided by kilograms per meter squared (body mass index).", "preferredTerm": "Day Times Femtogram per Milliliter per Kilogram per Meter Squared", "submissionValue": "day*fg/mL/(kg/m2)"}, {"conceptId": "C117894", "definition": "Days times femtograms per milliliter (area under the curve), divided by milligrams per gram (dose normalized by body weight).", "preferredTerm": "Day Times Femtogram Per Milliliter Per Milligram Per Gram", "submissionValue": "day*fg/mL/(mg/g)"}, {"conceptId": "C117895", "definition": "Days times femtograms per milliliter (area under the curve), divided by milligrams per gram per day (daily dose normalized by body weight).", "preferredTerm": "Day Times Femtogram Per Milliliter Per Milligram Per Gram Per Day", "submissionValue": "day*fg/mL/(mg/g/day)"}, {"conceptId": "C112245", "definition": "Days times femtograms per milliliter (area under the curve), divided by kilograms (weight).", "preferredTerm": "Day Times Femtogram Per Milliliter Per Kilogram", "submissionValue": "day*fg/mL/kg"}, {"conceptId": "C111168", "definition": "Days times femtograms per milliliter (area under the curve), divided by meters squared (surface area).", "preferredTerm": "Day Times Femtogram per Milliliter per Meter Squared", "submissionValue": "day*fg/mL/m2"}, {"conceptId": "C85584", "definition": "Days times grams per milliliter (area under the curve).", "preferredTerm": "Day Times Gram per Milliliter", "submissionValue": "day*g/mL"}, {"conceptId": "C111169", "definition": "Days times grams per milliliter (area under the curve), divided by kilograms per meter squared (body mass index).", "preferredTerm": "Day Times Gram per Milliliter per Kilogram per Meter Squared", "submissionValue": "day*g/mL/(kg/m2)"}, {"conceptId": "C117896", "definition": "Days times grams per milliliter (area under the curve), divided by milligrams per gram (dose normalized by body weight).", "preferredTerm": "Day Times gram Per Milliliter Per Milligram Per Gram", "submissionValue": "day*g/mL/(mg/g)"}, {"conceptId": "C117897", "definition": "Days times grams per milliliter (area under the curve), divided by milligrams per gram per day (daily dose normalized by body weight).", "preferredTerm": "Day Times gram Per Milliliter Per Milligram Per Gram Per Day", "submissionValue": "day*g/mL/(mg/g/day)"}, {"conceptId": "C111170", "definition": "Days times grams per milliliter (area under the curve), divided by meters squared (surface area).", "preferredTerm": "Day Times Gram per Milliliter per Meter Squared", "submissionValue": "day*g/mL/m2"}, {"conceptId": "C85588", "definition": "Days times milligrams per milliliter (area under the curve).", "preferredTerm": "Day Times Milligram per Milliliter", "submissionValue": "day*mg/mL"}, {"conceptId": "C111175", "definition": "Days times milligrams per milliliter (area under the curve), divided by kilograms per meter squared (body mass index).", "preferredTerm": "Day Times Milligram per Milliliter per Kilogram per Meter Squared", "submissionValue": "day*mg/mL/(kg/m2)"}, {"conceptId": "C117898", "definition": "Days times milligrams per milliliter (area under the curve), divided by milligrams per gram (dose normalized by body weight).", "preferredTerm": "Day Times Milligram Per Milliliter Per Milligram Per Gram", "submissionValue": "day*mg/mL/(mg/g)"}, {"conceptId": "C117899", "definition": "Days times milligrams per milliliter (area under the curve), divided by milligrams per gram per day (daily dose normalized by body weight).", "preferredTerm": "Day Times Milligram Per Milliliter Per Milligram Per Gram Per Day", "submissionValue": "day*mg/mL/(mg/g/day)"}, {"conceptId": "C111176", "definition": "Days times milligrams per milliliter (area under the curve), divided by meters squared (surface area).", "preferredTerm": "Day Times Milligram per Milliliter per Meter Squared", "submissionValue": "day*mg/mL/m2"}, {"conceptId": "C85587", "definition": "Days times millimoles per liter (area under the curve).", "preferredTerm": "Day Times Micromole per Milliliter", "submissionValue": "day*mmol/L"}, {"conceptId": "C111177", "definition": "Days times millimoles per liter (area under the curve), divided by kilograms per meter squared (body mass index).", "preferredTerm": "Day Times Millimole per Liter per Kilogram per Meter Squared", "submissionValue": "day*mmol/L/(kg/m2)"}, {"conceptId": "C117900", "definition": "Days times millimoles per liter (area under the curve), divided by milligrams per gram (dose normalized by body weight).", "preferredTerm": "Day Times Millimole Per Liter Per Milligram Per Gram", "submissionValue": "day*mmol/L/(mg/g)"}, {"conceptId": "C117901", "definition": "Days times millimoles per liter (area under the curve), divided by milligrams per gram per day (daily dose normalized by body weight).", "preferredTerm": "Day Times Millimole Per Liter Per Milligram Per Gram Per Day", "submissionValue": "day*mmol/L/(mg/g/day)"}, {"conceptId": "C111178", "definition": "Days times millimoles per liter (area under the curve), divided by meters squared (surface area).", "preferredTerm": "Day Times Millimole per Liter per Meter Squared", "submissionValue": "day*mmol/L/m2"}, {"conceptId": "C85589", "definition": "Days times moles per liter (area under the curve).", "preferredTerm": "Day Times Millimole per Milliliter", "submissionValue": "day*mol/L"}, {"conceptId": "C111179", "definition": "Days times moles per liter (area under the curve), divided by kilograms per meter squared (body mass index).", "preferredTerm": "Day Times Mole per Liter per Kilogram per Meter Squared", "submissionValue": "day*mol/L/(kg/m2)"}, {"conceptId": "C117902", "definition": "Days times moles per liter (area under the curve), divided by milligrams per gram (dose normalized by body weight).", "preferredTerm": "Day Times mole Per Liter Per Milligram Per Gram", "submissionValue": "day*mol/L/(mg/g)"}, {"conceptId": "C117903", "definition": "Days times moles per liter (area under the curve), divided by milligrams per gram per day (daily dose normalized by body weight).", "preferredTerm": "Day Times mole Per Liter Per Milligram Per Gram Per Day", "submissionValue": "day*mol/L/(mg/g/day)"}, {"conceptId": "C111180", "definition": "Days times moles per liter (area under the curve), divided by meters squared (surface area).", "preferredTerm": "Day Times Mole per Liter per Meter Squared", "submissionValue": "day*mol/L/m2"}, {"conceptId": "C85591", "definition": "Days times nanograms per milliliter (area under the curve).", "preferredTerm": "Day Times Nanogram per Milliliter", "submissionValue": "day*ng/mL"}, {"conceptId": "C111181", "definition": "Days times nanograms per milliliter (area under the curve), divided by kilograms per meter squared (body mass index).", "preferredTerm": "Day Times Nanogram per Milliliter per Kilogram per Meter Squared", "submissionValue": "day*ng/mL/(kg/m2)"}, {"conceptId": "C117904", "definition": "Days times nanograms per milliliter (area under the curve), divided by milligrams per gram (dose normalized by body weight).", "preferredTerm": "Day Times Nanogram Per Milliliter Per Milligram Per Gram", "submissionValue": "day*ng/mL/(mg/g)"}, {"conceptId": "C117905", "definition": "Days times nanograms per milliliter (area under the curve), divided by milligrams per gram per day (daily dose normalized by body weight).", "preferredTerm": "Day Times Nanogram Per Milliliter Per Milligram Per Gram Per Day", "submissionValue": "day*ng/mL/(mg/g/day)"}, {"conceptId": "C111182", "definition": "Days times nanograms per milliliter (area under the curve), divided by meters squared (surface area).", "preferredTerm": "Day Times Nanogram per Milliliter per Meter Squared", "submissionValue": "day*ng/mL/m2"}, {"conceptId": "C85594", "definition": "Days times nanomoles per liter (area under the curve).", "preferredTerm": "Day Times Picomole per Milliliter", "submissionValue": "day*nmol/L"}, {"conceptId": "C111183", "definition": "Days times nanomoles per liter (area under the curve), divided by kilograms per meter squared (body mass index).", "preferredTerm": "Day Times Nanomole per Liter per Kilogram per Meter Squared", "submissionValue": "day*nmol/L/(kg/m2)"}, {"conceptId": "C117906", "definition": "Days times nanomoles per liter (area under the curve), divided by milligrams per gram (dose normalized by body weight).", "preferredTerm": "Day Times Nanomole Per Liter Per Milligram Per Gram", "submissionValue": "day*nmol/L/(mg/g)"}, {"conceptId": "C117907", "definition": "Days times nanomoles per liter (area under the curve), divided by milligrams per gram per day (daily dose normalized by body weight).", "preferredTerm": "Day Times Nanomole Per Liter Per Milligram Per Gram Per Day", "submissionValue": "day*nmol/L/(mg/g/day)"}, {"conceptId": "C111184", "definition": "Days times nanomoles per liter (area under the curve), divided by meters squared (surface area).", "preferredTerm": "Day Times Nanomole per Liter per Meter Squared", "submissionValue": "day*nmol/L/m2"}, {"conceptId": "C85593", "definition": "Days times picograms per milliliter (area under the curve).", "preferredTerm": "Day Times Picogram per Milliliter", "submissionValue": "day*pg/mL"}, {"conceptId": "C111185", "definition": "Days times picograms per milliliter (area under the curve), divided by kilograms per meter squared (body mass index).", "preferredTerm": "Day Times Picogram per Milliliter per Kilogram per Meter Squared", "submissionValue": "day*pg/mL/(kg/m2)"}, {"conceptId": "C117908", "definition": "Days times picograms per milliliter (area under the curve), divided by milligrams per gram (dose normalized by body weight).", "preferredTerm": "Day Times Picogram Per Milliliter Per Milligram Per Gram", "submissionValue": "day*pg/mL/(mg/g)"}, {"conceptId": "C117909", "definition": "Days times picograms per milliliter (area under the curve), divided by milligrams per gram per day (daily dose normalized by body weight).", "preferredTerm": "Day Times Picogram Per Milliliter Per Milligram Per Gram Per Day", "submissionValue": "day*pg/mL/(mg/g/day)"}, {"conceptId": "C111186", "definition": "Days times picograms per milliliter (area under the curve), divided by meters squared (surface area).", "preferredTerm": "Day Times Picogram per Milliliter per Meter Squared", "submissionValue": "day*pg/mL/m2"}, {"conceptId": "C111187", "definition": "Days times picomoles per liter (area under the curve).", "preferredTerm": "Day Times Picomole per Liter", "submissionValue": "day*pmol/L"}, {"conceptId": "C111188", "definition": "Days times picomoles per liter (area under the curve), divided by kilograms per meter squared (body mass index).", "preferredTerm": "Day Times Picomole per Liter per Kilogram per Meter Squared", "submissionValue": "day*pmol/L/(kg/m2)"}, {"conceptId": "C117910", "definition": "Days times picomoles per liter (area under the curve), divided by milligrams per gram (dose normalized by body weight).", "preferredTerm": "Day Times Picomole Per Liter Per Milligram Per Gram", "submissionValue": "day*pmol/L/(mg/g)"}, {"conceptId": "C117911", "definition": "Days times picomoles per liter (area under the curve), divided by milligrams per gram per day (daily dose normalized by body weight).", "preferredTerm": "Day Times Picomole Per Liter Per Milligram Per Gram Per Day", "submissionValue": "day*pmol/L/(mg/g/day)"}, {"conceptId": "C111189", "definition": "Days times picomoles per liter (area under the curve), divided by meters squared (surface area).", "preferredTerm": "Day Times Picomole per Liter per Meter Squared", "submissionValue": "day*pmol/L/m2"}, {"conceptId": "C85586", "definition": "Days times micrograms per milliliter (area under the curve).", "preferredTerm": "Day Times Microgram per Milliliter", "submissionValue": "day*ug/mL"}, {"conceptId": "C111171", "definition": "Days times micrograms per milliliter (area under the curve), divided by kilograms per meter squared (body mass index).", "preferredTerm": "Day Times Microgram per Milliliter per Kilogram per Meter Squared", "submissionValue": "day*ug/mL/(kg/m2)"}, {"conceptId": "C117912", "definition": "Days times micrograms per milliliter (area under the curve), divided by milligrams per gram (dose normalized by body weight).", "preferredTerm": "Day Times Microgram Per Milliliter Per Milligram Per Gram", "submissionValue": "day*ug/mL/(mg/g)"}, {"conceptId": "C117913", "definition": "Days times micrograms per milliliter (area under the curve), divided by milligrams per gram per day (daily dose normalized by body weight).", "preferredTerm": "Day Times Microgram Per Milliliter Per Milligram Per Gram Per Day", "submissionValue": "day*ug/mL/(mg/g/day)"}, {"conceptId": "C111172", "definition": "Days times micrograms per milliliter (area under the curve), divided by meters squared (surface area).", "preferredTerm": "Day Times Microgram per Milliliter per Meter Squared", "submissionValue": "day*ug/mL/m2"}, {"conceptId": "C85592", "definition": "Days times micromoles per liter (area under the curve).", "preferredTerm": "Day Times Nanomole per Milliliter", "submissionValue": "day*umol/L"}, {"conceptId": "C111173", "definition": "Days times micromoles per liter (area under the curve), divided by kilograms per meter squared (body mass index).", "preferredTerm": "Day Times Micromole per Liter per Kilogram per Meter Squared", "submissionValue": "day*umol/L/(kg/m2)"}, {"conceptId": "C117914", "definition": "Days times micromoles per liter (area under the curve), divided by milligrams per gram (dose normalized by body weight).", "preferredTerm": "Day Times Micromole Per Liter Per Milligram Per Gram", "submissionValue": "day*umol/L/(mg/g)"}, {"conceptId": "C117915", "definition": "Days times micromoles per liter (area under the curve), divided by milligrams per gram per day (daily dose normalized by body weight).", "preferredTerm": "Day Times Micromole Per Liter Per Milligram Per Gram Per Day", "submissionValue": "day*umol/L/(mg/g/day)"}, {"conceptId": "C111174", "definition": "Days times micromoles per liter (area under the curve), divided by meters squared (surface area).", "preferredTerm": "Day Times Micromole per Liter per Meter Squared", "submissionValue": "day*umol/L/m2"}, {"conceptId": "C85597", "definition": "A unit of concentration or mass density equal to one femtogram of substance per milliliter of solution or one picogram of substance per liter of solution.", "preferredTerm": "Femtogram per Milliliter", "submissionValue": "fg/mL", "synonyms": ["fg/mL", "pg/L"]}, {"conceptId": "C119336", "definition": "Femtograms per milliliter (concentration), divided by kilograms per meter squared (body mass index).", "preferredTerm": "Femtogram per Milliliter per Kilogram per Meter Squared", "submissionValue": "fg/mL/(kg/m2)"}, {"conceptId": "C119349", "definition": "Femtograms per milliliter (concentration), divided by meters squared (surface area).", "preferredTerm": "Femtogram per Milliliter per Meter Squared", "submissionValue": "fg/mL/m2"}, {"conceptId": "C48155", "definition": "A unit of mass equal to one thousandth (10E-3) of a kilogram, the kilogram being the base unit of mass in the International System of Units (SI).", "preferredTerm": "Gram", "submissionValue": "g", "synonyms": ["Gram"]}, {"conceptId": "C67372", "definition": "A unit of mass flow rate equal to one gram per day.", "preferredTerm": "Gram per 24 Hours", "submissionValue": "g/day", "synonyms": ["g/24h"]}, {"conceptId": "C85601", "definition": "A unit of mass flow rate or dose administration rate equal to one gram per hour.", "preferredTerm": "Gram per Hour", "submissionValue": "g/h"}, {"conceptId": "C64566", "definition": "A unit of concentration or mass density equal to one gram of substance per milliliter of solution or one kilogram of substance per liter of solution.", "preferredTerm": "Kilogram per Liter", "submissionValue": "g/mL", "synonyms": ["Gram per Milliliter", "Kilogram per Liter", "g/mL", "gram/mL", "kg/L", "mg/uL"]}, {"conceptId": "C119352", "definition": "Grams per milliliter (concentration), divided by kilograms per meter squared (body mass index).", "preferredTerm": "Gram per Milliliter per Kilogram per Meter Squared", "submissionValue": "g/mL/(kg/m2)"}, {"conceptId": "C119363", "definition": "Grams per milliliter (concentration), divided by meters squared (surface area).", "preferredTerm": "Gram per Milliliter per Meter Squared", "submissionValue": "g/mL/m2"}, {"conceptId": "C85602", "definition": "A unit of mass flow rate or dose administration rate equal to one gram per minute.", "preferredTerm": "Gram per Minute", "submissionValue": "g/min"}, {"conceptId": "C25529", "definition": "A unit of measurement of time equal to 60 minutes.", "preferredTerm": "Hour", "submissionValue": "h", "synonyms": ["Hours", "h", "hr"]}, {"conceptId": "C85611", "definition": "Hours times femtograms per milliliter (area under the curve).", "preferredTerm": "Hour Times Femtogram per Milliliter", "submissionValue": "h*fg/mL"}, {"conceptId": "C111210", "definition": "Hours times femtograms per milliliter (area under the curve), divided by kilograms per meter squared (body mass index).", "preferredTerm": "Hour Times Femtogram per Milliliter per Kilogram per Meter Squared", "submissionValue": "h*fg/mL/(kg/m2)"}, {"conceptId": "C117916", "definition": "Hours times femtograms per milliliter (area under the curve), divided by milligrams per gram (dose normalized by body weight).", "preferredTerm": "Hour Times Femtogram Per Milliliter Per Milligram Per Gram", "submissionValue": "h*fg/mL/(mg/g)"}, {"conceptId": "C117917", "definition": "Hours times femtograms per milliliter (area under the curve), divided by milligrams per gram per day (daily dose normalized by body weight).", "preferredTerm": "Hour Times Femtogram Per Milliliter Per Milligram Per Gram Per Day", "submissionValue": "h*fg/mL/(mg/g/day)"}, {"conceptId": "C112299", "definition": "Hours times femtograms per milliliter (area under the curve), divided by kilograms (weight).", "preferredTerm": "Hour Times Femtogram Per Milliliter Per Kilogram", "submissionValue": "h*fg/mL/kg"}, {"conceptId": "C111211", "definition": "Hours times femtograms per milliliter (area under the curve), divided by meters squared (surface area).", "preferredTerm": "Hour Times Femtogram per Milliliter per Meter Squared", "submissionValue": "h*fg/mL/m2"}, {"conceptId": "C85613", "definition": "Hours times grams per milliliter (area under the curve).", "preferredTerm": "Hour Times Gram per Milliliter", "submissionValue": "h*g/mL"}, {"conceptId": "C111212", "definition": "Hours times grams per milliliter (area under the curve), divided by kilograms per meter squared (body mass index).", "preferredTerm": "Hour Times Gram per Milliliter per Kilogram per Meter Squared", "submissionValue": "h*g/mL/(kg/m2)"}, {"conceptId": "C117918", "definition": "Hours times grams per milliliter (area under the curve), divided by milligrams per gram (dose normalized by body weight).", "preferredTerm": "Hour Times gram Per Milliliter Per Milligram Per Gram", "submissionValue": "h*g/mL/(mg/g)"}, {"conceptId": "C117919", "definition": "Hours times grams per milliliter (area under the curve), divided by milligrams per gram per day (daily dose normalized by body weight).", "preferredTerm": "Hour Times gram Per Milliliter Per Milligram Per Gram Per Day", "submissionValue": "h*g/mL/(mg/g/day)"}, {"conceptId": "C111213", "definition": "Hours times grams per milliliter (area under the curve), divided by meters squared (surface area).", "preferredTerm": "Hour Times Gram per Milliliter per Meter Squared", "submissionValue": "h*g/mL/m2"}, {"conceptId": "C85621", "definition": "Hours times milligrams per milliliter (area under the curve).", "preferredTerm": "Hour Times Milligram per Milliliter", "submissionValue": "h*mg/mL"}, {"conceptId": "C111218", "definition": "Hours times milligrams per milliliter (area under the curve), divided by kilograms per meter squared (body mass index).", "preferredTerm": "Hour Times Milligram per Milliliter per Kilogram per Meter Squared", "submissionValue": "h*mg/mL/(kg/m2)"}, {"conceptId": "C117920", "definition": "Hours times milligrams per milliliter (area under the curve), divided by milligrams per gram (dose normalized by body weight).", "preferredTerm": "Hour Times Milligram Per Milliliter Per Milligram Per Gram", "submissionValue": "h*mg/mL/(mg/g)"}, {"conceptId": "C117921", "definition": "Hours times milligrams per milliliter (area under the curve), divided by milligrams per gram per day (daily dose normalized by body weight).", "preferredTerm": "Hour Times Milligram Per Milliliter Per Milligram Per Gram Per Day", "submissionValue": "h*mg/mL/(mg/g/day)"}, {"conceptId": "C111219", "definition": "Hours times milligrams per milliliter (area under the curve), divided by meters squared (surface area).", "preferredTerm": "Hour Times Milligram per Milliliter per Meter Squared", "submissionValue": "h*mg/mL/m2"}, {"conceptId": "C85618", "definition": "Hours times millimoles per liter (area under the curve).", "preferredTerm": "Hour Times Micromole per Milliliter", "submissionValue": "h*mmol/L"}, {"conceptId": "C111220", "definition": "Hours times millimoles per liter (area under the curve), divided by kilograms per meter squared (body mass index).", "preferredTerm": "Hour Times Millimole per Liter per Kilogram per Meter Squared", "submissionValue": "h*mmol/L/(kg/m2)"}, {"conceptId": "C117922", "definition": "Hours times millimoles per liter (area under the curve), divided by milligrams per gram (dose normalized by body weight).", "preferredTerm": "Hour Times Millimole Per Liter Per Milligram Per Gram", "submissionValue": "h*mmol/L/(mg/g)"}, {"conceptId": "C117923", "definition": "Hours times millimoles per liter (area under the curve), divided by milligrams per gram per day (daily dose normalized by body weight).", "preferredTerm": "Hour Times Millimole Per Liter Per Milligram Per Gram Per Day", "submissionValue": "h*mmol/L/(mg/g/day)"}, {"conceptId": "C111221", "definition": "Hours times millimoles per liter (area under the curve), divided by meters squared (surface area).", "preferredTerm": "Hour Times Millimole per Liter per Meter Squared", "submissionValue": "h*mmol/L/m2"}, {"conceptId": "C85622", "definition": "Hours times moles per liter (area under the curve).", "preferredTerm": "Hour Times Millimole per Milliliter", "submissionValue": "h*mol/L"}, {"conceptId": "C111222", "definition": "Hours times moles per liter (area under the curve), divided by kilograms per meter squared (body mass index).", "preferredTerm": "Hour Times Mole per Liter per Kilogram per Meter Squared", "submissionValue": "h*mol/L/(kg/m2)"}, {"conceptId": "C117924", "definition": "Hours times moles per liter (area under the curve), divided by milligrams per gram (dose normalized by body weight).", "preferredTerm": "Hour Times mole Per Liter Per Milligram Per Gram", "submissionValue": "h*mol/L/(mg/g)"}, {"conceptId": "C117925", "definition": "Hours times moles per liter (area under the curve), divided by milligrams per gram per day (daily dose normalized by body weight).", "preferredTerm": "Hour Times mole Per Liter Per Milligram Per Gram Per Day", "submissionValue": "h*mol/L/(mg/g/day)"}, {"conceptId": "C111223", "definition": "Hours times moles per liter (area under the curve), divided by meters squared (surface area).", "preferredTerm": "Hour Times Mole per Liter per Meter Squared", "submissionValue": "h*mol/L/m2"}, {"conceptId": "C85624", "definition": "Hours times nanograms per milliliter (area under the curve).", "preferredTerm": "Hour Times Nanogram per Milliliter", "submissionValue": "h*ng/mL"}, {"conceptId": "C111224", "definition": "Hours times nanograms per milliliter (area under the curve), divided by kilograms per meter squared (body mass index).", "preferredTerm": "Hour Times Nanogram per Milliliter per Kilogram per Meter Squared", "submissionValue": "h*ng/mL/(kg/m2)"}, {"conceptId": "C117926", "definition": "Hours times nanograms per milliliter (area under the curve), divided by milligrams per gram (dose normalized by body weight).", "preferredTerm": "Hour Times Nanogram Per Milliliter Per Milligram Per Gram", "submissionValue": "h*ng/mL/(mg/g)"}, {"conceptId": "C117927", "definition": "Hours times nanograms per milliliter (area under the curve), divided by milligrams per gram per day (daily dose normalized by body weight).", "preferredTerm": "Hour Times Nanogram Per Milliliter Per Milligram Per Gram Per Day", "submissionValue": "h*ng/mL/(mg/g/day)"}, {"conceptId": "C111225", "definition": "Hours times nanograms per milliliter (area under the curve), divided by meters squared (surface area).", "preferredTerm": "Hour Times Nanogram per Milliliter per Meter Squared", "submissionValue": "h*ng/mL/m2"}, {"conceptId": "C85640", "definition": "Hours times nanomoles per liter (area under the curve).", "preferredTerm": "Hour Times Picomole per Milliliter", "submissionValue": "h*nmol/L"}, {"conceptId": "C111226", "definition": "Hours times nanomoles per liter (area under the curve), divided by kilograms per meter squared (body mass index).", "preferredTerm": "Hour Times Nanomole per Liter per Kilogram per Meter Squared", "submissionValue": "h*nmol/L/(kg/m2)"}, {"conceptId": "C117928", "definition": "Hours times nanomoles per liter (area under the curve), divided by milligrams per gram (dose normalized by body weight).", "preferredTerm": "Hour Times Nanomole Per Liter Per Milligram Per Gram", "submissionValue": "h*nmol/L/(mg/g)"}, {"conceptId": "C117929", "definition": "Hours times nanomoles per liter (area under the curve), divided by milligrams per gram per day (daily dose normalized by body weight).", "preferredTerm": "Hour Times Nanomole Per Liter Per Milligram Per Gram Per Day", "submissionValue": "h*nmol/L/(mg/g/day)"}, {"conceptId": "C111227", "definition": "Hours times nanomoles per liter (area under the curve), divided by meters squared (surface area).", "preferredTerm": "Hour Times Nanomole per Liter per Meter Squared", "submissionValue": "h*nmol/L/m2"}, {"conceptId": "C85635", "definition": "Hours times picograms per milliliter (area under the curve).", "preferredTerm": "Hour Times Picogram per Milliliter", "submissionValue": "h*pg/mL"}, {"conceptId": "C111228", "definition": "Hours times picograms per milliliter (area under the curve), divided by kilograms per meter squared (body mass index).", "preferredTerm": "Hour Times Picogram per Milliliter per Kilogram per Meter Squared", "submissionValue": "h*pg/mL/(kg/m2)"}, {"conceptId": "C117930", "definition": "Hours times picograms per milliliter (area under the curve), divided by milligrams per gram (dose normalized by body weight).", "preferredTerm": "Hour Times Picogram Per Milliliter Per Milligram Per Gram", "submissionValue": "h*pg/mL/(mg/g)"}, {"conceptId": "C117931", "definition": "Hours times picograms per milliliter (area under the curve), divided by milligrams per gram per day (daily dose normalized by body weight).", "preferredTerm": "Hour Times Picogram Per Milliliter Per Milligram Per Gram Per Day", "submissionValue": "h*pg/mL/(mg/g/day)"}, {"conceptId": "C111229", "definition": "Hours times picograms per milliliter (area under the curve), divided by meters squared (surface area).", "preferredTerm": "Hour Times Picogram per Milliliter per Meter Squared", "submissionValue": "h*pg/mL/m2"}, {"conceptId": "C85612", "definition": "Hours times picomoles per liter (area under the curve).", "preferredTerm": "Hour Times Femtomole per Milliliter", "submissionValue": "h*pmol/L"}, {"conceptId": "C111230", "definition": "Hours times picomoles per liter (area under the curve), divided by kilograms per meter squared (body mass index).", "preferredTerm": "Hour Times Picomole per Liter per Kilogram per Meter Squared", "submissionValue": "h*pmol/L/(kg/m2)"}, {"conceptId": "C117932", "definition": "Hours times picomoles per liter (area under the curve), divided by milligrams per gram (dose normalized by body weight).", "preferredTerm": "Hour Times Picomole Per Liter Per Milligram Per Gram", "submissionValue": "h*pmol/L/(mg/g)"}, {"conceptId": "C117933", "definition": "Hours times picomoles per liter (area under the curve), divided by milligrams per gram per day (daily dose normalized by body weight).", "preferredTerm": "Hour Times Picomole Per Liter Per Milligram Per Gram Per Day", "submissionValue": "h*pmol/L/(mg/g/day)"}, {"conceptId": "C111231", "definition": "Hours times picomoles per liter (area under the curve), divided by meters squared (surface area).", "preferredTerm": "Hour Times Picomole per Liter per Meter Squared", "submissionValue": "h*pmol/L/m2"}, {"conceptId": "C85615", "definition": "Hours times micrograms per milliliter (area under the curve).", "preferredTerm": "Hour Times Microgram per Milliliter", "submissionValue": "h*ug/mL"}, {"conceptId": "C111214", "definition": "Hours times micrograms per milliliter (area under the curve), divided by kilograms per meter squared (body mass index).", "preferredTerm": "Hour Times Microgram per Milliliter per Kilogram per Meter Squared", "submissionValue": "h*ug/mL/(kg/m2)"}, {"conceptId": "C117934", "definition": "Hours times micrograms per milliliter (area under the curve), divided by milligrams per gram (dose normalized by body weight).", "preferredTerm": "Hour Times Microgram Per Milliliter Per Milligram Per Gram", "submissionValue": "h*ug/mL/(mg/g)"}, {"conceptId": "C117935", "definition": "Hours times micrograms per milliliter (area under the curve), divided by milligrams per gram per day (daily dose normalized by body weight).", "preferredTerm": "Hour Times Microgram Per Milliliter Per Milligram Per Gram Per Day", "submissionValue": "h*ug/mL/(mg/g/day)"}, {"conceptId": "C111215", "definition": "Hours times micrograms per milliliter (area under the curve), divided by meters squared (surface area).", "preferredTerm": "Hour Times Microgram per Milliliter per Meter Squared", "submissionValue": "h*ug/mL/m2"}, {"conceptId": "C85632", "definition": "Hours times micromoles per liter (area under the curve).", "preferredTerm": "Hour Times Nanomole per Milliliter", "submissionValue": "h*umol/L"}, {"conceptId": "C111216", "definition": "Hours times micromoles per liter (area under the curve), divided by kilograms per meter squared (body mass index).", "preferredTerm": "Hour Times Micromole per Liter per Kilogram per Meter Squared", "submissionValue": "h*umol/L/(kg/m2)"}, {"conceptId": "C117936", "definition": "Hours times micromoles per liter (area under the curve), divided by milligrams per gram (dose normalized by body weight).", "preferredTerm": "Hour Times Micromole Per Liter Per Milligram Per Gram", "submissionValue": "h*umol/L/(mg/g)"}, {"conceptId": "C117937", "definition": "Hours times micromoles per liter (area under the curve), divided by milligrams per gram per day (daily dose normalized by body weight).", "preferredTerm": "Hour Times Micromole Per Liter Per Milligram Per Gram Per Day", "submissionValue": "h*umol/L/(mg/g/day)"}, {"conceptId": "C111217", "definition": "Hours times micromoles per liter (area under the curve), divided by meters squared (surface area).", "preferredTerm": "Hour Times Micromole per Liter per Meter Squared", "submissionValue": "h*umol/L/m2"}, {"conceptId": "C85606", "definition": "Hours squared times milligrams per milliliter.", "preferredTerm": "Hour Squared Times Milligram per Milliliter", "submissionValue": "h2*mg/mL", "synonyms": ["h*h*mg/mL", "h2*g/L", "h2*ug/uL", "h^2*mg/mL", "mg*h2/mL"]}, {"conceptId": "C85605", "definition": "Hours squared times millimoles per liter (area under the moment curve).", "preferredTerm": "Hour Squared Times Micromole per Milliliter", "submissionValue": "h2*mmol/L"}, {"conceptId": "C85607", "definition": "Hours squared times moles per liter (area under the moment curve).", "preferredTerm": "Hour Squared Times Millimole per Milliliter", "submissionValue": "h2*mol/L"}, {"conceptId": "C85608", "definition": "Hours squared times nanograms per milliliter.", "preferredTerm": "Hour Squared Times Nanogram per Milliliter", "submissionValue": "h2*ng/mL", "synonyms": ["h*h*ng/mL", "h2*ug/L", "h^2*ng/mL", "ng*h2/mL"]}, {"conceptId": "C85610", "definition": "Hours squared times nanomoles per liter (area under the moment curve).", "preferredTerm": "Hour Squared Times Picomole per Milliliter", "submissionValue": "h2*nmol/L"}, {"conceptId": "C85609", "definition": "Hours squared times picogram per milliliter.", "preferredTerm": "Hour Squared Times Picogram per Milliliter", "submissionValue": "h2*pg/mL", "synonyms": ["h*h*pg/mL", "h2*ng/L", "h^2*pg/mL", "pg*h2/mL"]}, {"conceptId": "C106529", "definition": "Hours squared times picomoles per liter (area under the moment curve).", "preferredTerm": "Hour Squared Times Picomole Per Liter", "submissionValue": "h2*pmol/L"}, {"conceptId": "C85604", "definition": "Hours squared times micrograms per milliliter.", "preferredTerm": "Hour Squared Times Microgram per Milliliter", "submissionValue": "h2*ug/mL", "synonyms": ["h*h*ug/mL", "h2*mcg/mL", "h2*mg/L", "h^2*ug/mL", "ug*h2/mL"]}, {"conceptId": "C106528", "definition": "Hours squared times micromoles per liter (area under the moment curve).", "preferredTerm": "Hour Squared Times Micromole Per Liter", "submissionValue": "h2*umol/L"}, {"conceptId": "C67376", "definition": "A unit of concentration (biologic activity) equal to one milli-international unit of substance per milliliter of solution or one international unit of substance per liter of solution.", "preferredTerm": "International Unit per Liter", "submissionValue": "mIU/mL", "synonyms": ["IE/L", "IU/L", "International Unit per Liter", "mIU/mL"]}, {"conceptId": "C119396", "definition": "Milli-international units per milliliter (concentration), divided by kilograms per meter squared (body mass index).", "preferredTerm": "Milli-International Unit per Milliliter per Kilogram per Meter Squared", "submissionValue": "mIU/mL/(kg/m2)"}, {"conceptId": "C119409", "definition": "Milli-international units per milliliter (concentration), divided by meters squared (surface area).", "preferredTerm": "Milli-International Unit per Milliliter per Meter Squared", "submissionValue": "mIU/mL/m2"}, {"conceptId": "C28254", "definition": "A unit of volume equal to one thousandth (10E-3) of a liter.", "preferredTerm": "Milliliter", "submissionValue": "mL", "synonyms": ["Milliliter", "cm3"]}, {"conceptId": "C120816", "definition": "Milliliters (volume), divided by kilograms per meter squared (body mass index).", "preferredTerm": "Milliliter per Kilogram per Meter Squared", "submissionValue": "mL/(kg/m2)"}, {"conceptId": "C120822", "definition": "Milliliters (volume), divided by micrograms per kilogram (dose normalized by body weight).", "preferredTerm": "Milliliter per Microgram per Kilogram", "submissionValue": "mL/(ug/kg)"}, {"conceptId": "C67410", "definition": "A unit of flow rate equal to one milliliter per day.", "preferredTerm": "Milliliter per 24 Hours", "submissionValue": "mL/day"}, {"conceptId": "C66962", "definition": "A unit of flow rate equal to one milliliter per hour.", "preferredTerm": "Milliliter per Hour", "submissionValue": "mL/h"}, {"conceptId": "C73761", "definition": "Milliliters (volume) divided by meters squared (surface area).", "preferredTerm": "Milliliter per Square Meter", "submissionValue": "mL/m2"}, {"conceptId": "C64777", "definition": "A unit of flow rate equal to one milliliter per minute.", "preferredTerm": "Milliliter per Minute", "submissionValue": "mL/min"}, {"conceptId": "C28253", "definition": "A unit of mass equal to one thousandth (10E-3) of a gram.", "preferredTerm": "Milligram", "submissionValue": "mg", "synonyms": ["Milligram"]}, {"conceptId": "C67399", "definition": "A unit of mass flow rate equal to one milligram per day.", "preferredTerm": "Milligram per 24 Hours", "submissionValue": "mg/day"}, {"conceptId": "C66969", "definition": "A unit of mass flow rate equal to one milligram per hour.", "preferredTerm": "Milligram per Hour", "submissionValue": "mg/h"}, {"conceptId": "C42576", "definition": "A unit of concentration or mass density equal to one milligram of substance per milliliter of solution or one gram of substance per liter of solution.", "preferredTerm": "Kilogram per Cubic Meter", "submissionValue": "mg/mL", "synonyms": ["Gram per Liter", "Kilogram per Cubic Meter", "Microgram per Microliter", "Milligram per Milliliter", "g/L", "kg/m3", "mg/mL", "ug/uL"]}, {"conceptId": "C119382", "definition": "Milligrams per milliliter (concentration), divided by kilograms per meter squared (body mass index).", "preferredTerm": "Milligram per Milliliter per Kilogram per Meter Squared", "submissionValue": "mg/mL/(kg/m2)"}, {"conceptId": "C119393", "definition": "Milligrams per milliliter (concentration), divided by meters squared (surface area).", "preferredTerm": "Milligram per Milliliter per Meter Squared", "submissionValue": "mg/mL/m2"}, {"conceptId": "C73742", "definition": "A unit of mass flow rate equal to one milligram per minute.", "preferredTerm": "Milligram per Minute", "submissionValue": "mg/min"}, {"conceptId": "C48154", "definition": "A unit of measurement of time equal to 60 seconds.", "preferredTerm": "Minute", "submissionValue": "min", "synonyms": ["Minute"]}, {"conceptId": "C85724", "definition": "Minutes times femtograms per milliliter (area under the curve).", "preferredTerm": "Minute Times Femtogram per Milliliter", "submissionValue": "min*fg/mL"}, {"conceptId": "C111254", "definition": "Minutes times femtograms per milliliter (area under the curve), divided by kilograms per meter squared (body mass index).", "preferredTerm": "Minute Times Femtogram per Milliliter per Kilogram per Meter Squared", "submissionValue": "min*fg/mL/(kg/m2)"}, {"conceptId": "C117938", "definition": "Minutes times femtograms per milliliter (area under the curve), divided by milligrams per gram (dose normalized by body weight).", "preferredTerm": "Minute Times Femtogram Per Milliliter Per Milligram Per Gram", "submissionValue": "min*fg/mL/(mg/g)"}, {"conceptId": "C117939", "definition": "Minutes times femtograms per milliliter (area under the curve), divided by milligrams per gram per day (daily dose normalized by body weight).", "preferredTerm": "Minute Times Femtogram Per Milliliter Per Milligram Per Gram Per Day", "submissionValue": "min*fg/mL/(mg/g/day)"}, {"conceptId": "C112335", "definition": "Minutes times femtograms per milliliter (area under the curve), divided by kilograms (weight).", "preferredTerm": "Minute Times Femtogram Per Milliliter Per Kilogram", "submissionValue": "min*fg/mL/kg"}, {"conceptId": "C111255", "definition": "Minutes times femtograms per milliliter (area under the curve), divided by meters squared (surface area).", "preferredTerm": "Minute Times Femtogram per Milliliter per Meter Squared", "submissionValue": "min*fg/mL/m2"}, {"conceptId": "C85725", "definition": "Minutes times grams per milliliter (area under the curve).", "preferredTerm": "Minute Times Gram per Milliliter", "submissionValue": "min*g/mL"}, {"conceptId": "C111256", "definition": "Minutes times grams per milliliter (area under the curve), divided by kilograms per meter squared (body mass index).", "preferredTerm": "Minute Times Gram per Milliliter per Kilogram per Meter Squared", "submissionValue": "min*g/mL/(kg/m2)"}, {"conceptId": "C117940", "definition": "Minutes times grams per milliliter (area under the curve), divided by milligrams per gram (dose normalized by body weight).", "preferredTerm": "Minute Times gram Per Milliliter Per Milligram Per Gram", "submissionValue": "min*g/mL/(mg/g)"}, {"conceptId": "C117941", "definition": "Minutes times grams per milliliter (area under the curve), divided by milligrams per gram per day (daily dose normalized by body weight).", "preferredTerm": "Minute Times gram Per Milliliter Per Milligram Per Gram Per Day", "submissionValue": "min*g/mL/(mg/g/day)"}, {"conceptId": "C111257", "definition": "Minutes times grams per milliliter (area under the curve), divided by meters squared (surface area).", "preferredTerm": "Minute Times Gram per Milliliter per Meter Squared", "submissionValue": "min*g/mL/m2"}, {"conceptId": "C85729", "definition": "Minutes times milligrams per milliliter (area under the curve).", "preferredTerm": "Minute Times Milligram per Milliliter", "submissionValue": "min*mg/mL"}, {"conceptId": "C111262", "definition": "Minutes times milligrams per milliliter (area under the curve), divided by kilograms per meter squared (body mass index).", "preferredTerm": "Minute Times Milligram per Milliliter per Kilogram per Meter Squared", "submissionValue": "min*mg/mL/(kg/m2)"}, {"conceptId": "C117942", "definition": "Minutes times milligrams per milliliter (area under the curve), divided by milligrams per gram (dose normalized by body weight).", "preferredTerm": "Minute Times Milligram Per Milliliter Per Milligram Per Gram", "submissionValue": "min*mg/mL/(mg/g)"}, {"conceptId": "C117943", "definition": "Minutes times milligrams per milliliter (area under the curve), divided by milligrams per gram per day (daily dose normalized by body weight).", "preferredTerm": "Minute Times Milligram Per Milliliter Per Milligram Per Gram Per Day", "submissionValue": "min*mg/mL/(mg/g/day)"}, {"conceptId": "C111263", "definition": "Minutes times milligrams per milliliter (area under the curve), divided by meters squared (surface area).", "preferredTerm": "Minute Times Milligram per Milliliter per Meter Squared", "submissionValue": "min*mg/mL/m2"}, {"conceptId": "C85728", "definition": "Minutes times millimoles per liter (area under the curve).", "preferredTerm": "Minute Times Micromole per Milliliter", "submissionValue": "min*mmol/L"}, {"conceptId": "C111264", "definition": "Minutes times millimoles per liter (area under the curve), divided by kilograms per meter squared (body mass index).", "preferredTerm": "Minute Times Millimole per Liter per Kilogram per Meter Squared", "submissionValue": "min*mmol/L/(kg/m2)"}, {"conceptId": "C117944", "definition": "Minutes times millimoles per liter (area under the curve), divided by milligrams per gram (dose normalized by body weight).", "preferredTerm": "Minute Times Millimole Per Liter Per Milligram Per Gram", "submissionValue": "min*mmol/L/(mg/g)"}, {"conceptId": "C117945", "definition": "Minutes times millimoles per liter (area under the curve), divided by milligrams per gram per day (daily dose normalized by body weight).", "preferredTerm": "Minute Times Millimole Per Liter Per Milligram Per Gram Per Day", "submissionValue": "min*mmol/L/(mg/g/day)"}, {"conceptId": "C111265", "definition": "Minutes times millimoles per liter (area under the curve), divided by meters squared (surface area).", "preferredTerm": "Minute Times Millimole per Liter per Meter Squared", "submissionValue": "min*mmol/L/m2"}, {"conceptId": "C85730", "definition": "Minutes times moles per liter (area under the curve).", "preferredTerm": "Minute Times Millimole per Milliliter", "submissionValue": "min*mol/L"}, {"conceptId": "C111266", "definition": "Minutes times moles per liter (area under the curve), divided by kilograms per meter squared (body mass index).", "preferredTerm": "Minute Times Mole per Liter per Kilogram per Meter Squared", "submissionValue": "min*mol/L/(kg/m2)"}, {"conceptId": "C117946", "definition": "Minutes times moles per liter (area under the curve), divided by milligrams per gram (dose normalized by body weight).", "preferredTerm": "Minute Times mole Per Liter Per Milligram Per Gram", "submissionValue": "min*mol/L/(mg/g)"}, {"conceptId": "C117947", "definition": "Minutes times moles per liter (area under the curve), divided by milligrams per gram per day (daily dose normalized by body weight).", "preferredTerm": "Minute Times mole Per Liter Per Milligram Per Gram Per Day", "submissionValue": "min*mol/L/(mg/g/day)"}, {"conceptId": "C111267", "definition": "Minutes times moles per liter (area under the curve), divided by meters squared (surface area).", "preferredTerm": "Minute Times Mole per Liter per Meter Squared", "submissionValue": "min*mol/L/m2"}, {"conceptId": "C85732", "definition": "Minutes times nanograms per milliliter (area under the curve).", "preferredTerm": "Minute Times Nanogram per Milliliter", "submissionValue": "min*ng/mL"}, {"conceptId": "C111268", "definition": "Minutes times nanograms per milliliter (area under the curve), divided by kilograms per meter squared (body mass index).", "preferredTerm": "Minute Times Nanogram per Milliliter per Kilogram per Meter Squared", "submissionValue": "min*ng/mL/(kg/m2)"}, {"conceptId": "C117948", "definition": "Minutes times nanograms per milliliter (area under the curve), divided by milligrams per gram (dose normalized by body weight).", "preferredTerm": "Minute Times Nanogram Per Milliliter Per Milligram Per Gram", "submissionValue": "min*ng/mL/(mg/g)"}, {"conceptId": "C117949", "definition": "Minutes times nanograms per milliliter (area under the curve), divided by milligrams per gram per day (daily dose normalized by body weight).", "preferredTerm": "Minute Times Nanogram Per Milliliter Per Milligram Per Gram Per Day", "submissionValue": "min*ng/mL/(mg/g/day)"}, {"conceptId": "C111269", "definition": "Minutes times nanograms per milliliter (area under the curve), divided by meters squared (surface area).", "preferredTerm": "Minute Times Nanogram per Milliliter per Meter Squared", "submissionValue": "min*ng/mL/m2"}, {"conceptId": "C85735", "definition": "Minutes times nanomoles per liter (area under the curve).", "preferredTerm": "Minute Times Picomole per Milliliter", "submissionValue": "min*nmol/L"}, {"conceptId": "C111270", "definition": "Minutes times nanomoles per liter (area under the curve), divided by kilograms per meter squared (body mass index).", "preferredTerm": "Minute Times Nanomole per Liter per Kilogram per Meter Squared", "submissionValue": "min*nmol/L/(kg/m2)"}, {"conceptId": "C117950", "definition": "Minutes times nanomoles per liter (area under the curve), divided by milligrams per gram (dose normalized by body weight).", "preferredTerm": "Minute Times Nanomole Per Liter Per Milligram Per Gram", "submissionValue": "min*nmol/L/(mg/g)"}, {"conceptId": "C117951", "definition": "Minutes times nanomoles per liter (area under the curve), divided by milligrams per gram per day (daily dose normalized by body weight).", "preferredTerm": "Minute Times Nanomole Per Liter Per Milligram Per Gram Per Day", "submissionValue": "min*nmol/L/(mg/g/day)"}, {"conceptId": "C111271", "definition": "Minutes times nanomoles per liter (area under the curve), divided by meters squared (surface area).", "preferredTerm": "Minute Times Nanomole per Liter per Meter Squared", "submissionValue": "min*nmol/L/m2"}, {"conceptId": "C85734", "definition": "Minutes times picograms per milliliter (area under the curve).", "preferredTerm": "Minute Times Picogram per Milliliter", "submissionValue": "min*pg/mL"}, {"conceptId": "C111272", "definition": "Minutes times picograms per milliliter (area under the curve), divided by kilograms per meter squared (body mass index).", "preferredTerm": "Minute Times Picogram per Milliliter per Kilogram per Meter Squared", "submissionValue": "min*pg/mL/(kg/m2)"}, {"conceptId": "C117952", "definition": "Minutes times picograms per milliliter (area under the curve), divided by milligrams per gram (dose normalized by body weight).", "preferredTerm": "Minute Times Picogram Per Milliliter Per Milligram Per Gram", "submissionValue": "min*pg/mL/(mg/g)"}, {"conceptId": "C117953", "definition": "Minutes times picograms per milliliter (area under the curve), divided by milligrams per gram per day (daily dose normalized by body weight).", "preferredTerm": "Minute Times Picogram Per Milliliter Per Milligram Per Gram Per Day", "submissionValue": "min*pg/mL/(mg/g/day)"}, {"conceptId": "C111273", "definition": "Minutes times picograms per milliliter (area under the curve), divided by meters squared (surface area).", "preferredTerm": "Minute Times Picogram per Milliliter per Meter Squared", "submissionValue": "min*pg/mL/m2"}, {"conceptId": "C106543", "definition": "Minutes times picomoles per liter (area under the curve).", "preferredTerm": "Minute Times Picomole Per Liter", "submissionValue": "min*pmol/L"}, {"conceptId": "C111274", "definition": "Minutes times picomoles per liter (area under the curve), divided by kilograms per meter squared (body mass index).", "preferredTerm": "Minute Times Picomole per Liter per Kilogram per Meter Squared", "submissionValue": "min*pmol/L/(kg/m2)"}, {"conceptId": "C117954", "definition": "Minutes times picomoles per liter (area under the curve), divided by milligrams per gram (dose normalized by body weight).", "preferredTerm": "Minute Times Picomole Per Liter Per Milligram Per Gram", "submissionValue": "min*pmol/L/(mg/g)"}, {"conceptId": "C117955", "definition": "Minutes times picomoles per liter (area under the curve), divided by milligrams per gram per day (daily dose normalized by body weight).", "preferredTerm": "Minute Times Picomole Per Liter Per Milligram Per Gram Per Day", "submissionValue": "min*pmol/L/(mg/g/day)"}, {"conceptId": "C111275", "definition": "Minutes times picomoles per liter (area under the curve), divided by meters squared (surface area).", "preferredTerm": "Minute Times Picomole per Liter per Meter Squared", "submissionValue": "min*pmol/L/m2"}, {"conceptId": "C85727", "definition": "Minutes times micrograms per milliliter (area under the curve).", "preferredTerm": "Minute Times Microgram per Milliliter", "submissionValue": "min*ug/mL"}, {"conceptId": "C111258", "definition": "Minutes times micrograms per milliliter (area under the curve), divided by kilograms per meter squared (body mass index).", "preferredTerm": "Minute Times Microgram per Milliliter per Kilogram per Meter Squared", "submissionValue": "min*ug/mL/(kg/m2)"}, {"conceptId": "C117956", "definition": "Minutes times micrograms per milliliter (area under the curve), divided by milligrams per gram (dose normalized by body weight).", "preferredTerm": "Minute Times Microgram Per Milliliter Per Milligram Per Gram", "submissionValue": "min*ug/mL/(mg/g)"}, {"conceptId": "C117957", "definition": "Minutes times micrograms per milliliter (area under the curve), divided by milligrams per gram per day (daily dose normalized by body weight).", "preferredTerm": "Minute Times Microgram Per Milliliter Per Milligram Per Gram Per Day", "submissionValue": "min*ug/mL/(mg/g/day)"}, {"conceptId": "C111259", "definition": "Minutes times micrograms per milliliter (area under the curve), divided by meters squared (surface area).", "preferredTerm": "Minute Times Microgram per Milliliter per Meter Squared", "submissionValue": "min*ug/mL/m2"}, {"conceptId": "C85733", "definition": "Minutes times micromoles per liter (area under the curve).", "preferredTerm": "Minute Times Nanomole per Milliliter", "submissionValue": "min*umol/L"}, {"conceptId": "C111260", "definition": "Minutes times micromoles per liter (area under the curve), divided by kilograms per meter squared (body mass index).", "preferredTerm": "Minute Times Micromole per Liter per Kilogram per Meter Squared", "submissionValue": "min*umol/L/(kg/m2)"}, {"conceptId": "C117958", "definition": "Minutes times micromoles per liter (area under the curve), divided by milligrams per gram (dose normalized by body weight).", "preferredTerm": "Minute Times Micromole Per Liter Per Milligram Per Gram", "submissionValue": "min*umol/L/(mg/g)"}, {"conceptId": "C117959", "definition": "Minutes times micromoles per liter (area under the curve), divided by milligrams per gram per day (daily dose normalized by body weight).", "preferredTerm": "Minute Times Micromole Per Liter Per Milligram Per Gram Per Day", "submissionValue": "min*umol/L/(mg/g/day)"}, {"conceptId": "C111261", "definition": "Minutes times micromoles per liter (area under the curve), divided by meters squared (surface area).", "preferredTerm": "Minute Times Micromole per Liter per Meter Squared", "submissionValue": "min*umol/L/m2"}, {"conceptId": "C48513", "definition": "A unit of amount of substance equal to one thousandth (10E-3) of a mole.", "preferredTerm": "Millimole", "submissionValue": "mmol", "synonyms": ["Millimole"]}, {"conceptId": "C64387", "definition": "A unit of concentration (molarity unit) equal to one millimole of solute per liter of solution.", "preferredTerm": "Millimole per Liter", "submissionValue": "mmol/L", "synonyms": ["Micromole per Milliliter", "Millimole per Liter", "Mole per Cubic Meter", "mcmol/mL", "mmol/L", "mol/m3", "nmol/uL", "umol/mL"]}, {"conceptId": "C119412", "definition": "Millimoles per liter (concentration), divided by kilograms per meter squared (body mass index).", "preferredTerm": "Millimole per Liter per Kilogram per Meter Squared", "submissionValue": "mmol/L/(kg/m2)"}, {"conceptId": "C119425", "definition": "Millimoles per liter (concentration), divided by meters squared (surface area).", "preferredTerm": "Millimole per Liter per Meter Squared", "submissionValue": "mmol/L/m2"}, {"conceptId": "C85720", "definition": "A unit of substance flow rate equal to one millimole per hour.", "preferredTerm": "Millimole per Hour", "submissionValue": "mmol/h"}, {"conceptId": "C85722", "definition": "A unit of substance flow rate equal to one millimole per minute.", "preferredTerm": "Millimole per Minute", "submissionValue": "mmol/min"}, {"conceptId": "C42539", "definition": "The base unit of amount of substance in the International System of Units (SI). It is equal to the same number of elementary units as there are atoms in 0.012 kg of carbon-12.", "preferredTerm": "Mole", "submissionValue": "mol", "synonyms": ["Mole"]}, {"conceptId": "C48555", "definition": "A unit of concentration (molarity unit) equal to one mole of solute in one liter of solution.(NCI)", "preferredTerm": "Mole per Liter", "submissionValue": "mol/L", "synonyms": ["Mole per Liter", "mmol/mL", "mol/L"]}, {"conceptId": "C119428", "definition": "Moles per liter (concentration), divided by kilograms per meter squared (body mass index).", "preferredTerm": "Mole per Liter per Kilogram per Meter Squared", "submissionValue": "mol/L/(kg/m2)"}, {"conceptId": "C119441", "definition": "Moles per liter (concentration), divided by meters squared (surface area).", "preferredTerm": "Mole per Liter per Meter Squared", "submissionValue": "mol/L/m2"}, {"conceptId": "C85737", "definition": "A unit of substance flow rate equal to one mole per day.", "preferredTerm": "Mole per Day", "submissionValue": "mol/day"}, {"conceptId": "C85738", "definition": "A unit of substance flow rate equal to one mole per hour.", "preferredTerm": "Mole per Hour", "submissionValue": "mol/h"}, {"conceptId": "C85739", "definition": "A unit of substance flow rate equal to one mole per minute.", "preferredTerm": "Mole per Minute", "submissionValue": "mol/min"}, {"conceptId": "C48516", "definition": "A unit of mass equal to one billionth (10E-9) of a gram.", "preferredTerm": "Nanogram", "submissionValue": "ng", "synonyms": ["Nanogram"]}, {"conceptId": "C85741", "definition": "A unit of mass flow rate equal to one nanogram per day.", "preferredTerm": "Nanogram per Day", "submissionValue": "ng/day"}, {"conceptId": "C85742", "definition": "A unit of mass flow rate equal to one nanogram per hour.", "preferredTerm": "Nanogram per Hour", "submissionValue": "ng/h"}, {"conceptId": "C67306", "definition": "A unit of concentration or mass density equal to one nanogram of substance per milliliter of solution or one microgram of substance per liter of solution.", "preferredTerm": "Microgram per Liter", "submissionValue": "ng/mL", "synonyms": ["Microgram per Liter", "Milligram per Cubic Meter", "Nanogram per Milliliter", "mcg/L", "mg/m3", "ng/mL", "ug/L"]}, {"conceptId": "C119444", "definition": "Nanograms per milliliter (concentration), divided by kilograms per meter squared (body mass index).", "preferredTerm": "Nanogram per Milliliter per Kilogram per Meter Squared", "submissionValue": "ng/mL/(kg/m2)"}, {"conceptId": "C119454", "definition": "Nanograms per milliliter (concentration), divided by meters squared (surface area).", "preferredTerm": "Nanogram per Milliliter per Meter Squared", "submissionValue": "ng/mL/m2"}, {"conceptId": "C85749", "definition": "A unit of mass flow rate equal to one nanogram per minute.", "preferredTerm": "Nanogram per Minute", "submissionValue": "ng/min"}, {"conceptId": "C48517", "definition": "A unit of amount of substance equal to one billionth (10E-9) of a mole.(NCI)", "preferredTerm": "Nanomole", "submissionValue": "nmol", "synonyms": ["Nanomole"]}, {"conceptId": "C67432", "definition": "A unit of concentration (molarity unit) equal to one nanomole of solute per liter of solution.", "preferredTerm": "Nanomole per Liter", "submissionValue": "nmol/L", "synonyms": ["Nanomole per Liter", "pmol/mL"]}, {"conceptId": "C119456", "definition": "Nanomoles per liter (concentration), divided by kilograms per meter squared (body mass index).", "preferredTerm": "Nanomole per Liter per Kilogram per Meter Squared", "submissionValue": "nmol/L/(kg/m2)"}, {"conceptId": "C119469", "definition": "Nanomoles per liter (concentration), divided by meters squared (surface area).", "preferredTerm": "Nanomole per Liter per Meter Squared", "submissionValue": "nmol/L/m2"}, {"conceptId": "C85751", "definition": "A unit of substance flow rate equal to one nanomole per day.", "preferredTerm": "Nanomole per Day", "submissionValue": "nmol/day"}, {"conceptId": "C85753", "definition": "A unit of substance flow rate equal to one nanomole per hour.", "preferredTerm": "Nanomole per Hour", "submissionValue": "nmol/h"}, {"conceptId": "C85758", "definition": "A unit of substance flow rate equal to one nanomole per minute.", "preferredTerm": "Nanomole per Minute", "submissionValue": "nmol/min"}, {"conceptId": "C85778", "definition": "A unit of mass flow rate equal to one picogram per day.", "preferredTerm": "Picogram per Day", "submissionValue": "pg/day"}, {"conceptId": "C85779", "definition": "A unit of mass flow rate equal to one picogram per hour.", "preferredTerm": "Picogram per Hour", "submissionValue": "pg/h"}, {"conceptId": "C67327", "definition": "A unit of concentration or mass density equal to one picogram of substance per milliliter of solution or one nanogram of substance per liter of solution.", "preferredTerm": "Nanogram per Liter", "submissionValue": "pg/mL", "synonyms": ["Microgram per Cubic Meter", "ng/L", "pg/mL", "ug/m3"]}, {"conceptId": "C119472", "definition": "Picograms per milliliter (concentration), divided by kilograms per meter squared (body mass index).", "preferredTerm": "Picogram per Milliliter per Kilogram per Meter Squared", "submissionValue": "pg/mL/(kg/m2)"}, {"conceptId": "C119483", "definition": "Picograms per milliliter (concentration), divided by meters squared (surface area).", "preferredTerm": "Picogram per Milliliter per Meter Squared", "submissionValue": "pg/mL/m2"}, {"conceptId": "C85782", "definition": "A unit of mass flow rate equal to one picogram per minute.", "preferredTerm": "Picogram per Minute", "submissionValue": "pg/min"}, {"conceptId": "C65045", "definition": "A unit of amount of substance equal to a trillionth (10E-12) of a mole.(NCI)", "preferredTerm": "Picomole", "submissionValue": "pmol", "synonyms": ["Picomole"]}, {"conceptId": "C67434", "definition": "A unit of concentration (molarity unit) equal to one picomole of solute per liter of solution.", "preferredTerm": "Picomole per Liter", "submissionValue": "pmol/L", "synonyms": ["Femtomole per Milliliter", "Picomole per Liter", "fmol/mL"]}, {"conceptId": "C119485", "definition": "Picomoles per liter (concentration), divided by kilograms per meter squared (body mass index).", "preferredTerm": "Picomole per Liter per Kilogram per Meter Squared", "submissionValue": "pmol/L/(kg/m2)"}, {"conceptId": "C119498", "definition": "Picomoles per liter (concentration), divided by meters squared (surface area).", "preferredTerm": "Picomole per Liter per Meter Squared", "submissionValue": "pmol/L/m2"}, {"conceptId": "C67405", "definition": "A unit of concentration (biologic activity) equal to one micro-international unit of substance per milliliter of solution or one milli-international unit of substance per liter of solution.", "preferredTerm": "Microinternational Unit per Milliliter", "submissionValue": "uIU/mL", "synonyms": ["Micro-International Unit per milliliter", "mIE/L", "mIU/L", "mcIU/mL", "uIU/mL"]}, {"conceptId": "C119513", "definition": "Micro-international units per milliliter (concentration), divided by kilograms per meter squared (body mass index).", "preferredTerm": "Micro-International Units per Milliliter per Kilogram per Meter Squared", "submissionValue": "uIU/mL/(kg/m2)"}, {"conceptId": "C119526", "definition": "Micro-international units per milliliter (concentration), divided by meters squared (surface area).", "preferredTerm": "Micro-International Units per Milliliter per Meter Squared", "submissionValue": "uIU/mL/m2"}, {"conceptId": "C48152", "definition": "A unit of mass equal to one millionth (10E-6) of a gram.", "preferredTerm": "Microgram", "submissionValue": "ug", "synonyms": ["Microgram", "mcg"]}, {"conceptId": "C71205", "definition": "A unit of mass flow rate equal to one microgram per day.", "preferredTerm": "Microgram per Day", "submissionValue": "ug/day", "synonyms": ["mcg/day"]}, {"conceptId": "C67394", "definition": "A unit of mass flow rate equal to one microgram per hour.", "preferredTerm": "Microgram per Hour", "submissionValue": "ug/h", "synonyms": ["mcg/h"]}, {"conceptId": "C64572", "definition": "A unit of concentration or mass density equal to one microgram of substance per milliliter of solution or one milligram of substance per liter of solution.", "preferredTerm": "Microgram per Milliliter", "submissionValue": "ug/mL", "synonyms": ["Gram per Cubic Meter", "Microgram per Milliliter", "Milligram per Liter", "g/m3", "mcg/mL", "mg/L", "ng/uL", "ug/mL"]}, {"conceptId": "C119500", "definition": "Micrograms per milliliter (concentration), divided by kilograms per meter squared (body mass index).", "preferredTerm": "Microgram per Milliliter per Kilogram per Meter Squared", "submissionValue": "ug/mL/(kg/m2)"}, {"conceptId": "C119511", "definition": "Micrograms per milliliter (concentration), divided by meters squared (surface area).", "preferredTerm": "Microgram per Milliliter per Meter Squared", "submissionValue": "ug/mL/m2"}, {"conceptId": "C71211", "definition": "A unit of mass flow rate equal to one microgram per minute.", "preferredTerm": "Microgram per Minute", "submissionValue": "ug/min", "synonyms": ["mcg/min"]}, {"conceptId": "C48509", "definition": "A unit of amount of substance equal to one millionth (10E-6) of a mole.(NCI)", "preferredTerm": "Micromole", "submissionValue": "umol", "synonyms": ["Micromole", "mcmol"]}, {"conceptId": "C48508", "definition": "A unit of concentration (molarity unit) equal to one micromole of solute per liter of solution.", "preferredTerm": "Micromole per Liter", "submissionValue": "umol/L", "synonyms": ["nmol/mL"]}, {"conceptId": "C119529", "definition": "Micromoles per liter (concentration), divided by kilograms per meter squared (body mass index).", "preferredTerm": "Micromole per Liter per Kilogram per Meter Squared", "submissionValue": "umol/L/(kg/m2)"}, {"conceptId": "C119542", "definition": "Micromoles per liter (concentration), divided by meters squared (surface area).", "preferredTerm": "Micromole per Liter per Meter Squared", "submissionValue": "umol/L/m2"}, {"conceptId": "C67406", "definition": "A unit of substance flow rate equal to one micromole per day.", "preferredTerm": "Micromole per 24 Hours", "submissionValue": "umol/day", "synonyms": ["mcmol/day"]}, {"conceptId": "C85707", "definition": "A unit of substance flow rate equal to one micromole per hour.", "preferredTerm": "Micromole per Hour", "submissionValue": "umol/h"}, {"conceptId": "C85708", "definition": "A unit of substance flow rate equal to one micromole per minute.", "preferredTerm": "Micromole per Minute", "submissionValue": "umol/min", "synonyms": ["mcmol/min"]}]}