{"_links": {"parentPackage": {"href": "/mdr/ct/packages/sendct-2017-06-30", "title": "SEND Controlled Terminology Package 30 Effective 2017-06-30", "type": "Terminology"}, "priorVersion": {"href": "/mdr/ct/packages/sendct-2017-03-31/codelists/C89967", "title": "CDISC SEND Study Design Terminology", "type": "Code List"}, "rootItem": {"href": "/mdr/root/ct/sendct/codelists/C89967", "title": "Version-agnostic anchor resource for codelist C89967", "type": "Root Value Domain"}, "self": {"href": "/mdr/ct/packages/sendct-2017-06-30/codelists/C89967", "title": "CDISC SEND Study Design Terminology", "type": "Code List"}}, "conceptId": "C89967", "definition": "Terminology related to the plan detailing how a study will be performed in order to represent the phenomenon under examination, to answer the research questions that have been asked, and defining the methods of data analysis.", "extensible": "true", "name": "Study Design", "preferredTerm": "CDISC SEND Study Design Terminology", "submissionValue": "DESIGN", "synonyms": ["Study Design"], "terms": [{"conceptId": "C82637", "definition": "Participants receive one of two or more alternative intervention(s) during the initial epoch of the study and receive other intervention(s) during the subsequent epoch(s) of the study.", "preferredTerm": "Crossover Study", "submissionValue": "CROSSOVER"}, {"conceptId": "C90475", "definition": "A study in which the dosage of the test article is increased until the desired physiological effect or toxicity is seen. In some instances, the maximum dose may be pre-determined.", "preferredTerm": "Titration Study", "submissionValue": "DOSE ESCALATION", "synonyms": ["Rising Dose"]}, {"conceptId": "C82638", "definition": "Two or more interventions, each alone and in combination, are evaluated in parallel against a control group.", "preferredTerm": "Factorial Study", "submissionValue": "FACTORIAL"}, {"conceptId": "C90402", "definition": "A type of crossover study in which the subject receives every treatment during the study. The treatments are administered in a prespecified order in such a way that each subject receives each treatment and each treatment is in each study phase.", "preferredTerm": "Latin Square Study", "submissionValue": "LATIN SQUARE"}, {"conceptId": "C82639", "definition": "Participants are assigned to one of two or more arms in parallel for the duration of the study.", "preferredTerm": "Parallel Study", "submissionValue": "PARALLEL"}]}