{"_links": {"parentPackage": {"href": "/mdr/ct/packages/sendct-2017-06-30", "title": "SEND Controlled Terminology Package 30 Effective 2017-06-30", "type": "Terminology"}, "priorVersion": {"href": "/mdr/ct/packages/sendct-2017-03-31/codelists/C90004", "title": "CDISC SEND Tumor Findings Histopathology Result Category Terminology", "type": "Code List"}, "rootItem": {"href": "/mdr/root/ct/sendct/codelists/C90004", "title": "Version-agnostic anchor resource for codelist C90004", "type": "Root Value Domain"}, "self": {"href": "/mdr/ct/packages/sendct-2017-06-30/codelists/C90004", "title": "CDISC SEND Tumor Findings Histopathology Result Category Terminology", "type": "Code List"}}, "conceptId": "C90004", "definition": "Terminology related to the classifications of the results from a histopathological analysis of a tumor.", "extensible": "false", "name": "Neoplastic Status", "preferredTerm": "CDISC SEND Tumor Findings Histopathology Result Category Terminology", "submissionValue": "NEOSTAT", "synonyms": ["Neoplastic Status"], "terms": [{"conceptId": "C14172", "definition": "For neoplasms, a non-infiltrating and non-metastasizing neoplastic process that is characterized by the absence of morphologic features associated with malignancy (e.g., severe atypia, nuclear pleomorphism, tumor cell necrosis, and abnormal mitoses). For other conditions, a process that is mild in nature and not dangerous to health. (NCI)", "preferredTerm": "Benign", "submissionValue": "BENIGN", "synonyms": ["Benign"]}, {"conceptId": "C14143", "definition": "Refers to abnormal cell activity manifested by decreased control over growth and function, causing tumor growth or spread into surrounding tissue and adverse effects to the host. (NCI)", "preferredTerm": "Malignant", "submissionValue": "MALIGNANT", "synonyms": ["Malignant"]}, {"conceptId": "C14174", "definition": "A term referring to the pathologic observation of a tumor extension or migration from its original site of growth to another non-adjacent site.", "preferredTerm": "Metastatic", "submissionValue": "METASTATIC", "synonyms": ["Metastatic"]}, {"conceptId": "C89084", "definition": "A term referring to the lack of definitive clinical or pathologic criteria for a tumor to predict its clinical course or classify it as benign or malignant.", "preferredTerm": "Undetermined", "submissionValue": "UNDETERMINED", "synonyms": ["Undetermined"]}]}