{"_links": {"parentPackage": {"href": "/mdr/ct/packages/sendct-2017-06-30", "title": "SEND Controlled Terminology Package 30 Effective 2017-06-30", "type": "Terminology"}, "priorVersion": {"href": "/mdr/ct/packages/sendct-2017-03-31/codelists/C90009", "title": "CDISC SEND Trial Summary Parameter Short Name Terminology", "type": "Code List"}, "rootItem": {"href": "/mdr/root/ct/sendct/codelists/C90009", "title": "Version-agnostic anchor resource for codelist C90009", "type": "Root Value Domain"}, "self": {"href": "/mdr/ct/packages/sendct-2017-06-30/codelists/C90009", "title": "CDISC SEND Trial Summary Parameter Short Name Terminology", "type": "Code List"}}, "conceptId": "C90009", "definition": "Terminology related to the parameter codes of the individual characteristics of a nonclinical study.", "extensible": "true", "name": "SEND Trial Summary Parameter Test Code", "preferredTerm": "CDISC SEND Trial Summary Parameter Short Name Terminology", "submissionValue": "STSPRMCD", "synonyms": ["SEND Trial Summary Parameter Test Code"], "terms": [{"conceptId": "C25150", "definition": "How long something has existed; elapsed time since birth. (NCI)", "preferredTerm": "Age", "submissionValue": "AGE", "synonyms": ["Age"]}, {"conceptId": "C90352", "definition": "A textual representation of a chronological age. (NCI)", "preferredTerm": "Age Text", "submissionValue": "AGETXT", "synonyms": ["Age Text"]}, {"conceptId": "C50400", "definition": "Those units of time that are routinely used to express the age of a person. (NCI)", "preferredTerm": "Age Unit", "submissionValue": "AGEU", "synonyms": ["Age Unit"]}, {"conceptId": "C90354", "definition": "A backup sequence of characters used to identify a study. (NCI)", "preferredTerm": "Alternate Study Identifier", "submissionValue": "ALTSTDID", "synonyms": ["Alternate Study ID"]}, {"conceptId": "C83216", "definition": "A character or string that represents a planned arm of a trial or study.", "preferredTerm": "Planned Arm Code", "submissionValue": "ARMCD", "synonyms": ["Arm Code"]}, {"conceptId": "C90359", "definition": "An indication that one study is related to another. (NCI)", "preferredTerm": "Associated Study", "submissionValue": "ASOCSTDY", "synonyms": ["Associated Study"]}, {"conceptId": "C90365", "definition": "A replacement of the existing materials that make up the sleeping area of a subject. (NCI)", "preferredTerm": "Bedding Change", "submissionValue": "BEDCHNG", "synonyms": ["Bedding Change"]}, {"conceptId": "C90366", "definition": "That which comprises the place where a subject sleeps. (NCI)", "preferredTerm": "Bedding Material", "submissionValue": "BEDDING", "synonyms": ["Bedding"]}, {"conceptId": "C132489", "definition": "The name of a scientist involved in study activities, which may include but is not limited to preparation of a contributor report. This role does not imply regulatory responsibilities or oversight.", "preferredTerm": "Non-clinical Contributing Scientist Name", "submissionValue": "CNTRBSC", "synonyms": ["Contributing Scientist"]}, {"conceptId": "C90364", "definition": "The fundamental nutritional components that constitute an organism's daily intake of foodstuffs. (NCI)", "preferredTerm": "Basal Diet", "submissionValue": "DIET", "synonyms": ["Basal Diet"]}, {"conceptId": "C90378", "definition": "The interval of time over which a course of doses occurs. (NCI)", "preferredTerm": "Duration of Dosing", "submissionValue": "DOSDUR", "synonyms": ["Dosing Duration"]}, {"conceptId": "C90379", "definition": "The date and time at which the dosing interval concludes. (NCI)", "preferredTerm": "End Date Time Of Dose Interval", "submissionValue": "DOSENDTC", "synonyms": ["End Date/Time of Dose Interval"]}, {"conceptId": "C90459", "definition": "The date and time of the beginning of a dosing interval. (NCI)", "preferredTerm": "Start Date Time Of Dose Interval", "submissionValue": "DOSSTDTC", "synonyms": ["Start Date/Time of Dose Interval"]}, {"conceptId": "C90380", "definition": "The temperature of the surroundings. (NCI)", "preferredTerm": "Environmental Temperature", "submissionValue": "ENVTEMP", "synonyms": ["Environmental Temperature"]}, {"conceptId": "C90381", "definition": "The units of measure that are used to express the temperature of the surroundings. (NCI)", "preferredTerm": "Environmental Temperature Units", "submissionValue": "ENVTEMPU", "synonyms": ["Environmental Temperature Units"]}, {"conceptId": "C90382", "definition": "Experimental completion date means the last date on which data are collected from the study. (OECD)", "preferredTerm": "Experiment End Date", "submissionValue": "EXPENDTC", "synonyms": ["Experimental End Date"]}, {"conceptId": "C90487", "definition": "Experimental starting date means the date on which the first study specific data are collected. (OECD)", "preferredTerm": "Experiment Start Date", "submissionValue": "EXPSTDTC", "synonyms": ["Experimental Start Date"]}, {"conceptId": "C90383", "definition": "A plan that specifies a diet, amount and schedule of nutritional intake.", "preferredTerm": "Feeding Regimen", "submissionValue": "FEEDREG", "synonyms": ["Feeding Regimen"]}, {"conceptId": "C120944", "definition": "Indicates whether a study is conducted according to Good Laboratory Practices (GLP).", "preferredTerm": "Good Laboratory Practice Indicator Flag", "submissionValue": "GLPFL", "synonyms": ["GLP Flag", "Good Laboratory Practice Flag"]}, {"conceptId": "C90389", "definition": "A quality system concerned with the organizational process and the conditions under which non-clinical health and environmental safety studies are planned, performed, monitored, recorded, archived and reported. (OECD)", "preferredTerm": "Good Laboratory Practice Type", "submissionValue": "GLPTYP", "synonyms": ["Good Laboratory Practice Type"]}, {"conceptId": "C90391", "definition": "Alpha-numeric character(s) assigned to identify a particular collection of subjects possessing common characteristic(s).", "preferredTerm": "Group Label", "submissionValue": "GRPLBL", "synonyms": ["Group Label"]}, {"conceptId": "C90394", "definition": "A classification of a group of animals based upon their shared living space.", "preferredTerm": "Housing Group", "submissionValue": "HOUSEGRP", "synonyms": ["Housing Group"]}, {"conceptId": "C90397", "definition": "The classification of a living space.", "preferredTerm": "Housing Type", "submissionValue": "HOUSETYP", "synonyms": ["Housing Type"]}, {"conceptId": "C90395", "definition": "The amount of water vapor in the air of a living space.", "preferredTerm": "Housing Humidity", "submissionValue": "HUMIDT", "synonyms": ["Housing Humidity"]}, {"conceptId": "C90396", "definition": "The units of measure that are used to express the humidity of a living space.", "preferredTerm": "Housing Humidity Units", "submissionValue": "HUMIDTU", "synonyms": ["Housing Humidity Units"]}, {"conceptId": "C90398", "definition": "The animal welfare assurance number issued by the NIH Office of Laboratory Animal Welfare (OLAW) after research protocols and evaluations are reviewed by the Institutional Animal Care and Use Committee (IACUC). (NCI)", "preferredTerm": "IACUC Number", "submissionValue": "IACUC", "synonyms": ["IACUC Number"]}, {"conceptId": "C90422", "definition": "The mechanism by which the test subject is identified.", "preferredTerm": "Method Of Identification", "submissionValue": "IDMETH", "synonyms": ["Method of Identification"]}, {"conceptId": "C90399", "definition": "The planned duration from the start of dosing to the interim sacrifice of the subject. (NCI)", "preferredTerm": "Interim Sacrifice Period", "submissionValue": "INTSAC", "synonyms": ["Time to Interim Sacrifice"]}, {"conceptId": "C90419", "definition": "The period of light that a subject is exposed to in a period of time, usually expressed as the amount of time in a 24 hour cycle.", "preferredTerm": "Light Cycle", "submissionValue": "LIGHT", "synonyms": ["Light Cycle"]}, {"conceptId": "C90423", "definition": "The mechanism or means by which a life is ended.", "preferredTerm": "Method of Termination of Life", "submissionValue": "MTHTRM", "synonyms": ["Method of Termination"]}, {"conceptId": "C98768", "definition": "The pharmacological class of the investigational product.", "preferredTerm": "Pharmacological Class of Investigational Therapy", "submissionValue": "PCLASS", "synonyms": ["Pharmacologic Class"]}, {"conceptId": "C129943", "definition": "The name of the investigator who is responsible for defined aspects of a study, as specified in the study protocol.", "preferredTerm": "Non-Clinical Principal Investigator Name", "submissionValue": "PINV", "synonyms": ["Principal Investigator"]}, {"conceptId": "C90437", "definition": "The intended quantity of female subjects.", "preferredTerm": "Planned Number of Female Subjects", "submissionValue": "PLANFSUB", "synonyms": ["Planned Number of Female Subjects"]}, {"conceptId": "C90438", "definition": "The intended quantity of male subjects.", "preferredTerm": "Planned Number of Male Subjects", "submissionValue": "PLANMSUB", "synonyms": ["Planned Number of Male Subjects"]}, {"conceptId": "C90439", "definition": "The identifier assigned to a project that conveys a particular authorization. (NCI)", "preferredTerm": "Project License Number", "submissionValue": "PPL", "synonyms": ["Project License Number"]}, {"conceptId": "C90446", "definition": "The duration from the end of dosing to the final sacrifice of the subject. (NCI)", "preferredTerm": "Recovery Sacrifice Period", "submissionValue": "RECSAC", "synonyms": ["Recovery Period", "Recovery Sacrifice Period"]}, {"conceptId": "C38114", "definition": "The course by which a substance is administered in order to reach the site of action in the body.", "preferredTerm": "Route of Administration", "submissionValue": "ROUTE", "synonyms": ["Route of Administration"]}, {"conceptId": "C90460", "definition": "Additional clarifying details regarding the test system under study, such as a description of a phenotypic alteration associated with the specific genetic modification captured or collected in the STRAIN/SUBSTRAIN variable.", "preferredTerm": "Strain Substrain Details", "submissionValue": "SBSTRAIN", "synonyms": ["Strain/Substrain Details"]}, {"conceptId": "C95082", "definition": "A plan detailing how a trial or study will be performed in order to represent the phenomenon under examination, to answer the research questions that have been asked, and defining the methods of data analysis. Study design is driven by the research hypothesis being posed, study subject/population/sample available, logistics/resources: technology, support, networking, collaborative support, etc.", "preferredTerm": "Nonclinical Study Design", "submissionValue": "SDESIGN", "synonyms": ["Study Design"]}, {"conceptId": "C90455", "definition": "Character(s) assigned to identify a particular set of subjects or ideas. (NCI)", "preferredTerm": "Set Label", "submissionValue": "SETLBL", "synonyms": ["Set Label"]}, {"conceptId": "C49696", "definition": "The specific sex, either male, female, or mixed of the subject group being studied. (NCI)", "preferredTerm": "Sex of Study Group", "submissionValue": "SEXPOP", "synonyms": ["Sex of Participants"]}, {"conceptId": "C95105", "definition": "The anticipated length of a nonclinical study measured as a unit of time. (NCI)", "preferredTerm": "Nonclinical Study Length", "submissionValue": "SLENGTH", "synonyms": ["Study Length"]}, {"conceptId": "C96370", "definition": "The version of the Standard for the Exchange of Nonclinical Data Controlled Terminology that is being used in the study.", "preferredTerm": "Standard for the Exchange of Nonclinical Data Controlled Terminology Version", "submissionValue": "SNDCTVER", "synonyms": ["SEND Controlled Terminology Version"]}, {"conceptId": "C90458", "definition": "The version of the Standard for the Exchange of Nonclinical Data Implementation Guide that is being used in the study submission.", "preferredTerm": "Standard for the Exchange of Nonclinical Data Implementation Guide Version", "submissionValue": "SNDIGVER", "synonyms": ["SEND IG Version", "SEND Implementation Guide Version"]}, {"conceptId": "C96433", "definition": "The common name for an animal used as the test system on a study (e.g., dog, monkey, mouse, rabbit, rat).", "preferredTerm": "SEND Test System Common Name", "submissionValue": "SPECIES", "synonyms": ["Species"]}, {"conceptId": "C90456", "definition": "Alpha-numeric character(s) assigned by the sponsor to identify a particular collection of subjects possessing common characteristic(s).", "preferredTerm": "Sponsor Defined Group Code", "submissionValue": "SPGRPCD", "synonyms": ["Sponsor-Defined Group Code"]}, {"conceptId": "C95106", "definition": "The planned number of subjects to be entered in a nonclinical study.", "preferredTerm": "Planned Number of Nonclinical Subjects", "submissionValue": "SPLANSUB", "synonyms": ["Planned Number of Subjects"]}, {"conceptId": "C90474", "definition": "The geographic location of the organization that supplied the test subjects.", "preferredTerm": "Test Subject Supplier Site", "submissionValue": "SPLRLOC", "synonyms": ["Test Subject Supplier Site"]}, {"conceptId": "C90473", "definition": "The name of the organization that supplied the test subjects. (NCI)", "preferredTerm": "Test Subject Supplier", "submissionValue": "SPLRNAM", "synonyms": ["Test Subject Supplier", "Test Subject Supplier Name"]}, {"conceptId": "C135009", "definition": "The reference identifier by which the study is known to the sponsor. This may be different from the STUDYID if the data were collected under a different identifier in the GLP protocol (e.g., used in a situation where a contract facility performs the study and provides a final report).", "preferredTerm": "Sponsor Study Reference Identifier", "submissionValue": "SPREFID", "synonyms": ["Sponsor's Study Reference ID"]}, {"conceptId": "C95104", "definition": "The process of assigning nonclinical study subjects to treatment or control groups using an element of chance to determine the assignments in order to reduce bias. (NCI)", "preferredTerm": "Nonclinical Randomization", "submissionValue": "SRANDOM", "synonyms": ["Study Is Randomized"]}, {"conceptId": "C129946", "definition": "The name of the entity that is responsible for the initiation, management, and/or financing of a nonclinical study. (NCI)", "preferredTerm": "Nonclinical Study Sponsor Name", "submissionValue": "SSPONSOR", "synonyms": ["Sponsoring Organization"]}, {"conceptId": "C92644", "definition": "The type of nonclinical study performed e.g. Single Dose, Repeat Dose. (NCI)", "preferredTerm": "Nonclinical Study Type", "submissionValue": "SSTYP", "synonyms": ["Study Type"]}, {"conceptId": "C90461", "definition": "The classification of the study. (NCI)", "preferredTerm": "Study Category", "submissionValue": "STCAT", "synonyms": ["Study Category"]}, {"conceptId": "C129944", "definition": "The name of the person who has overall responsibility for the technical conduct of a study, as well as for the interpretation, analysis, documentation and reporting of results, and represents the single point of study control. (FDA)", "preferredTerm": "Study Chair Name", "submissionValue": "STDIR", "synonyms": ["Study Director"]}, {"conceptId": "C99156", "definition": "The date on which the final report is signed by the study director. Also known as Study Completion Date. (FDA)", "preferredTerm": "Nonclinical Study End Date", "submissionValue": "STENDTC", "synonyms": ["Study Completion Date", "Study End Date"]}, {"conceptId": "C95108", "definition": "The name of a nonclinical study.", "preferredTerm": "Nonclinical Study Title", "submissionValue": "STITLE", "synonyms": ["Study Title"]}, {"conceptId": "C129945", "definition": "The name of the individual working for the sponsor responsible for overseeing the activities of the study.", "preferredTerm": "Study Sponsor Monitor Name", "submissionValue": "STMON", "synonyms": ["Sponsor's Monitor"]}, {"conceptId": "C96373", "definition": "The vendor-supplied species/strain/substrain designation for the test system under study. It may combine the species, background strain, substrain, and associated genetic modifications as supplied by the vendor (e.g. FISCHER 344, SPRAGUE-DAWLEY IGS, WISTAR Kyoto, BEAGLE, CYNOMOLGUS, RHESUS and CHIMPANZEE).", "preferredTerm": "SEND Test System Strain", "submissionValue": "STRAIN", "synonyms": ["Strain/Substrain"]}, {"conceptId": "C99157", "definition": "The date on which the protocol is signed by the study director. Also known as Study Initiation Date. (FDA)", "preferredTerm": "Nonclinical Study Start Date", "submissionValue": "STSTDTC", "synonyms": ["Study Initiation Date", "Study Start Date"]}, {"conceptId": "C49647", "definition": "Comparator against which the study treatment is evaluated.", "preferredTerm": "Control Type", "submissionValue": "TCNTRL", "synonyms": ["Control Type"]}, {"conceptId": "C90467", "definition": "The country of the place in which a nonclinical laboratory study takes place, i.e., actually uses the test article in a test system. Testing facility includes any establishment required to register under section 510 of the act that conducts nonclinical laboratory studies and any consulting laboratory described in section 704 of the act that conducts such studies. Testing facility encompasses only those operational units that are being or have been used to conduct nonclinical laboratory studies. (FDA)", "preferredTerm": "Test Facility Country", "submissionValue": "TFCNTRY", "synonyms": ["Test Facility Country"]}, {"conceptId": "C90477", "definition": "Designation that a set will have samples drawn for toxicokinetic analysis.", "preferredTerm": "Toxicokinetic Description", "submissionValue": "TKDESC", "synonyms": ["Toxicokinetic Description"]}, {"conceptId": "C130198", "definition": "The total count of animals purchased for the conduct of a study.", "preferredTerm": "Total Number of Study Animals Purchased", "submissionValue": "TOTANPCH", "synonyms": ["Total Number of Study Animals Purchased"]}, {"conceptId": "C90466", "definition": "The duration from the start of dosing to the final sacrifice of the subject. (NCI)", "preferredTerm": "Terminal Sacrifice Period", "submissionValue": "TRMSAC", "synonyms": ["Time to Terminal Sacrifice"]}, {"conceptId": "C41161", "definition": "The investigational product under study.", "preferredTerm": "Protocol Agent", "submissionValue": "TRT", "synonyms": ["Investigational Therapy or Treatment"]}, {"conceptId": "C92645", "definition": "The Chemical Abstract Service registry number of the investigational product (test article).", "preferredTerm": "Study Agent CAS Registry Number", "submissionValue": "TRTCAS", "synonyms": ["Primary Treatment CAS Registry Number"]}, {"conceptId": "C25488", "definition": "The amount of drug administered to a patient or test subject at one time or the total quantity administered. [AMA Manual of Style] (CDISC Glossary)", "preferredTerm": "Dose", "submissionValue": "TRTDOS", "synonyms": ["Dose Level", "Dose per Administration"]}, {"conceptId": "C73558", "definition": "The unit of measure for the dosage form.", "preferredTerm": "Dosage Form Unit", "submissionValue": "TRTDOSU", "synonyms": ["Dose Units"]}, {"conceptId": "C92646", "definition": "The Unique Ingredient Identifier of the investigational product (test article).", "preferredTerm": "Study Agent Unique Ingredient Identifier", "submissionValue": "TRTUNII", "synonyms": ["Primary Treatment Unique Ingredient ID"]}, {"conceptId": "C927", "definition": "A carrier or inert medium used as a solvent (or diluent) in which a medicinally active agent is formulated and or administered. (NCI)", "preferredTerm": "Drug Vehicle", "submissionValue": "TRTV", "synonyms": ["Treatment Vehicle"]}, {"conceptId": "C90470", "definition": "The country in which a phase(s) of a study is conducted. (OECD)", "preferredTerm": "Test Site Country", "submissionValue": "TSCNTRY", "synonyms": ["Test Site Country"]}, {"conceptId": "C90471", "definition": "The geographic location(s) at which a phase(s) of a study is conducted. (OECD)", "preferredTerm": "Test Site Location", "submissionValue": "TSLOC", "synonyms": ["Test Site Location"]}, {"conceptId": "C90472", "definition": "The name of the location(s) at which a phase(s) of a study is conducted. (OECD)", "preferredTerm": "Test Site Name", "submissionValue": "TSNAM", "synonyms": ["Test Site Name"]}, {"conceptId": "C90468", "definition": "The geographic area of the place in which a nonclinical laboratory study takes place, i.e., actually uses the test article in a test system. Testing facility includes any establishment required to register under section 510 of the act that conducts nonclinical laboratory studies and any consulting laboratory described in section 704 of the act that conducts such studies. Testing facility encompasses only those operational units that are being or have been used to conduct nonclinical laboratory studies. (FDA)", "preferredTerm": "Test Facility Location", "submissionValue": "TSTFLOC", "synonyms": ["Test Facility Location"]}, {"conceptId": "C90469", "definition": "The name of the place in which a nonclinical laboratory study takes place, i.e., actually uses the test article in a test system. Testing facility includes any establishment required to register under section 510 of the act that conducts nonclinical laboratory studies and any consulting laboratory described in section 704 of the act that conducts such studies. Testing facility encompasses only those operational units that are being or have been used to conduct nonclinical laboratory studies. (FDA)", "preferredTerm": "Test Facility Name", "submissionValue": "TSTFNAM", "synonyms": ["Test Facility Name"]}, {"conceptId": "C90377", "definition": "The type of drinking water that is planned to be provided to the subjects in a set (e.g., tap water, acidified, reverse osmosis, etc.).", "preferredTerm": "Drinking Water", "submissionValue": "WATER", "synonyms": ["Drinking Water"]}, {"conceptId": "C90486", "definition": "The mechanism by which water is made available. (NCI)", "preferredTerm": "Water Delivery", "submissionValue": "WTRDLVRY", "synonyms": ["Water Delivery"]}]}