{"_links": {"parentPackage": {"href": "/mdr/ct/packages/protocolct-2018-09-28", "title": "PROTOCOL Controlled Terminology Package 35 Effective 2018-09-28", "type": "Terminology"}, "priorVersion": {"href": "/mdr/ct/packages/protocolct-2018-06-29/codelists/C132310", "title": "CDISC Protocol Entities Terminology", "type": "Code List"}, "rootItem": {"href": "/mdr/root/ct/protocolct/codelists/C132310", "title": "Version-agnostic anchor resource for codelist C132310", "type": "Root Value Domain"}, "self": {"href": "/mdr/ct/packages/protocolct-2018-09-28/codelists/C132310", "title": "CDISC Protocol Entities Terminology", "type": "Code List"}}, "conceptId": "C132310", "definition": "A terminology value set relevant to the entities within a protocol.", "name": "Protocol Entity Terminology", "preferredTerm": "CDISC Protocol Entities Terminology", "submissionValue": "Protocol Entity Terminology", "synonyms": ["Protocol Entity Terminology"], "terms": [{"conceptId": "C15206", "definition": "A clinical study involves research using human volunteers (also called participants) that is intended to add to medical knowledge. There are two main types of clinical studies: clinical trials (also called interventional studies) and observational studies. [ClinicalTrials.gov] See also clinical trial. (CDISC Glossary)", "preferredTerm": "Clinical Study", "submissionValue": "Clinical Study"}, {"conceptId": "C71104", "definition": "1) A research investigation involving human subjects that is designed to answer specific questions about the safety and efficacy of a biomedical intervention (drug, treatment, device) or new ways of using a known drug, treatment, or device). 2) A research study in which one or more human subjects are prospectively assigned to one or more interventions (which may include placebo or other control) to evaluate the effects of those interventions on health-related biomedical or behavioral outcomes.(1. modified from ICH E6 Glossary, Directive 2001/20/EC. 2. NIH revised definition 2015) (CDISC Glossary)", "preferredTerm": "Clinical Trial", "submissionValue": "Clinical Trial"}, {"conceptId": "C25407", "definition": "A standardized representation of the location of a person, business, building, or organization. (NCI)", "preferredTerm": "Address", "submissionValue": "Physical Address"}, {"conceptId": "C154705", "definition": "Information regarding the means of contacting a person or group that performs a function within a clinical study.", "preferredTerm": "Study Contact Information", "submissionValue": "Study Contact Information"}, {"conceptId": "C15320", "definition": "A plan detailing how a study will be performed in order to represent the phenomenon under examination, to answer the research questions that have been asked, and informing the statistical approach.", "preferredTerm": "Study Design", "submissionValue": "Study Design"}, {"conceptId": "C70817", "definition": "The formal plan of an experiment or research activity, including the objective, rationale, design, materials and methods for the conduct of the study, intervention description, and method of data analysis.", "preferredTerm": "Study Protocol", "submissionValue": "Study Protocol"}]}