{"_links": {"parentPackage": {"href": "/mdr/ct/packages/protocolct-2018-09-28", "title": "PROTOCOL Controlled Terminology Package 35 Effective 2018-09-28", "type": "Terminology"}, "rootItem": {"href": "/mdr/root/ct/protocolct/codelists/C154681", "title": "Version-agnostic anchor resource for codelist C154681", "type": "Root Value Domain"}, "self": {"href": "/mdr/ct/packages/protocolct-2018-09-28/codelists/C154681", "title": "CDISC Protocol Entities Protocol Contact Role Response Terminology", "type": "Code List"}}, "conceptId": "C154681", "definition": "The terminology relevant to the role that the individual or entity plays with respect to being a contact within a study protocol.", "name": "Protocol Contact Role Response", "preferredTerm": "CDISC Protocol Entities Protocol Contact Role Response Terminology", "submissionValue": "Protocol Contact Role Response", "synonyms": ["Protocol Contact Role Response"], "terms": [{"conceptId": "C154709", "definition": "A person who is responsible for the statistical aspects of the clinical or pre-clinical study. (NCI)", "preferredTerm": "Biostatistician", "submissionValue": "Biostatistician"}, {"conceptId": "C154708", "definition": "An individual that designs, implements, evaluates and/or analyzes information technology in a healthcare or research setting. (NCI)", "preferredTerm": "Clinical Informaticist", "submissionValue": "Clinical Informaticist", "synonyms": ["Clinical Informatician"]}, {"conceptId": "C51811", "definition": "A person to whom a clinical investigator delegates routine administrative requirements of a protocol. The duties and responsibilities of a clinical research coordinator may vary across different infrastructures. Generally, the coordinator manages the subject's clinical trial participation and provides a vital linkage between the subject, the investigator, and the sponsor. (NCI)", "preferredTerm": "Clinical Coordinator", "submissionValue": "Clinical Research Coordinator", "synonyms": ["CRC"]}, {"conceptId": "C127526", "definition": "The study contact person who is responsible for questions from the public.", "preferredTerm": "Public Queries Study Contact", "submissionValue": "Contact for Public Queries"}, {"conceptId": "C51818", "definition": "An investigator assigned the responsibility for the coordination of investigators at different centers participating in a multi-center trial. While a single-center study would not include a coordinating investigator, the investigator at the site would fulfill the same responsibilities as a principal investigator. (after ICH E6)", "preferredTerm": "Coordinating Investigator", "submissionValue": "Coordinating Investigator"}, {"conceptId": "C51820", "definition": "An individual who is responsible for the development and implementation of architectures, policies and procedures for the effective management of data across its business lifecycle.", "preferredTerm": "Data Manager", "submissionValue": "Data Manager"}, {"conceptId": "C25936", "definition": "A person responsible for the conduct of the clinical trial at a trial site. If a trial is conducted by a team of individuals at the trial site, the investigator is the responsible leader of the team and may be called the principle investigator.", "preferredTerm": "Investigator", "submissionValue": "Investigator"}, {"conceptId": "C127532", "definition": "An individual with expertise in the law who provides legal counsel and representation for a study.", "preferredTerm": "Legal Representative for the Study", "submissionValue": "Legal Representative for the Study"}, {"conceptId": "C51836", "definition": "A sponsor representative who has medical authority for the evaluation of the safety aspects of a clinical trial. (CDISC Glossary)", "preferredTerm": "Medical Monitor", "submissionValue": "Medical Monitor"}, {"conceptId": "C154706", "definition": "In the case of a multinational study, a person who has the responsibilities of the sponsor of the study in his/her country and will be responsible for the coordination of the principal investigators at different sites within that member state. (EMA)", "preferredTerm": "National Coordinating Investigator", "submissionValue": "National Coordinating Investigator"}, {"conceptId": "C70794", "definition": "The individual, organization, group or other legal person taking responsibility for securing the arrangements to initiate and/or manage a study (including arrangements to ensure that the study design meets appropriate standards and to ensure appropriate conduct and reporting). In commercial trials, the primary sponsor is normally the main applicant for regulatory authorization to begin the study. It may or may not be the main funder. (NCI)", "preferredTerm": "Primary Clinical Study Sponsor", "submissionValue": "Primary Sponsor"}, {"conceptId": "C19924", "definition": "A person who has the primary responsibility for the conduct of a clinical study and study-related personnel at a study site. While a single-center study would not include a coordinating investigator, the investigator at the site would fulfill the same responsibilities as a principal investigator.", "preferredTerm": "Principal Investigator", "submissionValue": "Principal Investigator"}, {"conceptId": "C70795", "definition": "Additional individuals, organizations or other legal persons, if any, that have agreed with the primary sponsor to take on responsibilities of sponsorship. A secondary sponsor may have agreed to take on all the responsibilities of sponsorship jointly with the primary sponsor; or to form a group with the primary sponsor in which the responsibilities of sponsorship are allocated among the members of the group; or to act as the sponsor's legal representative in relation to some or all of the study sites; or to take responsibility for the accuracy of study registration information submitted.", "preferredTerm": "Secondary Clinical Study Sponsor", "submissionValue": "Secondary Sponsor"}, {"conceptId": "C70793", "definition": "An entity that is responsible for the initiation, management, and/or financing of a clinical study.", "preferredTerm": "Clinical Study Sponsor", "submissionValue": "Sponsor", "synonyms": ["Clinical Study Sponsor", "Sponsor", "Study Sponsor"]}, {"conceptId": "C51878", "definition": "A person who has overall responsibility for the technical conduct of a study, as well as for the interpretation, analysis, documentation and reporting of results, and represents the single point of study control. (FDA)", "preferredTerm": "Study Chair", "submissionValue": "Study Chair", "synonyms": ["Study Director"]}, {"conceptId": "C54622", "definition": "Any member of the clinical trial team designated and supervised by the investigator at a trial site to perform critical trial-related procedures and/or to make important trial-related decisions (e.g., associates, residents, research fellows). (ICH)", "preferredTerm": "Subinvestigator", "submissionValue": "Subinvestigator"}, {"conceptId": "C154707", "definition": "An individual who is responsible for the delivery of technical aspects of a project. (NCI)", "preferredTerm": "Technical Lead", "submissionValue": "Technical Lead"}]}