{"_links": {"parentPackage": {"href": "/mdr/ct/packages/protocolct-2018-09-28", "title": "PROTOCOL Controlled Terminology Package 35 Effective 2018-09-28", "type": "Terminology"}, "priorVersion": {"href": "/mdr/ct/packages/protocolct-2018-06-29/codelists/C66736", "title": "CDISC SDTM Trial Indication Type Terminology", "type": "Code List"}, "rootItem": {"href": "/mdr/root/ct/protocolct/codelists/C66736", "title": "Version-agnostic anchor resource for codelist C66736", "type": "Root Value Domain"}, "self": {"href": "/mdr/ct/packages/protocolct-2018-09-28/codelists/C66736", "title": "CDISC SDTM Trial Indication Type Terminology", "type": "Code List"}}, "conceptId": "C66736", "definition": "A terminology codelist relevant to the responses for the planned purpose of the therapy, device, or agent under study in the clinical trial.", "extensible": "true", "name": "Trial Intent Type Response", "preferredTerm": "CDISC SDTM Trial Indication Type Terminology", "submissionValue": "TINDTP", "synonyms": ["Trial Intent Type Response"], "terms": [{"conceptId": "C15714", "definition": "A type of study designed to examine the basic mechanism of action (e.g., physiology, biomechanics) of an intervention. (ClinicalTrials.gov)", "preferredTerm": "Basic Research", "submissionValue": "BASIC SCIENCE", "synonyms": ["Basic Research"]}, {"conceptId": "C49654", "definition": "A type of study designed to evaluate intervention(s) aimed to cure a disease or condition.", "preferredTerm": "Cure Study", "submissionValue": "CURE"}, {"conceptId": "C139174", "definition": "An intervention of a device product is being evaluated to determine the feasibility of the product or to test a prototype device and not health outcomes. Such studies are conducted to confirm the design and operating specifications of a device before beginning a full clinical trial. (ClinicalTrials.gov)", "preferredTerm": "Device Feasibility Study", "submissionValue": "DEVICE FEASIBILITY"}, {"conceptId": "C49653", "definition": "A type of study designed to evaluate intervention(s) aimed at identifying a disease or condition.", "preferredTerm": "Diagnosis Study", "submissionValue": "DIAGNOSIS"}, {"conceptId": "C15245", "definition": "A type of study designed to evaluate the delivery, processes, management, organization or financing of health care. (ClinicalTrials.gov)", "preferredTerm": "Health Services Research", "submissionValue": "HEALTH SERVICES RESEARCH"}, {"conceptId": "C49655", "definition": "A type of study designed to identify actions necessary to eliminate or reduce the risk to human life or well-being as a result of a particular medication or treatment regimen. (NCI)", "preferredTerm": "Adverse Effect Mitigation Study", "submissionValue": "MITIGATION"}, {"conceptId": "C49657", "definition": "A type of study designed to identify actions necessary to permanently eliminate or reduce the long-term risk to human life as a result of a particular medication or treatment regimen.", "preferredTerm": "Prevention Study", "submissionValue": "PREVENTION", "synonyms": ["Prophylaxis Study"]}, {"conceptId": "C71485", "definition": "A type of study designed to assess or examine methods of identifying a condition (or risk factors for a condition) in people who are not yet known to have the condition (or risk factor). (Clinicaltrials.gov)", "preferredTerm": "Screening Study", "submissionValue": "SCREENING"}, {"conceptId": "C71486", "definition": "A type of study designed to evaluate one or more interventions where the primary intent is to maximize comfort, minimize side effects or mitigate against a decline in the subject's health or function. In general, supportive care interventions are not intended to cure a disease. (ClinicalTrials.gov)", "preferredTerm": "Supportive Care Study", "submissionValue": "SUPPORTIVE CARE"}, {"conceptId": "C49656", "definition": "A type of study designed to evaluate intervention(s) for treatment of disease, syndrome or condition.", "preferredTerm": "Treatment Study", "submissionValue": "TREATMENT", "synonyms": ["Therapy Trial"]}]}