{"_links": {"parentPackage": {"href": "/mdr/ct/packages/sendct-2019-12-20", "title": "SEND Controlled Terminology Package 40 Effective 2019-12-20", "type": "Terminology"}, "priorVersion": {"href": "/mdr/ct/packages/sendct-2019-09-27/codelists/C124325", "title": "CDISC SEND Pregnancy Findings Test Name Terminology", "type": "Code List"}, "rootItem": {"href": "/mdr/root/ct/sendct/codelists/C124325", "title": "Version-agnostic anchor resource for codelist C124325", "type": "Root Value Domain"}, "self": {"href": "/mdr/ct/packages/sendct-2019-12-20/codelists/C124325", "title": "CDISC SEND Pregnancy Findings Test Name Terminology", "type": "Code List"}}, "conceptId": "C124325", "definition": "Terminology for the test names relevant to pregnancy.", "extensible": "true", "name": "Pregnancy Findings Test Name", "preferredTerm": "CDISC SEND Pregnancy Findings Test Name Terminology", "submissionValue": "PYTEST", "synonyms": ["Pregnancy Findings Test Name"], "terms": [{"conceptId": "C124628", "definition": "A measurement of the average weight of all live female fetuses.", "preferredTerm": "Average Female Live Fetal Weight", "submissionValue": "Average Female Live Fetal Weight", "synonyms": ["Average Female Live Fetal Weight"]}, {"conceptId": "C124627", "definition": "A measurement of the average weight of all live fetuses.", "preferredTerm": "Average Live Fetal Weight", "submissionValue": "Average Live Fetal Weight", "synonyms": ["Average Live Fetal Weight"]}, {"conceptId": "C124629", "definition": "A measurement of the average weight of all live male fetuses.", "preferredTerm": "Average Male Live Fetal Weight", "submissionValue": "Average Male Live Fetal Weight", "synonyms": ["Average Male Live Fetal Weight"]}, {"conceptId": "C124619", "definition": "The number of corpora lutea present in the ovary/ovaries.", "preferredTerm": "Corpora Lutea Number", "submissionValue": "Corpora Lutea Count", "synonyms": ["Corpora Lutea Count"]}, {"conceptId": "C124621", "definition": "A measurement (expressed as a fraction or percent) of the number of live female fetuses to the total number of live male and female fetuses.", "preferredTerm": "Fetal Female Sex Ratio", "submissionValue": "Fetal Female Sex Ratio", "synonyms": ["Fetal Female Sex Ratio"]}, {"conceptId": "C124625", "definition": "A measurement (expressed as a fraction or percent) of the number of live male fetuses to the total number of live male and female fetuses.", "preferredTerm": "Fetal Male Sex Ratio", "submissionValue": "Fetal Male Sex Ratio", "synonyms": ["Fetal Male Sex Ratio"]}, {"conceptId": "C124620", "definition": "A measurement of the number of dead fetuses in the uterus/uterine horn(s).", "preferredTerm": "Number of Dead Fetuses", "submissionValue": "Number of Dead Fetuses", "synonyms": ["Number of Dead Fetuses"]}, {"conceptId": "C124635", "definition": "A measurement of the number of early resorptions in the uterus/uterine horn(s).", "preferredTerm": "Number of Early Resorptions", "submissionValue": "Number of Early Resorptions", "synonyms": ["Number of Early Resorptions"]}, {"conceptId": "C124626", "definition": "A measurement of the total number of fetuses (alive plus dead) present in the uterus/uterine horn(s).", "preferredTerm": "Number of Fetuses", "submissionValue": "Number of Fetuses", "synonyms": ["Number of Fetuses"]}, {"conceptId": "C124631", "definition": "A measurement of the number of implantations in the uterus/uterine horn(s).", "preferredTerm": "Number of Implantations", "submissionValue": "Number of Implantations", "synonyms": ["Number of Implantations"]}, {"conceptId": "C124632", "definition": "A measurement of the total number of deaths (dead fetuses plus resorptions) in the uterus/uterine horn(s).", "preferredTerm": "Number of Intrauterine Deaths", "submissionValue": "Number of Intrauterine Deaths", "synonyms": ["Number of Intrauterine Deaths"]}, {"conceptId": "C124636", "definition": "A measurement of the number of late resorptions in the uterus/uterine horn(s).", "preferredTerm": "Number of Late Resorptions", "submissionValue": "Number of Late Resorptions", "synonyms": ["Number of Late Resorptions"]}, {"conceptId": "C124622", "definition": "A measurement of the number of live female fetuses present in the uterus/uterine horn(s).", "preferredTerm": "Number of Live Female Fetuses", "submissionValue": "Number of Live Female Fetuses", "synonyms": ["Number of Live Female Fetuses"]}, {"conceptId": "C124624", "definition": "A measurement of the number of live fetuses in the uterus/uterine horn(s).", "preferredTerm": "Number of Live Fetuses", "submissionValue": "Number of Live Fetuses", "synonyms": ["Number of Live Fetuses"]}, {"conceptId": "C124623", "definition": "A measurement of the number of live male fetuses present in the uterus/uterine horn(s).", "preferredTerm": "Number of Live Male Fetuses", "submissionValue": "Number of Live Male Fetuses", "synonyms": ["Number of Live Male Fetuses"]}, {"conceptId": "C124637", "definition": "A measurement of the total number of resorptions (early plus late) in the uterus/uterine horn(s).", "preferredTerm": "Number of Resorptions", "submissionValue": "Number of Resorptions", "synonyms": ["Number of Resorptions"]}, {"conceptId": "C124634", "definition": "The percentage of implants that died, calculated as the number of intrauterine deaths divided by the number of implantations and multiplied by 100.", "preferredTerm": "Post-implantation Loss Percent", "submissionValue": "Post-implantation Loss Percent", "synonyms": ["Post-implantation Loss Percent"]}, {"conceptId": "C124633", "definition": "The percentage of released ova that failed to implant, calculated as the number of corpora lutea minus the number of implantations, divided by the number of corpora lutea and multiplied by 100.", "preferredTerm": "Pre-implantation Loss Percent", "submissionValue": "Pre-implantation Loss Percent", "synonyms": ["Pre-implantation Loss Percent"]}, {"conceptId": "C69218", "definition": "The condition or state of the subject with regards to pregnancy.", "preferredTerm": "Pregnancy Status", "submissionValue": "Pregnancy Status", "synonyms": ["Pregnancy Status"]}, {"conceptId": "C124630", "definition": "A measurement of the total weight of all live fetuses.", "preferredTerm": "Total Live Fetal Weight", "submissionValue": "Total Live Fetal Weight", "synonyms": ["Total Live Fetal Weight"]}]}