{"_links": {"parentPackage": {"href": "/mdr/ct/packages/sendct-2019-12-20", "title": "SEND Controlled Terminology Package 40 Effective 2019-12-20", "type": "Terminology"}, "priorVersion": {"href": "/mdr/ct/packages/sendct-2019-09-27/codelists/C90002", "title": "CDISC SEND Study Category Terminology", "type": "Code List"}, "rootItem": {"href": "/mdr/root/ct/sendct/codelists/C90002", "title": "Version-agnostic anchor resource for codelist C90002", "type": "Root Value Domain"}, "self": {"href": "/mdr/ct/packages/sendct-2019-12-20/codelists/C90002", "title": "CDISC SEND Study Category Terminology", "type": "Code List"}}, "conceptId": "C90002", "definition": "The type of nonclinical study performed e.g. pharmacokinetics, safety pharmacology and toxicology.", "extensible": "true", "name": "Study Category", "preferredTerm": "CDISC SEND Study Category Terminology", "submissionValue": "STCAT", "synonyms": ["Study Category"], "terms": [{"conceptId": "C18809", "definition": "The branch of toxicology that deals with adverse effects of chemical, physical or biological agents on genetic material.", "preferredTerm": "Genetic Toxicology", "submissionValue": "GENTOX", "synonyms": ["Genetic Toxicology"]}, {"conceptId": "C16974", "definition": "Science that deals with the characteristics, effects, and uses of drugs and their interactions with living organisms.", "preferredTerm": "Pharmacology", "submissionValue": "P", "synonyms": ["Pharmacology"]}, {"conceptId": "C15299", "definition": "The characteristic movements of drugs within biological systems, as affected by absorption, distribution, binding, elimination, biotransformation, and excretion; particularly the rates of such movements. (NCI)", "preferredTerm": "Pharmacokinetics", "submissionValue": "PK", "synonyms": ["Pharmacokinetics"]}, {"conceptId": "C90448", "definition": "The branch of toxicology that deals with adverse effects of chemical, physical or biological agents on reproduction and development.", "preferredTerm": "Reproductive and Developmental Toxicology", "submissionValue": "REPRO", "synonyms": ["DART", "Developmental and Reproductive Toxicology", "Reproductive and Developmental Toxicology"]}, {"conceptId": "C90452", "definition": "A branch of pharmacology that investigates the potential undesirable pharmacodynamic effects of a substance on physiological functions in relation to exposure in the therapeutic range and above. (safetypharmacology.org) (NCI)", "preferredTerm": "Safety Pharmacology", "submissionValue": "SP", "synonyms": ["Safety Pharmacology"]}, {"conceptId": "C17206", "definition": "Toxicology is the study of the adverse effects of chemical, physical or biological agents on people, animals, and the environment.", "preferredTerm": "Toxicology", "submissionValue": "TOX", "synonyms": ["Toxicology"]}]}