{"_links": {"parentPackage": {"href": "/mdr/ct/packages/sendct-2014-12-19", "title": "SEND Controlled Terminology Package 20 Effective 2014-12-19", "type": "Terminology"}, "priorVersion": {"href": "/mdr/ct/packages/sendct-2014-09-26/codelists/C71152", "title": "CDISC SDTM ECG Test Name Terminology", "type": "Code List"}, "rootItem": {"href": "/mdr/root/ct/sendct/codelists/C71152", "title": "Version-agnostic anchor resource for codelist C71152", "type": "Root Value Domain"}, "self": {"href": "/mdr/ct/packages/sendct-2014-12-19/codelists/C71152", "title": "CDISC SDTM ECG Test Name Terminology", "type": "Code List"}}, "conceptId": "C71152", "definition": "Terminology codelist used with ECG Test Names within CDISC.", "extensible": "true", "name": "ECG Test Name", "preferredTerm": "CDISC SDTM ECG Test Name Terminology", "submissionValue": "EGTEST", "synonyms": ["ECG Test Name"], "terms": [{"conceptId": "C116140", "definition": "An electrocardiographic finding assessment of new or presumed new significant ST-segment-T wave (ST-T) changes or new left bundle branch block consistent with acute myocardial ischemia. (Thygesen K, Alpert JS, Jaffe AS, et al.: the Writing Group on behalf of the Joint ESC/ACCF/AHA/WHF Task Force for the Universal Definition of Myocardial Infarction. J Am Coll Cardiol 60(16):1-18, 2012)", "preferredTerm": "Acute Myocardial Ischemia by ECG Assessment", "submissionValue": "Acute Myocardial Ischemia ECG Change", "synonyms": ["Acute Myocardial Ischemia ECG Change"]}, {"conceptId": "C111131", "definition": "An electrocardiographic assessment of cardiac atrioventricular conduction.", "preferredTerm": "Atrioventricular Conduction ECG Assessment", "submissionValue": "Atrioventricular Conduction", "synonyms": ["Atrioventricular Conduction"]}, {"conceptId": "C111132", "definition": "An electrocardiographic assessment of mean cardiac electrical vector and the ECG voltage.", "preferredTerm": "Axis and Voltage ECG Assessment", "submissionValue": "Axis and Voltage", "synonyms": ["Axis and Voltage"]}, {"conceptId": "C111155", "definition": "An electrocardiographic assessment of chamber hypertrophy or enlargement.", "preferredTerm": "Chamber Hypertrophy or Enlargement ECG Assessment", "submissionValue": "Chamber Hypertrophy or Enlargement", "synonyms": ["Chamber Hypertrophy or Enlargement"]}, {"conceptId": "C117761", "definition": "A comparative interpretation of an ECG relative to a previous (comparator) ECG. The definition of the comparator ECG may be specified elsewhere. Common comparator result values include improved, no change, deteriorated.", "preferredTerm": "Comparison to a Prior ECG", "submissionValue": "Comparison to a Prior ECG", "synonyms": ["Comparison to a Prior ECG"]}, {"conceptId": "C119253", "definition": "An electrocardiographic measurement of the maximum rate of atrial depolarizations (P waves) recorded during an interval of time, usually expressed in beats per minute.", "preferredTerm": "Maximum Atrial Rate by Electrocardiogram", "submissionValue": "ECG Maximum Atrial Rate", "synonyms": ["ECG Maximum Atrial Rate"]}, {"conceptId": "C119257", "definition": "An electrocardiographic measurement of the maximum rate of depolarization of a specific region of the heart during an interval of time, usually expressed in beats per minute. Unless otherwise specified, this is usually the maximum ventricular rate.", "preferredTerm": "Maximum Heart Rate by Electrocardiogram", "submissionValue": "ECG Maximum Heart Rate", "synonyms": ["ECG Maximum Heart Rate"]}, {"conceptId": "C119260", "definition": "An electrocardiographic measurement of the maximum rate of ventricular depolarizations (QRS complexes) recorded during an interval of time, usually expressed in beats per minute.", "preferredTerm": "Maximum Ventricular Rate by Electrocardiogram", "submissionValue": "ECG Maximum Ventricular Rate", "synonyms": ["ECG Maximum Ventricular Rate"]}, {"conceptId": "C119256", "definition": "An electrocardiographic measurement of the average rate of atrial depolarizations (P waves) recorded during an interval of time, usually expressed in beats per minute.", "preferredTerm": "Mean Atrial Rate by Electrocardiogram", "submissionValue": "ECG Mean Atrial Rate", "synonyms": ["ECG Mean Atrial Rate"]}, {"conceptId": "C119259", "definition": "An electrocardiographic measurement of the average rate of depolarization of a specific region of the heart during an interval of time, usually expressed in beats per minute. Unless otherwise specified, this is usually the mean ventricular rate.", "preferredTerm": "Mean Heart Rate by Electrocardiogram", "submissionValue": "ECG Mean Heart Rate", "synonyms": ["ECG Mean Heart Rate"]}, {"conceptId": "C119263", "definition": "An electrocardiographic measurement of the average rate of ventricular depolarizations (QRS complexes) recorded during an interval of time, usually expressed in beats per minute.", "preferredTerm": "Mean Ventricular Rate by Electrocardiogram", "submissionValue": "ECG Mean Ventricular Rate", "synonyms": ["ECG Mean Ventricular Rate"]}, {"conceptId": "C119254", "definition": "An electrocardiographic measurement of the median rate of atrial depolarizations (P waves) recorded during an interval of time, usually expressed in beats per minute.", "preferredTerm": "Median Atrial Rate by Electrocardiogram", "submissionValue": "ECG Median Atrial Rate", "synonyms": ["ECG Median Atrial Rate"]}, {"conceptId": "C119261", "definition": "An electrocardiographic measurement of the median rate of ventricular depolarizations (QRS complexes) recorded during an interval of time, usually expressed in beats per minute.", "preferredTerm": "Median Ventricular Rate by Electrocardiogram", "submissionValue": "ECG Median Ventricular Rate", "synonyms": ["ECG Median Ventricular Rate"]}, {"conceptId": "C119255", "definition": "An electrocardiographic measurement of the minimum rate of atrial depolarizations (P waves) recorded during an interval of time, usually expressed in beats per minute.", "preferredTerm": "Minimum Atrial Rate by Electrocardiogram", "submissionValue": "ECG Minimum Atrial Rate", "synonyms": ["ECG Minimum Atrial Rate"]}, {"conceptId": "C119258", "definition": "An electrocardiographic measurement of the minimum rate of depolarization of a specific region of the heart during an interval of time, usually expressed in beats per minute. Unless otherwise specified, this is usually the minimum ventricular rate.", "preferredTerm": "Minimum Heart Rate by Electrocardiogram", "submissionValue": "ECG Minimum Heart Rate", "synonyms": ["ECG Minimum Heart Rate"]}, {"conceptId": "C119262", "definition": "An electrocardiographic measurement of the minimum rate of ventricular depolarizations (QRS complexes) recorded during an interval of time, usually expressed in beats per minute.", "preferredTerm": "Minimum Ventricular Rate by Electrocardiogram", "submissionValue": "ECG Minimum Ventricular Rate", "synonyms": ["ECG Minimum Ventricular Rate"]}, {"conceptId": "C41255", "definition": "An act or process of elucidation; explication, or explanation of the meaning of the event or thing via the assignment of objects from the domain to the constants of a formal language, truth-values to the proposition symbols, truth-functions to the connectives, other functions to the function symbols, and extensions to the predicates, if any. The assignments are result of human logic application and are not native to the symbols of the formal language.", "preferredTerm": "Interpretation", "submissionValue": "Interpretation", "synonyms": ["Interpretation"]}, {"conceptId": "C111238", "definition": "An electrocardiographic assessment of intraventricular and intra-atrial conduction.", "preferredTerm": "Intraventricular and Intraatrial Conduction ECG Assessment", "submissionValue": "Intraventricular-Intraatrial Conduction", "synonyms": ["Intraventricular-Intraatrial Conduction"]}, {"conceptId": "C117767", "definition": "An aggregate J-Tpeak value based on the measurement of J-Tpeak intervals from multiple beats within a single ECG. The method of aggregation, which can vary, is typically a measure of central tendency such as the mean.", "preferredTerm": "Aggregate J-T Peak Interval", "submissionValue": "J-Tpeak Interval, Aggregate", "synonyms": ["J-Tpeak Interval, Aggregate"]}, {"conceptId": "C117768", "definition": "An electrocardiographic interval measured from the J point to the peak of the T wave of a single beat utilizing one or more leads.", "preferredTerm": "Single Beat J-T Peak Interval", "submissionValue": "J-Tpeak Interval, Single Beat", "synonyms": ["J-Tpeak Interval, Single Beat"]}, {"conceptId": "C117762", "definition": "An aggregate JT value based on the measurement of JT intervals from multiple beats within a single ECG. The method of aggregation, which can vary, is typically a measure of central tendency such as the mean.", "preferredTerm": "Aggregate JT Interval", "submissionValue": "JT Interval, Aggregate", "synonyms": ["JT Interval, Aggregate"]}, {"conceptId": "C117769", "definition": "An electrocardiographic interval measured from the J point to the offset of the T wave of a single beat utilizing one or more leads.", "preferredTerm": "Single Beat JT Interval", "submissionValue": "JT Interval, Single Beat", "synonyms": ["JT Interval, Single Beat"]}, {"conceptId": "C117763", "definition": "A JTAG interval corrected for heart rate using Bazett's formula.", "preferredTerm": "Aggregate JTCB Interval", "submissionValue": "JTCB Interval, Aggregate", "synonyms": ["JTCB Interval, Aggregate"]}, {"conceptId": "C117764", "definition": "A JTSB interval corrected for heart rate using Bazett's formula.", "preferredTerm": "Single Beat JTCB Interval", "submissionValue": "JTCB Interval, Single Beat", "synonyms": ["JTCB Interval, Single Beat"]}, {"conceptId": "C117765", "definition": "A JTAG interval corrected for heart rate using Fridericia's formula.", "preferredTerm": "Aggregate JTCF Interval", "submissionValue": "JTCF Interval, Aggregate", "synonyms": ["JTCF Interval, Aggregate"]}, {"conceptId": "C117766", "definition": "A JTSB interval corrected for heart rate using Fridericia's formula.", "preferredTerm": "Single Beat JTCF Interval", "submissionValue": "JTCF Interval, Single Beat", "synonyms": ["JTCF Interval, Single Beat"]}, {"conceptId": "C62118", "definition": "A formula which takes into account the physiologic shortening of the JT interval which occurs as the heart rate increases, permitting comparison of the JT interval across a range of rates. It is mathematically defined as: JTcB = JT/SqRootRR(seconds) and theoretically corrects the JT interval to that which would be observed at a heart rate of 1 cycle per second. (NCI)", "preferredTerm": "JTcB - Bazett's Correction Formula", "submissionValue": "JTcB - Bazett's Correction Formula", "synonyms": ["JTcB - Bazett's Correction Formula"]}, {"conceptId": "C62119", "definition": "A formula which takes into account the physiologic shortening of the JT interval which occurs as the heart rate increases, permitting comparison of the JT interval across a range of rates. It is mathematically defined as: JTcF = JT/CubeRootRR(seconds) and theoretically corrects the JT interval to that which would be observed at a heart rate of 1 cycle per second. (NCI)", "preferredTerm": "JTcF - Fridericia's Correction Formula", "submissionValue": "JTcF - Fridericia's Correction Formula", "synonyms": ["JTcF - Fridericia's Correction Formula"]}, {"conceptId": "C62120", "definition": "A formula which takes into account the physiologic shortening of the JT interval which occurs as the heart rate increases, permitting comparison of the JT interval across a range of rates. The linear correction formula uses population-based data obtained and validated using a large cohort of subjects. Using this method, the corrected JT interval is independent of the ventricular rate. (NCI)", "preferredTerm": "JTcLC - Linear Correction Formula", "submissionValue": "JTcLC - Linear Correction Formula", "synonyms": ["JTcLC - Linear Correction Formula"]}, {"conceptId": "C111280", "definition": "An electrocardiographic assessment of findings suggestive of myocardial infarction.", "preferredTerm": "Myocardial Infarction ECG Assessment", "submissionValue": "Myocardial Infarction", "synonyms": ["Myocardial Infarction"]}, {"conceptId": "C117770", "definition": "An electrocardiographic finding assessment of new or presumed new pathologic Q waves suggestive of myocardial infarction. (Thygesen K, Alpert JS, Jaffe AS, et al.: the Writing Group on behalf of the Joint ESC/ACCF/AHA/WHF Task Force for the Universal Definition of Myocardial Infarction. J Am Coll Cardiol 60(16):1-18, 2012).", "preferredTerm": "New Q Wave", "submissionValue": "New Q Wave", "synonyms": ["New Q Wave"]}, {"conceptId": "C117777", "definition": "An aggregate P wave amplitude value based on the measurement of P wave amplitudes from multiple beats within a single ECG. The method of aggregation, which can vary, is typically a measure of central tendency such as the mean.", "preferredTerm": "Aggregate P Wave Amplitude", "submissionValue": "P Wave Amplitude, Aggregate", "synonyms": ["P Wave Amplitude, Aggregate"]}, {"conceptId": "C117778", "definition": "An electrocardiographic measurement of the mean amplitude (usually measured in mV) of the P wave measured from the isoelectric baseline to the peak of the P wave of a single beat utilizing one or more leads. Based on the recording gain, this measurement may also be reported in mm.", "preferredTerm": "Single Beat P Wave Amplitude", "submissionValue": "P Wave Amplitude, Single Beat", "synonyms": ["P Wave Amplitude, Single Beat"]}, {"conceptId": "C118164", "definition": "A numerical representation of the electrocardiographic vector assessed at maximum deviation of the P wave from the isoelectric baseline, usually reported for the frontal plane.", "preferredTerm": "P Wave Axis", "submissionValue": "P Wave Axis", "synonyms": ["P Wave Axis"]}, {"conceptId": "C117775", "definition": "An aggregate P wave duration value based on the measurement of P wave duration intervals from multiple beats within a single ECG. The method of aggregation, which can vary, is typically a measure of central tendency such as the mean.", "preferredTerm": "Aggregate P Wave Duration", "submissionValue": "P Wave Duration, Aggregate", "synonyms": ["P Wave Duration, Aggregate"]}, {"conceptId": "C117776", "definition": "An electrocardiographic interval measured from the onset of the P wave to the offset of the P wave of a single beat utilizing one or more leads.", "preferredTerm": "Single Beat P Wave Duration", "submissionValue": "P Wave Duration, Single Beat", "synonyms": ["P Wave Duration, Single Beat"]}, {"conceptId": "C117771", "definition": "An aggregate PP value based on the measurement of PP intervals from multiple beats within a single ECG. The method of aggregation, which can vary, is typically a measure of central tendency such as the mean.", "preferredTerm": "Aggregate PP Interval", "submissionValue": "PP Interval, Aggregate", "synonyms": ["PP Interval, Aggregate"]}, {"conceptId": "C117772", "definition": "An electrocardiographic measurement of the interval between the onsets of two consecutive P waves.", "preferredTerm": "Single Measurement PP Interval", "submissionValue": "PP Interval, Single Measurement", "synonyms": ["PP Interval, Single Measurement"]}, {"conceptId": "C117773", "definition": "An aggregate PR value based on the measurement of PR intervals from multiple beats within a single ECG. The method of aggregation, which can vary, is typically a measure of central tendency such as the mean.", "preferredTerm": "Aggregate PR Interval", "submissionValue": "PR Interval, Aggregate", "synonyms": ["PR Interval, Aggregate"]}, {"conceptId": "C117774", "definition": "An electrocardiographic interval measured from the onset of the P wave to the onset of the QRS complex of a single beat utilizing one or more leads.", "preferredTerm": "Single Beat PR Interval", "submissionValue": "PR Interval, Single Beat", "synonyms": ["PR Interval, Single Beat"]}, {"conceptId": "C111285", "definition": "An electrocardiographic assessment of presence of artificial electronic pacing.", "preferredTerm": "Pacemaker ECG Assessment", "submissionValue": "Pacemaker", "synonyms": ["Pacemaker"]}, {"conceptId": "C117789", "definition": "An aggregate Q wave amplitude value based on the measurement of Q wave amplitudes from multiple beats within a single ECG. The method of aggregation, which can vary, is typically a measure of central tendency such as the mean.", "preferredTerm": "Aggregate Q Wave Amplitude", "submissionValue": "Q Wave Amplitude, Aggregate", "synonyms": ["Q Wave Amplitude, Aggregate"]}, {"conceptId": "C117790", "definition": "An electrocardiographic measurement of the mean amplitude (usually measured in mV) of the Q wave measured from the isoelectric baseline to the peak of the Q wave of a single beat utilizing one or more leads. Based on the recording gain, this measurement may also be reported in mm.", "preferredTerm": "Single Beat Q Wave Amplitude", "submissionValue": "Q Wave Amplitude, Single Beat", "synonyms": ["Q Wave Amplitude, Single Beat"]}, {"conceptId": "C118165", "definition": "A numerical representation of the electrocardiographic vector assessed at maximum deviation of the QRS complex from the isoelectric baseline, usually reported for the frontal plane.", "preferredTerm": "QRS Axis", "submissionValue": "QRS Axis", "synonyms": ["QRS Axis"]}, {"conceptId": "C100390", "definition": "The average (mean) duration (time) of the QRS interval, obtained from a set of measurements of the QRS interval while the ventricle rhythm is controlled by an electrical impulse from a mechanical cardiac pacemaker. The QRS interval is defined as the time from the beginning of the QRS complex to the end of the QRS complex, representing the time it takes for the ventricles to depolarize.", "preferredTerm": "Mean QRS Duration Ventricular Paced", "submissionValue": "QRS Duration Ventricular Paced", "synonyms": ["QRS Duration Ventricular Paced"]}, {"conceptId": "C117779", "definition": "An aggregate QRS value based on the measurement of QRS intervals from multiple beats within a single ECG. The method of aggregation, which can vary, is typically a measure of central tendency such as the mean.", "preferredTerm": "Aggregate QRS Duration", "submissionValue": "QRS Duration, Aggregate", "synonyms": ["QRS Duration, Aggregate"]}, {"conceptId": "C117780", "definition": "An electrocardiographic interval measured from the onset of the QRS complex to the offset of the QRS complex of a single beat utilizing one or more leads.", "preferredTerm": "Single Beat QRS Duration", "submissionValue": "QRS Duration, Single Beat", "synonyms": ["QRS Duration, Single Beat"]}, {"conceptId": "C117781", "definition": "An aggregate paced QRS duration value based on the measurement of paced QRS duration intervals from multiple beats within a single ECG. The method of aggregation, which can vary, is typically a measure of central tendency such as the mean.", "preferredTerm": "Paced Ventricular Aggregate QRS Duration", "submissionValue": "QRS Duration, Ventr. Paced, Aggregate", "synonyms": ["QRS Duration, Ventr. Paced, Aggregate"]}, {"conceptId": "C117782", "definition": "An electrocardiographic interval measured from the onset of the paced QRS complex to the offset of the QRS complex of a single beat utilizing one or more leads.", "preferredTerm": "Paced Ventricular Single Beat QRS Duration", "submissionValue": "QRS Duration, Ventr. Paced, Single Beat", "synonyms": ["QRS Duration, Ventr. Paced, Single Beat"]}, {"conceptId": "C117783", "definition": "An aggregate QT value based on the measurement of QT intervals from multiple beats within a single ECG. The method of aggregation, which can vary, is typically a measure of central tendency such as the mean.", "preferredTerm": "Aggregate QT Interval", "submissionValue": "QT Interval, Aggregate", "synonyms": ["QT Interval, Aggregate"]}, {"conceptId": "C100391", "definition": "The time interval between the start of the Q wave and the end of the T wave in the cardiac cycle as corrected with a non-specified correction formula.", "preferredTerm": "Corrected QT Interval", "submissionValue": "QT Interval, Corrected", "synonyms": ["QT Interval, Corrected"]}, {"conceptId": "C117788", "definition": "An electrocardiographic interval measured from the onset of the QRS complex to the offset of the T wave of a single beat utilizing one or more leads.", "preferredTerm": "Single Beat QT Interval", "submissionValue": "QT Interval, Single Beat", "synonyms": ["QT Interval, Single Beat"]}, {"conceptId": "C117784", "definition": "A QTAG interval corrected for heart rate using Bazett's formula.", "preferredTerm": "Aggregate QTCB Interval", "submissionValue": "QTCB Interval, Aggregate", "synonyms": ["QTCB Interval, Aggregate"]}, {"conceptId": "C117785", "definition": "A QTSB interval corrected for heart rate using Bazett's formula.", "preferredTerm": "Single Beat QTCB Interval", "submissionValue": "QTCB Interval, Single Beat", "synonyms": ["QTCB Interval, Single Beat"]}, {"conceptId": "C117786", "definition": "A QTAG interval corrected for heart rate using Fridericia's formula.", "preferredTerm": "Aggregate QTCF Interval", "submissionValue": "QTCF Interval, Aggregate", "synonyms": ["QTCF Interval, Aggregate"]}, {"conceptId": "C117787", "definition": "A QTSB interval corrected for heart rate using Fridericia's formula.", "preferredTerm": "Single Beat QTCF Interval", "submissionValue": "QTCF Interval, Single Beat", "synonyms": ["QTCF Interval, Single Beat"]}, {"conceptId": "C62112", "definition": "A formula which takes into account the physiologic shortening of the QT interval which occurs as the heart rate increases, permitting comparison of the QT interval across a range of rates. It is mathematically defined as: QTcB = QT/SqRootRR(seconds) and theoretically corrects the QT interval to that which would be observed at a heart rate of 1 cycle per second. (NCI)", "preferredTerm": "QTcB - Bazett's Correction Formula", "submissionValue": "QTcB - Bazett's Correction Formula", "synonyms": ["QTcB - Bazett's Correction Formula"]}, {"conceptId": "C62113", "definition": "A formula which takes into account the physiologic shortening of the QT interval which occurs as the heart rate increases, permitting comparison of the QT interval across a range of rates. It is mathematically defined as: QTcF = QT/CubeRootRR(seconds) and theoretically corrects the QT interval to that which would be observed at a heart rate of 1 cycle per second. (NCI)", "preferredTerm": "QTcF - Fridericia's Correction Formula", "submissionValue": "QTcF - Fridericia's Correction Formula", "synonyms": ["QTcF - Fridericia's Correction Formula"]}, {"conceptId": "C62114", "definition": "A formula which takes into account the physiologic shortening of the QT interval which occurs as the heart rate increases, permitting comparison of the QT interval across a range of rates. The linear correction formula uses population-based data obtained and validated using a large cohort of subjects. This method theoretically corrects the QT interval to that which would be observed at a heart rate of 1 cycle per second. (NCI)", "preferredTerm": "QTcLC - Linear Correction Formula", "submissionValue": "QTcLC - Linear Correction Formula", "synonyms": ["QTcLC - Linear Correction Formula"]}, {"conceptId": "C90442", "definition": "A mathematic formula defined as: QTcV = QT-0.087[(60/Heart Rate)-1](seconds). It permits comparison of the QT interval across a range of rates, while accounting for the progressive shortening of the QT interval which occurs as the heart rate increases. (NCI)", "preferredTerm": "QTcV - Van de Water's Correction Formula", "submissionValue": "QTcV - Van de Water's Correction Formula", "synonyms": ["QTcV - Van de Water's Correction Formula"]}, {"conceptId": "C117795", "definition": "An aggregate R wave amplitude value based on the measurement of R wave amplitudes from multiple beats within a single ECG. The method of aggregation, which can vary, is typically a measure of central tendency such as the mean.", "preferredTerm": "R Wave Amplitude Aggregate", "submissionValue": "R Wave Amplitude, Aggregate", "synonyms": ["R Wave Amplitude, Aggregate"]}, {"conceptId": "C117796", "definition": "An electrocardiographic measurement of the mean amplitude (usually measured in mV) of the R wave measured from the isoelectric baseline to the peak of the R wave of a single beat utilizing one or more leads. Based on the recording gain, this measurement may also be reported in mm.", "preferredTerm": "R Wave Amplitude Single Beat", "submissionValue": "R Wave Amplitude, Single Beat", "synonyms": ["R Wave Amplitude, Single Beat"]}, {"conceptId": "C117791", "definition": "An aggregate RR value based on the measurement of RR intervals from multiple beats within a single ECG. The method of aggregation, which can vary, is typically a measure of central tendency such as the mean.", "preferredTerm": "Aggregate RR Interval", "submissionValue": "RR Interval, Aggregate", "synonyms": ["RR Interval, Aggregate"]}, {"conceptId": "C117792", "definition": "An electrocardiographic measurement of the interval between two consecutive R waves. If R waves are not present, this measurement may utilize the interval between the most easily identified components of the QRS complex within two consecutive beats.", "preferredTerm": "RR Interval Single Measurement", "submissionValue": "RR Interval, Single Measurement", "synonyms": ["RR Interval, Single Measurement"]}, {"conceptId": "C117793", "definition": "An aggregate RS wave amplitude value based on measurements from multiple beats from a single ECG. The method of aggregation, which can vary, is typically a measure of central tendency such as the mean.", "preferredTerm": "RS Wave Amplitude Aggregate", "submissionValue": "RS Wave Amplitude, Aggregate", "synonyms": ["RS Wave Amplitude, Aggregate"]}, {"conceptId": "C117794", "definition": "An electrocardiographic measurement of the sum of the amplitudes of the R and S waves, obtained from a single beat in one particular lead or set of leads.", "preferredTerm": "RS Wave Amplitude Single Beat", "submissionValue": "RS Wave Amplitude, Single Beat", "synonyms": ["RS Wave Amplitude, Single Beat"]}, {"conceptId": "C111307", "definition": "An electrocardiographic assessment of cardiac rhythm not otherwise specified.", "preferredTerm": "Rhythm Not Otherwise Specified ECG Assessment", "submissionValue": "Rhythm Not Otherwise Specified", "synonyms": ["Rhythm Not Otherwise Specified"]}, {"conceptId": "C117805", "definition": "An aggregate S wave amplitude value based on the measurement of S wave amplitudes from multiple beats within a single ECG. The method of aggregation, which can vary, is typically a measure of central tendency such as the mean.", "preferredTerm": "S Wave Amplitude Aggregate", "submissionValue": "S Wave Amplitude, Aggregate", "synonyms": ["S Wave Amplitude, Aggregate"]}, {"conceptId": "C117806", "definition": "An electrocardiographic measurement of the mean amplitude (usually measured in mV) of the S wave measured from the isoelectric baseline to the peak of the S wave of a single beat utilizing one or more leads. Based on the recording gain, this measurement may also be reported in mm.", "preferredTerm": "S Wave Amplitude Single Beat", "submissionValue": "S Wave Amplitude, Single Beat", "synonyms": ["S Wave Amplitude, Single Beat"]}, {"conceptId": "C117797", "definition": "An aggregate ST segment depression value based on the measurement of ST segment depression from multiple beats within a single ECG. The method of aggregation, which can vary, is typically a measure of central tendency such as the mean.", "preferredTerm": "ST Segment Depression Aggregate", "submissionValue": "ST Segment Depression, Aggregate", "synonyms": ["ST Segment Depression, Aggregate"]}, {"conceptId": "C117798", "definition": "An electrocardiographic measurement of the mean amplitude (usually measured in mV) of the ST segment depression below the isoelectric baseline measured from the baseline to the ST segment of a single beat utilizing one or more leads. Based on the recording gain, this measurement may also be reported in mm.", "preferredTerm": "ST Segment Depression Single Beat", "submissionValue": "ST Segment Depression, Single Beat", "synonyms": ["ST Segment Depression, Single Beat"]}, {"conceptId": "C117799", "definition": "An aggregate ST segment deviation value based on the measurement of ST segment deviation from multiple beats within a single ECG. The method of aggregation, which can vary, is typically a measure of central tendency such as the mean.", "preferredTerm": "ST Segment Deviation Aggregate", "submissionValue": "ST Segment Deviation, Aggregate", "synonyms": ["ST Segment Deviation, Aggregate"]}, {"conceptId": "C117800", "definition": "An electrocardiographic measurement of the mean amplitude (usually measured in mV) of the ST segment deviation above or below the isoelectric baseline measured from the baseline to the ST segment of a single beat utilizing one or more leads. Based on the recording gain, this measurement may also be reported in mm.", "preferredTerm": "ST Segment Deviation Single Beat", "submissionValue": "ST Segment Deviation, Single Beat", "synonyms": ["ST Segment Deviation, Single Beat"]}, {"conceptId": "C117803", "definition": "An aggregate ST segment duration value based on the measurement of ST segment duration intervals from multiple beats within a single ECG. The method of aggregation, which can vary, is typically a measure of central tendency such as the mean.", "preferredTerm": "ST Segment Duration Aggregate", "submissionValue": "ST Segment Duration, Aggregate", "synonyms": ["ST Segment Duration, Aggregate"]}, {"conceptId": "C117804", "definition": "An electrocardiographic interval measured from the J point to the onset of the T wave of a single beat utilizing one or more leads.", "preferredTerm": "ST Segment Duration Single Beat", "submissionValue": "ST Segment Duration, Single Beat", "synonyms": ["ST Segment Duration, Single Beat"]}, {"conceptId": "C117801", "definition": "An aggregate ST segment elevation value based on the measurement of ST segment elevation from multiple beats within a single ECG. The method of aggregation, which can vary, is typically a measure of central tendency such as the mean.", "preferredTerm": "ST Segment Elevation Aggregate", "submissionValue": "ST Segment Elevation, Aggregate", "synonyms": ["ST Segment Elevation, Aggregate"]}, {"conceptId": "C117802", "definition": "An electrocardiographic measurement of the mean amplitude (usually measured in mV) of the ST segment elevation above the isoelectric baseline measured from the baseline to the ST segment of a single beat utilizing one or more leads. Based on the recording gain, this measurement may also be reported in mm.", "preferredTerm": "ST Segment Elevation Single Beat", "submissionValue": "ST Segment Elevation, Single Beat", "synonyms": ["ST Segment Elevation, Single Beat"]}, {"conceptId": "C111363", "definition": "An electrocardiographic assessment of the characteristics of the ST segment, T wave, and U wave.", "preferredTerm": "ST Segment, T wave, and U wave ECG Assessment", "submissionValue": "ST Segment, T wave, and U wave", "synonyms": ["ST Segment, T wave, and U wave"]}, {"conceptId": "C111312", "definition": "An electrocardiographic assessment of sinus node rhythms and arrhythmias.", "preferredTerm": "Sinus Node Rhythm and Arrhythmia ECG Assessment", "submissionValue": "Sinus Node Rhythms and Arrhythmias", "synonyms": ["Sinus Node Rhythms and Arrhythmias"]}, {"conceptId": "C62117", "definition": "The maximum duration (time) of the JT interval, obtained from a set of measurements of the JT interval. The JT interval is defined as the time from the J point (end of ventricular depolarization, the point at which the QRS meets the ST segment) to the end of the T wave (representing the end of ventricular repolarization). (NCI)", "preferredTerm": "Maximum JT Duration", "submissionValue": "Summary (Max) JT Interval", "synonyms": ["Summary (Max) JT Interval"]}, {"conceptId": "C62131", "definition": "The maximum duration (time) of the PR interval, obtained from a set of measurements of the PR interval. The PR interval is defined as the time from the beginning of the P wave (representing the onset of atrial depolarization) to the beginning of the R wave (representing the onset of ventricular depolarization). In some cases, a Q wave will precede the R wave, in which case the PR interval is measured from the beginning of the P wave to the beginning of the Q wave. (NCI)", "preferredTerm": "Maximum PR Duration", "submissionValue": "Summary (Max) PR Duration", "synonyms": ["Summary (Max) PR Duration"]}, {"conceptId": "C62135", "definition": "The maximum duration (time) of the QT interval, obtained from a set of measurements of the QT interval. The QT interval is defined as the time from the beginning of the QRS complex to the end of the T wave, representing the time it takes for the ventricles to depolarize and subsequently repolarize. In some cases, the Q wave will be absent, in which case the QT interval is measured from the beginning of the R wave to the end of the T wave. (NCI)", "preferredTerm": "Maximum QT Duration", "submissionValue": "Summary (Max) QT Duration", "synonyms": ["Summary (Max) QT Duration"]}, {"conceptId": "C62094", "definition": "The maximum duration (time) between successive peaks of R waves in a particular set of RR intervals. (NCI)", "preferredTerm": "Maximum RR Duration", "submissionValue": "Summary (Max) RR Duration", "synonyms": ["Summary (Max) RR Duration"]}, {"conceptId": "C62163", "definition": "The maximum depression (negative deflection from baseline, usually measured in mm) of the ST segment, obtained from a set of measurements of the depression of the ST segment. (NCI)", "preferredTerm": "Maximum ST Segment Depression by ECG Finding", "submissionValue": "Summary (Max) ST Depression", "synonyms": ["Summary (Max) ST Depression"]}, {"conceptId": "C62157", "definition": "The maximum deviation (distance from baseline, positive or negative, usually measured in mm) of the ST segment, obtained from a set of measurements of the deviation of the ST segment. (NCI)", "preferredTerm": "Maximum ST Deviation", "submissionValue": "Summary (Max) ST Deviation", "synonyms": ["Summary (Max) ST Deviation"]}, {"conceptId": "C62160", "definition": "The maximum elevation (positive deflection from baseline, usually measured in mm) of the ST segment, obtained from a set of measurements of the elevation of the ST segment. (NCI)", "preferredTerm": "Maximum ST Segment Elevation", "submissionValue": "Summary (Max) ST Elevation", "synonyms": ["Summary (Max) ST Elevation"]}, {"conceptId": "C62115", "definition": "The average (mean) duration (time) of the JT interval, obtained from a set of measurements of the JT interval. The JT interval is defined as the time from the J point (end of ventricular depolarization, the point at which the QRS meets the ST segment) to the end of the T wave (representing the end of ventricular repolarization). (NCI)", "preferredTerm": "Mean JT Duration", "submissionValue": "Summary (Mean) JT Interval", "synonyms": ["Summary (Mean) JT Interval"]}, {"conceptId": "C62123", "definition": "The average (mean) duration (time) from the onset of atrial depolarization to the completion of atrial depolarization (length of the P wave), obtained from a set of measurements of the time from beginning to end of atrial depolarization. (NCI)", "preferredTerm": "Mean P Wave Duration", "submissionValue": "Summary (Mean) P Wave Duration", "synonyms": ["Summary (Mean) P Wave Duration"]}, {"conceptId": "C62124", "definition": "The average (mean) height (usually measured in mm) of the maximum deflection from baseline of the P wave (representing atrial depolarization), obtained from a set of measurements of the P wave, from a single lead or set of leads. Typically this measurement is obtained by analysis of Lead II. (NCI)", "preferredTerm": "Mean P Wave Height", "submissionValue": "Summary (Mean) P Wave Height", "synonyms": ["Summary (Mean) P Wave Height"]}, {"conceptId": "C62086", "definition": "The average (mean) duration (time) of the PR interval, obtained from a set of measurements of the PR interval. The PR interval is defined as the time from the beginning of the P wave (representing the onset of atrial depolarization) to the beginning of the R wave (representing the onset of ventricular depolarization). In some cases, a Q wave will precede the R wave, in which case the PR interval is measured from the beginning of the P wave to the beginning of the Q wave. (NCI)", "preferredTerm": "Mean PR Duration", "submissionValue": "Summary (Mean) PR Duration", "synonyms": ["Summary (Mean) PR Duration"]}, {"conceptId": "C62087", "definition": "The average (mean) duration (time) of the QRS interval, obtained from a set of measurements of the QRS interval. The QRS interval is defined as the time from the beginning of the QRS complex to the end of the QRS complex, representing the time it takes for the ventricles to depolarize. (NCI)", "preferredTerm": "Mean QRS Duration", "submissionValue": "Summary (Mean) QRS Duration", "synonyms": ["Summary (Mean) QRS Duration"]}, {"conceptId": "C62089", "definition": "The average (mean) duration (time) of the QT interval, obtained from a set of measurements of the QT interval. The QT interval is defined as the time from the beginning of the QRS complex to the end of the T wave, representing the time it takes for the ventricles to depolarize and subsequently repolarize. In some cases, the Q wave will be absent, in which case the QT interval is measured from the beginning of the R wave to the end of the T wave. (NCI)", "preferredTerm": "Mean QT Duration", "submissionValue": "Summary (Mean) QT Duration", "synonyms": ["Summary (Mean) QT Duration"]}, {"conceptId": "C62136", "definition": "The average (mean) amplitude (usually in mm) of the R wave, obtained from a set of measurements of the R wave, in a particular lead or set of leads. (NCI)", "preferredTerm": "Mean R Wave Amplitude", "submissionValue": "Summary (Mean) R Wave Amplitude", "synonyms": ["Summary (Mean) R Wave Amplitude"]}, {"conceptId": "C62144", "definition": "The average (mean) amplitude (usually in mm) of the summation of the R and S waves, obtained from a set of measurements of the R and S waves, in a particular lead or set of leads. (NCI)", "preferredTerm": "Mean R+S Amplitude", "submissionValue": "Summary (Mean) R+S Amplitude", "synonyms": ["Summary (Mean) R+S Amplitude"]}, {"conceptId": "C62090", "definition": "The average (mean) duration (time) of the RR interval, obtained from a set of measurements of the RR interval. The RR interval is defined as the time between successive peaks of the R wave and can be used to measure the ventricular rate. (NCI)", "preferredTerm": "Mean RR Duration", "submissionValue": "Summary (Mean) RR Duration", "synonyms": ["Summary (Mean) RR Duration"]}, {"conceptId": "C62137", "definition": "The average (mean) amplitude (usually in mm) of the S wave, obtained from a set of measurements of the S wave, in a particular lead or set of leads. (NCI)", "preferredTerm": "Mean S Wave Amplitude", "submissionValue": "Summary (Mean) S Wave Amplitude", "synonyms": ["Summary (Mean) S Wave Amplitude"]}, {"conceptId": "C62161", "definition": "The average (mean) depression (negative deflection from baseline, usually measured in mm) of the ST segment, obtained from a set of measurements of the depression of the ST segment. (NCI)", "preferredTerm": "Mean ST Segment Depression by ECG Finding", "submissionValue": "Summary (Mean) ST Depression", "synonyms": ["Summary (Mean) ST Depression"]}, {"conceptId": "C62155", "definition": "The average (mean) deviation (distance from baseline, positive or negative, usually measured in mm) of the ST segment, obtained from a set of measurements of the deviation of the ST segment. (NCI)", "preferredTerm": "Mean ST Deviation", "submissionValue": "Summary (Mean) ST Deviation", "synonyms": ["Summary (Mean) ST Deviation"]}, {"conceptId": "C62158", "definition": "The average (mean) elevation (positive deflection from baseline, usually measured in mm) of the ST segment, obtained from a set of measurements of the elevation of the ST segment. (NCI)", "preferredTerm": "Mean ST Segment Elevation", "submissionValue": "Summary (Mean) ST Elevation", "synonyms": ["Summary (Mean) ST Elevation"]}, {"conceptId": "C62145", "definition": "The average (mean) duration (time) of the ST segment, measured from the J point at the end of the QRS complex to the beginning of the T wave.", "preferredTerm": "Mean ST Segment Duration", "submissionValue": "Summary (Mean) ST Segment Duration", "synonyms": ["Summary (Mean) ST Segment Duration"]}, {"conceptId": "C62148", "definition": "The average (mean) area under the curve of the deflection from baseline of the T wave (representing ventricular repolarization), obtained from a set of measurements of the T wave, from a single lead or set of leads. (NCI)", "preferredTerm": "Mean T Wave Area", "submissionValue": "Summary (Mean) T Wave Area", "synonyms": ["Summary (Mean) T Wave Area"]}, {"conceptId": "C62147", "definition": "The average (mean) duration (time) from the onset of ventricular repolarization to the completion of ventricular repolarization (length of the T wave), obtained from a set of measurements of the time from beginning to end of ventricular repolarization. (NCI)", "preferredTerm": "Mean T Wave Duration", "submissionValue": "Summary (Mean) T Wave Duration", "synonyms": ["Summary (Mean) T Wave Duration"]}, {"conceptId": "C62149", "definition": "The average (mean) height (usually measured in mm) of the maximum deflection from baseline of the T wave (representing ventricular repolarization), obtained from a set of measurements of the T wave, from a single lead or set of leads. (NCI)", "preferredTerm": "Mean T Wave Height", "submissionValue": "Summary (Mean) T Wave Height", "synonyms": ["Summary (Mean) T Wave Height"]}, {"conceptId": "C102249", "definition": "The median number of cycles of contraction and subsequent relaxation of the heart, usually expressed as beats per minute, obtained from a set of measurements of the heart rate.", "preferredTerm": "Median Heart Rate", "submissionValue": "Summary (Median) Heart Rate", "synonyms": ["Summary (Median) Heart Rate"]}, {"conceptId": "C102250", "definition": "The median duration (time) of the PR interval, obtained from a set of measurements of the PR interval. The PR interval is defined as the time from the beginning of the P wave (representing the onset of atrial depolarization) to the beginning of the R wave (representing the onset of ventricular depolarization). In some cases, a Q wave will precede the R wave, in which case the PR interval is measured from the beginning of the P wave to the beginning of the Q wave.", "preferredTerm": "Median PR Duration", "submissionValue": "Summary (Median) PR Duration", "synonyms": ["Summary (Median) PR Duration"]}, {"conceptId": "C102251", "definition": "The median duration (time) of the QRS interval, obtained from a set of measurements of the QRS interval. The QRS interval is defined as the time from the beginning of the QRS complex to the end of the QRS complex, representing the time it takes for the ventricles to depolarize.", "preferredTerm": "Median QRS Duration", "submissionValue": "Summary (Median) QRS Duration", "synonyms": ["Summary (Median) QRS Duration"]}, {"conceptId": "C102252", "definition": "The median duration (time) of the QT interval, obtained from a set of measurements of the QT interval. The QT interval is defined as the time from the beginning of the QRS complex to the end of the T wave, representing the time it takes for the ventricles to depolarize and subsequently repolarize. In some cases, the Q wave will be absent, in which case the QT interval is measured from the beginning of the R wave to the end of the T wave.", "preferredTerm": "Median QT Duration", "submissionValue": "Summary (Median) QT Duration", "synonyms": ["Summary (Median) QT Duration"]}, {"conceptId": "C102253", "definition": "The median duration (time) of the QTc interval, obtained from a set of measurements of the QT interval and corrected using the Fridericia's correction Formula.", "preferredTerm": "Median QTcF", "submissionValue": "Summary (Median) QTcF", "synonyms": ["Summary (Median) QTcF"]}, {"conceptId": "C102254", "definition": "The median duration (time) of the RR interval, obtained from a set of measurements of the RR interval. The RR interval is defined as the time between successive peaks of the R wave and can be used to measure the ventricular rate.", "preferredTerm": "Median RR Duration", "submissionValue": "Summary (Median) RR Duration", "synonyms": ["Summary (Median) RR Duration"]}, {"conceptId": "C62116", "definition": "The minimum duration (time) of the JT interval, obtained from a set of measurements of the JT interval. The JT interval is defined as the time from the J point (end of ventricular depolarization, the point at which the QRS meets the ST segment) to the end of the T wave (representing the end of ventricular repolarization). (NCI)", "preferredTerm": "Minimum JT Duration", "submissionValue": "Summary (Min) JT Interval", "synonyms": ["Summary (Min) JT Interval"]}, {"conceptId": "C62125", "definition": "The minimum duration (time) of the PR interval, obtained from a set of measurements of the PR interval. The PR interval is defined as the time from the beginning of the P wave (representing the onset of atrial depolarization) to the beginning of the R wave (representing the onset of ventricular depolarization). In some cases, a Q wave will precede the R wave, in which case the PR interval is measured from the beginning of the P wave to the beginning of the Q wave. (NCI)", "preferredTerm": "Minimum PR Duration", "submissionValue": "Summary (Min) PR Duration", "synonyms": ["Summary (Min) PR Duration"]}, {"conceptId": "C62133", "definition": "The minimum duration (time) of the QT interval, obtained from a set of measurements of the QT interval. The QT interval is defined as the time from the beginning of the QRS complex to the end of the T wave, representing the time it takes for the ventricles to depolarize and subsequently repolarize. In some cases, the Q wave will be absent, in which case the QT interval is measured from the beginning of the R wave to the end of the T wave. (NCI)", "preferredTerm": "Minimum QT Duration", "submissionValue": "Summary (Min) QT Duration", "synonyms": ["Summary (Min) QT Duration"]}, {"conceptId": "C62093", "definition": "The minimum duration (time) between successive peaks of R waves in a particular set of RR intervals. (NCI)", "preferredTerm": "Minimum RR Duration", "submissionValue": "Summary (Min) RR Duration", "synonyms": ["Summary (Min) RR Duration"]}, {"conceptId": "C62162", "definition": "The minimum depression (negative deflection from baseline, usually measured in mm) of the ST segment, obtained from a set of measurements of the depression of the ST segment. (NCI)", "preferredTerm": "Minimum ST Segment Depression by ECG Finding", "submissionValue": "Summary (Min) ST Depression", "synonyms": ["Summary (Min) ST Depression"]}, {"conceptId": "C62156", "definition": "The minimum deviation (distance from baseline, positive or negative, usually measured in mm) of the ST segment, obtained from a set of measurements of the deviation of the ST segment. (NCI)", "preferredTerm": "Minimum ST Deviation", "submissionValue": "Summary (Min) ST Deviation", "synonyms": ["Summary (Min) ST Deviation"]}, {"conceptId": "C62159", "definition": "The minimum elevation (positive deflection from baseline, usually measured in mm) of the ST segment, obtained from a set of measurements of the elevation of the ST segment. (NCI)", "preferredTerm": "Minimum ST Segment Elevation", "submissionValue": "Summary (Min) ST Elevation", "synonyms": ["Summary (Min) ST Elevation"]}, {"conceptId": "C111320", "definition": "An electrocardiographic assessment of supraventricular arrhythmias excluding tachycardias.", "preferredTerm": "Supraventricular Arrhythmia ECG Assessment", "submissionValue": "Supraventricular Arrhythmias", "synonyms": ["Supraventricular Arrhythmias"]}, {"conceptId": "C111321", "definition": "An electrocardiographic assessment of supraventricular tachyarrhythmias.", "preferredTerm": "Supraventricular Tachyarrhythmia ECG Assessment", "submissionValue": "Supraventricular Tachyarrhythmias", "synonyms": ["Supraventricular Tachyarrhythmias"]}, {"conceptId": "C117814", "definition": "An aggregate T wave amplitude value based on the measurement of T wave amplitudes from multiple beats within a single ECG. The method of aggregation, which can vary, is typically a measure of central tendency such as the mean.", "preferredTerm": "T Wave Amplitude Aggregate", "submissionValue": "T Wave Amplitude, Aggregate", "synonyms": ["T Wave Amplitude, Aggregate"]}, {"conceptId": "C117815", "definition": "An electrocardiographic measurement of the mean amplitude (usually measured in mV) of the T wave measured from the isoelectric baseline to the peak of the T wave of a single beat utilizing one or more leads. Based on the recording gain, this measurement may also be reported in mm.", "preferredTerm": "T Wave Amplitude Single Beat", "submissionValue": "T Wave Amplitude, Single Beat", "synonyms": ["T Wave Amplitude, Single Beat"]}, {"conceptId": "C117810", "definition": "An aggregate T wave area value based on the measurement of T wave areas from multiple beats within a single ECG. The method of aggregation, which can vary, is typically a measure of central tendency such as the mean.", "preferredTerm": "T Wave Area Aggregate", "submissionValue": "T Wave Area, Aggregate", "synonyms": ["T Wave Area, Aggregate"]}, {"conceptId": "C117811", "definition": "An electrocardiographic measurement of the area of the T wave of a single beat utilizing one or more leads.", "preferredTerm": "T Wave Area Single Beat", "submissionValue": "T Wave Area, Single Beat", "synonyms": ["T Wave Area, Single Beat"]}, {"conceptId": "C118166", "definition": "A numerical representation of the electrocardiographic vector assessed at maximum deviation of the T wave from the isoelectric baseline, usually reported for the frontal plane.", "preferredTerm": "T Wave Axis", "submissionValue": "T Wave Axis", "synonyms": ["T Wave Axis"]}, {"conceptId": "C117812", "definition": "An aggregate T wave duration value based on the measurement of T wave duration intervals from multiple beats within a single ECG. The method of aggregation, which can vary, is typically a measure of central tendency such as the mean.", "preferredTerm": "T Wave Duration Aggregate", "submissionValue": "T Wave Duration, Aggregate", "synonyms": ["T Wave Duration, Aggregate"]}, {"conceptId": "C117813", "definition": "An electrocardiographic interval measured from the onset of the T wave to the offset of the T wave of a single beat utilizing one or more leads.", "preferredTerm": "T Wave Duration Single Beat", "submissionValue": "T Wave Duration, Single Beat", "synonyms": ["T Wave Duration, Single Beat"]}, {"conceptId": "C117807", "definition": "A statement about an electrocardiographic recording describing technical issues or interference during the recording, processing, or transmission of the data. This does not represent an electrocardiographic diagnosis.", "preferredTerm": "ECG Technical Quality", "submissionValue": "Technical Quality", "synonyms": ["Technical Quality"]}, {"conceptId": "C117808", "definition": "An aggregate Tpeak-Tend value based on the measurement of Tpeak-Tend from multiple beats within a single ECG. The method of aggregation, which can vary, is typically a measure of central tendency such as the mean.", "preferredTerm": "T Peak-T End Interval Aggregate", "submissionValue": "Tpeak-Tend Interval, Aggregate", "synonyms": ["Tpeak-Tend Interval, Aggregate"]}, {"conceptId": "C117809", "definition": "An electrocardiographic interval measured from the peak of the T wave to the offset of the T wave of a single beat utilizing one or more leads.", "preferredTerm": "T Peak-T End Interval Single Beat", "submissionValue": "Tpeak-Tend Interval, Single Beat", "synonyms": ["Tpeak-Tend Interval, Single Beat"]}, {"conceptId": "C111330", "definition": "An electrocardiographic assessment of ventricular arrhythmias excluding tachycardias.", "preferredTerm": "Ventricular Arrhythmia ECG Assessment", "submissionValue": "Ventricular Arrhythmias", "synonyms": ["Ventricular Arrhythmias"]}, {"conceptId": "C111331", "definition": "An electrocardiographic assessment of supraventricular tachyarrhythmias.", "preferredTerm": "Ventricular Tachyarrhythmia ECG Assessment", "submissionValue": "Ventricular Tachyarrhythmias", "synonyms": ["Ventricular Tachyarrhythmias"]}]}