{"_links": {"parentPackage": {"href": "/mdr/ct/packages/sendct-2014-12-19", "title": "SEND Controlled Terminology Package 20 Effective 2014-12-19", "type": "Terminology"}, "priorVersion": {"href": "/mdr/ct/packages/sendct-2014-09-26/codelists/C78737", "title": "CDISC SDTM Relationship Type Terminology", "type": "Code List"}, "rootItem": {"href": "/mdr/root/ct/sendct/codelists/C78737", "title": "Version-agnostic anchor resource for codelist C78737", "type": "Root Value Domain"}, "self": {"href": "/mdr/ct/packages/sendct-2014-12-19/codelists/C78737", "title": "CDISC SDTM Relationship Type Terminology", "type": "Code List"}}, "conceptId": "C78737", "definition": "The description of relationship types between a record or set of records.", "extensible": "false", "name": "Relationship Type", "preferredTerm": "CDISC SDTM Relationship Type Terminology", "submissionValue": "RELTYPE", "synonyms": ["Relationship Type"], "terms": [{"conceptId": "C78728", "definition": "More than one. (NCI)", "preferredTerm": "Many", "submissionValue": "MANY", "synonyms": ["Many", "Several"]}, {"conceptId": "C66832", "definition": "A textual representation of the numeral 1.", "preferredTerm": "One", "submissionValue": "ONE"}]}