{"_links": {"parentPackage": {"href": "/mdr/ct/packages/sendct-2014-12-19", "title": "SEND Controlled Terminology Package 20 Effective 2014-12-19", "type": "Terminology"}, "priorVersion": {"href": "/mdr/ct/packages/sendct-2014-09-26/codelists/C89974", "title": "CDISC SEND Microscopic Findings Test Code Terminology", "type": "Code List"}, "rootItem": {"href": "/mdr/root/ct/sendct/codelists/C89974", "title": "Version-agnostic anchor resource for codelist C89974", "type": "Root Value Domain"}, "self": {"href": "/mdr/ct/packages/sendct-2014-12-19/codelists/C89974", "title": "CDISC SEND Microscopic Findings Test Code Terminology", "type": "Code List"}}, "conceptId": "C89974", "definition": "Terminology for the test codes concerned with the findings from a specimen that are visible by microscopic analysis.", "extensible": "true", "name": "Microscopic Findings Test Code", "preferredTerm": "CDISC SEND Microscopic Findings Test Code Terminology", "submissionValue": "MITESTCD", "synonyms": ["Microscopic Findings Test Code"], "terms": [{"conceptId": "C119570", "definition": "The histopathological evaluation of the liver based on the Batts-Ludwig scoring system.", "preferredTerm": "Batts-Ludwig Fibrosis Score", "submissionValue": "FIBSCBAL", "synonyms": ["Batts-Ludwig Fibrosis Score"]}, {"conceptId": "C95149", "definition": "The histopathological evaluation of the liver based on the Ishak scoring system.", "preferredTerm": "Ishak Score", "submissionValue": "FIBSCISH", "synonyms": ["Ishak Fibrosis Score"]}, {"conceptId": "C119571", "definition": "The histopathological evaluation of the liver based on the Knodell scoring system.", "preferredTerm": "Knodell Fibrosis Score", "submissionValue": "FIBSCKNO", "synonyms": ["Knodell Fibrosis Score"]}, {"conceptId": "C119572", "definition": "The histopathological evaluation of the liver based on the Meta-analysis of Histological Data in Viral Hepatitis (Metavir) scoring system.", "preferredTerm": "METAVIR Fibrosis Score", "submissionValue": "FIBSCMET", "synonyms": ["Metavir Fibrosis Score"]}, {"conceptId": "C119573", "definition": "The histopathological evaluation of the liver based on the Scheuer scoring system.", "preferredTerm": "Scheuer Fibrosis Score", "submissionValue": "FIBSCSCH", "synonyms": ["Scheuer Fibrosis Score"]}, {"conceptId": "C90424", "definition": "An assessment by microscope (e.g., light, electron, confocal, etc.).", "preferredTerm": "Microscopic Examination", "submissionValue": "MIEXAM", "synonyms": ["Microscopic Examination"]}]}