{"_links": {"parentPackage": {"href": "/mdr/ct/packages/sendct-2014-12-19", "title": "SEND Controlled Terminology Package 20 Effective 2014-12-19", "type": "Terminology"}, "priorVersion": {"href": "/mdr/ct/packages/sendct-2014-09-26/codelists/C89968", "title": "CDISC SEND Standardized Disposition Term Terminology", "type": "Code List"}, "rootItem": {"href": "/mdr/root/ct/sendct/codelists/C89968", "title": "Version-agnostic anchor resource for codelist C89968", "type": "Root Value Domain"}, "self": {"href": "/mdr/ct/packages/sendct-2014-12-19/codelists/C89968", "title": "CDISC SEND Standardized Disposition Term Terminology", "type": "Code List"}}, "conceptId": "C89968", "definition": "Terminology related to the final disposition of the subject in a study.", "extensible": "false", "name": "Standardized Disposition Term", "preferredTerm": "CDISC SEND Standardized Disposition Term Terminology", "submissionValue": "DSDECOD", "synonyms": ["Standardized Disposition Term"], "terms": [{"conceptId": "C90351", "definition": "An indication that the subject's death or sacrifice was due to a mishap or technical/operational error.", "preferredTerm": "Accidental Death", "submissionValue": "ACCIDENTAL DEATH"}, {"conceptId": "C90387", "definition": "An indication that a subject was found in a deceased state. (NCI)", "preferredTerm": "Found Dead", "submissionValue": "FOUND DEAD"}, {"conceptId": "C90436", "definition": "An indication that the study subject was sacrificed at a predetermined time before the end of the protocol-defined treatment or observation period.", "preferredTerm": "Planned Interim Sacrifice", "submissionValue": "INTERIM SACRIFICE", "synonyms": ["Planned Interim Sacrifice"]}, {"conceptId": "C96372", "definition": "An indication that the subject could not be found, in which case, its disposition was not known, and no postmortem data was available.", "preferredTerm": "Missing Study Animal", "submissionValue": "MISSING"}, {"conceptId": "C90425", "definition": "An indication that a subject was euthanized due to ethical reasons, such as being near death.", "preferredTerm": "Moribund Sacrifice", "submissionValue": "MORIBUND SACRIFICE"}, {"conceptId": "C90445", "definition": "An indication that the subject did not receive treatment for a specific period of time following the end of the protocol-defined treatment or observation period before it was sacrificed.", "preferredTerm": "Recovery Sacrifice", "submissionValue": "RECOVERY SACRIFICE", "synonyms": ["Planned Recovery Sacrifice"]}, {"conceptId": "C90447", "definition": "An indication that the subject was alive when taken out of the study. (NCI)", "preferredTerm": "Removed From Study Alive", "submissionValue": "REMOVED FROM STUDY ALIVE"}, {"conceptId": "C90465", "definition": "An indication that the subject was sacrificed at the end of the protocol-defined treatment or observation period.", "preferredTerm": "Terminal Sacrifice", "submissionValue": "TERMINAL SACRIFICE", "synonyms": ["Planned Terminal Sacrifice"]}, {"conceptId": "C106580", "definition": "An indication that the subject was sacrificed before the end of the protocol-defined treatment or observation period, and the subject was not otherwise moribund.", "preferredTerm": "Unplanned Terminal Sacrifice", "submissionValue": "UNPLANNED TERMINAL SACRIFICE"}]}