{"_links": {"parentPackage": {"href": "/mdr/ct/packages/sendct-2014-12-19", "title": "SEND Controlled Terminology Package 20 Effective 2014-12-19", "type": "Terminology"}, "priorVersion": {"href": "/mdr/ct/packages/sendct-2014-09-26/codelists/C89959", "title": "CDISC SEND Body Weight Gain Test Name Terminology", "type": "Code List"}, "rootItem": {"href": "/mdr/root/ct/sendct/codelists/C89959", "title": "Version-agnostic anchor resource for codelist C89959", "type": "Root Value Domain"}, "self": {"href": "/mdr/ct/packages/sendct-2014-12-19/codelists/C89959", "title": "CDISC SEND Body Weight Gain Test Name Terminology", "type": "Code List"}}, "conceptId": "C89959", "definition": "Terminology for the test names concerned with the increase in overall body mass.", "extensible": "true", "name": "Body Weight Gain Test Name", "preferredTerm": "CDISC SEND Body Weight Gain Test Name Terminology", "submissionValue": "BGTEST", "synonyms": ["Body Weight Gain Test Name"], "terms": [{"conceptId": "C90363", "definition": "The mean value of the amount of weight change over a period of time, relative to the beginning of the collection period.", "preferredTerm": "Average Body Weight Gain", "submissionValue": "Average Body Weight Gain", "synonyms": ["Average Body Weight Gain"]}, {"conceptId": "C62754", "definition": "A change in overall body weight, relative to the beginning of the collection period.", "preferredTerm": "Weight Gain", "submissionValue": "Body Weight Gain", "synonyms": ["Body Weight Gain"]}, {"conceptId": "C90434", "definition": "The amount of weight change over a period of time in relation to the total weight, relative to the beginning of the collection period.", "preferredTerm": "Percentage Body Weight Gain", "submissionValue": "Percentage Body Weight Gain", "synonyms": ["Percentage Body Weight Gain"]}]}