{"_links": {"parentPackage": {"href": "/mdr/ct/packages/sendct-2014-12-19", "title": "SEND Controlled Terminology Package 20 Effective 2014-12-19", "type": "Terminology"}, "priorVersion": {"href": "/mdr/ct/packages/sendct-2014-09-26/codelists/C89982", "title": "CDISC SEND Version Terminology", "type": "Code List"}, "rootItem": {"href": "/mdr/root/ct/sendct/codelists/C89982", "title": "Version-agnostic anchor resource for codelist C89982", "type": "Root Value Domain"}, "self": {"href": "/mdr/ct/packages/sendct-2014-12-19/codelists/C89982", "title": "CDISC SEND Version Terminology", "type": "Code List"}}, "conceptId": "C89982", "definition": "Terminology related to the version of the SEND implementation guide that is in use for the study.", "extensible": "true", "name": "SEND Implementation Guide Version", "preferredTerm": "CDISC SEND Version Terminology", "submissionValue": "SNDIGVER", "synonyms": ["SEND Implementation Guide Version"], "terms": [{"conceptId": "C96371", "definition": "The 3.0 version of the standard for exchange of nonclinical data (SEND) implementation guide. (NCI)", "preferredTerm": "Standard for the Exchange of Nonclinical Data Implementation Guide Version 3.0", "submissionValue": "SEND Implementation Guide Version 3.0", "synonyms": ["SEND IG Version 3.0"]}]}