{"_links": {"parentPackage": {"href": "/mdr/ct/packages/sdtmct-2018-09-28", "title": "SDTM Controlled Terminology Package 35 Effective 2018-09-28", "type": "Terminology"}, "priorVersion": {"href": "/mdr/ct/packages/sdtmct-2018-06-29/codelists/C101862", "title": "CDISC SDTM Lead Abnormality Terminology", "type": "Code List"}, "rootItem": {"href": "/mdr/root/ct/sdtmct/codelists/C101862", "title": "Version-agnostic anchor resource for codelist C101862", "type": "Root Value Domain"}, "self": {"href": "/mdr/ct/packages/sdtmct-2018-09-28/codelists/C101862", "title": "CDISC SDTM Lead Abnormality Terminology", "type": "Code List"}}, "conceptId": "C101862", "definition": "Terminology related to the complications of cardiac lead systems.", "extensible": "true", "name": "Lead Abnormality", "preferredTerm": "CDISC SDTM Lead Abnormality Terminology", "submissionValue": "LEADABN", "synonyms": ["Lead Abnormality"], "terms": [{"conceptId": "C99924", "definition": "Conductor failure manifests by high lead impedance either absolutely (above manufacturer's product specifications) or by a significant increase from previously stable chronic values.", "preferredTerm": "Cardiac Device Conductor Failure", "submissionValue": "CONDUCTOR FAILURE"}, {"conceptId": "C99922", "definition": "The cardiac lead is not performing as expected with issues such as oversensing with or without shock or ATP, or failed shocks or inadequate DFT safety margins defibrillation activity.", "preferredTerm": "Cardiac Defibrillator Issue", "submissionValue": "DEFIBRILLATION ISSUES"}, {"conceptId": "C99951", "definition": "This manifests as stimulation by the lead of non-cardiac structures such as the diaphragm, chest wall, or pectoral muscle.", "preferredTerm": "Extracardiac Stimulation", "submissionValue": "EXTRACARDIAC STIMULATION"}, {"conceptId": "C99954", "definition": "The cardiac lead failed to administer a shock and had an inadequate defibrillator threshold safety margin.", "preferredTerm": "Failure to Shock with Inadequate Defibrillator Threshold Safety Margin", "submissionValue": "FAILED TO SHOCK WITH INADEQUATE DFT SAFETY MARGIN"}, {"conceptId": "C99953", "definition": "Failure to capture manifests as a high pacing threshold that results in either intermittent failure to capture at maximal programmed output or excessive battery drain leading to premature battery exhaustion.", "preferredTerm": "Failure to Capture with Acceptable Safety Margin", "submissionValue": "FAILURE TO CAPTURE WITH ACCEPTABLE SAFETY MARGIN"}, {"conceptId": "C99528", "definition": "Failure to pace manifests as absence of pacemaker stimulation artifacts on electrocardiographic recordings despite rates below pacemaker programmed rate.", "preferredTerm": "Failure of Cardiac Pacemaker to Pace", "submissionValue": "FAILURE TO PACE"}, {"conceptId": "C99932", "definition": "Insulation failure manifests as low lead impedance either absolutely (below manufacturer's product specifications) or by a significant decrease from previously stable chronic values.", "preferredTerm": "Cardiac Lead Insulation Failure", "submissionValue": "INSULATION FAILURE"}, {"conceptId": "C100034", "definition": "The movement (macroscopic or microscopic) of an existing lead within the heart or vascular tree away from the original implantation site.", "preferredTerm": "Cardiac Lead Dislodgement Requiring Reposition/Reoperation", "submissionValue": "LEAD DISLODGEMENT REQUIRING REPOSITION/REOPERATION"}, {"conceptId": "C99926", "definition": "Oversensing manifests as sensing of electrical signals not related to cardiac depolarization of the lead chamber that cannot be resolved acceptably by device reprogramming.", "preferredTerm": "Cardiac Device Oversensing", "submissionValue": "OVERSENSING"}, {"conceptId": "C99927", "definition": "This manifests as sensing of non-cardiac depolarization signals that met arrhythmia detection criteria and elicited programmed tachyarrhythmia therapy.", "preferredTerm": "Cardiac Device Oversensing with Shock or Anti-Tachycardia Pacing", "submissionValue": "OVERSENSING WITH SHOCK OR ATP"}, {"conceptId": "C99928", "definition": "This manifests as sensing of non-cardiac depolarization signals that did not meet arrhythmia detection criteria and do not elicit programmed tachyarrhythmia therapy.", "preferredTerm": "Cardiac Device Oversensing without Shock or Anti-Tachycardia Pacing", "submissionValue": "OVERSENSING WITHOUT SHOCK OR ATP"}, {"conceptId": "C99929", "definition": "The pacing and/or sensing problem associated with high impedance due to a poor connection between a lead and generator caused by a loose set screw.", "preferredTerm": "Cardiac Device Set Screw Problem", "submissionValue": "SET SCREW PROBLEM"}, {"conceptId": "C99930", "definition": "Undersensing manifests as failure to sense appropriate cardiac depolarizations that cannot be resolved with reprogramming.", "preferredTerm": "Cardiac Device Undersensing", "submissionValue": "UNDERSENSING"}]}