{"_links": {"parentPackage": {"href": "/mdr/ct/packages/sdtmct-2018-09-28", "title": "SDTM Controlled Terminology Package 35 Effective 2018-09-28", "type": "Terminology"}, "priorVersion": {"href": "/mdr/ct/packages/sdtmct-2018-06-29/codelists/C101822", "title": "CDISC Clinical Classification HAMD 21 Test Name Terminology", "type": "Code List"}, "rootItem": {"href": "/mdr/root/ct/sdtmct/codelists/C101822", "title": "Version-agnostic anchor resource for codelist C101822", "type": "Root Value Domain"}, "self": {"href": "/mdr/ct/packages/sdtmct-2018-09-28/codelists/C101822", "title": "CDISC Clinical Classification HAMD 21 Test Name Terminology", "type": "Code List"}}, "conceptId": "C101822", "definition": "Hamilton Depression Rating Scale 21-Item test name.", "extensible": "false", "name": "Hamilton Depression Rating Scale 21-Item Clinical Classification Test Name", "preferredTerm": "CDISC Clinical Classification HAMD 21 Test Name Terminology", "submissionValue": "HAMD2TN", "synonyms": ["Hamilton Depression Rating Scale 21-Item Clinical Classification Test Name"], "terms": [{"conceptId": "C102095", "definition": "Hamilton Depression Rating Scale 21 Item - Agitation.", "preferredTerm": "HAMD-21 - Agitation", "submissionValue": "HAMD2-Agitation", "synonyms": ["HAMD2-Agitation"]}, {"conceptId": "C102096", "definition": "Hamilton Depression Rating Scale 21 Item - Anxiety Psychological.", "preferredTerm": "HAMD-21 - Anxiety Psychological", "submissionValue": "HAMD2-Anxiety Psychological", "synonyms": ["HAMD2-Anxiety Psychological"]}, {"conceptId": "C102097", "definition": "Hamilton Depression Rating Scale 21 Item - Anxiety somatic: physiological concomitants of anxiety, (i.e., effects of autonomic overactivity, 'butterflies,' indigestion, stomach cramps, belching, diarrhea, palpitations, hyperventilation, paresthesia, sweating, flushing, tremor, headache, urinary frequency).", "preferredTerm": "HAMD-21 - Anxiety Somatic", "submissionValue": "HAMD2-Anxiety Somatic", "synonyms": ["HAMD2-Anxiety Somatic"]}, {"conceptId": "C102107", "definition": "Hamilton Depression Rating Scale 21 Item - Depersonalization and derealization: such as feelings of unreality; nihilistic ideas.", "preferredTerm": "HAMD-21 - Depersonalization and Derealization", "submissionValue": "HAMD2-Depersonalization/Derealization", "synonyms": ["HAMD2-Depersonalization/Derealization"]}, {"conceptId": "C102087", "definition": "Hamilton Depression Rating Scale 21 Item - Depressed mood: sadness, hopeless, helpless, worthless.", "preferredTerm": "HAMD-21 - Depressed Mood", "submissionValue": "HAMD2-Depressed Mood", "synonyms": ["HAMD2-Depressed Mood"]}, {"conceptId": "C102105", "definition": "Hamilton Depression Rating Scale 21 Item - Diurnal variation.", "preferredTerm": "HAMD-21 - Diurnal Variation", "submissionValue": "HAMD2-Diurnal Variation", "synonyms": ["HAMD2-Diurnal Variation"]}, {"conceptId": "C102106", "definition": "Hamilton Depression Rating Scale 21 Item - Diurnal variation severity.", "preferredTerm": "HAMD-21 - Diurnal Variation Severity", "submissionValue": "HAMD2-Diurnal Variation Severity", "synonyms": ["HAMD2-Diurnal Variation Severity"]}, {"conceptId": "C102088", "definition": "Hamilton Depression Rating Scale 21 Item - Feelings of guilt.", "preferredTerm": "HAMD-21 - Feelings of Guilt", "submissionValue": "HAMD2-Feelings of Guilt", "synonyms": ["HAMD2-Feelings of Guilt"]}, {"conceptId": "C102100", "definition": "Hamilton Depression Rating Scale 21 Item - Genital symptoms: symptoms such as: loss of libido; impaired sexual performance; menstrual disturbances.", "preferredTerm": "HAMD-21 - Genital Symptoms", "submissionValue": "HAMD2-Genital Symptoms", "synonyms": ["HAMD2-Genital Symptoms"]}, {"conceptId": "C102101", "definition": "Hamilton Depression Rating Scale 21 Item - Hypochondriasis.", "preferredTerm": "HAMD-21 - Hypochondriasis", "submissionValue": "HAMD2-Hypochondriasis", "synonyms": ["HAMD2-Hypochondriasis"]}, {"conceptId": "C102104", "definition": "Hamilton Depression Rating Scale 21 Item - Insight.", "preferredTerm": "HAMD-21 - Insight", "submissionValue": "HAMD2-Insight", "synonyms": ["HAMD2-Insight"]}, {"conceptId": "C102090", "definition": "Hamilton Depression Rating Scale 21 Item - Insomnia early.", "preferredTerm": "HAMD-21 - Insomnia Early", "submissionValue": "HAMD2-Insomnia Early", "synonyms": ["HAMD2-Insomnia Early"]}, {"conceptId": "C102092", "definition": "Hamilton Depression Rating Scale 21 Item - Insomnia late.", "preferredTerm": "HAMD-21 - Insomnia Late", "submissionValue": "HAMD2-Insomnia Late", "synonyms": ["HAMD2-Insomnia Late"]}, {"conceptId": "C102091", "definition": "Hamilton Depression Rating Scale 21 Item - Insomnia middle.", "preferredTerm": "HAMD-21 - Insomnia Middle", "submissionValue": "HAMD2-Insomnia Middle", "synonyms": ["HAMD2-Insomnia Middle"]}, {"conceptId": "C102103", "definition": "Hamilton Depression Rating Scale 21 Item - Loss of weight on weekly ratings by war psychiatrist, when actual weight changes are measured.", "preferredTerm": "HAMD-21 - Loss of Weight Measured", "submissionValue": "HAMD2-Loss of Weight Measured", "synonyms": ["HAMD2-Loss of Weight Measured"]}, {"conceptId": "C102102", "definition": "Hamilton Depression Rating Scale 21 Item - Loss of weight when rating by history.", "preferredTerm": "HAMD-21 - Loss of Weight by History", "submissionValue": "HAMD2-Loss of Weight by History", "synonyms": ["HAMD2-Loss of Weight by History"]}, {"conceptId": "C102109", "definition": "Hamilton Depression Rating Scale 21 Item - Obsessional and compulsive symptoms.", "preferredTerm": "HAMD-21 - Obsessional and Compulsive Symptoms", "submissionValue": "HAMD2-Obsessional/Compulsive Symptoms", "synonyms": ["HAMD2-Obsessional/Compulsive Symptoms"]}, {"conceptId": "C102108", "definition": "Hamilton Depression Rating Scale 21 Item - Paranoid symptoms.", "preferredTerm": "HAMD-21 - Paranoid Symptoms", "submissionValue": "HAMD2-Paranoid Symptoms", "synonyms": ["HAMD2-Paranoid Symptoms"]}, {"conceptId": "C102094", "definition": "Hamilton Depression Rating Scale 21 Item - Retardation: psychomotor (slowness of thought and speech; impaired ability to concentrate; decreased motor activity).", "preferredTerm": "HAMD-21 - Retardation", "submissionValue": "HAMD2-Retardation", "synonyms": ["HAMD2-Retardation"]}, {"conceptId": "C102098", "definition": "Hamilton Depression Rating Scale 21 Item - Somatic symptoms gastro-intestinal.", "preferredTerm": "HAMD-21 - Somatic Symptoms Gastro-intestinal", "submissionValue": "HAMD2-Somatic Symptoms Gastro-intestinal", "synonyms": ["HAMD2-Somatic Symptoms Gastro-intestinal"]}, {"conceptId": "C102099", "definition": "Hamilton Depression Rating Scale 21 Item - Somatic symptoms general.", "preferredTerm": "HAMD-21 - Somatic Symptoms General", "submissionValue": "HAMD2-Somatic Symptoms General", "synonyms": ["HAMD2-Somatic Symptoms General"]}, {"conceptId": "C102089", "definition": "Hamilton Depression Rating Scale 21 Item - Suicide.", "preferredTerm": "HAMD-21 - Suicide", "submissionValue": "HAMD2-Suicide", "synonyms": ["HAMD2-Suicide"]}, {"conceptId": "C102110", "definition": "Hamilton Depression Rating Scale 21 Item - Total score.", "preferredTerm": "HAMD-21 - Total Score", "submissionValue": "HAMD2-Total Score", "synonyms": ["HAMD2-Total Score"]}, {"conceptId": "C102093", "definition": "Hamilton Depression Rating Scale 21 Item - Work and activities.", "preferredTerm": "HAMD-21 - Work and Activities", "submissionValue": "HAMD2-Work and Activities", "synonyms": ["HAMD2-Work and Activities"]}]}