{"_links": {"parentPackage": {"href": "/mdr/ct/packages/sdtmct-2018-09-28", "title": "SDTM Controlled Terminology Package 35 Effective 2018-09-28", "type": "Terminology"}, "priorVersion": {"href": "/mdr/ct/packages/sdtmct-2018-06-29/codelists/C103330", "title": "CDISC SDTM Subject Characteristic Test Name Terminology", "type": "Code List"}, "rootItem": {"href": "/mdr/root/ct/sdtmct/codelists/C103330", "title": "Version-agnostic anchor resource for codelist C103330", "type": "Root Value Domain"}, "self": {"href": "/mdr/ct/packages/sdtmct-2018-09-28/codelists/C103330", "title": "CDISC SDTM Subject Characteristic Test Name Terminology", "type": "Code List"}}, "conceptId": "C103330", "definition": "The test name representing each subject characteristic.", "extensible": "true", "name": "Subject Characteristic Test Name", "preferredTerm": "CDISC SDTM Subject Characteristic Test Name Terminology", "submissionValue": "SCTEST", "synonyms": ["Subject Characteristic Test Name"], "terms": [{"conceptId": "C112233", "definition": "An indication as to whether the subject was breast fed (received mother's milk) as an infant.", "preferredTerm": "Breast Fed Indicator", "submissionValue": "Breast Fed Indicator", "synonyms": ["Breast Fed Indicator"]}, {"conceptId": "C139271", "definition": "An indication as to whether an organ donor may fall into one or more behavioral categories associated with increased risk of human immunodeficiency virus (HIV) infection, as defined by the 1994 Centers for Disease Control (CDC) Public Health Service Criteria for High Risk Behavior (Guidelines for preventing transmission of human immunodeficiency virus through transplantation of human tissue and organs. Centers for Disease Control and Prevention. MMWR Recomm Rep 1994; 43: 1-17).", "preferredTerm": "CDC HIV High Risk Donor Indicator", "submissionValue": "CDC HIV High Risk Donor Indicator", "synonyms": ["CDC HIV High Risk Donor Indicator"]}, {"conceptId": "C102625", "definition": "A public health activity whereby individuals who have been exposed to a person with a suspected or confirmed contagious illness are identified, usually for the purpose of identifying additional cases of the illness, or to offer some form of prophylactic intervention to either prevent or ameliorate disease in the exposed individual.", "preferredTerm": "Disease Contact Investigation", "submissionValue": "Contact Investigation", "synonyms": ["Contact Investigation"]}, {"conceptId": "C102612", "definition": "System of classification based on the nation in which an individual was exposed to a disease, regardless of the nation in which he/she currently resides.", "preferredTerm": "Country of Potential Disease Exposure", "submissionValue": "Country of Potential Disease Exposure", "synonyms": ["Country of Potential Disease Exposure"]}, {"conceptId": "C139270", "definition": "The conditions under which an organ is harvested from a dead donor, including the condition of the donor and the environment.", "preferredTerm": "Deceased Donor Donation Condition", "submissionValue": "Deceased Donor Donation Type", "synonyms": ["Deceased Donor Donation Type"]}, {"conceptId": "C114182", "definition": "The preferred hand of use for controlled and efficient performance of motor tasks.", "preferredTerm": "Dominant Hand", "submissionValue": "Dominant Hand", "synonyms": ["Dominant Hand"]}, {"conceptId": "C139269", "definition": "The donor's state or condition of being either living or brain dead at the time of organ harvesting.", "preferredTerm": "Donor Status at Time of Organ Donation", "submissionValue": "Donor Status at Time of Organ Donation", "synonyms": ["Donor Status at Time of Organ Donation"]}, {"conceptId": "C25193", "definition": "A code specifying the job performed by the employee for the employer. For example, accountant, programmer analyst, patient care associate, staff nurse, etc.", "preferredTerm": "Occupation", "submissionValue": "Employee Job", "synonyms": ["Employee Job"]}, {"conceptId": "C74565", "definition": "A code qualifying the employment in various ways, such as, full-time vs. part time, etc.", "preferredTerm": "Employee Job Class", "submissionValue": "Employee Job Class", "synonyms": ["Employee Job Class"]}, {"conceptId": "C74566", "definition": "A code specifying the method used by the employer to compute the employee's salary or wages. For example, hourly, annual, or commission.", "preferredTerm": "Employee Salary Type", "submissionValue": "Employee Salary Type", "synonyms": ["Employee Salary Type"]}, {"conceptId": "C102631", "definition": "The date on which the subject arrived in the reporting country from the country of potential disease exposure.", "preferredTerm": "Entry Date from Country of Potential Disease Exposure", "submissionValue": "Entry Date from Ptntl Cntry Disease Exp", "synonyms": ["Entry Date from Ptntl Cntry Disease Exp"]}, {"conceptId": "C124435", "definition": "The gestational age of the subject at birth.", "preferredTerm": "Gestational Age at Birth", "submissionValue": "Gestational Age at Birth", "synonyms": ["Gestational Age at Birth"]}, {"conceptId": "C154890", "definition": "An indication of the position on a scale measuring revenue or monetary support.", "preferredTerm": "Income Level", "submissionValue": "Income Level", "synonyms": ["Income Level"]}, {"conceptId": "C17953", "definition": "Highest level of education that a person has attained.", "preferredTerm": "Education Level", "submissionValue": "Level of Education Attained", "synonyms": ["Level of Education Attained"]}, {"conceptId": "C135502", "definition": "An indication as to whether the associated person is living with the subject. (NCI)", "preferredTerm": "Living with Subject Indicator", "submissionValue": "Living with Subject Indicator", "synonyms": ["Living with Subject Indicator"]}, {"conceptId": "C25188", "definition": "A demographic parameter indicating a person's current conjugal status.", "preferredTerm": "Marital Status", "submissionValue": "Marital Status", "synonyms": ["Marital Status"]}, {"conceptId": "C102666", "definition": "An indication that a subject is part of a population group that has a greater chance of contracting a disease or disorder.", "preferredTerm": "Member of High Risk Population", "submissionValue": "Member of High Risk Population", "synonyms": ["Member of High Risk Population"]}, {"conceptId": "C28407", "definition": "System of classification based on nation from which a person originates, regardless of the nation in which he/she currently resides.", "preferredTerm": "National Origin", "submissionValue": "National Origin", "synonyms": ["National Origin"]}, {"conceptId": "C135500", "definition": "The number of brothers that are biologically related to the subject. (NCI)", "preferredTerm": "Number of Biological Brothers", "submissionValue": "Number of Brothers, Biological", "synonyms": ["Number of Brothers, Biological"]}, {"conceptId": "C135501", "definition": "The number of sisters that are biologically related to the subject. (NCI)", "preferredTerm": "Number of Biological Sisters", "submissionValue": "Number of Sisters, Biological", "synonyms": ["Number of Sisters, Biological"]}, {"conceptId": "C122393", "definition": "The number of years of education that a person has completed.", "preferredTerm": "Number of Years of Education", "submissionValue": "Number of Years of Education", "synonyms": ["Number of Years of Education"]}, {"conceptId": "C112400", "definition": "An indication as to whether the subject was born prior to 38 weeks gestation.", "preferredTerm": "Premature Birth Indicator", "submissionValue": "Premature Birth Indicator", "synonyms": ["Premature Birth Indicator"]}, {"conceptId": "C132459", "definition": "The main language that is spoken by the subject most frequently or dominantly.", "preferredTerm": "Primary Language Spoken", "submissionValue": "Primary Language Spoken", "synonyms": ["Primary Language Spoken"]}, {"conceptId": "C102699", "definition": "The categorization of individuals with or without the potential for having a particular disease.", "preferredTerm": "Priority of Disease Contact", "submissionValue": "Priority of Disease Contact", "synonyms": ["Priority of Disease Contact"]}, {"conceptId": "C132460", "definition": "Additional language(s) that is spoken by the subject but not considered the primary language.", "preferredTerm": "Secondary Language Spoken", "submissionValue": "Secondary Language Spoken", "synonyms": ["Secondary Language Spoken"]}, {"conceptId": "C102708", "definition": "The environment within which the person may have come into contact with a disease carrier, or played the role of a disease carrier.", "preferredTerm": "Setting of Disease Contact", "submissionValue": "Setting of Contact", "synonyms": ["Setting of Contact"]}, {"conceptId": "C124436", "definition": "The physical sexual characteristics of the neonate at birth.", "preferredTerm": "Sex at Birth", "submissionValue": "Sex Reported at Birth", "synonyms": ["Sex Reported at Birth"]}, {"conceptId": "C74563", "definition": "Test to categorize the sensitivity of a subject's skin to sunlight. (Fitzpatrick TB. The validity and practicality of sun-reactive skin types I through VI. Arch. Dermatol. 1998 124: 869-871.)", "preferredTerm": "Fitzpatrick Classification Scale", "submissionValue": "Skin Classification", "synonyms": ["Fitzpatrick Skin Classification", "Skin Classification"]}, {"conceptId": "C74580", "definition": "A distinctive characteristic of the skin marked by the amount of sebum secreted by sebaceous glands.", "preferredTerm": "Skin Type", "submissionValue": "Skin Type", "synonyms": ["Skin Type"]}, {"conceptId": "C102711", "definition": "Social factors such as personal behavior, lifestyle, or environment belonging to the subject which are known to increase the likelihood of infection and disease.", "preferredTerm": "Social Risk Factor", "submissionValue": "Social Risk Factor", "synonyms": ["Social Risk Factor"]}, {"conceptId": "C102713", "definition": "A public health activity for the determination of who transmitted a disease to another subject and whether this person: is still infectious; was reported to the health department as a disease case or suspect; or has infected others.", "preferredTerm": "Source Case Investigation", "submissionValue": "Source Case Investigation", "synonyms": ["Source Case Investigation"]}, {"conceptId": "C147485", "definition": "An indication as to whether the subject or associated person is enrolled in school.", "preferredTerm": "Student Indicator", "submissionValue": "Student Indicator", "synonyms": ["Student Indicator"]}, {"conceptId": "C4876", "definition": "Subjective evidence of disease perceived by the patient.", "preferredTerm": "Symptom", "submissionValue": "Symptom", "synonyms": ["Symptom"]}, {"conceptId": "C112424", "definition": "The classification of the two offspring born from the same pregnancy.", "preferredTerm": "Twin Type", "submissionValue": "Twin Type", "synonyms": ["Twin Type"]}, {"conceptId": "C102723", "definition": "Identification and clinical investigation of disease contacts.", "preferredTerm": "Type of Contagion Contact", "submissionValue": "Type of Contact", "synonyms": ["Type of Contact"]}]}