{"_links": {"parentPackage": {"href": "/mdr/ct/packages/sdtmct-2018-09-28", "title": "SDTM Controlled Terminology Package 35 Effective 2018-09-28", "type": "Terminology"}, "priorVersion": {"href": "/mdr/ct/packages/sdtmct-2018-06-29/codelists/C116103", "title": "CDISC SDTM Nervous System Physiology Test Name Terminology", "type": "Code List"}, "rootItem": {"href": "/mdr/root/ct/sdtmct/codelists/C116103", "title": "Version-agnostic anchor resource for codelist C116103", "type": "Root Value Domain"}, "self": {"href": "/mdr/ct/packages/sdtmct-2018-09-28/codelists/C116103", "title": "CDISC SDTM Nervous System Physiology Test Name Terminology", "type": "Code List"}}, "conceptId": "C116103", "definition": "Terminology relevant to the test names that describe nervous system physiology findings.", "extensible": "true", "name": "Nervous System Findings Test Name", "preferredTerm": "CDISC SDTM Nervous System Physiology Test Name Terminology", "submissionValue": "NVTEST", "synonyms": ["Nervous System Findings Test Name"], "terms": [{"conceptId": "C114183", "definition": "A measurement of change in volume of an organ or anatomical feature as determined by a shift in tissue boundary over time.", "preferredTerm": "Boundary Shift Integral", "submissionValue": "Boundary Shift Integral", "synonyms": ["Boundary Shift Integral"]}, {"conceptId": "C154865", "definition": "An evaluation of the perfusion of blood through the brain.", "preferredTerm": "Cerebral Blood Flow Assessment", "submissionValue": "Cerebral Blood Flow", "synonyms": ["Brain Perfusion", "Cerebral Blood Flow"]}, {"conceptId": "C154868", "definition": "The length of time of N1 sleep.", "preferredTerm": "N1 Sleep Phase Duration", "submissionValue": "N1 Sleep Duration", "synonyms": ["N1 Sleep Duration", "Stage 1 Sleep Duration"]}, {"conceptId": "C117886", "definition": "An assessment of the latency of the N145 or N2 wave of the visual evoked potential assessment waveform.", "preferredTerm": "N145 Latency", "submissionValue": "N145 Latency", "synonyms": ["N145 Latency"]}, {"conceptId": "C154869", "definition": "The length of time of N2 sleep.", "preferredTerm": "N2 Sleep Phase Duration", "submissionValue": "N2 Sleep Duration", "synonyms": ["N2 Sleep Duration", "Stage 2 Sleep Duration"]}, {"conceptId": "C154870", "definition": "The length of time of N3 sleep.", "preferredTerm": "N3 Sleep Phase Duration", "submissionValue": "N3 Sleep Duration", "synonyms": ["N3 Sleep Duration", "Stage 3 Sleep Duration"]}, {"conceptId": "C130185", "definition": "An assessment of the latency of the N75 or N1 wave of the visual evoked potential assessment waveform.", "preferredTerm": "N75 Latency", "submissionValue": "N75 Latency", "synonyms": ["N1 Latency", "N75 Latency"]}, {"conceptId": "C117887", "definition": "The magnitude, or height, of the P100 wave of the visual evoked potential assessment waveform. This assessment calculates the height from the N75 negative peak to the P100 positive peak.", "preferredTerm": "N75 to P100 Peak to Peak Amplitude", "submissionValue": "P100 Amplitude", "synonyms": ["P100 Amplitude"]}, {"conceptId": "C117888", "definition": "An assessment of the latency of the P100 or P1 wave of the visual evoked potential assessment waveform.", "preferredTerm": "P100 Latency", "submissionValue": "P100 Latency", "synonyms": ["P100 Latency"]}, {"conceptId": "C154871", "definition": "The total amount of time an individual spends in rapid eye movement (REM) sleep.", "preferredTerm": "Rapid Eye Movement Sleep Phase Duration", "submissionValue": "REM Duration", "synonyms": ["REM Duration"]}, {"conceptId": "C154872", "definition": "The time between the onset of sleep and the onset of the first rapid eye movement (REM) cycle.", "preferredTerm": "Rapid Eye Movement Sleep Phase Latency", "submissionValue": "REM Latency", "synonyms": ["REM Latency"]}, {"conceptId": "C154866", "definition": "The degree to which the skin can conduct electricity.", "preferredTerm": "Skin Conductance", "submissionValue": "Skin Conductance", "synonyms": ["Skin Conductance"]}, {"conceptId": "C154867", "definition": "The duration of time between when the lights are turned off and when the individual falls asleep.", "preferredTerm": "Sleep Onset Latency", "submissionValue": "Sleep Onset Latency", "synonyms": ["Sleep Onset Latency"]}, {"conceptId": "C69310", "definition": "The ratio between the tissue radioactivity concentration at a point in time C(T) and the injected dose of radioactivity per kilogram of the patient's body weight.", "preferredTerm": "Standardized Uptake Value", "submissionValue": "Standard Uptake Value", "synonyms": ["Standard Uptake Value"]}, {"conceptId": "C116141", "definition": "The ratio between the uptake or binding of a radiopharmaceutical agent in an anatomical region of interest and a context-defined reference anatomical region.", "preferredTerm": "Standard Uptake Value Ratio", "submissionValue": "Standard Uptake Value Ratio", "synonyms": ["Standard Uptake Value Ratio"]}, {"conceptId": "C41145", "definition": "The dimension between two surfaces of an object, usually the smallest dimension as opposed to the width or the length.", "preferredTerm": "Thickness", "submissionValue": "Thickness", "synonyms": ["Thickness"]}, {"conceptId": "C25335", "definition": "The amount of three dimensional space occupied by an object or the capacity of a space or container. (NCI)", "preferredTerm": "Volume", "submissionValue": "Volume", "synonyms": ["Volume"]}]}