{"_links": {"parentPackage": {"href": "/mdr/ct/packages/sdtmct-2018-09-28", "title": "SDTM Controlled Terminology Package 35 Effective 2018-09-28", "type": "Terminology"}, "priorVersion": {"href": "/mdr/ct/packages/sdtmct-2018-06-29/codelists/C116107", "title": "CDISC SDTM Death Diagnosis Test Name Terminology", "type": "Code List"}, "rootItem": {"href": "/mdr/root/ct/sdtmct/codelists/C116107", "title": "Version-agnostic anchor resource for codelist C116107", "type": "Root Value Domain"}, "self": {"href": "/mdr/ct/packages/sdtmct-2018-09-28/codelists/C116107", "title": "CDISC SDTM Death Diagnosis Test Name Terminology", "type": "Code List"}}, "conceptId": "C116107", "definition": "Terminology relevant to the test codes that describe the death diagnosis and related details.", "extensible": "true", "name": "SDTM Death Diagnosis and Details Test Name", "preferredTerm": "CDISC SDTM Death Diagnosis Test Name Terminology", "submissionValue": "DTHDX", "synonyms": ["SDTM Death Diagnosis and Details Test Name"], "terms": [{"conceptId": "C135383", "definition": "The age at which death occurred. (NCI)", "preferredTerm": "Age at Death", "submissionValue": "Age at Death", "synonyms": ["Age at Death"]}, {"conceptId": "C135384", "definition": "An indication as to whether an autopsy was performed. (NCI)", "preferredTerm": "Autopsy Indicator", "submissionValue": "Autopsy Indicator", "synonyms": ["Autopsy Indicator"]}, {"conceptId": "C135385", "definition": "An indication as to whether a death certificate was obtained. (NCI)", "preferredTerm": "Death Certification Indicator", "submissionValue": "Death Certificate Obtained Indicator", "synonyms": ["Death Certificate Obtained Indicator"]}, {"conceptId": "C135386", "definition": "An indication as to whether a hospital medical record was obtained.", "preferredTerm": "Hospital Medical Record Indicator", "submissionValue": "Hospital Medical Record Obtained Ind", "synonyms": ["Hospital Medical Record Obtained Ind", "Hospital Medical Record Obtained Indicator"]}, {"conceptId": "C124331", "definition": "The physical location at which the subject ceased to live.", "preferredTerm": "Location of Death", "submissionValue": "Location of Death", "synonyms": ["Location of Death"]}, {"conceptId": "C99531", "definition": "The primary significant event which ultimately led to death.", "preferredTerm": "Primary Cause of Death", "submissionValue": "Primary Cause of Death", "synonyms": ["Primary Cause of Death"]}, {"conceptId": "C116142", "definition": "The secondary significant event which ultimately led to death.", "preferredTerm": "Secondary Cause of Death", "submissionValue": "Secondary Cause of Death", "synonyms": ["Secondary Cause of Death"]}]}