{"_links": {"parentPackage": {"href": "/mdr/ct/packages/sdtmct-2018-09-28", "title": "SDTM Controlled Terminology Package 35 Effective 2018-09-28", "type": "Terminology"}, "priorVersion": {"href": "/mdr/ct/packages/sdtmct-2018-06-29/codelists/C120989", "title": "CDISC Clinical Classification Child-Pugh Test Code Terminology", "type": "Code List"}, "rootItem": {"href": "/mdr/root/ct/sdtmct/codelists/C120989", "title": "Version-agnostic anchor resource for codelist C120989", "type": "Root Value Domain"}, "self": {"href": "/mdr/ct/packages/sdtmct-2018-09-28/codelists/C120989", "title": "CDISC Clinical Classification Child-Pugh Test Code Terminology", "type": "Code List"}}, "conceptId": "C120989", "definition": "Child-Pugh Classification test code.", "extensible": "false", "name": "Child-Pugh Classification Clinical Classification Test Code", "preferredTerm": "CDISC Clinical Classification Child-Pugh Test Code Terminology", "submissionValue": "CPS01TC", "synonyms": ["Child-Pugh Classification Clinical Classification Test Code"], "terms": [{"conceptId": "C121068", "definition": "Child-Pugh Classification - Encephalopathy grade.", "preferredTerm": "Child-Pugh - Encephalopathy Grade", "submissionValue": "CPS0101", "synonyms": ["CPS01-Encephalopathy Grade"]}, {"conceptId": "C121069", "definition": "Child-Pugh Classification - Ascites.", "preferredTerm": "Child-Pugh - Ascites", "submissionValue": "CPS0102", "synonyms": ["CPS01-Ascites"]}, {"conceptId": "C121070", "definition": "Child-Pugh Classification - Serum bilirubin, mg/dL.", "preferredTerm": "Child-Pugh - Serum Bilirubin", "submissionValue": "CPS0103", "synonyms": ["CPS01-Serum Bilirubin"]}, {"conceptId": "C121071", "definition": "Child-Pugh Classification - Serum albumin, g/dL.", "preferredTerm": "Child-Pugh - Serum Albumin", "submissionValue": "CPS0104", "synonyms": ["CPS01-Serum Albumin"]}, {"conceptId": "C121072", "definition": "Child-Pugh Classification - Prothrombin time, sec prolonged.", "preferredTerm": "Child-Pugh - PT, Sec Prolonged", "submissionValue": "CPS0105A", "synonyms": ["CPS01-PT, Sec Prolonged"]}, {"conceptId": "C121073", "definition": "Child-Pugh Classification - Prothrombin time, international normalized ratio (INR).", "preferredTerm": "Child-Pugh - PT, INR", "submissionValue": "CPS0105B", "synonyms": ["CPS01-PT, INR"]}, {"conceptId": "C121074", "definition": "Child-Pugh Classification - Child-Pugh total score.", "preferredTerm": "Child-Pugh - Total Score", "submissionValue": "CPS0106", "synonyms": ["CPS01-Total Score"]}, {"conceptId": "C121075", "definition": "Child-Pugh Classification - Child-Pugh grade.", "preferredTerm": "Child-Pugh - Grade", "submissionValue": "CPS0107", "synonyms": ["CPS01-Grade"]}]}