{"_links": {"parentPackage": {"href": "/mdr/ct/packages/sdtmct-2018-09-28", "title": "SDTM Controlled Terminology Package 35 Effective 2018-09-28", "type": "Terminology"}, "priorVersion": {"href": "/mdr/ct/packages/sdtmct-2018-06-29/codelists/C120991", "title": "CDISC Clinical Classification MELD Test Code Terminology", "type": "Code List"}, "rootItem": {"href": "/mdr/root/ct/sdtmct/codelists/C120991", "title": "Version-agnostic anchor resource for codelist C120991", "type": "Root Value Domain"}, "self": {"href": "/mdr/ct/packages/sdtmct-2018-09-28/codelists/C120991", "title": "CDISC Clinical Classification MELD Test Code Terminology", "type": "Code List"}}, "conceptId": "C120991", "definition": "Model for End Stage Liver Disease test code.", "extensible": "false", "name": "Model for End Stage Liver Disease Clinical Classification Test Code", "preferredTerm": "CDISC Clinical Classification MELD Test Code Terminology", "submissionValue": "MELD01TC", "synonyms": ["Model for End Stage Liver Disease Clinical Classification Test Code"], "terms": [{"conceptId": "C121076", "definition": "Model for End Stage Liver Disease - MELD score.", "preferredTerm": "MELD - Score", "submissionValue": "MELD0101", "synonyms": ["MELD01-Score"]}]}