{"_links": {"parentPackage": {"href": "/mdr/ct/packages/sdtmct-2018-09-28", "title": "SDTM Controlled Terminology Package 35 Effective 2018-09-28", "type": "Terminology"}, "priorVersion": {"href": "/mdr/ct/packages/sdtmct-2018-06-29/codelists/C120525", "title": "CDISC SDTM Immunogenicity Specimen Assessments Test Code Terminology", "type": "Code List"}, "rootItem": {"href": "/mdr/root/ct/sdtmct/codelists/C120525", "title": "Version-agnostic anchor resource for codelist C120525", "type": "Root Value Domain"}, "self": {"href": "/mdr/ct/packages/sdtmct-2018-09-28/codelists/C120525", "title": "CDISC SDTM Immunogenicity Specimen Assessments Test Code Terminology", "type": "Code List"}}, "conceptId": "C120525", "definition": "Terminology relevant to the immunogenicity specimen test codes of the CDISC Study Data Tabulation Model.", "extensible": "true", "name": "Immunogenicity Specimen Assessments Test Code", "preferredTerm": "CDISC SDTM Immunogenicity Specimen Assessments Test Code Terminology", "submissionValue": "ISTESTCD", "synonyms": ["Immunogenicity Specimen Assessments Test Code"], "terms": [{"conceptId": "C147272", "definition": "A measurement of the binding antidrug antibody in a biological specimen.", "preferredTerm": "Binding Antidrug Antibody Measurement", "submissionValue": "ADA_BAB", "synonyms": ["Binding Antidrug Antibody"]}, {"conceptId": "C147273", "definition": "A measurement of the neutralizing binding antidrug antibody in a biological specimen.", "preferredTerm": "Neutralizing Binding Antidrug Antibody Measurement", "submissionValue": "ADA_NAB", "synonyms": ["Neutralizing Binding Antidrug Antibody"]}, {"conceptId": "C147274", "definition": "A measurement of the neutralizing cross-reactive binding antidrug antibody in a biological specimen.", "preferredTerm": "Neutralizing Cross-Reacting Binding Antidrug Antibody Measurement", "submissionValue": "ADA_NX", "synonyms": ["Neutraliz Cross-React Bind Antidrug AB", "Neutralizing Cross-Reactive Binding Antidrug Antibody"]}, {"conceptId": "C147275", "definition": "A measurement of the cross-reactive binding antidrug antibody in a biological specimen.", "preferredTerm": "Cross-Reactive Binding Antidrug Antibody Measurement", "submissionValue": "ADA_X", "synonyms": ["Cross-Reactive Binding Antidrug Antibody"]}, {"conceptId": "C132360", "definition": "A measurement of the Ebola virus specific IgG antibody secreting cells in a biological specimen.", "preferredTerm": "Ebola Virus Specific IgG Antibody Secreting Cell Count", "submissionValue": "EVIGGASC", "synonyms": ["EBOV Specific IgG AB Secreting Cells"]}, {"conceptId": "C132361", "definition": "A measurement of the Ebola virus specific IgM antibody secreting cells in a biological specimen.", "preferredTerm": "Ebola Virus Specific IgM Antibody Secreting Cell Count", "submissionValue": "EVIGMASC", "synonyms": ["EBOV Specific IgM AB Secreting Cells"]}, {"conceptId": "C120622", "definition": "A measurement of the H1 specific IgG antibody secreting cells in a biological specimen.", "preferredTerm": "Influenza Hemagglutinin 1 Specific IgG Antibody Secreting Cell Count", "submissionValue": "H1IGGASC", "synonyms": ["H1 Specific IgG ASCs", "H1 Specific IgG Antibody Secreting Cells"]}, {"conceptId": "C120623", "definition": "A measurement of the H3 specific IgG antibody secreting cells in a biological specimen.", "preferredTerm": "Influenza Hemagglutinin 3 Specific IgG Antibody Secreting Cell Count", "submissionValue": "H3IGGASC", "synonyms": ["H3 Specific IgG ASCs", "H3 Specific IgG Antibody Secreting Cells"]}, {"conceptId": "C132362", "definition": "A measurement of the total IgM antibody secreting cells in a biological specimen.", "preferredTerm": "IgM Antibody Secreting Cell Count", "submissionValue": "IGMABSC", "synonyms": ["IgM Antibody Secreting Cells"]}, {"conceptId": "C120624", "definition": "A measurement of the total IgG antibody secreting cells in a biological specimen.", "preferredTerm": "Total IgG Antibody Secreting Cell Count", "submissionValue": "TIGGASC", "synonyms": ["Total IgG ASCs", "Total IgG Antibody Secreting Cells"]}]}