{"_links": {"parentPackage": {"href": "/mdr/ct/packages/sdtmct-2018-09-28", "title": "SDTM Controlled Terminology Package 35 Effective 2018-09-28", "type": "Terminology"}, "priorVersion": {"href": "/mdr/ct/packages/sdtmct-2018-06-29/codelists/C124668", "title": "CDISC Clinical Classification ASSIGN Score Test Code Terminology", "type": "Code List"}, "rootItem": {"href": "/mdr/root/ct/sdtmct/codelists/C124668", "title": "Version-agnostic anchor resource for codelist C124668", "type": "Root Value Domain"}, "self": {"href": "/mdr/ct/packages/sdtmct-2018-09-28/codelists/C124668", "title": "CDISC Clinical Classification ASSIGN Score Test Code Terminology", "type": "Code List"}}, "conceptId": "C124668", "definition": "ASSIGN Cardiovascular Disease 10-Year Risk Score test code.", "extensible": "false", "name": "ASSIGN Cardiovascular Disease 10-Year Risk Score Clinical Classification Test Code", "preferredTerm": "CDISC Clinical Classification ASSIGN Score Test Code Terminology", "submissionValue": "ASSG01TC", "synonyms": ["ASSIGN Cardiovascular Disease 10-Year Risk Score Clinical Classification Test Code"], "terms": [{"conceptId": "C124721", "definition": "ASSIGN Cardiovascular Disease 10-Year Risk Score - ASSIGN score.", "preferredTerm": "ASSIGN Score - Risk Score", "submissionValue": "ASSG0101", "synonyms": ["ASSG01-ASSIGN Score"]}]}