{"_links": {"parentPackage": {"href": "/mdr/ct/packages/sdtmct-2018-09-28", "title": "SDTM Controlled Terminology Package 35 Effective 2018-09-28", "type": "Terminology"}, "priorVersion": {"href": "/mdr/ct/packages/sdtmct-2018-06-29/codelists/C124680", "title": "CDISC Clinical Classification West Haven Criteria Test Code Terminology", "type": "Code List"}, "rootItem": {"href": "/mdr/root/ct/sdtmct/codelists/C124680", "title": "Version-agnostic anchor resource for codelist C124680", "type": "Root Value Domain"}, "self": {"href": "/mdr/ct/packages/sdtmct-2018-09-28/codelists/C124680", "title": "CDISC Clinical Classification West Haven Criteria Test Code Terminology", "type": "Code List"}}, "conceptId": "C124680", "definition": "West Haven Hepatic Encephalopathy Grade test code.", "extensible": "false", "name": "West Haven Hepatic Encephalopathy Grade Clinical Classification Test Code", "preferredTerm": "CDISC Clinical Classification West Haven Criteria Test Code Terminology", "submissionValue": "WHEG01TC", "synonyms": ["West Haven Hepatic Encephalopathy Grade Clinical Classification Test Code"], "terms": [{"conceptId": "C117747", "definition": "West Haven Hepatic Encephalopathy Grade - Grade.", "preferredTerm": "West Haven Criteria - West Haven Hepatic Encephalopathy Grade", "submissionValue": "WHEG0101", "synonyms": ["WHEG01-WH Hepatic Encephalopathy Grade"]}]}