{
  "_links": {
    "priorVersion": {
      "href": "",
      "title": "",
      "type": "Terminology"
    },
    "self": {
      "href": "",
      "title": "",
      "type": "Terminology"
    }
  },
  "codelists": [
    {
      "conceptId": "C49499",
      "definition": "The reason that changes were made to the therapy under study. (NCI)",
      "extensible": "No",
      "name": "Action Taken with Study Treatment ",
      "preferredTerm": "",
      "submissionValue": "[ACN]",
      "synonyms": [
        "Action Taken with Study Treatment"
      ],
      "terms": [
        {
          "conceptId": "C49503",
          "definition": "An indication that a medication schedule was modified by addition; either by changing the frequency, strength or amount. (NCI)",
          "preferredTerm": "Dose Increased",
          "submissionValue": "DOSE INCREASED",
          "synonyms": []
        },
        {
          "conceptId": "C49504",
          "definition": "An indication that a medication schedule was maintained. (NCI)",
          "preferredTerm": "Dose Not Changed",
          "submissionValue": "DOSE NOT CHANGED",
          "synonyms": []
        },
        {
          "conceptId": "C49505",
          "definition": "An indication that a medication schedule was modified by subtraction, either by changing the frequency, strength or amount. (NCI)",
          "preferredTerm": "Dose Reduced",
          "submissionValue": "DOSE REDUCED",
          "synonyms": []
        },
        {
          "conceptId": "C49501",
          "definition": "An indication that a medication schedule was modified by temporarily terminating a prescribed regimen of medication. (NCI)",
          "preferredTerm": "Drug Interrupted",
          "submissionValue": "DRUG INTERRUPTED",
          "synonyms": []
        },
        {
          "conceptId": "C49502",
          "definition": "An indication that a medication schedule was modified through termination of a prescribed regimen of medication. (NCI)",
          "preferredTerm": "Drug Withdrawn",
          "submissionValue": "DRUG WITHDRAWN",
          "synonyms": []
        },
        {
          "conceptId": "C48660",
          "definition": "Determination of a value is not relevant in the current context. (NCI)",
          "preferredTerm": "Not Applicable",
          "submissionValue": "",
          "synonyms": [
            "NOT APPLICABLE"
          ]
        },
        {
          "conceptId": "C17998",
          "definition": "Not known, not observed, not recorded, or refused. (NCI)",
          "preferredTerm": "Unknown",
          "submissionValue": "U",
          "synonyms": [
            "UNKNOWN",
            "Unknown"
          ]
        }
      ]
    },
    {
      "conceptId": "C49489",
      "definition": "A condition or event that is attributed to the adverse event and is the result or conclusion of the adverse event. (NCI)",
      "extensible": "No",
      "name": "Adverse Event Outcome",
      "preferredTerm": "",
      "submissionValue": "[OUT]",
      "synonyms": [
        "Outcome of Event"
      ],
      "terms": [
        {
          "conceptId": "C48275",
          "definition": "The termination of life as a result of an adverse event. (NCI)",
          "preferredTerm": "Death Related to Adverse Event",
          "submissionValue": "5",
          "synonyms": [
            "Grade 5",
            "FATAL"
          ]
        },
        {
          "conceptId": "C49494",
          "definition": "One of the possible results of an adverse event outcome that indicates that the event has not improved or recuperated. (NCI)",
          "preferredTerm": "Not Recovered or Not Resolved",
          "submissionValue": "NOT RECOVERED/NOT RESOLVED",
          "synonyms": []
        },
        {
          "conceptId": "C49498",
          "definition": "One of the possible results of an adverse event outcome that indicates that the event has improved or recuperated. (NCI)",
          "preferredTerm": "Recovered or Resolved",
          "submissionValue": "RECOVERED/RESOLVED",
          "synonyms": []
        },
        {
          "conceptId": "C49495",
          "definition": "One of the possible results of an adverse event outcome where the subject recuperated but retained pathological conditions resulting from the prior disease or injury. (NCI)",
          "preferredTerm": "Recovered or Resolved with Sequelae",
          "submissionValue": "RECOVERED/RESOLVED WITH SEQUELAE",
          "synonyms": []
        },
        {
          "conceptId": "C49496",
          "definition": "One of the possible results of an adverse event outcome that indicates that the event is improving. (NCI)",
          "preferredTerm": "Recovering or Resolving",
          "submissionValue": "RECOVERING/RESOLVING",
          "synonyms": []
        },
        {
          "conceptId": "C17998",
          "definition": "Not known, not observed, not recorded, or refused. (NCI)",
          "preferredTerm": "Unknown",
          "submissionValue": "U",
          "synonyms": [
            "UNKNOWN",
            "Unknown"
          ]
        }
      ]
    },
    {
      "conceptId": "C20587",
      "definition": "Subgroups of populations based on age. (NCI)",
      "extensible": "Yes",
      "name": "Age Group",
      "preferredTerm": "",
      "submissionValue": "[AGESPAN]",
      "synonyms": [
        "Age Span"
      ],
      "terms": [
        {
          "conceptId": "C27954",
          "definition": "A juvenile between the onset of puberty and maturity; in the state of development between puberty and maturity. (NCI)",
          "preferredTerm": "Adolescent",
          "submissionValue": "ADOLESCENT (12-17 YEARS)",
          "synonyms": []
        },
        {
          "conceptId": "C49685",
          "definition": "A person from 18 years to 65 years of age. (NCI)",
          "preferredTerm": "Adult 18-65 Years Old",
          "submissionValue": "ADULT (18-65)",
          "synonyms": []
        },
        {
          "conceptId": "C49683",
          "definition": "A person from 2 years to 11 years of age. (NCI)",
          "preferredTerm": "Children 2-11 Years Old",
          "submissionValue": "CHILDREN (2-11 YEARS)",
          "synonyms": []
        },
        {
          "conceptId": "C16268",
          "definition": "An age group comprised by people 65 years of age and older. (NCI) ",
          "preferredTerm": "Elderly",
          "submissionValue": "ELDERLY (> 65)",
          "synonyms": []
        },
        {
          "conceptId": "C49641",
          "definition": "The period of time during which the embryo or foetus is present in the uterus of the female. Also describes the location of the embryo or foetus as being in the uterus in contrast to outside the uterus (ex utero). (NCI)",
          "preferredTerm": "In Utero",
          "submissionValue": "IN UTERO",
          "synonyms": []
        },
        {
          "conceptId": "C49643",
          "definition": "A person from 28 days to 23 months of age. (NCI)",
          "preferredTerm": "Infant And Toddler",
          "submissionValue": "INFANT AND TODDLER (28 DAYS - 23 MONTHS)",
          "synonyms": []
        },
        {
          "conceptId": "C16731",
          "definition": "An infant during the first month after birth. (NCI)",
          "preferredTerm": "Newborn",
          "submissionValue": "NEWBORN (0-27 DAYS)",
          "synonyms": []
        },
        {
          "conceptId": "C49642",
          "definition": "An infant born prior to completion of the normal gestation period. (NCI)",
          "preferredTerm": "Preterm Newborn Infant",
          "submissionValue": "PRETERM NEWBORN INFANTS",
          "synonyms": []
        }
      ]
    },
    {
      "conceptId": "C50400",
      "definition": "Those units of time that are routinely used to express the age of a person. (NCI)",
      "extensible": "No",
      "name": "Age Unit",
      "preferredTerm": "",
      "submissionValue": "[AGEU]",
      "synonyms": [
        "Age Units"
      ],
      "terms": [
        {
          "conceptId": "C25301",
          "definition": "The time for Earth to make a complete rotation on its axis; ordinarily divided into twenty-four hours.  This also refers to a specific day. (NCI)",
          "preferredTerm": "Day",
          "submissionValue": "DAYS",
          "synonyms": []
        },
        {
          "conceptId": "C25529",
          "definition": "A unit measure of time equal to 3,600 seconds or 60 minutes. It is approximately 1/24 of a median day. (NCI)",
          "preferredTerm": "Hour",
          "submissionValue": "HOURS",
          "synonyms": []
        },
        {
          "conceptId": "C29846",
          "definition": "One of the 12 divisions of a year as determined by a calendar.  It corresponds to the unit of time of approximately to one cycle of the moon's phases, about 30 days or 4 weeks. (NCI)",
          "preferredTerm": "Month",
          "submissionValue": "MONTHS",
          "synonyms": []
        },
        {
          "conceptId": "C29844",
          "definition": "Any period of seven consecutive days. (NCI)",
          "preferredTerm": "Week",
          "submissionValue": "WEEKS",
          "synonyms": []
        },
        {
          "conceptId": "C29848",
          "definition": "The period of time that it takes for Earth to make a complete revolution around the sun, approximately 365 days; a specific one year period. (NCI)",
          "preferredTerm": "Year",
          "submissionValue": "YEARS",
          "synonyms": []
        }
      ]
    },
    {
      "conceptId": "C49480",
      "definition": "A collection of criteria on which subjects are evaluated and that must be met by all study subjects. (NCI)",
      "extensible": "No",
      "name": "Category for Inclusion and or Exclusion",
      "preferredTerm": "",
      "submissionValue": "[IECAT]",
      "synonyms": [
        "Category for Inclusion/Exclusion"
      ],
      "terms": [
        {
          "conceptId": "C25370",
          "definition": "List of characteristics in a protocol, any one of which may exclude a potential subject from participation in a study. (CDISC glossary)",
          "preferredTerm": "Exclusion",
          "submissionValue": "EXCLUSION",
          "synonyms": []
        },
        {
          "conceptId": "C25532",
          "definition": "The criteria in a protocol that prospective subjects must meet to be eligible for participation in a study.  NOTE: Exclusion and inclusion criteria define the study population. See also exclusion criteria. (CDISC glossary)",
          "preferredTerm": "Inclusion",
          "submissionValue": "INCLUSION",
          "synonyms": []
        }
      ]
    },
    {
      "conceptId": "C64388",
      "definition": "Terms at the highest level of the CDISC system organ class terminology.",
      "extensible": "No",
      "name": "CDISC System Organ Class",
      "preferredTerm": "",
      "submissionValue": "[SOC]",
      "synonyms": [
        "System Organ Class"
      ],
      "terms": [
        {
          "conceptId": "C35814",
          "definition": "Any deviation from the normal structure or function of the blood or lymphatic system that is manifested by a characteristic set of symptoms and signs. (NCI)",
          "preferredTerm": "Hematopoietic and Lymphoid System Disorder",
          "submissionValue": "BLOOD AND LYMPHATIC SYSTEM DISORDERS",
          "synonyms": []
        },
        {
          "conceptId": "C3079",
          "definition": "Any deviation from the normal structure or function of the cardiac system that is manifested by a characteristic set of symptoms and signs. (NCI)",
          "preferredTerm": "Heart Disorder",
          "submissionValue": "CARDIAC DISORDERS",
          "synonyms": []
        },
        {
          "conceptId": "C49399",
          "definition": "A class of disorders that encompasses conditions resulting from a congenital, familial hereditary trait or genetic abnormality as is manifested by a characterstic set of symptoms and signs. (NCI)",
          "preferredTerm": "Congenital, Familial and Genetic Disorder Class",
          "submissionValue": "CONGENITAL, FAMILIAL AND GENETIC DISORDERS",
          "synonyms": []
        },
        {
          "conceptId": "C49400",
          "definition": "Any deviation from the normal structure or function of the ear or labyrinth that is manifested by a characteristic set of symptoms and signs. (NCI)",
          "preferredTerm": "Ear and Labyrinth Disorder Class",
          "submissionValue": "EAR AND LABYRINTH DISORDERS",
          "synonyms": []
        },
        {
          "conceptId": "C3009",
          "definition": "Any deviation from the normal structure or function of the endocrine system that is manifested by a characteristic set of symptoms and signs. (NCI)",
          "preferredTerm": "Endocrine Disorder",
          "submissionValue": "ENDOCRINE DISORDERS",
          "synonyms": []
        },
        {
          "conceptId": "C26767",
          "definition": "Any deviation from the normal structure or function of the eye that is manifested by a characteristic set of symptoms and signs. (NCI)",
          "preferredTerm": "Eye Disorder",
          "submissionValue": "EYE DISORDERS",
          "synonyms": []
        },
        {
          "conceptId": "C2990",
          "definition": "Diseases of the digestive tract (oral cavity to anus) and associated organs (salivary glands, liver, pancreas). (NCI)",
          "preferredTerm": "Gastrointestinal Disorder",
          "submissionValue": "GASTROINTESTINAL DISORDERS",
          "synonyms": []
        },
        {
          "conceptId": "C49401",
          "definition": "A class of disorders that encompasses conditions of a general kind that result from a disease, the treatment of disease or administration of treatment at a particular site and are manifested by a characteristic set of symptoms and signs. (NCI)",
          "preferredTerm": "General Disorders and Administration Site Conditions Class",
          "submissionValue": "GENERAL DISORDERS AND ADMINISTRATION SITE CONDITIONS",
          "synonyms": []
        },
        {
          "conceptId": "C3959",
          "definition": "Any deviation from the normal structure or function of the liver or biliary tract that is manifested by a characteristic set of symptoms and signs. (NCI)",
          "preferredTerm": "Liver and Biliary Tract Disorder",
          "submissionValue": "HEPATOBILIARY DISORDERS",
          "synonyms": []
        },
        {
          "conceptId": "C3507",
          "definition": "A disorder resulting from an abnormality in the immune system. -- 2003 (NCI)",
          "preferredTerm": "Immune System Disorder",
          "submissionValue": "IMMUNE SYSTEM DISORDERS",
          "synonyms": []
        },
        {
          "conceptId": "C26726",
          "definition": "A disorder resulting from the presence and activity of a microbial, viral, or parasitic agent. It can be transmitted by direct or indirect contact. -- 2003 (NCI)",
          "preferredTerm": "Infectious Disorder",
          "submissionValue": "INFECTIONS AND INFESTATIONS",
          "synonyms": []
        },
        {
          "conceptId": "C49402",
          "definition": "A class of disorders that encompasses conditions resulting from an injury, poisoning or procedure. (NCI)",
          "preferredTerm": "Injury, Poisoning and Procedural Complication Class",
          "submissionValue": "INJURY, POISONING AND PROCEDURAL COMPLICATIONS",
          "synonyms": []
        },
        {
          "conceptId": "C41198",
          "definition": "The act or process of a systematic and thorough examination; research, study; the process of inquiring into or following up, intended to develop facts. (NCI)",
          "preferredTerm": "Investigation",
          "submissionValue": "INVESTIGATIONS",
          "synonyms": []
        },
        {
          "conceptId": "C49403",
          "definition": "A class of disorders that encompasses conditions occurring as a result of metabolic dysfunction or deviation from the normal nutritional requirements. (NCI)",
          "preferredTerm": "Metabolism and Nutrition Disorder Class",
          "submissionValue": "METABOLISM AND NUTRITION DISORDERS",
          "synonyms": []
        },
        {
          "conceptId": "C27574",
          "definition": "Any deviation from the normal structure or function of the musculoskeletal or connective tissue that is manifested by a characteristic set of symptoms and signs. (NCI)",
          "preferredTerm": "Connective and Soft Tissue Disorder",
          "submissionValue": "MUSCULOSKELETAL AND CONNECTIVE TISSUE DISORDERS",
          "synonyms": []
        },
        {
          "conceptId": "C3262",
          "definition": "An abnormal tissue growth resulted from uncontrolled cell proliferation.  Benign neoplastic cells resemble normal cells without exhibiting significant cytologic atypia, while malignant ones exhibit overt signs such as dysplastic features, atypical mitotic figures, necrosis, nuclear pleomorphism, and anaplasia.  Representative examples of benign neoplasms include papillomas, cystadenomas, and lipomas; malignant neoplasms include carcinomas, sarcomas, lymphomas, and leukemias. -- 2004 (NCI)",
          "preferredTerm": "Neoplasm",
          "submissionValue": "NEOPLASMS BENIGN, MALIGNANT AND UNSPECIFIED (INCL CYSTS AND POLYPS)",
          "synonyms": []
        },
        {
          "conceptId": "C26835",
          "definition": "Any deviation from the normal structure or function of the nervous system that is manifested by a characteristic set of symptoms and signs. (NCI)",
          "preferredTerm": "Nervous System Disorder",
          "submissionValue": "NERVOUS SYSTEM DISORDERS",
          "synonyms": []
        },
        {
          "conceptId": "C49404",
          "definition": "A class of conditions associated with pregnancy, puerperium and perinatal status. (NCI)",
          "preferredTerm": "Pregnancy, Puerperium and Perinatal Condition Class",
          "submissionValue": "PREGNANCY, PUERPERIUM AND PERINATAL CONDITIONS",
          "synonyms": []
        },
        {
          "conceptId": "C2893",
          "definition": "Any deviation from the normal structure or function of the brain and a psychiatric condition, that results in an impairment of an individual's normal cognitive, emotional, or behavioral functioning, and is caused by physiological or psychosocial factors. (NCI)",
          "preferredTerm": "Psychiatric Disorder",
          "submissionValue": "PSYCHIATRIC DISORDERS",
          "synonyms": []
        },
        {
          "conceptId": "C3430",
          "definition": "Disorders of any part of the urologic system. (NCI)",
          "preferredTerm": "Urinary System Disorder",
          "submissionValue": "RENAL AND URINARY DISORDERS",
          "synonyms": []
        },
        {
          "conceptId": "C49405",
          "definition": "Any deviation from the normal structure or function of the reproductive system or breast that is manifested by a characteristic set of symptoms and signs. (NCI)",
          "preferredTerm": "Reproductive System and Breast Disorder Class",
          "submissionValue": "REPRODUCTIVE SYSTEM AND BREAST DISORDERS",
          "synonyms": []
        },
        {
          "conceptId": "C27669",
          "definition": "Any deviation from the normal structure or function of the respiratory system including the thorax and mediastinum that is manifested by a characteristic set of symptoms and signs. (NCI)",
          "preferredTerm": "Respiratory and Thoracic Disorder",
          "submissionValue": "RESPIRATORY, THORACIC AND MEDIASTINAL DISORDERS",
          "synonyms": []
        },
        {
          "conceptId": "C3371",
          "definition": "Any deviation from the normal structure or function of the skin or subcutaneous tissue that is manifested by a characteristic set of symptoms and signs.(NCI)",
          "preferredTerm": "Skin Disorder",
          "submissionValue": "SKIN AND SUBCUTANEOUS TISSUE DISORDERS",
          "synonyms": []
        },
        {
          "conceptId": "C20188",
          "definition": "A set of concepts that results from or is influenced by criteria or activities associated with the social environment of a person. (NCI)",
          "preferredTerm": "Social Circumstances",
          "submissionValue": "SOCIAL CIRCUMSTANCES",
          "synonyms": []
        },
        {
          "conceptId": "C25218",
          "definition": "A particular course of action intended to achieve a result. (NCI)",
          "preferredTerm": "Procedure",
          "submissionValue": "SURGICAL AND MEDICAL PROCEDURES",
          "synonyms": []
        },
        {
          "conceptId": "C35117",
          "definition": "Any deviation from the normal structure or function of the vascular system that is manifested by a characteristic set of symptoms and signs. (NCI)",
          "preferredTerm": "Vascular Disorder",
          "submissionValue": "VASCULAR DISORDERS",
          "synonyms": []
        }
      ]
    },
    {
      "conceptId": "C49704",
      "definition": "A standard terminology developed to report adverse events occurring in cancer clinical trials.  Common terminology criteria for adverse events (CTCAE) are used in study adverse event summaries and Investigational New Drug reports to the Food and Drug Administration.  The CTCAE contain a grading scale for each adverse event term representing the severity of the event. (NCI)",
      "extensible": "No",
      "name": "Common Terminology Criteria for Adverse Events",
      "preferredTerm": "",
      "submissionValue": "[TOXGR]",
      "synonyms": [
        "Standard Toxicity Grade"
      ],
      "terms": [
        {
          "conceptId": "C41338",
          "definition": "A type of adverse event that is usually transient and may require only minimal treatment or therapeutic intervention. The event does not generally interfere with usual activities of daily living.",
          "preferredTerm": "Mild Adverse Event",
          "submissionValue": "1",
          "synonyms": [
            "Grade 1",
            "MILD"
          ]
        },
        {
          "conceptId": "C41339",
          "definition": "A type of adverse event that is usually alleviated with additional specific therapeutic intervention. The event interferes with usual activities of daily living, causing discomfort but poses no significant or permanent risk of harm to the research participant.",
          "preferredTerm": "Moderate Adverse Event",
          "submissionValue": "2",
          "synonyms": [
            "Grade 2",
            "MODERATE"
          ]
        },
        {
          "conceptId": "C41340",
          "definition": "A type of adverse event that requires intensive therapeutic intervention. The event interrupts usual activities of daily living, or significantly affects clinical status. The event possesses a significant risk of harm to the research participant and hospitalization may be required.",
          "preferredTerm": "Severe Adverse Event",
          "submissionValue": "3",
          "synonyms": [
            "Grade 3",
            "SEVERE"
          ]
        },
        {
          "conceptId": "C41337",
          "definition": "An adverse event, and/or its immediate sequelae, which is associated with an imminent risk of death or which is associated with physical or mental disabilities that affect or limit the ability of a person to perform activities of daily living (eating, ambulation, toileting, etc.) See NCI Common Terminology Criteria for Adverse Events.",
          "preferredTerm": "Life Threatening or Disabling Adverse Event",
          "submissionValue": "4",
          "synonyms": [
            "Grade 4",
            ""
          ]
        },
        {
          "conceptId": "C48275",
          "definition": "The termination of life as a result of an adverse event. (NCI)",
          "preferredTerm": "Death Related to Adverse Event",
          "submissionValue": "5",
          "synonyms": [
            "Grade 5",
            "FATAL"
          ]
        }
      ]
    },
    {
      "conceptId": "C49647",
      "definition": "Comparator against which the study treatment is evaluated (e.g., concurrent (placebo, no treatment, dose-response, active), external (historical, published literature).",
      "extensible": "Yes",
      "name": "Control Type",
      "preferredTerm": "",
      "submissionValue": "[TCNTRL]",
      "synonyms": [
        "Type of Control"
      ],
      "terms": [
        {
          "conceptId": "C49649",
          "definition": "A type of control, which has a demonstrated effect, administered as a comparator, to subjects in a clinical trial. [From ICH E10].",
          "preferredTerm": "Active Control",
          "submissionValue": "ACTIVE",
          "synonyms": []
        },
        {
          "conceptId": "C41132",
          "definition": "No person or thing, nobody, not any. (NCI)",
          "preferredTerm": "None",
          "submissionValue": "NONE",
          "synonyms": []
        },
        {
          "conceptId": "C49648",
          "definition": "Use of an inactive compound identical in appearance to drug or treatment being tested in experimental research, which may or may not be known to the physician and/or subject, administered to distinguish between drug action and suggestive effect of the drug or treatment under study. The effects of the active drug or treatment are compared to the effects of the placebo. (NCI)",
          "preferredTerm": "Placebo Control",
          "submissionValue": "PLACEBO",
          "synonyms": []
        }
      ]
    },
    {
      "conceptId": "C25464",
      "definition": "A collective generic term that refers here to a wide variety of dependencies, areas of special sovereignty, uninhabited islands, and other entities in addition to the traditional countries or independent states. (NCI)",
      "extensible": "No",
      "name": "Country",
      "preferredTerm": "",
      "submissionValue": "[COUNTRY]",
      "synonyms": [
        "Country"
      ],
      "terms": [
        {
          "conceptId": "C17884",
          "definition": "Island in the Caribbean Sea, north of Venezuela.",
          "preferredTerm": "Aruba",
          "submissionValue": "ABW",
          "synonyms": [
            "ARUBA"
          ]
        },
        {
          "conceptId": "C16267",
          "definition": "A country in Southern Asia, north and west of Pakistan, east of Iran.",
          "preferredTerm": "Afghanistan",
          "submissionValue": "AFG",
          "synonyms": [
            "AFGHANISTAN"
          ]
        },
        {
          "conceptId": "C16292",
          "definition": "A country in Southern Africa, bordering the South Atlantic Ocean, between Namibia and Democratic Republic of the Congo.",
          "preferredTerm": "Angola",
          "submissionValue": "AGO",
          "synonyms": [
            "ANGOLA"
          ]
        },
        {
          "conceptId": "C20133",
          "definition": "An island in the Caribbean Sea, east of Puerto Rico.",
          "preferredTerm": "Anguilla",
          "submissionValue": "AIA",
          "synonyms": [
            "ANGUILLA"
          ]
        },
        {
          "conceptId": "C44481",
          "definition": "An archipelago in the Baltic Sea at the entrance to the Gulf of Bothnia between Sweden and Finland.",
          "preferredTerm": "Aland Islands",
          "submissionValue": "ALA",
          "synonyms": [
            "ALAND ISLANDS"
          ]
        },
        {
          "conceptId": "C16271",
          "definition": "A country in Southeastern Europe, bordering the Adriatic Sea and Ionian Sea, between Greece and Serbia and Montenegro.",
          "preferredTerm": "Albania",
          "submissionValue": "ALB",
          "synonyms": [
            "ALBANIA"
          ]
        },
        {
          "conceptId": "C16289",
          "definition": "A country in Southwestern Europe, between France and Spain.",
          "preferredTerm": "Andorra",
          "submissionValue": "AND",
          "synonyms": [
            "ANDORRA"
          ]
        },
        {
          "conceptId": "C16904",
          "definition": "A country in the Caribbean, comprising two island groups in the Caribbean Sea - one includes Curacao and Bonaire north of Venezuela; the other is east of the Virgin Islands.",
          "preferredTerm": "Netherlands Antilles",
          "submissionValue": "ANT",
          "synonyms": [
            "NETHERLANDS ANTILLES"
          ]
        },
        {
          "conceptId": "C17232",
          "definition": "A country in the Middle East, bordering the Gulf of Oman and the Persian Gulf, between Oman and Saudi Arabia.",
          "preferredTerm": "United Arab Emirates",
          "submissionValue": "ARE",
          "synonyms": [
            "UNITED ARAB EMIRATES"
          ]
        },
        {
          "conceptId": "C16305",
          "definition": "A country in Southern South America, bordering the South Atlantic Ocean, between Chile and Uruguay.",
          "preferredTerm": "Argentina",
          "submissionValue": "ARG",
          "synonyms": [
            "ARGENTINA"
          ]
        },
        {
          "conceptId": "C16306",
          "definition": "A country in Southwestern Asia, east of Turkey.",
          "preferredTerm": "Armenia",
          "submissionValue": "ARM",
          "synonyms": [
            "ARMENIA"
          ]
        },
        {
          "conceptId": "C17739",
          "definition": "A group of islands in the South Pacific Ocean, about half way between Hawaii and New Zealand.",
          "preferredTerm": "American Samoa",
          "submissionValue": "ASM",
          "synonyms": [
            "AMERICAN SAMOA"
          ]
        },
        {
          "conceptId": "C18007",
          "definition": "The continent lying mostly south of the Antarctic Circle.",
          "preferredTerm": "Antarctica",
          "submissionValue": "ATA",
          "synonyms": [
            "ANTARCTICA"
          ]
        },
        {
          "conceptId": "C20105",
          "definition": "Islands in the southern Indian Ocean, south of Africa, about equidistant between Africa, Antarctica, and Australia.",
          "preferredTerm": "French Southern Territories",
          "submissionValue": "ATF",
          "synonyms": [
            "FRENCH SOUTHERN TERRITORIES"
          ]
        },
        {
          "conceptId": "C16303",
          "definition": "Islands between the Caribbean Sea and the North Atlantic Ocean, east-southeast of Puerto Rico.",
          "preferredTerm": "Antigua and Barbuda",
          "submissionValue": "ATG",
          "synonyms": [
            "ANTIGUA AND BARBUDA"
          ]
        },
        {
          "conceptId": "C16311",
          "definition": "The continent between the Indian Ocean and the South Pacific Ocean.",
          "preferredTerm": "Australia",
          "submissionValue": "AUS",
          "synonyms": [
            "AUSTRALIA"
          ]
        },
        {
          "conceptId": "C16312",
          "definition": "A country in Central Europe, north of Italy and Slovenia.",
          "preferredTerm": "Austria",
          "submissionValue": "AUT",
          "synonyms": [
            "AUSTRIA"
          ]
        },
        {
          "conceptId": "C16316",
          "definition": "A country in Southwestern Asia, bordering the Caspian Sea, between Iran and Russia.",
          "preferredTerm": "Azerbaijan",
          "submissionValue": "AZE",
          "synonyms": [
            "AZERBAIJAN"
          ]
        },
        {
          "conceptId": "C16371",
          "definition": "A country in Central Africa, east of Democratic Republic of the Congo.",
          "preferredTerm": "Burundi",
          "submissionValue": "BDI",
          "synonyms": [
            "BURUNDI"
          ]
        },
        {
          "conceptId": "C16329",
          "definition": "A country in Western Europe, bordering the North Sea, between France and the Netherlands.",
          "preferredTerm": "Belgium",
          "submissionValue": "BEL",
          "synonyms": [
            "BELGIUM"
          ]
        },
        {
          "conceptId": "C16333",
          "definition": "A country in Western Africa, bordering the North Atlantic Ocean, between Nigeria and Togo.",
          "preferredTerm": "Benin Republic",
          "submissionValue": "BEN",
          "synonyms": [
            "BENIN REPUBLIC"
          ]
        },
        {
          "conceptId": "C16369",
          "definition": "A country in Western Africa, north of Ghana.",
          "preferredTerm": "Burkina Faso",
          "submissionValue": "BFA",
          "synonyms": [
            "BURKINA FASO"
          ]
        },
        {
          "conceptId": "C16323",
          "definition": "A country in Southern Asia, bordering the Bay of Bengal, between Burma and India.",
          "preferredTerm": "Bangladesh",
          "submissionValue": "BGD",
          "synonyms": [
            "BANGLADESH"
          ]
        },
        {
          "conceptId": "C16368",
          "definition": "A country in Southeastern Europe, bordering the Black Sea, between Romania and Turkey.",
          "preferredTerm": "Bulgaria",
          "submissionValue": "BGR",
          "synonyms": [
            "BULGARIA"
          ]
        },
        {
          "conceptId": "C16322",
          "definition": "An archipelago in the Persian Gulf, east of Saudi Arabia.",
          "preferredTerm": "Bahrain",
          "submissionValue": "BHR",
          "synonyms": [
            "BAHRAIN"
          ]
        },
        {
          "conceptId": "C16321",
          "definition": "A chain of islands in the North Atlantic Ocean, southeast of Florida.",
          "preferredTerm": "Bahamas",
          "submissionValue": "BHS",
          "synonyms": [
            "BAHAMAS"
          ]
        },
        {
          "conceptId": "C16361",
          "definition": "A country in Southeastern Europe, bordering the Adriatic Sea and Croatia.",
          "preferredTerm": "Bosnia-Herzegovina",
          "submissionValue": "BIH",
          "synonyms": [
            "BOSNIA-HERZEGOVINA"
          ]
        },
        {
          "conceptId": "C16372",
          "definition": "A country in Eastern Europe, east of Poland.",
          "preferredTerm": "Belarus",
          "submissionValue": "BLR",
          "synonyms": [
            "BELARUS"
          ]
        },
        {
          "conceptId": "C16331",
          "definition": "A country in Central America, bordering the Caribbean Sea, between Guatemala and Mexico.",
          "preferredTerm": "Belize",
          "submissionValue": "BLZ",
          "synonyms": [
            "BELIZE"
          ]
        },
        {
          "conceptId": "C16334",
          "definition": "No Definition",
          "preferredTerm": "Bermuda",
          "submissionValue": "BMU",
          "synonyms": [
            "BERMUDA"
          ]
        },
        {
          "conceptId": "C16359",
          "definition": "A country in Central South America, southwest of Brazil.",
          "preferredTerm": "Bolivia",
          "submissionValue": "BOL",
          "synonyms": [
            "BOLIVIA"
          ]
        },
        {
          "conceptId": "C16364",
          "definition": "A country in Eastern South America, bordering the Atlantic Ocean.",
          "preferredTerm": "Brazil",
          "submissionValue": "BRA",
          "synonyms": [
            "BRAZIL"
          ]
        },
        {
          "conceptId": "C16324",
          "definition": "An island between the Caribbean Sea and the North Atlantic Ocean, northeast of Venezuela.",
          "preferredTerm": "Barbados",
          "submissionValue": "BRB",
          "synonyms": [
            "BARBADOS"
          ]
        },
        {
          "conceptId": "C16367",
          "definition": "A country in Southeastern Asia, bordering the South China Sea and Malaysia.",
          "preferredTerm": "Brunei Darussalam",
          "submissionValue": "BRN",
          "synonyms": [
            "BRUNEI"
          ]
        },
        {
          "conceptId": "C16336",
          "definition": "A country in Southern Asia, between China and India.",
          "preferredTerm": "Bhutan",
          "submissionValue": "BTN",
          "synonyms": [
            "BHUTAN"
          ]
        },
        {
          "conceptId": "C20104",
          "definition": "An island in the South Atlantic Ocean, south-southwest of the Cape of Good Hope (South Africa).",
          "preferredTerm": "Bouvet Island",
          "submissionValue": "BVT",
          "synonyms": [
            "BOUVET ISLAND"
          ]
        },
        {
          "conceptId": "C16363",
          "definition": "A country in Southern Africa, north of South Africa.",
          "preferredTerm": "Botswana",
          "submissionValue": "BWA",
          "synonyms": [
            "BOTSWANA"
          ]
        },
        {
          "conceptId": "C16409",
          "definition": "A country in Central Africa, north of Democratic Republic of the Congo.",
          "preferredTerm": "Central African Republic",
          "submissionValue": "CAF",
          "synonyms": [
            "CENTRAL AFRICAN REPUBLIC"
          ]
        },
        {
          "conceptId": "C16380",
          "definition": "A country in Northern North America, bordering the North Atlantic Ocean on the east, North Pacific Ocean on the west, and the Arctic Ocean on the north, north of the conterminous US.",
          "preferredTerm": "Canada",
          "submissionValue": "CAN",
          "synonyms": [
            "CANADA"
          ]
        },
        {
          "conceptId": "C16445",
          "definition": "A group of islands in the Indian Ocean, south of Indonesia, about halfway from Australia to Sri Lanka.",
          "preferredTerm": "Cocos (Keeling) Islands",
          "submissionValue": "CCK",
          "synonyms": [
            "COCOS (KEELING) ISLANDS"
          ]
        },
        {
          "conceptId": "C17181",
          "definition": "A country in Central Europe, east of France, north of Italy.",
          "preferredTerm": "Switzerland",
          "submissionValue": "CHE",
          "synonyms": [
            "SWITZERLAND"
          ]
        },
        {
          "conceptId": "C16427",
          "definition": "A country in Southern South America, bordering the South Atlantic Ocean and South Pacific Ocean, between Argentina and Peru.",
          "preferredTerm": "Chile",
          "submissionValue": "CHL",
          "synonyms": [
            "CHILE"
          ]
        },
        {
          "conceptId": "C16428",
          "definition": "A country in Eastern Asia, bordering the East China Sea, Korea Bay, Yellow Sea, and South China Sea, between North Korea and Vietnam.",
          "preferredTerm": "China",
          "submissionValue": "CHN",
          "synonyms": [
            "CHINA"
          ]
        },
        {
          "conceptId": "C16762",
          "definition": "A country in Western Africa, bordering the North Atlantic Ocean, between Ghana and Liberia.",
          "preferredTerm": "Cote d'Ivoire",
          "submissionValue": "CIV",
          "synonyms": [
            "COTE D'IVOIRE"
          ]
        },
        {
          "conceptId": "C16379",
          "definition": "A country in Western Africa, bordering the Bight of Biafra, between Equatorial Guinea and Nigeria.",
          "preferredTerm": "Cameroon",
          "submissionValue": "CMR",
          "synonyms": [
            "CAMEROON"
          ]
        },
        {
          "conceptId": "C17266",
          "definition": "A country in Central Africa, northeast of Angola.",
          "preferredTerm": "Democratic Republic of the Congo",
          "submissionValue": "COD",
          "synonyms": [
            "DEMOCRATIC REPUBLIC OF THE CONGO"
          ]
        },
        {
          "conceptId": "C16467",
          "definition": "A country in Western Africa, bordering the South Atlantic Ocean, between Angola and Gabon.",
          "preferredTerm": "Congo",
          "submissionValue": "COG",
          "synonyms": [
            "CONGO"
          ]
        },
        {
          "conceptId": "C16469",
          "definition": "A group of islands in the South Pacific Ocean, about one-half of the way from Hawaii to New Zealand.",
          "preferredTerm": "Cook Islands",
          "submissionValue": "COK",
          "synonyms": [
            "COOK ISLANDS"
          ]
        },
        {
          "conceptId": "C16449",
          "definition": "A country in Northern South America, bordering the Caribbean Sea, between Panama and Venezuela, and bordering the North Pacific Ocean, between Ecuador and Panama.",
          "preferredTerm": "Colombia",
          "submissionValue": "COL",
          "synonyms": [
            "COLOMBIA"
          ]
        },
        {
          "conceptId": "C16458",
          "definition": "A group of islands in the Mozambique Channel, about two-thirds of the way between northern Madagascar and northern Mozambique.",
          "preferredTerm": "Comoros",
          "submissionValue": "COM",
          "synonyms": [
            "COMOROS"
          ]
        },
        {
          "conceptId": "C16382",
          "definition": "A group of islands in the North Atlantic Ocean, west of Senegal.",
          "preferredTerm": "Cape Verde",
          "submissionValue": "CPV",
          "synonyms": [
            "CAPE VERDE"
          ]
        },
        {
          "conceptId": "C16470",
          "definition": "A country in Central America, bordering both the Caribbean Sea and the North Pacific Ocean, between Nicaragua and Panama.",
          "preferredTerm": "Costa Rica",
          "submissionValue": "CRI",
          "synonyms": [
            "COSTA RICA"
          ]
        },
        {
          "conceptId": "C16477",
          "definition": "An island between the Caribbean Sea and the North Atlantic Ocean, 150 km south of Key West, Florida.",
          "preferredTerm": "Cuba",
          "submissionValue": "CUB",
          "synonyms": [
            "CUBA"
          ]
        },
        {
          "conceptId": "C44482",
          "definition": "An Australian-administered island in the eastern Indian Ocean south of Java, Indonesia.",
          "preferredTerm": "Christmas Island",
          "submissionValue": "CXR",
          "synonyms": [
            "CHRISTMAS ISLAND"
          ]
        },
        {
          "conceptId": "C16391",
          "definition": "An island group in the Caribbean Sea, nearly one-half of the way from Cuba to Honduras.",
          "preferredTerm": "Cayman Islands",
          "submissionValue": "CYM",
          "synonyms": [
            "CAYMAN ISLANDS"
          ]
        },
        {
          "conceptId": "C16480",
          "definition": "An island in the Mediterranean Sea, south of Turkey.",
          "preferredTerm": "Cyprus",
          "submissionValue": "CYP",
          "synonyms": [
            "CYPRUS"
          ]
        },
        {
          "conceptId": "C17668",
          "definition": "A country in Central Europe, southeast of Germany.",
          "preferredTerm": "Czech Republic",
          "submissionValue": "CZE",
          "synonyms": [
            "CZECH REPUBLIC"
          ]
        },
        {
          "conceptId": "C16636",
          "definition": "A country in Central Europe, bordering the Baltic Sea and the North Sea, between the Netherlands and Poland, south of Denmark.",
          "preferredTerm": "Germany",
          "submissionValue": "DEU",
          "synonyms": [
            "GERMANY"
          ]
        },
        {
          "conceptId": "C16506",
          "definition": "A country in Eastern Africa, bordering the Gulf of Aden and the Red Sea, between Eritrea and Somalia.",
          "preferredTerm": "Djibouti",
          "submissionValue": "DJI",
          "synonyms": [
            "DJIBOUTI"
          ]
        },
        {
          "conceptId": "C16519",
          "definition": "An island between the Caribbean Sea and the North Atlantic Ocean, about one-half of the way from Puerto Rico to Trinidad and Tobago.",
          "preferredTerm": "Dominica",
          "submissionValue": "DMA",
          "synonyms": [
            "DOMINICA"
          ]
        },
        {
          "conceptId": "C16496",
          "definition": "A country in Northern Europe, bordering the Baltic Sea and the North Sea, on a peninsula north of Germany (Jutland); also includes two major islands (Sjaelland and Fyn).",
          "preferredTerm": "Denmark",
          "submissionValue": "DNK",
          "synonyms": [
            "DENMARK"
          ]
        },
        {
          "conceptId": "C16520",
          "definition": "A country comprising the eastern two-thirds of the island of Hispaniola, between the Caribbean Sea and the North Atlantic Ocean, east of Haiti.",
          "preferredTerm": "Dominican Republic",
          "submissionValue": "DOM",
          "synonyms": [
            "DOMINICAN REPUBLIC"
          ]
        },
        {
          "conceptId": "C16274",
          "definition": "A country in Northern Africa, bordering the Mediterranean Sea, between Morocco and Tunisia.",
          "preferredTerm": "Algeria",
          "submissionValue": "DZA",
          "synonyms": [
            "ALGERIA"
          ]
        },
        {
          "conceptId": "C16528",
          "definition": "A country in Western South America, bordering the Pacific Ocean at the Equator, between Colombia and Peru.",
          "preferredTerm": "Ecuador",
          "submissionValue": "ECU",
          "synonyms": [
            "ECUADOR"
          ]
        },
        {
          "conceptId": "C16530",
          "definition": "A country in Northern Africa, bordering the Mediterranean Sea, between Libya and the Gaza Strip.",
          "preferredTerm": "Egypt",
          "submissionValue": "EGY",
          "synonyms": [
            "EGYPT"
          ]
        },
        {
          "conceptId": "C16558",
          "definition": "A country in Eastern Africa, bordering the Red Sea, between Djibouti and Sudan.",
          "preferredTerm": "Eritrea",
          "submissionValue": "ERI",
          "synonyms": [
            "ERITREA"
          ]
        },
        {
          "conceptId": "C20113",
          "definition": "A country in Northern Africa, bordering the North Atlantic Ocean, between Mauritania and Morocco.",
          "preferredTerm": "Western Sahara",
          "submissionValue": "ESH",
          "synonyms": [
            "WESTERN SAHARA"
          ]
        },
        {
          "conceptId": "C17152",
          "definition": "A country in Southwestern Europe, bordering the Bay of Biscay, Mediterranean Sea, North Atlantic Ocean, and Pyrenees Mountains, southwest of France.",
          "preferredTerm": "Spain",
          "submissionValue": "ESP",
          "synonyms": [
            "SPAIN"
          ]
        },
        {
          "conceptId": "C16562",
          "definition": "A country in Eastern Europe, bordering the Baltic Sea and Gulf of Finland, between Latvia and Russia.",
          "preferredTerm": "Estonia",
          "submissionValue": "EST",
          "synonyms": [
            "ESTONIA"
          ]
        },
        {
          "conceptId": "C16563",
          "definition": "A country in Eastern Africa, west of Somalia.",
          "preferredTerm": "Ethiopia",
          "submissionValue": "ETH",
          "synonyms": [
            "ETHIOPIA"
          ]
        },
        {
          "conceptId": "C16584",
          "definition": "A country in Northern Europe, bordering the Baltic Sea, Gulf of Bothnia, and Gulf of Finland, between Sweden and Russia.",
          "preferredTerm": "Finland",
          "submissionValue": "FIN",
          "synonyms": [
            "FINLAND"
          ]
        },
        {
          "conceptId": "C16582",
          "definition": "An island group in the South Pacific Ocean, about two-thirds of the way from Hawaii to New Zealand.",
          "preferredTerm": "Fiji",
          "submissionValue": "FJI",
          "synonyms": [
            "FIJI"
          ]
        },
        {
          "conceptId": "C17954",
          "definition": "Islands in the South Atlantic Ocean, east of southern Argentina.",
          "preferredTerm": "Falkland Islands",
          "submissionValue": "FLK",
          "synonyms": [
            "FALKLAND ISLANDS"
          ]
        },
        {
          "conceptId": "C16592",
          "definition": "A country in Western Europe, bordering the Bay of Biscay and English Channel, between Belgium and Spain, southeast of the UK; bordering the Mediterranean Sea, between Italy and Spain.",
          "preferredTerm": "France",
          "submissionValue": "FRA",
          "synonyms": [
            "FRANCE"
          ]
        },
        {
          "conceptId": "C16573",
          "definition": "An island group between the Norwegian Sea and the North Atlantic Ocean, about one-half of the way from Iceland to Norway.",
          "preferredTerm": "Faroe Islands",
          "submissionValue": "FRO",
          "synonyms": [
            "FAROE ISLANDS"
          ]
        },
        {
          "conceptId": "C17881",
          "definition": "An island group in the North Pacific Ocean, about three-quarters of the way from Hawaii to Indonesia.",
          "preferredTerm": "Federated States of Micronesia",
          "submissionValue": "FSM",
          "synonyms": [
            "MICRONESIA, FEDERATED STATES OF"
          ]
        },
        {
          "conceptId": "C16596",
          "definition": "A country in Western Africa, bordering the Atlantic Ocean at the Equator, between Republic of the Congo and Equatorial Guinea.",
          "preferredTerm": "Gabon",
          "submissionValue": "GAB",
          "synonyms": [
            "GABON"
          ]
        },
        {
          "conceptId": "C17233",
          "definition": "A country in Western Europe, comprising islands, including the northern one-sixth of the island of Ireland, between the North Atlantic Ocean and the North Sea, northwest of France.",
          "preferredTerm": "United Kingdom",
          "submissionValue": "GBR",
          "synonyms": [
            "UNITED KINGDOM"
          ]
        },
        {
          "conceptId": "C16634",
          "definition": "A country in Southwestern Asia, bordering the Black Sea, between Turkey and Russia.",
          "preferredTerm": "Georgia",
          "submissionValue": "GEO",
          "synonyms": [
            "GEORGIA"
          ]
        },
        {
          "conceptId": "C64375",
          "definition": "The island of Guernsey and the other Channel Islands represent the last remnants of the medieval Dukedom of Normandy, which held sway in both France and England. Guernsey is a British crown dependency, but is not part of the UK.",
          "preferredTerm": "Guernsey",
          "submissionValue": "GGY",
          "synonyms": [
            "GUERNSEY"
          ]
        },
        {
          "conceptId": "C26330",
          "definition": "A country in Western Africa, bordering the Gulf of Guinea, between Cote d'Ivoire and Togo.",
          "preferredTerm": "Ghana",
          "submissionValue": "GHA",
          "synonyms": [
            "GHANA"
          ]
        },
        {
          "conceptId": "C16638",
          "definition": "A dependency in Southwestern Europe, bordering the Strait of Gibraltar, on the southern coast of Spain.",
          "preferredTerm": "Gibraltar",
          "submissionValue": "GIB",
          "synonyms": [
            "GIBRALTAR"
          ]
        },
        {
          "conceptId": "C16655",
          "definition": "A country in Western Africa, bordering the North Atlantic Ocean, between Guinea-Bissau and Sierra Leone.",
          "preferredTerm": "Guinea",
          "submissionValue": "GIN",
          "synonyms": [
            "GUINEA"
          ]
        },
        {
          "conceptId": "C16651",
          "definition": "Islands in the eastern Caribbean Sea, southeast of Puerto Rico.",
          "preferredTerm": "Guadeloupe",
          "submissionValue": "GLP",
          "synonyms": [
            "GUADELOUPE"
          ]
        },
        {
          "conceptId": "C16598",
          "definition": "A country in Western Africa, bordering the North Atlantic Ocean and Senegal.",
          "preferredTerm": "Gambia",
          "submissionValue": "GMB",
          "synonyms": [
            "GAMBIA"
          ]
        },
        {
          "conceptId": "C16656",
          "definition": "A country in Western Africa, bordering the North Atlantic Ocean, between Guinea and Senegal.",
          "preferredTerm": "Guinea-Bissau",
          "submissionValue": "GNB",
          "synonyms": [
            "GUINEA-BISSAU"
          ]
        },
        {
          "conceptId": "C16557",
          "definition": "A country in Western Africa, bordering the Bight of Biafra, between Cameroon and Gabon; composed of a mainland portion and five inhabited islands.",
          "preferredTerm": "Equatorial Guinea",
          "submissionValue": "GNQ",
          "synonyms": [
            "EQUATORIAL GUINEA"
          ]
        },
        {
          "conceptId": "C16645",
          "definition": "A country in Southern Europe, bordering the Aegean Sea, Ionian Sea, and the Mediterranean Sea, between Albania and Turkey.",
          "preferredTerm": "Greece",
          "submissionValue": "GRC",
          "synonyms": [
            "GREECE"
          ]
        },
        {
          "conceptId": "C16647",
          "definition": "An island between the Caribbean Sea and Atlantic Ocean, north of Trinidad and Tobago.",
          "preferredTerm": "Grenada",
          "submissionValue": "GRD",
          "synonyms": [
            "GRENADA"
          ]
        },
        {
          "conceptId": "C16646",
          "definition": "An island between the Arctic Ocean and the North Atlantic Ocean, northeast of Canada.",
          "preferredTerm": "Greenland",
          "submissionValue": "GRL",
          "synonyms": [
            "GREENLAND"
          ]
        },
        {
          "conceptId": "C16654",
          "definition": "A country in Central America, bordering the Caribbean Sea, between Honduras and Belize and bordering the North Pacific Ocean, between El Salvador and Mexico.",
          "preferredTerm": "Guatemala",
          "submissionValue": "GTM",
          "synonyms": [
            "GUATEMALA"
          ]
        },
        {
          "conceptId": "C16593",
          "definition": "A country in Northern South America, bordering the North Atlantic Ocean, between Brazil and Suriname.",
          "preferredTerm": "French Guiana",
          "submissionValue": "GUF",
          "synonyms": [
            "FRENCH GUIANA"
          ]
        },
        {
          "conceptId": "C16652",
          "definition": "Island in the North Pacific Ocean, about three-quarters of the way from Hawaii to the Philippines.",
          "preferredTerm": "Guam",
          "submissionValue": "GUM",
          "synonyms": [
            "GUAM"
          ]
        },
        {
          "conceptId": "C16657",
          "definition": "A country in Northern South America, bordering the North Atlantic Ocean, between Suriname and Venezuela.",
          "preferredTerm": "Guyana",
          "submissionValue": "GUY",
          "synonyms": [
            "GUYANA"
          ]
        },
        {
          "conceptId": "C16695",
          "definition": "A special administrative region of China, bordering the South China Sea and China.",
          "preferredTerm": "Hong Kong",
          "submissionValue": "HKG",
          "synonyms": [
            "HONG KONG"
          ]
        },
        {
          "conceptId": "C20106",
          "definition": "Islands in the Indian Ocean, about two-thirds of the way from Madagascar to Antarctica.",
          "preferredTerm": "Heard Island and McDonald Islands",
          "submissionValue": "HMD",
          "synonyms": [
            "HEARD ISLAND AND MCDONALD ISLANDS"
          ]
        },
        {
          "conceptId": "C16694",
          "definition": "A country in Central America, bordering the Caribbean Sea, between Guatemala and Nicaragua and bordering the North Pacific Ocean, between El Salvador and Nicaragua.",
          "preferredTerm": "Honduras",
          "submissionValue": "HND",
          "synonyms": [
            "HONDURAS"
          ]
        },
        {
          "conceptId": "C16474",
          "definition": "A country in Southeastern Europe, bordering the Adriatic Sea, between Bosnia and Herzegovina and Slovenia.",
          "preferredTerm": "Croatia",
          "submissionValue": "HRV",
          "synonyms": [
            "CROATIA"
          ]
        },
        {
          "conceptId": "C16660",
          "definition": "A country comprising the western one-third of the island of Hispaniola, between the Caribbean Sea and the North Atlantic Ocean, west of the Dominican Republic.",
          "preferredTerm": "Haiti",
          "submissionValue": "HTI",
          "synonyms": [
            "HAITI"
          ]
        },
        {
          "conceptId": "C16699",
          "definition": "A country in Central Europe, northwest of Romania.",
          "preferredTerm": "Hungary",
          "submissionValue": "HUN",
          "synonyms": [
            "HUNGARY"
          ]
        },
        {
          "conceptId": "C16728",
          "definition": "A country in Southeastern Asia, comprising the archipelago between the Indian Ocean and the Pacific Ocean.",
          "preferredTerm": "Indonesia",
          "submissionValue": "IDN",
          "synonyms": [
            "INDONESIA"
          ]
        },
        {
          "conceptId": "C16727",
          "definition": "A country in Southern Asia, bordering the Arabian Sea and the Bay of Bengal, between Burma and Pakistan.",
          "preferredTerm": "India",
          "submissionValue": "IND",
          "synonyms": [
            "INDIA"
          ]
        },
        {
          "conceptId": "C16365",
          "definition": "An archipelago in the Indian Ocean, about one-half the way from Africa to Indonesia.",
          "preferredTerm": "British Indian Ocean Territory",
          "submissionValue": "IOT",
          "synonyms": [
            "BRITISH INDIAN OCEAN TERRITORY"
          ]
        },
        {
          "conceptId": "C16757",
          "definition": "A country in Western Europe, occupying five-sixths of the island of Ireland in the North Atlantic Ocean, west of Great Britain.",
          "preferredTerm": "Ireland",
          "submissionValue": "IRL",
          "synonyms": [
            "IRELAND"
          ]
        },
        {
          "conceptId": "C16755",
          "definition": "A country in the Middle East, bordering the Gulf of Oman, the Persian Gulf, and the Caspian Sea, between Iraq and Pakistan.",
          "preferredTerm": "Iran",
          "submissionValue": "IRN",
          "synonyms": [
            "IRAN"
          ]
        },
        {
          "conceptId": "C16756",
          "definition": "A country in the Middle East, bordering the Persian Gulf, between Iran and Kuwait.",
          "preferredTerm": "Iraq",
          "submissionValue": "IRQ",
          "synonyms": [
            "IRAQ"
          ]
        },
        {
          "conceptId": "C16704",
          "definition": "A country in Northern Europe, island between the Greenland Sea and the North Atlantic Ocean, northwest of the UK.",
          "preferredTerm": "Iceland",
          "submissionValue": "ISL",
          "synonyms": [
            "ICELAND"
          ]
        },
        {
          "conceptId": "C16760",
          "definition": "A country in the Middle East, bordering the Mediterranean Sea, between Egypt and Lebanon.",
          "preferredTerm": "Israel",
          "submissionValue": "ISR",
          "synonyms": [
            "ISRAEL"
          ]
        },
        {
          "conceptId": "C16761",
          "definition": "A country in Southern Europe, occupying a peninsula extending into the central Mediterranean Sea, northeast of Tunisia.",
          "preferredTerm": "Italy",
          "submissionValue": "ITA",
          "synonyms": [
            "ITALY"
          ]
        },
        {
          "conceptId": "C16763",
          "definition": "An island in the Caribbean Sea, south of Cuba.",
          "preferredTerm": "Jamaica",
          "submissionValue": "JAM",
          "synonyms": [
            "JAMAICA"
          ]
        },
        {
          "conceptId": "C16765",
          "definition": "A country in the Middle East, northwest of Saudi Arabia.",
          "preferredTerm": "Jordan",
          "submissionValue": "JOR",
          "synonyms": [
            "JORDAN"
          ]
        },
        {
          "conceptId": "C16764",
          "definition": "A country in Eastern Asia, occupying an island chain between the North Pacific Ocean and the Sea of Japan, east of the Korean Peninsula.",
          "preferredTerm": "Japan",
          "submissionValue": "JPN",
          "synonyms": [
            "JAPAN"
          ]
        },
        {
          "conceptId": "C64374",
          "definition": "Jersey and the other Channel Islands represent the last remnants of the medieval Dukedom of Normandy that held sway in both France and England. Jersey is a British crown dependency, but is not part of the UK.",
          "preferredTerm": "Jersey",
          "submissionValue": "JRE",
          "synonyms": [
            "JERSEY"
          ]
        },
        {
          "conceptId": "C20107",
          "definition": "A country in Central Asia, northwest of China.",
          "preferredTerm": "Kazakhstan",
          "submissionValue": "KAZ",
          "synonyms": [
            "KAZAKHSTAN"
          ]
        },
        {
          "conceptId": "C16769",
          "definition": "A country in Eastern Africa, bordering the Indian Ocean, between Somalia and Tanzania.",
          "preferredTerm": "Kenya",
          "submissionValue": "KEN",
          "synonyms": [
            "KENYA"
          ]
        },
        {
          "conceptId": "C16771",
          "definition": "A country in Central Asia, west of China.",
          "preferredTerm": "Kyrgyzstan",
          "submissionValue": "KGZ",
          "synonyms": [
            "KYRGYZSTAN"
          ]
        },
        {
          "conceptId": "C16378",
          "definition": "A country in Southeastern Asia, bordering the Gulf of Thailand, between Thailand, Vietnam, and Laos.",
          "preferredTerm": "Cambodia",
          "submissionValue": "KHM",
          "synonyms": [
            "CAMBODIA"
          ]
        },
        {
          "conceptId": "C16639",
          "definition": "A group of 33 coral atolls in the Pacific Ocean, straddling the equator; the capital Tarawa is about one-half of the way from Hawaii to Australia.",
          "preferredTerm": "Kiribati",
          "submissionValue": "KIR",
          "synonyms": [
            "KIRIBATI"
          ]
        },
        {
          "conceptId": "C17885",
          "definition": "Islands in the Caribbean Sea, about one-third of the way from Puerto Rico to Trinidad and Tobago.",
          "preferredTerm": "Saint Kitts and Nevis",
          "submissionValue": "KNA",
          "synonyms": [
            "SAINT KITTS AND NEVIS"
          ]
        },
        {
          "conceptId": "C16774",
          "definition": "A country in Eastern Asia, occupying the southern half of the Korean Peninsula, bordering the Sea of Japan and the Yellow Sea.",
          "preferredTerm": "South Korea",
          "submissionValue": "KOR",
          "synonyms": [
            "SOUTH KOREA"
          ]
        },
        {
          "conceptId": "C16775",
          "definition": "A country in the Middle East, bordering the Persian Gulf, between Iraq and Saudi Arabia.",
          "preferredTerm": "Kuwait",
          "submissionValue": "KWT",
          "synonyms": [
            "KUWAIT"
          ]
        },
        {
          "conceptId": "C16780",
          "definition": "A country in Southeastern Asia, northeast of Thailand, west of Vietnam.",
          "preferredTerm": "Lao People's Democratic Republic",
          "submissionValue": "LAO",
          "synonyms": [
            "LAO PEOPLE'S DEMOCRATIC REPUBLIC"
          ]
        },
        {
          "conceptId": "C16784",
          "definition": "A country in the Middle East, bordering the Mediterranean Sea, between Israel and Syria.",
          "preferredTerm": "Lebanon",
          "submissionValue": "LBN",
          "synonyms": [
            "LEBANON"
          ]
        },
        {
          "conceptId": "C16791",
          "definition": "A country in Western Africa, bordering the North Atlantic Ocean, between Cote d'Ivoire and Sierra Leone.",
          "preferredTerm": "Liberia",
          "submissionValue": "LBR",
          "synonyms": [
            "LIBERIA"
          ]
        },
        {
          "conceptId": "C16793",
          "definition": "A country in Northern Africa, bordering the Mediterranean Sea, between Egypt and Tunisia.",
          "preferredTerm": "Libyan Arab Jamahiriya",
          "submissionValue": "LBY",
          "synonyms": [
            "LIBYAN ARAB JAMAHIRIYA"
          ]
        },
        {
          "conceptId": "C17113",
          "definition": "A country in the Caribbean, occupying an island between the Caribbean Sea and North Atlantic Ocean, north of Trinidad and Tobago.",
          "preferredTerm": "Saint Lucia",
          "submissionValue": "LCA",
          "synonyms": [
            "SAINT LUCIA"
          ]
        },
        {
          "conceptId": "C16794",
          "definition": "A country in Central Europe, between Austria and Switzerland.",
          "preferredTerm": "Liechtenstein",
          "submissionValue": "LIE",
          "synonyms": [
            "LIECHTENSTEIN"
          ]
        },
        {
          "conceptId": "C17163",
          "definition": "A country in Southern Asia, occupying an island in the Indian Ocean, south of India.",
          "preferredTerm": "Sri Lanka",
          "submissionValue": "LKA",
          "synonyms": [
            "SRI LANKA"
          ]
        },
        {
          "conceptId": "C16787",
          "definition": "A country in Southern Africa, an enclave of South Africa.",
          "preferredTerm": "Lesotho",
          "submissionValue": "LSO",
          "synonyms": [
            "LESOTHO"
          ]
        },
        {
          "conceptId": "C16799",
          "definition": "A country in Eastern Europe, bordering the Baltic Sea, between Latvia and Russia.",
          "preferredTerm": "Lithuania",
          "submissionValue": "LTU",
          "synonyms": [
            "LITHUANIA"
          ]
        },
        {
          "conceptId": "C16803",
          "definition": "A country in Western Europe, between France, Belgium, and Germany.",
          "preferredTerm": "Luxembourg",
          "submissionValue": "LUX",
          "synonyms": [
            "LUXEMBOURG"
          ]
        },
        {
          "conceptId": "C16783",
          "definition": "A country in Eastern Europe, bordering the Baltic Sea, between Estonia and Lithuania.",
          "preferredTerm": "Latvia",
          "submissionValue": "LVA",
          "synonyms": [
            "LATVIA"
          ]
        },
        {
          "conceptId": "C16807",
          "definition": "A country in Eastern Asia, bordering the South China Sea and China.",
          "preferredTerm": "Macao",
          "submissionValue": "MAC",
          "synonyms": [
            "MACAO"
          ]
        },
        {
          "conceptId": "C16878",
          "definition": "A country in Northern Africa, bordering the North Atlantic Ocean and the Mediterranean Sea, between Algeria and Western Sahara.",
          "preferredTerm": "Morocco",
          "submissionValue": "MAR",
          "synonyms": [
            "MOROCCO"
          ]
        },
        {
          "conceptId": "C16874",
          "definition": "A country in Western Europe, bordering the Mediterranean Sea on the southern coast of France, near the border with Italy.",
          "preferredTerm": "Monaco",
          "submissionValue": "MCO",
          "synonyms": [
            "MONACO"
          ]
        },
        {
          "conceptId": "C16871",
          "definition": "A country in Eastern Europe, northeast of Romania.",
          "preferredTerm": "Moldova",
          "submissionValue": "MDA",
          "synonyms": [
            "MOLDOVA, REPUBLIC OF"
          ]
        },
        {
          "conceptId": "C16808",
          "definition": "A country in Southern Africa, occupying an island in the Indian Ocean, east of Mozambique.",
          "preferredTerm": "Madagascar",
          "submissionValue": "MDG",
          "synonyms": [
            "MADAGASCAR"
          ]
        },
        {
          "conceptId": "C16815",
          "definition": "A country in Southern Asia, occupying a group of atolls in the Indian Ocean, south-southwest of India.",
          "preferredTerm": "Maldives",
          "submissionValue": "MDV",
          "synonyms": [
            "MALDIVES"
          ]
        },
        {
          "conceptId": "C16850",
          "definition": "A country in Central America, bordering the Caribbean Sea and the Gulf of Mexico, between Belize and the US and bordering the North Pacific Ocean, between Guatemala and the US.",
          "preferredTerm": "Mexico",
          "submissionValue": "MEX",
          "synonyms": [
            "MEXICO"
          ]
        },
        {
          "conceptId": "C16822",
          "definition": "A group of atolls and reefs in the North Pacific Ocean, about one-half of the way from Hawaii to Australia.",
          "preferredTerm": "Marshall Islands",
          "submissionValue": "MHL",
          "synonyms": [
            "MARSHALL ISLANDS"
          ]
        },
        {
          "conceptId": "C17654",
          "definition": "A country in Southeastern Europe, north of Greece.",
          "preferredTerm": "Republic of Macedonia",
          "submissionValue": "MKD",
          "synonyms": [
            "REPUBLIC OF MACEDONIA"
          ]
        },
        {
          "conceptId": "C16816",
          "definition": "A country in Western Africa, southwest of Algeria.",
          "preferredTerm": "Mali",
          "submissionValue": "MLI",
          "synonyms": [
            "MALI"
          ]
        },
        {
          "conceptId": "C16817",
          "definition": "A country in Southern Europe, occupying islands in the Mediterranean Sea, south of Sicily (Italy).",
          "preferredTerm": "Malta",
          "submissionValue": "MLT",
          "synonyms": [
            "MALTA"
          ]
        },
        {
          "conceptId": "C16370",
          "definition": "A country in Southeastern Asia, bordering the Andaman Sea and the Bay of Bengal, between Bangladesh and Thailand.",
          "preferredTerm": "Myanmar",
          "submissionValue": "MMR",
          "synonyms": [
            "MYANMAR"
          ]
        },
        {
          "conceptId": "C64378",
          "definition": "A republic in Southeastern Europe, bordering the Adriatic Sea, between Albania and Bosnia and Herzegovina. Formerly part of Serbia and Montenegro (Federation Republic of Yugoslavia).",
          "preferredTerm": "Montenegro",
          "submissionValue": "MNE",
          "synonyms": [
            "MONTENEGRO"
          ]
        },
        {
          "conceptId": "C16875",
          "definition": "A country in Northern Asia, between China and Russia.",
          "preferredTerm": "Mongolia",
          "submissionValue": "MNG",
          "synonyms": [
            "MONGOLIA"
          ]
        },
        {
          "conceptId": "C17882",
          "definition": "A country in the Pacific, comprising islands in the North Pacific Ocean, about three-quarters of the way from Hawaii to the Philippines.",
          "preferredTerm": "Northern Mariana Islands",
          "submissionValue": "MNP",
          "synonyms": [
            "NORTHERN MARIANA ISLANDS"
          ]
        },
        {
          "conceptId": "C16882",
          "definition": "A country in Southern Africa, bordering the Mozambique Channel, between South Africa and Tanzania.",
          "preferredTerm": "Mozambique",
          "submissionValue": "MOZ",
          "synonyms": [
            "MOZAMBIQUE"
          ]
        },
        {
          "conceptId": "C16826",
          "definition": "A country in Northern Africa, bordering the North Atlantic Ocean, between Senegal and Western Sahara.",
          "preferredTerm": "Mauritania",
          "submissionValue": "MRT",
          "synonyms": [
            "MAURITANIA"
          ]
        },
        {
          "conceptId": "C16876",
          "definition": "A country in the Caribbean, occupying an island in the Caribbean Sea, southeast of Puerto Rico.",
          "preferredTerm": "Montserrat",
          "submissionValue": "MSR",
          "synonyms": [
            "MONTSERRAT"
          ]
        },
        {
          "conceptId": "C16823",
          "definition": "An island in the Caribbean Sea, north of Trinidad and Tobago.",
          "preferredTerm": "Martinique",
          "submissionValue": "MTQ",
          "synonyms": [
            "MARTINIQUE"
          ]
        },
        {
          "conceptId": "C16827",
          "definition": "A country in Southern Africa, occupying an island in the Indian Ocean, east of Madagascar.",
          "preferredTerm": "Mauritius",
          "submissionValue": "MUS",
          "synonyms": [
            "MAURITIUS"
          ]
        },
        {
          "conceptId": "C16813",
          "definition": "A country in Southern Africa, east of Zambia.",
          "preferredTerm": "Malawi",
          "submissionValue": "MWI",
          "synonyms": [
            "MALAWI"
          ]
        },
        {
          "conceptId": "C16814",
          "definition": "A country in Southeastern Asia, occupying a peninsula and the northern one-third of the island of Borneo, bordering Indonesia and the South China Sea, south of Vietnam.",
          "preferredTerm": "Malaysia",
          "submissionValue": "MYS",
          "synonyms": [
            "MALAYSIA"
          ]
        },
        {
          "conceptId": "C16828",
          "definition": "A country in Southern Africa, occupying an island in the Mozambique Channel, about one-half of the way from northern Madagascar to northern Mozambique.",
          "preferredTerm": "Mayotte",
          "submissionValue": "MYT",
          "synonyms": [
            "MAYOTTE"
          ]
        },
        {
          "conceptId": "C16891",
          "definition": "A country in Southern Africa, bordering the South Atlantic Ocean, between Angola and South Africa.",
          "preferredTerm": "Namibia",
          "submissionValue": "NAM",
          "synonyms": [
            "NAMIBIA"
          ]
        },
        {
          "conceptId": "C16913",
          "definition": "A country in the Pacific, comprised of islands in the South Pacific Ocean, east of Australia.",
          "preferredTerm": "New Caledonia",
          "submissionValue": "NCL",
          "synonyms": [
            "NEW CALEDONIA"
          ]
        },
        {
          "conceptId": "C16916",
          "definition": "A country in Western Africa, southeast of Algeria.",
          "preferredTerm": "Niger",
          "submissionValue": "NER",
          "synonyms": [
            "NIGER"
          ]
        },
        {
          "conceptId": "C16919",
          "definition": "A country in the Pacific, occupying an island in the South Pacific Ocean, east of Australia.",
          "preferredTerm": "Norfolk Island",
          "submissionValue": "NFK",
          "synonyms": [
            "NORFOLK ISLAND"
          ]
        },
        {
          "conceptId": "C16917",
          "definition": "A country in Western Africa, bordering the Gulf of Guinea, between Benin and Cameroon.",
          "preferredTerm": "Nigeria",
          "submissionValue": "NGA",
          "synonyms": [
            "NIGERIA"
          ]
        },
        {
          "conceptId": "C16915",
          "definition": "A country in Central America, bordering both the Caribbean Sea and the North Pacific Ocean, between Costa Rica and Honduras.",
          "preferredTerm": "Nicaragua",
          "submissionValue": "NIC",
          "synonyms": [
            "NICARAGUA"
          ]
        },
        {
          "conceptId": "C16918",
          "definition": "A country in the Pacific, occupying an island in the South Pacific Ocean, east of Tonga.",
          "preferredTerm": "Niue",
          "submissionValue": "NIU",
          "synonyms": [
            "NIUE"
          ]
        },
        {
          "conceptId": "C16903",
          "definition": "A country in Western Europe, bordering the North Sea, between Belgium and Germany.",
          "preferredTerm": "Netherlands",
          "submissionValue": "NLD",
          "synonyms": [
            "NETHERLANDS"
          ]
        },
        {
          "conceptId": "C16920",
          "definition": "A country in Northern Europe, bordering the North Sea and the North Atlantic Ocean, west of Sweden.",
          "preferredTerm": "Norway",
          "submissionValue": "NOR",
          "synonyms": [
            "NORWAY"
          ]
        },
        {
          "conceptId": "C16901",
          "definition": "A country in Southern Asia, between China and India.",
          "preferredTerm": "Nepal",
          "submissionValue": "NPL",
          "synonyms": [
            "NEPAL"
          ]
        },
        {
          "conceptId": "C16896",
          "definition": "A country in Oceania, occupying an island in the South Pacific Ocean, south of the Marshall Islands.",
          "preferredTerm": "Nauru",
          "submissionValue": "NRU",
          "synonyms": [
            "NAURU"
          ]
        },
        {
          "conceptId": "C16914",
          "definition": "A country in the Pacific, comprised of islands in the South Pacific Ocean, southeast of Australia.",
          "preferredTerm": "New Zealand",
          "submissionValue": "NZL",
          "synonyms": [
            "NEW ZEALAND"
          ]
        },
        {
          "conceptId": "C16933",
          "definition": "A country in the Middle East, bordering the Arabian Sea, Gulf of Oman, and Persian Gulf, between Yemen and the United Arab Emirates.",
          "preferredTerm": "Oman",
          "submissionValue": "OMN",
          "synonyms": [
            "OMAN"
          ]
        },
        {
          "conceptId": "C16949",
          "definition": "A country in Southern Asia, bordering the Arabian Sea, between India on the east and Iran and Afghanistan on the west and China in the north.",
          "preferredTerm": "Pakistan",
          "submissionValue": "PAK",
          "synonyms": [
            "PAKISTAN"
          ]
        },
        {
          "conceptId": "C16951",
          "definition": "A country in Central America, bordering both the Caribbean Sea and the North Pacific Ocean, between Colombia and Costa Rica.",
          "preferredTerm": "Panama",
          "submissionValue": "PAN",
          "synonyms": [
            "PANAMA"
          ]
        },
        {
          "conceptId": "C16993",
          "definition": "A country in the Pacific, comprised of islands in the South Pacific Ocean, about midway between Peru and New Zealand.",
          "preferredTerm": "Pitcairn Island",
          "submissionValue": "PCN",
          "synonyms": [
            "PITCAIRN"
          ]
        },
        {
          "conceptId": "C16972",
          "definition": "A country in Western South America, bordering the South Pacific Ocean, between Chile and Ecuador.",
          "preferredTerm": "Peru",
          "submissionValue": "PER",
          "synonyms": [
            "PERU"
          ]
        },
        {
          "conceptId": "C16978",
          "definition": "A country in Southeastern Asia, comprised of an archipelago between the Philippine Sea and the South China Sea, east of Vietnam.",
          "preferredTerm": "Philippines",
          "submissionValue": "PHL",
          "synonyms": [
            "PHILIPPINES"
          ]
        },
        {
          "conceptId": "C17733",
          "definition": "A country in the Pacific, comprising a group of islands in the North Pacific Ocean, southeast of the Philippines.",
          "preferredTerm": "Palau",
          "submissionValue": "PLW",
          "synonyms": [
            "PALAU"
          ]
        },
        {
          "conceptId": "C16952",
          "definition": "A country in Southeastern Asia, comprising a group of islands and including the eastern half of the island of New Guinea, between the Coral Sea and the South Pacific Ocean, east of Indonesia.",
          "preferredTerm": "Papua New Guinea",
          "submissionValue": "PNG",
          "synonyms": [
            "PAPUA NEW GUINEA"
          ]
        },
        {
          "conceptId": "C17002",
          "definition": "A country in Central Europe, east of Germany.",
          "preferredTerm": "Poland",
          "submissionValue": "POL",
          "synonyms": [
            "POLAND"
          ]
        },
        {
          "conceptId": "C17043",
          "definition": "An island between the Caribbean Sea and the North Atlantic Ocean, east of the Dominican Republic.",
          "preferredTerm": "Puerto Rico",
          "submissionValue": "PRI",
          "synonyms": [
            "PUERTO RICO"
          ]
        },
        {
          "conceptId": "C16773",
          "definition": "A country in Eastern Asia, occupying the northern half of the Korean Peninsula, bordering the Korea Bay and the Sea of Japan, between China and South Korea.",
          "preferredTerm": "North Korea",
          "submissionValue": "PRK",
          "synonyms": [
            "NORTH KOREA"
          ]
        },
        {
          "conceptId": "C17006",
          "definition": "A country in Southwestern Europe, bordering the North Atlantic Ocean, west of Spain.",
          "preferredTerm": "Portugal",
          "submissionValue": "PRT",
          "synonyms": [
            "PORTUGAL"
          ]
        },
        {
          "conceptId": "C16953",
          "definition": "A country in Central South America, northeast of Argentina.",
          "preferredTerm": "Paraguay",
          "submissionValue": "PRY",
          "synonyms": [
            "PARAGUAY"
          ]
        },
        {
          "conceptId": "C20110",
          "definition": "A collective name for the West Bank and the Gaza Strip, two territories in Palestine.",
          "preferredTerm": "Palestinian Territory, Occupied",
          "submissionValue": "PSE",
          "synonyms": [
            "PALESTINIAN TERRITORY, OCCUPIED"
          ]
        },
        {
          "conceptId": "C16594",
          "definition": "An archipelago in the South Pacific Ocean, about one-half of the way from South America to Australia.",
          "preferredTerm": "French Polynesia",
          "submissionValue": "PYF",
          "synonyms": [
            "FRENCH POLYNESIA"
          ]
        },
        {
          "conceptId": "C17045",
          "definition": "A country in the Middle East, occupying a peninsula bordering the Persian Gulf and Saudi Arabia.",
          "preferredTerm": "Qatar",
          "submissionValue": "QAT",
          "synonyms": [
            "QATAR"
          ]
        },
        {
          "conceptId": "C17095",
          "definition": "An Southern Africa, occupying an island in the Indian Ocean, east of Madagascar.",
          "preferredTerm": "Reunion",
          "submissionValue": "REU",
          "synonyms": [
            "REUNION"
          ]
        },
        {
          "conceptId": "C17108",
          "definition": "A country in Southeastern Europe, bordering the Black Sea, between Bulgaria and Ukraine.",
          "preferredTerm": "Romania",
          "submissionValue": "ROU",
          "synonyms": [
            "ROMANIA"
          ]
        },
        {
          "conceptId": "C17111",
          "definition": "A country in Northern Asia (that part west of the Urals is sometimes included with Europe), bordering the Arctic Ocean, between Europe and the North Pacific Ocean.",
          "preferredTerm": "Russia",
          "submissionValue": "RUS",
          "synonyms": [
            "RUSSIAN FEDERATION"
          ]
        },
        {
          "conceptId": "C17112",
          "definition": "A country in Central Africa, east of Democratic Republic of the Congo.",
          "preferredTerm": "Rwanda",
          "submissionValue": "RWA",
          "synonyms": [
            "RWANDA"
          ]
        },
        {
          "conceptId": "C17117",
          "definition": "A country in the Middle East, bordering the Persian Gulf and the Red Sea, north of Yemen.",
          "preferredTerm": "Saudi Arabia",
          "submissionValue": "SAU",
          "synonyms": [
            "SAUDI ARABIA"
          ]
        },
        {
          "conceptId": "C64377",
          "definition": "A republic in Southeastern Europe, bordering the Adriatic Sea, between Albania and Bosnia and Herzegovina. Formerly part of Serbia and Montenegro (Federation Republic of Yugoslavia).",
          "preferredTerm": "Serbia",
          "submissionValue": "SCG",
          "synonyms": [
            "SERBIA"
          ]
        },
        {
          "conceptId": "C17170",
          "definition": "A country in Northern Africa, bordering the Red Sea, between Egypt and Eritrea.",
          "preferredTerm": "Sudan",
          "submissionValue": "SDN",
          "synonyms": [
            "SUDAN"
          ]
        },
        {
          "conceptId": "C17121",
          "definition": "A country in Western Africa, bordering the North Atlantic Ocean, between Guinea-Bissau and Mauritania.",
          "preferredTerm": "Senegal",
          "submissionValue": "SEN",
          "synonyms": [
            "SENEGAL"
          ]
        },
        {
          "conceptId": "C17134",
          "definition": "A country in Southeastern Asia, comprised of islands between Malaysia and Indonesia.",
          "preferredTerm": "Singapore",
          "submissionValue": "SGP",
          "synonyms": [
            "SINGAPORE"
          ]
        },
        {
          "conceptId": "C20111",
          "definition": "A group of islands in the South Atlantic Ocean, east of the tip of South America.",
          "preferredTerm": "South Georgia and the South Sandwich Islands",
          "submissionValue": "SGS",
          "synonyms": [
            "SOUTH GEORGIA AND THE SOUTH SANDWICH ISLANDS"
          ]
        },
        {
          "conceptId": "C17164",
          "definition": "Islands in the South Atlantic Ocean, about midway between South America and Africa.",
          "preferredTerm": "Saint Helena",
          "submissionValue": "SHN",
          "synonyms": [
            "SAINT HELENA"
          ]
        },
        {
          "conceptId": "C17178",
          "definition": "Islands between the Arctic Ocean, Barents Sea, Greenland Sea, and Norwegian Sea, northeast of Iceland and north of Norway.",
          "preferredTerm": "Svalbard and Jan Mayen",
          "submissionValue": "SJM",
          "synonyms": [
            "SVALBARD AND JAN MAYEN"
          ]
        },
        {
          "conceptId": "C17148",
          "definition": "A group of islands in the South Pacific Ocean, east of Papua New Guinea.",
          "preferredTerm": "Solomon Islands",
          "submissionValue": "SLB",
          "synonyms": [
            "SOLOMON ISLANDS"
          ]
        },
        {
          "conceptId": "C17130",
          "definition": "A country in Western Africa, bordering the North Atlantic Ocean, between Guinea and Liberia.",
          "preferredTerm": "Sierra Leone",
          "submissionValue": "SLE",
          "synonyms": [
            "SIERRA LEONE"
          ]
        },
        {
          "conceptId": "C16532",
          "definition": "A country in Central America, bordering the North Pacific Ocean, between Guatemala and Honduras.",
          "preferredTerm": "El Salvador",
          "submissionValue": "SLV",
          "synonyms": [
            "EL SALVADOR"
          ]
        },
        {
          "conceptId": "C17115",
          "definition": "A country in Southern Europe, an enclave in central Italy.",
          "preferredTerm": "San Marino",
          "submissionValue": "SMR",
          "synonyms": [
            "SAN MARINO"
          ]
        },
        {
          "conceptId": "C17149",
          "definition": "A country in Eastern Africa, bordering the Gulf of Aden and the Indian Ocean, east of Ethiopia.",
          "preferredTerm": "Somalia",
          "submissionValue": "SOM",
          "synonyms": [
            "SOMALIA"
          ]
        },
        {
          "conceptId": "C17165",
          "definition": "A country in Northern North America, comprised of islands in the North Atlantic Ocean, south of Newfoundland (Canada).",
          "preferredTerm": "Saint Pierre and Miquelon",
          "submissionValue": "SPM",
          "synonyms": [
            "SAINT PIERRE AND MIQUELON"
          ]
        },
        {
          "conceptId": "C17116",
          "definition": "A country in Western Africa, comprised of islands in the Gulf of Guinea, straddling the Equator, west of Gabon.",
          "preferredTerm": "Sao Tome and Principe",
          "submissionValue": "STP",
          "synonyms": [
            "SAO TOME AND PRINCIPE"
          ]
        },
        {
          "conceptId": "C17175",
          "definition": "A country in Northern South America, bordering the North Atlantic Ocean, between French Guiana and Guyana.",
          "preferredTerm": "Suriname",
          "submissionValue": "SUR",
          "synonyms": [
            "SURINAME"
          ]
        },
        {
          "conceptId": "C17669",
          "definition": "A country in Central Europe, south of Poland.",
          "preferredTerm": "Slovakia",
          "submissionValue": "SVK",
          "synonyms": [
            "SLOVAKIA"
          ]
        },
        {
          "conceptId": "C17138",
          "definition": "A country in Central Europe, bordering the Adriatic Sea, between Austria and Croatia.",
          "preferredTerm": "Slovenia",
          "submissionValue": "SVN",
          "synonyms": [
            "SLOVENIA"
          ]
        },
        {
          "conceptId": "C17180",
          "definition": "A country in Northern Europe, bordering the Baltic Sea, Gulf of Bothnia, Kattegat, and Skagerrak, between Finland and Norway.",
          "preferredTerm": "Sweden",
          "submissionValue": "SWE",
          "synonyms": [
            "SWEDEN"
          ]
        },
        {
          "conceptId": "C17179",
          "definition": "A country in Southern Africa, between Mozambique and South Africa.",
          "preferredTerm": "Swaziland",
          "submissionValue": "SWZ",
          "synonyms": [
            "SWAZILAND"
          ]
        },
        {
          "conceptId": "C17129",
          "definition": "A country in Eastern Africa, comprised of a group of islands in the Indian Ocean, northeast of Madagascar.",
          "preferredTerm": "Seychelles",
          "submissionValue": "SYC",
          "synonyms": [
            "SEYCHELLES"
          ]
        },
        {
          "conceptId": "C17182",
          "definition": "A country in the Middle East, bordering the Mediterranean Sea, between Lebanon and Turkey.",
          "preferredTerm": "Syria",
          "submissionValue": "SYR",
          "synonyms": [
            "SYRIAN ARAB REPUBLIC"
          ]
        },
        {
          "conceptId": "C17224",
          "definition": "Two island groups in the North Atlantic Ocean, southeast of The Bahamas.",
          "preferredTerm": "Turks and Caicos Islands",
          "submissionValue": "TCA",
          "synonyms": [
            "TURKS AND CAICOS ISLANDS"
          ]
        },
        {
          "conceptId": "C16412",
          "definition": "A country in Central Africa, south of Libya.",
          "preferredTerm": "Chad",
          "submissionValue": "TCD",
          "synonyms": [
            "CHAD"
          ]
        },
        {
          "conceptId": "C17202",
          "definition": "A country in Western Africa, bordering the Bight of Benin, between Benin and Ghana.",
          "preferredTerm": "Togo",
          "submissionValue": "TGO",
          "synonyms": [
            "TOGO"
          ]
        },
        {
          "conceptId": "C17192",
          "definition": "A country in Southeastern Asia, bordering the Andaman Sea and the Gulf of Thailand, southeast of Burma.",
          "preferredTerm": "Thailand",
          "submissionValue": "THA",
          "synonyms": [
            "THAILAND"
          ]
        },
        {
          "conceptId": "C17183",
          "definition": "A country in Central Asia, west of China.",
          "preferredTerm": "Tajikistan",
          "submissionValue": "TJK",
          "synonyms": [
            "TAJIKISTAN"
          ]
        },
        {
          "conceptId": "C17704",
          "definition": "A group of three atolls in the South Pacific Ocean, about one-half of the way from Hawaii to New Zealand.",
          "preferredTerm": "Tokelau",
          "submissionValue": "TKL",
          "synonyms": [
            "TOKELAU"
          ]
        },
        {
          "conceptId": "C17223",
          "definition": "A country in Central Asia, bordering the Caspian Sea, between Iran and Kazakhstan.",
          "preferredTerm": "Turkmenistan",
          "submissionValue": "TKM",
          "synonyms": [
            "TURKMENISTAN"
          ]
        },
        {
          "conceptId": "C17200",
          "definition": "A country in Southeastern Asia, northwest of Australia in the Lesser Sunda Islands at the eastern end of the Indonesian archipelago. East Timor includes the eastern half of the island of Timor, the Oecussi (Ambeno) region on the northwest portion of the island of Timor, and the islands of Pulau Atauro and Pulau Jaco.",
          "preferredTerm": "Timor-Leste",
          "submissionValue": "TLS",
          "synonyms": [
            "TIMOR-LESTE"
          ]
        },
        {
          "conceptId": "C17205",
          "definition": "An archipelago in the South Pacific Ocean, about two-thirds of the way from Hawaii to New Zealand.",
          "preferredTerm": "Tonga",
          "submissionValue": "TON",
          "synonyms": [
            "TONGA"
          ]
        },
        {
          "conceptId": "C17217",
          "definition": "Islands between the Caribbean Sea and the North Atlantic Ocean, northeast of Venezuela.",
          "preferredTerm": "Trinidad and Tobago",
          "submissionValue": "TTO",
          "synonyms": [
            "TRINIDAD AND TOBAGO"
          ]
        },
        {
          "conceptId": "C17221",
          "definition": "A country in Northern Africa, bordering the Mediterranean Sea, between Algeria and Libya.",
          "preferredTerm": "Tunisia",
          "submissionValue": "TUN",
          "synonyms": [
            "TUNISIA"
          ]
        },
        {
          "conceptId": "C17222",
          "definition": "A country in southeastern Europe and southwestern Asia (that portion of Turkey west of the Bosporus is geographically part of Europe), bordering the Black Sea, between Bulgaria and Georgia, and bordering the Aegean Sea and the Mediterranean Sea, between Greece and Syria.",
          "preferredTerm": "Turkey",
          "submissionValue": "TUR",
          "synonyms": [
            "TURKEY"
          ]
        },
        {
          "conceptId": "C17225",
          "definition": "An island group consisting of nine coral atolls in the South Pacific Ocean, about one-half of the way from Hawaii to Australia.",
          "preferredTerm": "Tuvalu",
          "submissionValue": "TUV",
          "synonyms": [
            "TUVALU"
          ]
        },
        {
          "conceptId": "C17184",
          "definition": "A group of islands bordering the East China Sea, Philippine Sea, South China Sea, and Taiwan Strait, north of the Philippines, off the southeastern coast of China.",
          "preferredTerm": "Taiwan",
          "submissionValue": "TWN",
          "synonyms": [
            "TAIWAN"
          ]
        },
        {
          "conceptId": "C17185",
          "definition": "A country in Eastern Africa, bordering the Indian Ocean, between Kenya and Mozambique.",
          "preferredTerm": "Tanzania",
          "submissionValue": "TZA",
          "synonyms": [
            "TANZANIA, UNITED REPUBLIC OF"
          ]
        },
        {
          "conceptId": "C17228",
          "definition": "A country in Eastern Africa, west of Kenya.",
          "preferredTerm": "Uganda",
          "submissionValue": "UGA",
          "synonyms": [
            "UGANDA"
          ]
        },
        {
          "conceptId": "C17229",
          "definition": "A country in Eastern Europe, bordering the Black Sea, between Poland and Russia.",
          "preferredTerm": "Ukraine",
          "submissionValue": "UKR",
          "synonyms": [
            "UKRAINE"
          ]
        },
        {
          "conceptId": "C20112",
          "definition": "The U.S. Minor Outlying Islands consist of Baker Island, Howland Island, Jarvis Island, Johnston Atoll, Kingman Reef, Midway Island, Navassa Island, Palmyra Atoll, and Wake Island (Wake Atoll).",
          "preferredTerm": "United States Minor Outlying Islands",
          "submissionValue": "UMI",
          "synonyms": [
            "UNITED STATES MINOR OUTLYING ISLANDS"
          ]
        },
        {
          "conceptId": "C17244",
          "definition": "A country in Southern South America, bordering the South Atlantic Ocean, between Argentina and Brazil.",
          "preferredTerm": "Uruguay",
          "submissionValue": "URY",
          "synonyms": [
            "URUGUAY"
          ]
        },
        {
          "conceptId": "C17234",
          "definition": "A country in North America, bordering both the North Atlantic Ocean and the North Pacific Ocean, between Canada and Mexico.",
          "preferredTerm": "United States",
          "submissionValue": "USA",
          "synonyms": [
            "UNITED STATES"
          ]
        },
        {
          "conceptId": "C17246",
          "definition": "A country in Central Asia, north of Afghanistan.",
          "preferredTerm": "Uzbekistan",
          "submissionValue": "UZB",
          "synonyms": [
            "UZBEKISTAN"
          ]
        },
        {
          "conceptId": "C17249",
          "definition": "An enclave of Rome (Italy).",
          "preferredTerm": "Holy See",
          "submissionValue": "VAT",
          "synonyms": [
            "VATICAN CITY STATE"
          ]
        },
        {
          "conceptId": "C17114",
          "definition": "A country in the Caribbean, comprised of islands in the Caribbean Sea, north of Trinidad and Tobago.",
          "preferredTerm": "Saint Vincent and the Grenadines",
          "submissionValue": "VCT",
          "synonyms": [
            "SAINT VINCENT AND THE GRENADINES"
          ]
        },
        {
          "conceptId": "C17250",
          "definition": "A country in Northern South America, bordering the Caribbean Sea and the North Atlantic Ocean, between Colombia and Guyana.",
          "preferredTerm": "Venezuela",
          "submissionValue": "VEN",
          "synonyms": [
            "VENEZUELA"
          ]
        },
        {
          "conceptId": "C17653",
          "definition": "Islands between the Caribbean Sea and the North Atlantic Ocean, east of Puerto Rico.",
          "preferredTerm": "British Virgin Islands",
          "submissionValue": "VGB",
          "synonyms": [
            "VIRGIN ISLANDS,BRITISH"
          ]
        },
        {
          "conceptId": "C17255",
          "definition": "Islands between the Caribbean Sea and the North Atlantic Ocean, east of Puerto Rico.",
          "preferredTerm": "United States Virgin Islands",
          "submissionValue": "VIR",
          "synonyms": [
            "VIRGIN ISLANDS, U.S."
          ]
        },
        {
          "conceptId": "C17252",
          "definition": "A country in Southeastern Asia, bordering the Gulf of Thailand, Gulf of Tonkin, and South China Sea, alongside China, Laos, and Cambodia.",
          "preferredTerm": "Vietnam",
          "submissionValue": "VNM",
          "synonyms": [
            "VIETNAM"
          ]
        },
        {
          "conceptId": "C17247",
          "definition": "A group of islands in the South Pacific Ocean, about three-quarters of the way from Hawaii to Australia.",
          "preferredTerm": "Vanuatu",
          "submissionValue": "VUT",
          "synonyms": [
            "VANUATU"
          ]
        },
        {
          "conceptId": "C17259",
          "definition": "Islands in the South Pacific Ocean, about two-thirds of the way from Hawaii to New Zealand.",
          "preferredTerm": "Wallis and Futuna Islands",
          "submissionValue": "WLF",
          "synonyms": [
            "WALLIS AND FUTUNA"
          ]
        },
        {
          "conceptId": "C17740",
          "definition": "A group of islands in the South Pacific Ocean, about one-half of the way from Hawaii to New Zealand.",
          "preferredTerm": "Samoa",
          "submissionValue": "WSM",
          "synonyms": [
            "SAMOA"
          ]
        },
        {
          "conceptId": "C17264",
          "definition": "A country in the Middle East, bordering the Arabian Sea, Gulf of Aden, and Red Sea, between Oman and Saudi Arabia.",
          "preferredTerm": "Yemen",
          "submissionValue": "YEM",
          "synonyms": [
            "YEMEN"
          ]
        },
        {
          "conceptId": "C17151",
          "definition": "A country in Southern Africa, at the southern tip of the continent of Africa.",
          "preferredTerm": "South Africa",
          "submissionValue": "ZAF",
          "synonyms": [
            "SOUTH AFRICA"
          ]
        },
        {
          "conceptId": "C17267",
          "definition": "A country in Southern Africa, east of Angola.",
          "preferredTerm": "Zambia",
          "submissionValue": "ZMB",
          "synonyms": [
            "ZAMBIA"
          ]
        },
        {
          "conceptId": "C17268",
          "definition": "A country in Southern Africa, between South Africa and Zambia.",
          "preferredTerm": "Zimbabwe",
          "submissionValue": "ZWE",
          "synonyms": [
            "ZIMBABWE"
          ]
        }
      ]
    },
    {
      "conceptId": "C49650",
      "definition": "A grouping of individuals on the basis of a shared procedure or disease, or lack thereof (e.g. healthy volunteers, type 2 diabetic subjects, subjects with renal cell cancer).  Standardized naming systems are available that define the groups within which a subject should be placed. (NCI)",
      "extensible": "Yes",
      "name": "Diagnosis Group",
      "preferredTerm": "",
      "submissionValue": "[TDIGRP]",
      "synonyms": [
        "Diagnosis Group"
      ],
      "terms": [
        {
          "conceptId": "C49651",
          "definition": "An individual who is or becomes a participant in a research study and has no significant health-related issues.  (NCI)",
          "preferredTerm": "Healthy Subject",
          "submissionValue": "HEALTHY SUBJECTS",
          "synonyms": []
        }
      ]
    },
    {
      "conceptId": "C50399",
      "definition": "A name given to a reference source that lists words and gives their meaning. (NCI)",
      "extensible": "Yes",
      "name": "Dictionary Name",
      "preferredTerm": "",
      "submissionValue": "[DICTNAM]",
      "synonyms": [
        "Name of Dictionary"
      ],
      "terms": [
        {
          "conceptId": "C49471",
          "definition": "A terminology developed and used by the Food and Drug Administration (FDA) for the coding, filing and retrieving of post marketing adverse reaction reports. (NCI)",
          "preferredTerm": "Thesaurus of Adverse Reaction Term Coding Symbols",
          "submissionValue": "COSTART",
          "synonyms": [
            "Coding Symbols for a Thesaurus of Adverse Reaction Terms"
          ]
        },
        {
          "conceptId": "C49474",
          "definition": "A system of categories to which morbid entries are assigned according to established criteria. Included is the entire range of conditions in a manageable number of categories, grouped to facilitate mortality reporting. It is produced by the World Health Organization (from ICD-10, p1). The Clinical Modifications, produced by the United States Dept. of Health and Human Services, are larger extensions used for morbidity and general epidemiological purposes, primarily in the U.S. (MSH2005_2004_10_12)",
          "preferredTerm": "International Classification of Diseases",
          "submissionValue": "ICD",
          "synonyms": [
            "International Classification of Diseases"
          ]
        },
        {
          "conceptId": "C49476",
          "definition": "Published by the The Regenstrief Institute, the Logical Observation Identifiers Names and Codes covers clinical and clinical laboratory terminology. (NCI)",
          "preferredTerm": "Logical Observation Identifiers Names and Codes",
          "submissionValue": "LOINC",
          "synonyms": [
            "Logical Observation Identifiers Names and Codes"
          ]
        },
        {
          "conceptId": "C43820",
          "definition": "MedDRA is an international medical terminology designed to support the classification, retrieval, presentation, and communication of medical information throughout the medical product regulatory cycle. MedDRA was developed under the auspices of the International Conference on Harmonisation of Technical Requirements for Registration of Pharmaceuticals for Human Use (ICH). The MedDRA Maintenance and Support Services Organization (MSSO) holds a contract with the International Federation of Pharmaceutical Manufacturers Associations (IFPMA) to maintain and support the implementation of the terminology. (NCI)",
          "preferredTerm": "MedDRA",
          "submissionValue": "MedDRA",
          "synonyms": [
            "Medical Dictionary for Regulatory Activities"
          ]
        },
        {
          "conceptId": "C53489",
          "definition": "A multiaxial, hierarchical classification system for diseases in man developed by the College of American Pathologists. (NCI)",
          "preferredTerm": "Systematized Nomenclature of Medicine",
          "submissionValue": "SNOMED",
          "synonyms": [
            "Systematized Nomenclature of Medicine"
          ]
        },
        {
          "conceptId": "C49468",
          "definition": "A terminology implemented by the World Health Organization to describe adverse reactions to a prescribed medication or treatment regimen. (NCI)",
          "preferredTerm": "World Health Organization Adverse Reaction Terminology",
          "submissionValue": "WHOART",
          "synonyms": [
            "World Health Organization Adverse Reaction Terms"
          ]
        },
        {
          "conceptId": "C49475",
          "definition": "A reference source of drugs and drug associated information maintained by the World Health Organization. (NCI)",
          "preferredTerm": "World Health Organization Drug Dictionary",
          "submissionValue": "WHODD",
          "synonyms": [
            "World Health Organization Drug Dictionary"
          ]
        }
      ]
    },
    {
      "conceptId": "C49484",
      "definition": "Indicates a task, process or examination that has either not been initiated or completed. (NCI)",
      "extensible": "No",
      "name": "Not Done",
      "preferredTerm": "",
      "submissionValue": "[ND]",
      "synonyms": [
        "Not Done",
        "ND"
      ],
      "terms": []
    },
    {
      "conceptId": "C49484",
      "definition": "Indicates a task, process or examination that has either not been initiated or completed. (NCI)",
      "extensible": "",
      "name": "Not Done",
      "preferredTerm": "Not Done",
      "submissionValue": "NOT DONE",
      "synonyms": [
        "Not Done",
        "ND"
      ],
      "terms": []
    },
    {
      "conceptId": "C16564",
      "definition": "A social group characterized by a distinctive social and cultural tradition maintained from generation to generation, a common history and origin and a sense of identification with the group; members of the group have distinctive features in their way of life, shared experiences and often a common genetic heritage; these features may be reflected in their experience of health and disease. (NCI)",
      "extensible": "Yes",
      "name": "Patient Ethnic Group",
      "preferredTerm": "",
      "submissionValue": "[ETHNIC]",
      "synonyms": [
        "Ethnicity"
      ],
      "terms": [
        {
          "conceptId": "C17459",
          "definition": "A person of Mexican, Puerto Rican, Cuban, Central or South American or other Spanish culture or origin, regardless of race.  (NCI)",
          "preferredTerm": "Hispanic or Latino",
          "submissionValue": "Hispanic or Latino",
          "synonyms": []
        },
        {
          "conceptId": "C41222",
          "definition": "A person not of Cuban, Mexican, Puerto Rican, South or Central American, or other Spanish culture or origin, regardless of race. An arbitrary ethnic classification. (NCI)",
          "preferredTerm": "Not Hispanic or Latino",
          "submissionValue": "Not Hispanic or Latino",
          "synonyms": []
        },
        {
          "conceptId": "C43234",
          "definition": "Not provided or available",
          "preferredTerm": "Not Stated",
          "submissionValue": "Not reported",
          "synonyms": []
        },
        {
          "conceptId": "C17998",
          "definition": "Not known, not observed, not recorded, or refused. (NCI)",
          "preferredTerm": "Unknown",
          "submissionValue": "U",
          "synonyms": [
            "UNKNOWN",
            "Unknown"
          ]
        }
      ]
    },
    {
      "conceptId": "C16960",
      "definition": "A person who receives medical attention, care, or treatment, or who is registered with medical professional or institution with the purpose to receive medical care when necessary. (NCI)",
      "extensible": "Yes",
      "name": "Patient Ethnic Group",
      "preferredTerm": "",
      "submissionValue": "[Patient]",
      "synonyms": [],
      "terms": [
        {
          "conceptId": "C17459",
          "definition": "A person of Mexican, Puerto Rican, Cuban, Central or South American or other Spanish culture or origin, regardless of race.  (NCI)",
          "preferredTerm": "Hispanic or Latino",
          "submissionValue": "Hispanic or Latino",
          "synonyms": []
        },
        {
          "conceptId": "C41222",
          "definition": "A person not of Cuban, Mexican, Puerto Rican, South or Central American, or other Spanish culture or origin, regardless of race. An arbitrary ethnic classification. (NCI)",
          "preferredTerm": "Not Hispanic or Latino",
          "submissionValue": "Not Hispanic or Latino",
          "synonyms": []
        },
        {
          "conceptId": "C43234",
          "definition": "Not provided or available",
          "preferredTerm": "Not Stated",
          "submissionValue": "Not reported",
          "synonyms": []
        },
        {
          "conceptId": "C17998",
          "definition": "Not known, not observed, not recorded, or refused. (NCI)",
          "preferredTerm": "Unknown",
          "submissionValue": "U",
          "synonyms": [
            "UNKNOWN",
            "Unknown"
          ]
        }
      ]
    },
    {
      "conceptId": "C42636",
      "definition": "The form of the completed pharmaceutical product, e.g. tablet, capsule, injection, elixir, suppository. Dosage form can have a significant effect on the onset, duration and intensity of the pharmacological action of a drug. A pharmaceutical dosage form controls the rate at which the drug is released into the biological fluids. This release rate affects its intrinsic absorption pattern and therefore, the bioavailability of the drug.",
      "extensible": "Yes",
      "name": "Pharmaceutical Dosage Form",
      "preferredTerm": "",
      "submissionValue": "[FRM]",
      "synonyms": [
        "Dose Form"
      ],
      "terms": [
        {
          "conceptId": "C42887",
          "definition": "A product that is packaged under pressure and contains therapeutically active ingredients that are released upon activation of an appropriate valve system; it is intended for topical application to the skin as well as local application into the nose (nasal aerosols), mouth (lingual aerosols), or lungs (inhalation aerosols). (FDA)",
          "preferredTerm": "Aerosol Dosage Form",
          "submissionValue": "AEROSOL",
          "synonyms": []
        },
        {
          "conceptId": "C42888",
          "definition": "A dosage form containing one or more active ingredients, surfactants, aqueous or non-aqueous liquids, and the propellants; if the propellant is in the internal (discontinuous) phase (i.e., of the oil-in-water type), a stable foam is discharged, and if the propellant is in the external (continuous) phase (i.e., of the water-in-oil type), a spray or a quick-breaking foam is discharged. (FDA)",
          "preferredTerm": "Aerosol Foam Dosage Form",
          "submissionValue": "AEROSOL, FOAM",
          "synonyms": []
        },
        {
          "conceptId": "C42960",
          "definition": "A pressurized dosage form consisting of metered dose valves which allow for the delivery of a uniform quantity of spray upon each activation. (NCI)",
          "preferredTerm": "Metered Aerosol Dosage Form",
          "submissionValue": "AEROSOL, METERED",
          "synonyms": []
        },
        {
          "conceptId": "C42971",
          "definition": "A product that is packaged under pressure and contains therapeutically active ingredients, in the form of a powder, that are released upon activation of an appropriate valve system. (NCI)",
          "preferredTerm": "Powder Aerosol Dosage Form",
          "submissionValue": "AEROSOL, POWDER",
          "synonyms": []
        },
        {
          "conceptId": "C42889",
          "definition": "An aerosol product which utilizes a compressed gas as the propellant to provide the force necessary to expel the product as a wet spray; it is applicable to solutions of medicinal agents in aqueous solvents. (NCI)",
          "preferredTerm": "Aerosol Spray Dosage Form",
          "submissionValue": "AEROSOL, SPRAY",
          "synonyms": []
        },
        {
          "conceptId": "C42892",
          "definition": "A solid dosage form usually in the form of a rectangle that is meant to be chewed. (NCI)",
          "preferredTerm": "Chewable Bar Dosage Form",
          "submissionValue": "BAR, CHEWABLE",
          "synonyms": []
        },
        {
          "conceptId": "C42890",
          "definition": "A solid dosage form in the shape of a small ball. (NCI)",
          "preferredTerm": "Bead Dosage Form",
          "submissionValue": "BEAD",
          "synonyms": []
        },
        {
          "conceptId": "C43451",
          "definition": "A small sterile solid mass consisting of a highly purified drug intended for implantation in the body which would allow at least a reduction in dosing frequency as compared to that drug presented as a conventional dosage form.  (NCI)",
          "preferredTerm": "Extended Release Bead Implant Dosage Form",
          "submissionValue": "BEAD, IMPLANT, EXTENDED RELEASE",
          "synonyms": []
        },
        {
          "conceptId": "C42891",
          "definition": "Solid dosage form, usually in the shape of a square or rectangle. (NCI)",
          "preferredTerm": "Block Dosage Form",
          "submissionValue": "BLOCK",
          "synonyms": []
        },
        {
          "conceptId": "C25158",
          "definition": "A solid pharmaceutical dosage form that contains medicinal agent within either a hard or soft soluble container or shell, usually used for the oral administration of medicine. The shells are made of a suitable form of gelatin or other substance. (NCI)",
          "preferredTerm": "Capsule Dosage Form",
          "submissionValue": "CAPSULE",
          "synonyms": []
        },
        {
          "conceptId": "C42895",
          "definition": "A solid dosage form in which the drug is enclosed within either a hard or soft soluble container or \"shell\" made from a suitable form of gelatin; additionally, the capsule is covered in a designated coating. (NCI)",
          "preferredTerm": "Coated Capsule Dosage Form",
          "submissionValue": "CAPSULE, COATED",
          "synonyms": []
        },
        {
          "conceptId": "C42896",
          "definition": "A solid dosage form in which the drug is enclosed within either a hard or soft soluble container or \"shell\" made from a suitable form of gelatin; the drug itself is in the form of granules to which varying amounts of coating have been applied. (NCI)",
          "preferredTerm": "Coated Pellets in Capsule Dosage Form",
          "submissionValue": "CAPSULE, COATED PELLETS",
          "synonyms": []
        },
        {
          "conceptId": "C42917",
          "definition": "A solid dosage form in which the drug is enclosed within either a hard or soft soluble container or \"shell\" made from a suitable form of gelatin; additionally, the capsule is covered in a designated coating, and which releases a drug (or drugs) in such a manner to allow at least a reduction in dosing frequency as compared to that drug (or drugs) presented as a conventional dosage form. (NCI)",
          "preferredTerm": "Extended Release Coated Capsule Dosage Form",
          "submissionValue": "CAPSULE, COATED, EXTENDED RELEASE",
          "synonyms": []
        },
        {
          "conceptId": "C42902",
          "definition": "A solid dosage form in which the drug is enclosed within either a hard or soft soluble container made from a suitable form of gelatin, and which releases a drug (or drugs) at a time other than promptly after administration. Enteric-coated articles are delayed release dosage forms. (NCI)",
          "preferredTerm": "Delayed Release Capsule Dosage Form",
          "submissionValue": "CAPSULE, DELAYED RELEASE",
          "synonyms": []
        },
        {
          "conceptId": "C42904",
          "definition": "A solid dosage form in which the drug is enclosed within either a hard or soft soluble container or \"shell\" made from a suitable form of gelatin; the drug itself is in the form of granules to which enteric coating has been applied, thus delaying release of the drug until its passage into the intestines. (NCI)",
          "preferredTerm": "Delayed Release Pellets in Capsule Dosage Form",
          "submissionValue": "CAPSULE, DELAYED RELEASE PELLETS",
          "synonyms": []
        },
        {
          "conceptId": "C42916",
          "definition": "A solid dosage form in which the drug is enclosed within either a hard or soft soluble container made from a suitable form of gelatin, and which releases a drug (or drugs) in such a manner to allow a reduction in dosing frequency as compared to that drug (or drugs) presented as a conventional dosage form. (NCI)",
          "preferredTerm": "Extended Release Capsule Dosage Form",
          "submissionValue": "CAPSULE, EXTENDED RELEASE",
          "synonyms": []
        },
        {
          "conceptId": "C42928",
          "definition": "A solid dosage form in which the drug is enclosed within either a hard or soft soluble container or \"shell\" made from a suitable form of gelatin; additionally, the capsule is covered in a designated film coating, and which releases a drug (or drugs) in such a manner to allow at least a reduction in dosing frequency as compared to that drug (or drugs) presented as a conventional dosage form. (NCI)",
          "preferredTerm": "Extended Release Film Coated Capsule Dosage Form",
          "submissionValue": "CAPSULE, FILM COATED, EXTENDED RELEASE",
          "synonyms": []
        },
        {
          "conceptId": "C42936",
          "definition": "A solid dosage form in which the drug is enclosed within either a hard or soft soluble container made from a suitable form of gelatin; through a banding process, the capsule is coated with additional layers of gelatin so as to form a complete seal. (NCI)",
          "preferredTerm": "Gelatin Coated Capsule Dosage Form",
          "submissionValue": "CAPSULE, GELATIN COATED",
          "synonyms": []
        },
        {
          "conceptId": "C42954",
          "definition": "A solid dosage form in which the drug is enclosed within a soluble, gelatin shell which is plasticized by the addition of a polyol, such as sorbitol or glycerin, and is therefore of a somewhat thicker consistency than that of a hard shell capsule; typically, the active ingredients are dissolved or suspended in a liquid vehicle. (NCI)",
          "preferredTerm": "Liquid Filled Capsule Dosage Form",
          "submissionValue": "CAPSULE, LIQUID FILLED",
          "synonyms": []
        },
        {
          "conceptId": "C45414",
          "definition": "A substance that serves to produce solid union between two surfaces. (NCI)",
          "preferredTerm": "Cement Dosage Form",
          "submissionValue": "CEMENT",
          "synonyms": []
        },
        {
          "conceptId": "C42678",
          "definition": "A narrow tube filled with material that is capable to burn with release of therapeutically-active substance(s) during the process of smoking. Cigarette is a very efficient drug-delivery inhaler system for fast-acting substances.(FDA)",
          "preferredTerm": "Cigarette Dosage Form",
          "submissionValue": "CIGARETTE",
          "synonyms": []
        },
        {
          "conceptId": "C60884",
          "definition": "ALT_DEFINITION:  A large piece of relatively flat, absorbent material that contains a drug. It is typically used for applying medication or for cleansing. (FDA)",
          "preferredTerm": "Cloth Dosage Form",
          "submissionValue": "CLOTH",
          "synonyms": []
        },
        {
          "conceptId": "C60891",
          "definition": "A liquid preparation of increased strength and reduced volume which is usually diluted prior to administration. (NCI)",
          "preferredTerm": "Concentrate Dosage Form",
          "submissionValue": "CONCENTRATE",
          "synonyms": []
        },
        {
          "conceptId": "C42900",
          "definition": "A solid dosage form bounded by a circular base and the surface formed by line segments joining every point of the boundary of the base to a common vertex. A cone (usually containing antibiotics) is normally placed below the gingiva after a dental extraction. (NCI)",
          "preferredTerm": "Cone Dosage Form",
          "submissionValue": "CONE",
          "synonyms": []
        },
        {
          "conceptId": "C42919",
          "definition": "An ocular system placed in the eye from which the drug diffuses through a membrane at a constant rate over a specified period. (NCI)",
          "preferredTerm": "Extended Release Core Dosage Form",
          "submissionValue": "CORE, EXTENDED RELEASE",
          "synonyms": []
        },
        {
          "conceptId": "C28944",
          "definition": "A semisolid emulsion of either the oil-in-water or the water-in-oil type, ordinarily intended for topical use. (NCI)",
          "preferredTerm": "Cream Dosage Form",
          "submissionValue": "CREAM",
          "synonyms": []
        },
        {
          "conceptId": "C60897",
          "definition": "A cream dosage form that enhances drug delivery. Augmentation does not refer to the strength of the drug in the dosage form. NOTE: CDER has decided to refrain from expanding the use of this dosage form due to difficulties in setting specific criteria that must be met to be considered augmented. (FDA)",
          "preferredTerm": "Augmented Cream Dosage Form",
          "submissionValue": "CREAM, AUGMENTED",
          "synonyms": []
        },
        {
          "conceptId": "C42901",
          "definition": "A naturally produced angular solid of definite form in which the ultimate units from which it is built up are systematically arranged; they are usually evenly spaced on a regular space lattice.",
          "preferredTerm": "Crystal Dosage Form",
          "submissionValue": "CRYSTAL",
          "synonyms": []
        },
        {
          "conceptId": "C45415",
          "definition": "The propagation of microorganisms or of living tissue cells in special media conducive to their growth. (NCI)",
          "preferredTerm": "Culture Dosage Form",
          "submissionValue": "CULTURE",
          "synonyms": []
        },
        {
          "conceptId": "C47890",
          "definition": "A device usually dome-shaped, worn during copulation over the cervical mouth for prevention of conception or infection. (NCI)",
          "preferredTerm": "Diaphragm Dosage Form",
          "submissionValue": "DIAPHRAGM",
          "synonyms": []
        },
        {
          "conceptId": "C43525",
          "definition": "A circular plate-like organ or structure. (FDA)",
          "preferredTerm": "Disc Dosage Form",
          "submissionValue": "DISC",
          "synonyms": []
        },
        {
          "conceptId": "C42679",
          "definition": "A liquid preparation, intended for the irrigative cleansing of the vagina, that is prepared from powders, liquid solutions, or liquid concentrates and contains one or more chemical substances dissolved in a suitable solvent or mutually miscible solvents. (NCI)",
          "preferredTerm": "Douche Dosage Form",
          "submissionValue": "DOUCHE",
          "synonyms": []
        },
        {
          "conceptId": "C42763",
          "definition": "The application of various materials for protecting a wound.(FDA)",
          "preferredTerm": "Dressing Dosage Form",
          "submissionValue": "DRESSING",
          "synonyms": []
        },
        {
          "conceptId": "C17423",
          "definition": "Modern technology, distributed with or as a part of a drug product that allows for the uniform release or targeting of drugs to the body. (FDA)",
          "preferredTerm": "Drug Delivery System",
          "submissionValue": "DRUG DELIVERY SYSTEM",
          "synonyms": []
        },
        {
          "conceptId": "C42912",
          "definition": "A clear, pleasantly flavored, sweetened hydroalcoholic liquid containing dissolved medicinal agents; it is intended for oral use. (NCI)",
          "preferredTerm": "Elixir Dosage Form",
          "submissionValue": "ELIXIR",
          "synonyms": []
        },
        {
          "conceptId": "C42913",
          "definition": "A dosage form consisting of a two-phase system comprised of at least two immiscible liquids (1), one of which is dispersed as droplets (internal or dispersed phase) within the other liquid (external or continuous phase), generally stabilized with one or more emulsifying agents. Note 1: A liquid is pourable; it flows and conforms to its container at room temperature. It displays Newtonian or pseudoplastic flow behavior. Note 2: Emulsion is used as a dosage form term unless a more specific term is applicable, e.g. cream, lotion, ointment. (NCI)",
          "preferredTerm": "Emulsion Dosage Form",
          "submissionValue": "EMULSION",
          "synonyms": []
        },
        {
          "conceptId": "C42915",
          "definition": "A rectal preparation for therapeutic, diagnostic, or nutritive purposes.  (NCI)",
          "preferredTerm": "Enema Dosage Form",
          "submissionValue": "ENEMA",
          "synonyms": []
        },
        {
          "conceptId": "C42929",
          "definition": "A concentrated preparation of vegetable or animal drugs obtained by removal of the active constituents of the respective drugs with a suitable menstrua, evaporation of all or nearly all of the solvent, and adjustment of the residual masses or powders to the prescribed standards. (NCI)",
          "preferredTerm": "Extract Dosage Form",
          "submissionValue": "EXTRACT",
          "synonyms": []
        },
        {
          "conceptId": "C60926",
          "definition": "A slender and elongated solid thread-like substance that delivers drug in such a manner to allow a reduction in dosing frequency as compared to that drug (or drugs) presented as a conventional dosage form. (FDA)",
          "preferredTerm": "Extended Release Fiber Dosage Form",
          "submissionValue": "FIBER, EXTENDED RELEASE",
          "synonyms": []
        },
        {
          "conceptId": "C42932",
          "definition": "A thin layer or coating. (NCI)",
          "preferredTerm": "Film Dosage Form",
          "submissionValue": "FILM",
          "synonyms": []
        },
        {
          "conceptId": "C42920",
          "definition": "A drug delivery system in the form of a film that releases the drug over an extended period in such a way as to maintain constant drug levels in the blood or target tissue. (NCI)",
          "preferredTerm": "Extended Release Film Dosage Form",
          "submissionValue": "FILM, EXTENDED RELEASE",
          "synonyms": []
        },
        {
          "conceptId": "C42984",
          "definition": "A thin layer or coating which is susceptible to being dissolved when in contact with a liquid. (NCI)",
          "preferredTerm": "Soluble Film Dosage Form",
          "submissionValue": "FILM, SOLUBLE",
          "synonyms": []
        },
        {
          "conceptId": "C60927",
          "definition": "A product, usually a solid, intended for solution prior to administration. (FDA)",
          "preferredTerm": "Dosage Form For Solution",
          "submissionValue": "FOR SOLUTION",
          "synonyms": []
        },
        {
          "conceptId": "C60928",
          "definition": "A product, usually a solid, intended for suspension prior to administration. (FDA)",
          "preferredTerm": "Dosage Form For Suspension",
          "submissionValue": "FOR SUSPENSION",
          "synonyms": []
        },
        {
          "conceptId": "C60929",
          "definition": "A product, usually a solid, intended for suspension prior to administration; once the suspension is administered, the drug will be released at a constant rate over a specified period. (FDA)",
          "preferredTerm": "Extended Release Dosage Form For Suspension",
          "submissionValue": "FOR SUSPENSION, EXTENDED RELEASE",
          "synonyms": []
        },
        {
          "conceptId": "C42933",
          "definition": "Any elastic aeriform fluid in which the molecules are separated from one another and have free paths. (NCI)",
          "preferredTerm": "Gas Dosage Form",
          "submissionValue": "GAS",
          "synonyms": []
        },
        {
          "conceptId": "C42934",
          "definition": "A semisolid (1) dosage form that contains a gelling agent to provide stiffness to a solution or a colloidal dispersion (2).  A gel may contain suspended particles. Note 1: A semisolid is not pourable; it does not flow or conform to its container at room temperature.  It does not flow at low shear stress and generally exhibits plastic flow behavior. Note 2: A colloidal dispersion is a system in which particles of colloidal dimension (i.e., typically between 1 nm and 1 micrometer) are distributed uniformly throughout a liquid. (NCI)",
          "preferredTerm": "Gel Dosage Form",
          "submissionValue": "GEL",
          "synonyms": []
        },
        {
          "conceptId": "C42906",
          "definition": "A combination of a dentifrice (formulation intended to clean and/or polish the teeth, and which may contain certain additional agents), and a gel. It is used with a toothbrush for the purpose of cleaning and polishing the teeth. (NCI)",
          "preferredTerm": "Dentifrice Gel Dosage Form",
          "submissionValue": "GEL, DENTIFRICE",
          "synonyms": []
        },
        {
          "conceptId": "C60930",
          "definition": "A gel preparation, with metered dose valves, which allow for the delivery of a uniform quantity of gel upon each activation. (FDA)",
          "preferredTerm": "Metered Gel Dosage Form",
          "submissionValue": "GEL, METERED",
          "synonyms": []
        },
        {
          "conceptId": "C48193",
          "definition": "An apparatus for the formation of vapor or gas from a liquid or solid by heat or chemical action. The term GENERATOR also applies to radioactive columns from which radionuclides are provided. (NCI)",
          "preferredTerm": "Generator Dosage Form",
          "submissionValue": "GENERATOR",
          "synonyms": []
        },
        {
          "conceptId": "C42937",
          "definition": "Also called pellets or pilules, are made of pure sucrose, lactose, or other polysaccharides. They are formed into small globular masses of various sizes, and are medicated by placing them in a vial and adding the liquid drug attenuation in the proportion not less than one percent (v/w). After shaking, the medicated globules are dried at temperatures not to exceed 40 degrees Centigrade. (NCI)",
          "preferredTerm": "Globule Dosage Form",
          "submissionValue": "GLOBULE",
          "synonyms": []
        },
        {
          "conceptId": "C45416",
          "definition": "A slip of skin or of other tissue for implantation. (NCI)",
          "preferredTerm": "Graft Dosage Form",
          "submissionValue": "GRAFT",
          "synonyms": []
        },
        {
          "conceptId": "C42938",
          "definition": "A small particle or grain. (NCI)",
          "preferredTerm": "Granule Dosage Form",
          "submissionValue": "GRANULE",
          "synonyms": []
        },
        {
          "conceptId": "C42903",
          "definition": "A small medicinal particle or grain to which an enteric or other coating has been applied, thus delaying release of the drug until its passage into the intestines. (NCI)",
          "preferredTerm": "Delayed Release Granule Dosage Form",
          "submissionValue": "GRANULE, DELAYED RELEASE",
          "synonyms": []
        },
        {
          "conceptId": "C42909",
          "definition": "A small particle or grain containing a medicinal agent in a dry mixture usually composed of sodium bicarbonate, citric acid, and tartaric acid which, when in contact with water, has the capability to release gas, resulting in effervescence. (NCI)",
          "preferredTerm": "Effervescent Granule Dosage Form",
          "submissionValue": "GRANULE, EFFERVESCENT",
          "synonyms": []
        },
        {
          "conceptId": "C42939",
          "definition": "A small medicinal particle or grain made available in its more stable dry form, to be reconstituted with solvent just before dispensing; the granules are so prepared to contain not only the medicinal agent, but the colorants, flavorants, and any other desired pharmaceutic ingredient. (NCI)",
          "preferredTerm": "Granule For Solution Dosage Form",
          "submissionValue": "GRANULE, FOR SOLUTION",
          "synonyms": []
        },
        {
          "conceptId": "C42940",
          "definition": "A small medicinal particle or grain made available in its more stable dry form, to be reconstituted with solvent just before dispensing to form a suspension; the granules are so prepared to contain not only the medicinal agent, but the colorants, flavorants, and any other desired pharmaceutic ingredient. (NCI)",
          "preferredTerm": "Granule For Suspension Dosage Form",
          "submissionValue": "GRANULE, FOR SUSPENSION",
          "synonyms": []
        },
        {
          "conceptId": "C42921",
          "definition": "A small medicinal particle or grain made available in its more stable dry form, to be reconstituted with solvent just before dispensing to form a suspension; the extended release system achieves slow release of the drug over an extended period of time and maintains constant drug levels in the blood or target tissue. (NCI)",
          "preferredTerm": "Extended Release Granule For Suspension Dosage Form",
          "submissionValue": "GRANULE, FOR SUSPENSION, EXTENDED RELEASE",
          "synonyms": []
        },
        {
          "conceptId": "C42941",
          "definition": "A mucilaginous excretion from various plants. (NCI)",
          "preferredTerm": "Gum Dosage Form",
          "submissionValue": "GUM",
          "synonyms": []
        },
        {
          "conceptId": "C42894",
          "definition": "A sweetened and flavored insoluble plastic material of various shapes which when chewed, releases a drug substance into the oral cavity. (NCI)",
          "preferredTerm": "Chewing Gum Dosage Form",
          "submissionValue": "GUM, CHEWING",
          "synonyms": []
        },
        {
          "conceptId": "C42978",
          "definition": "Natural mixture of gum and resin, usually obtained as exudations from plants. (NCI)",
          "preferredTerm": "Resin Gum Dosage Form",
          "submissionValue": "GUM, RESIN",
          "synonyms": []
        },
        {
          "conceptId": "C42942",
          "definition": "A material containing drug intended to be inserted securely and deeply in a living site for growth, slow release, or formation of an organic union. (NCI)",
          "preferredTerm": "Implant Dosage Form",
          "submissionValue": "IMPLANT",
          "synonyms": []
        },
        {
          "conceptId": "C42944",
          "definition": "A special class of inhalations consisting of a drug or combination of drugs, that by virtue of their high vapor pressure, can be carried by an air current into the nasal passage where they exert their effect; the container from which the inhalant generally is administered is known as an inhaler. (NCI)",
          "preferredTerm": "Inhalant Dosage Form",
          "submissionValue": "INHALANT",
          "synonyms": []
        },
        {
          "conceptId": "C60931",
          "definition": "An injection, which either consists of or forms liposomes (a lipid bilayer vesicle usually composed of phospholipids which is used to encapsulate an active drug substance). (FDA)",
          "preferredTerm": "Liposomal Injection Dosage Form",
          "submissionValue": "INJECTABLE, LIPOSOMAL",
          "synonyms": []
        },
        {
          "conceptId": "C42946",
          "definition": "A sterile preparation intended for parenteral use; five distinct classes of injections exist as defined by the USP. (NCI)",
          "preferredTerm": "Injectable Dosage Form",
          "submissionValue": "INJECTION",
          "synonyms": []
        },
        {
          "conceptId": "C42914",
          "definition": "An emulsion consisting of a sterile, pyrogen-free preparation intended to be administered parenterally.(FDA)",
          "preferredTerm": "Emulsion for Injection Dosage Form",
          "submissionValue": "INJECTION, EMULSION",
          "synonyms": []
        },
        {
          "conceptId": "C42950",
          "definition": "[definition pending](FDA)",
          "preferredTerm": "Injectable Lipid Complex Dosage Form",
          "submissionValue": "INJECTION, LIPID COMPLEX",
          "synonyms": []
        },
        {
          "conceptId": "C42974",
          "definition": "A sterile preparation intended for reconstitution to form a solution for parenteral use. (NCI)",
          "preferredTerm": "Powder For Injectable Solution Dosage Form",
          "submissionValue": "INJECTION, POWDER, FOR SOLUTION",
          "synonyms": []
        },
        {
          "conceptId": "C42976",
          "definition": "A sterile preparation intended for reconstitution to form a suspension for parenteral use. (NCI)",
          "preferredTerm": "Powder For Injectable Suspension Dosage Form",
          "submissionValue": "INJECTION, POWDER, FOR SUSPENSION",
          "synonyms": []
        },
        {
          "conceptId": "C42977",
          "definition": "A dried preparation intended for reconstitution to form a suspension for parenteral use which has been formulated in a manner to allow at least a reduction in dosing frequency as compared to that drug presented as a conventional dosage form (e.g., as a solution).(FDA)",
          "preferredTerm": "Powder For Injectable Extended Release Suspension Dosage Form",
          "submissionValue": "INJECTION, POWDER, FOR SUSPENSION, EXTENDED RELEASE",
          "synonyms": []
        },
        {
          "conceptId": "C42959",
          "definition": "A sterile freeze dried preparation intended for reconstitution for parenteral use which has been formulated in a manner that would allow liposomes (a lipid bilayer vesicle usually composed of phospholipids which is used to encapsulate an active drug substance, either within a lipid bilayer or in an aqueous space) to be formed upon reconstitution. (NCI)",
          "preferredTerm": "Lyophilized Powder For Injectable Liposomal Suspension Dosage Form",
          "submissionValue": "INJECTION, POWDER, LYOPHILIZED, FOR LIPOSOMAL SUSPENSION",
          "synonyms": []
        },
        {
          "conceptId": "C42957",
          "definition": "A dosage form intended for the solution prepared by lyophilization ('freeze drying'), a process which involves the removal of water from products in the frozen state at extremely low pressures; this is intended for subsequent addition of liquid to create a solution that conforms in all respects to the requirements for Injections. (NCI)",
          "preferredTerm": "Lyophilized Powder For Injectable Solution Dosage Form",
          "submissionValue": "INJECTION, POWDER, LYOPHILIZED, FOR SOLUTION",
          "synonyms": []
        },
        {
          "conceptId": "C42958",
          "definition": "A liquid preparation, intended for parenteral use, that contains solids suspended in a suitable fluid medium and conforms in all respects to the requirements for Sterile Suspensions; the medicinal agents intended for the suspension are prepared by lyophilization (\"freeze drying\"), a process which involves the removal of water from products in the frozen state at extremely low pressures. (NCI)",
          "preferredTerm": "Lyophilized Powder For Injectable Suspension Dosage Form",
          "submissionValue": "INJECTION, POWDER, LYOPHILIZED, FOR SUSPENSION",
          "synonyms": []
        },
        {
          "conceptId": "C42956",
          "definition": "A sterile freeze dried preparation intended for reconstitution for parenteral use which has been formulated in a manner to allow at least a reduction in dosing frequency as compared to that drug presented as a conventional dosage form (e.g., as a solution). (NCI)",
          "preferredTerm": "Lyophilized Powder For Extended Release Injectable Suspension Dosage Form",
          "submissionValue": "INJECTION, POWDER, LYOPHILIZED, FOR SUSPENSION, EXTENDED RELEASE",
          "synonyms": []
        },
        {
          "conceptId": "C42945",
          "definition": "A liquid preparation containing one or more drug substances dissolved in a suitable solvent or mixture of mutually miscible solvents that is suitable for injection. (NCI)",
          "preferredTerm": "Injectable Solution Dosage Form",
          "submissionValue": "INJECTION, SOLUTION",
          "synonyms": []
        },
        {
          "conceptId": "C42899",
          "definition": "A sterile preparation for parenteral use which, upon the addition of suitable solvents, yields a solution conforming in all respects to the requirements for Injections. (NCI)",
          "preferredTerm": "Concentrate for Injectable Solution Dosage Form",
          "submissionValue": "INJECTION, SOLUTION, CONCENTRATE",
          "synonyms": []
        },
        {
          "conceptId": "C42995",
          "definition": "A liquid preparation, suitable for injection, which consists of solid particles dispersed throughout a liquid phase in which the particles are not soluble. It can also consist of an oil phase dispersed throughout an aqueous phase, or vice-versa. (NCI)",
          "preferredTerm": "Injectable Suspension Dosage Form",
          "submissionValue": "INJECTION, SUSPENSION",
          "synonyms": []
        },
        {
          "conceptId": "C42926",
          "definition": "A sterile preparation intended for parenteral use which has been formulated in a manner to allow at least a reduction in dosing frequency as compared to that drug presented as a conventional dosage form (e.g., as a solution or a prompt drug-releasing, conventional solid dosage form). (NCI)",
          "preferredTerm": "Injectable Extended Release Suspension Dosage Form",
          "submissionValue": "INJECTION, SUSPENSION, EXTENDED RELEASE",
          "synonyms": []
        },
        {
          "conceptId": "C42951",
          "definition": "A liquid parenteral pharmaceutical dosage form structured as a multilamellar composition of concentric phospholipid spheres that encapsulate the drug (drug delivery systems) separated by layers of water. Drug release is facilitated and controlled by in vivo erosion of the liposomes. To further increase the in vivo circulation time, liposomes in some preparations are covalently derivatized with PEG to produce PEGylated or stealth liposomes. Covalent attachment of drugs to the outer surface of liposomes can potentially serve as a delayed-release product. (NCI)",
          "preferredTerm": "Injectable Liposomal Suspension Dosage Form",
          "submissionValue": "INJECTION, SUSPENSION, LIPOSOMAL",
          "synonyms": []
        },
        {
          "conceptId": "C42988",
          "definition": "A liquid preparation, suitable for injection, which consists of solid particles dispersed throughout a liquid phase in which the particles are not soluble. In addition, the product is sonicated while a gas is bubbled through the suspension, and this results in the formation of microspheres by the solid particles. (NCI)",
          "preferredTerm": "Injectable Sonicated Suspension Dosage Form",
          "submissionValue": "INJECTION, SUSPENSION, SONICATED",
          "synonyms": []
        },
        {
          "conceptId": "C60933",
          "definition": "A specially formulated and shaped non-encapsulated solid preparation intended to be placed into a non-rectal orifice of the body, where drug is released, generally for localized effects. (FDA)",
          "preferredTerm": "Insert Dosage Form",
          "submissionValue": "INSERT",
          "synonyms": []
        },
        {
          "conceptId": "C42922",
          "definition": "A specially formulated and shaped solid preparation (e.g., ring, tablet, or stick) intended to be placed in the vagina by special inserters, where the medication is released, generally for localized effects; the extended release preparation is designed to allow a reduction in dosing frequency. (NCI)",
          "preferredTerm": "Extended Release Insert Dosage Form",
          "submissionValue": "INSERT, EXTENDED RELEASE",
          "synonyms": []
        },
        {
          "conceptId": "C47915",
          "definition": "A device inserted and left in the uterus to prevent effective conception. (NCI)",
          "preferredTerm": "Intrauterine Device Dosage Form",
          "submissionValue": "INTRAUTERINE DEVICE",
          "synonyms": []
        },
        {
          "conceptId": "C42947",
          "definition": "A sterile solution intended to bathe or flush open wounds or body cavities; they're used topically, never parenterally. (NCI)",
          "preferredTerm": "Irrigant Dosage Form",
          "submissionValue": "IRRIGANT",
          "synonyms": []
        },
        {
          "conceptId": "C42948",
          "definition": "A class of gels--semisolid systems which consist of suspensions made up of either small inorganic particles or large organic molecules interpenetrated by a liquid--in which the structural coherent matrix contains a high portion of liquid, usually water. (NCI)",
          "preferredTerm": "Jelly Dosage Form",
          "submissionValue": "JELLY",
          "synonyms": []
        },
        {
          "conceptId": "C47916",
          "definition": "A packaged collection of related material. (NCI)",
          "preferredTerm": "Kit Dosage Form",
          "submissionValue": "KIT",
          "synonyms": []
        },
        {
          "conceptId": "C45413",
          "definition": "A material applied to the inside of the dental cavity, for protection or insulation of the surface.(FDA)",
          "preferredTerm": "Dental Liner Dosage Form",
          "submissionValue": "LINER, DENTAL",
          "synonyms": []
        },
        {
          "conceptId": "C42949",
          "definition": "A solution or mixture of various substances in oil, alcoholic solutions of soap, or emulsions intended for external application. (NCI)",
          "preferredTerm": "Liniment Dosage Form",
          "submissionValue": "LINIMENT",
          "synonyms": []
        },
        {
          "conceptId": "C42952",
          "definition": "A waxy solid, usually colored cosmetic, in stick form for the lips. (NCI)",
          "preferredTerm": "Lipstick Dosage Form",
          "submissionValue": "LIPSTICK",
          "synonyms": []
        },
        {
          "conceptId": "C42953",
          "definition": "A dosage form consisting of a pure chemical in its liquid state. This dosage form term should not be applied to solutions. Note: A liquid is pourable; it flows and conforms to its container at room temperature.  It displays Newtonian or pseudoplastic flow behavior.(FDA)",
          "preferredTerm": "Liquid Dosage Form",
          "submissionValue": "LIQUID",
          "synonyms": []
        },
        {
          "conceptId": "C60934",
          "definition": "A liquid that delivers a drug in such a manner to allow a reduction in dosing frequency as compared to that drug (or drugs) presented as a conventional dosage form. (FDA)",
          "preferredTerm": "Extended Release Liquid Dosage Form",
          "submissionValue": "LIQUID, EXTENDED RELEASE",
          "synonyms": []
        },
        {
          "conceptId": "C29167",
          "definition": "An emulsion, liquid (1) dosage form. This dosage form is generally for external application to the skin (2). Note 1: A liquid is pourable; it flows and conforms to its container at room temperature.  It displays Newtonian or pseudoplastic flow behavior. Note 2: Previously the definition of a lotion was: The term lotion has been used to categorize many topical suspensions, solutions, and emulsions intended for application to the skin. The current definition of a lotion is restricted to an emulsion. (FDA)",
          "preferredTerm": "Lotion Dosage Form",
          "submissionValue": "LOTION",
          "synonyms": []
        },
        {
          "conceptId": "C60957",
          "definition": "A lotion dosage form that enhances drug delivery. Augmentation does not refer to the strength of the drug in the dosage form. NOTE: CDER has decided to refrain from expanding the use of this dosage form due to difficulties in setting specific criteria that must be met to be considered augmented. (FDA)",
          "preferredTerm": "Augmented Lotion Dosage Form",
          "submissionValue": "LOTION. AUGMENTED",
          "synonyms": []
        },
        {
          "conceptId": "C60958",
          "definition": "A lotion dosage form which has a soap or detergent that is usually used to clean the hair and scalp; it is often used as a vehicle for dermatologic agents. (FDA)",
          "preferredTerm": "Lotion Shampoo Dosage Form",
          "submissionValue": "LOTION/SHAMPOO",
          "synonyms": []
        },
        {
          "conceptId": "C42955",
          "definition": "A solid preparation containing one or more medicaments, usually in a flavored, sweetened base which is intended to dissolve or disintegrate slowly in the mouth. A lollipop is a lozenge on a stick.(FDA)",
          "preferredTerm": "Lozenge Dosage Form",
          "submissionValue": "LOZENGE",
          "synonyms": []
        },
        {
          "conceptId": "C29269",
          "definition": "An aqueous solution which is most often used for its deodorant, refreshing, or antiseptic effect. (NCI)",
          "preferredTerm": "Mouthwash Dosage Form",
          "submissionValue": "MOUTHWASH",
          "synonyms": []
        },
        {
          "conceptId": "C48624",
          "definition": "The use of a dosage form term is not relevant or appropriate. (NCI)",
          "preferredTerm": "Dosage Form Not Applicable",
          "submissionValue": "NOT APPLICABLE",
          "synonyms": []
        },
        {
          "conceptId": "C42965",
          "definition": "An unctuous, combustible substance which is liquid, or easily liquefiable, on warming, and is soluble in ether but insoluble in water. Such substances, depending on their origin, are classified as animal, mineral, or vegetable oils. (NCI)",
          "preferredTerm": "Oil Dosage Form",
          "submissionValue": "OIL",
          "synonyms": []
        },
        {
          "conceptId": "C42966",
          "definition": "A suspension or emulsion, semisolid (1) dosage form, usually containing < 20% water and volatiles (2) and > 50% hydrocarbons, waxes, or polyols as the vehicle. This dosage form is generally for external application to the skin or mucous membranes. Note 1: A semisolid is not pourable; it does not flow or conform to its container at room temperature. It does not flow at low shear stress and generally exhibits plastic flow behavior. Note 2: Percent water and volatiles are measured by a loss on drying test in which the sample is heated at 105 degrees C until constant weight is achieved. (NCI)",
          "preferredTerm": "Ointment Dosage Form",
          "submissionValue": "OINTMENT",
          "synonyms": []
        },
        {
          "conceptId": "C60984",
          "definition": "An ointment dosage form that enhances drug delivery. Augmentation does not refer to the strength of the drug in the dosage form. NOTE: CDER has decided to refrain from expanding the use of this dosage form due to difficulties in setting specific criteria that must be met to be considered augmented. (FDA)",
          "preferredTerm": "Augmented Ointment Dosage Form",
          "submissionValue": "OINTMENT, AUGMENTED",
          "synonyms": []
        },
        {
          "conceptId": "C47887",
          "definition": "A material, usually covered by or impregnated with a drug, that is inserted into a body cavity or between the tooth enamel and the gingival margin.(FDA)",
          "preferredTerm": "Packing Dosage Form",
          "submissionValue": "PACKING",
          "synonyms": []
        },
        {
          "conceptId": "C42967",
          "definition": "A semisolid dosage form, containing a large proportion (20 - 50%) of solids finely dispersed in a fatty vehicle. This dosage form is generally for external application to the skin or mucous membranes. Note: A semisolid is not pourable; it does not flow or conform to its container at room temperature. It does not flow at low shear stress and generally exhibits plastic flow behavior. (NCI)",
          "preferredTerm": "Paste Dosage Form",
          "submissionValue": "PASTE",
          "synonyms": []
        },
        {
          "conceptId": "C42907",
          "definition": "A paste formulation intended to clean and/or polish the teeth, and which may contain certain additional agents. (NCI)",
          "preferredTerm": "Dentifrice Paste Dosage Form",
          "submissionValue": "PASTE, DENTIFRICE",
          "synonyms": []
        },
        {
          "conceptId": "C60985",
          "definition": "An aromatic preparation, often with a pleasing flavor, usually intended to dissolve in the mouth. (FDA)",
          "preferredTerm": "Pastille Dosage Form",
          "submissionValue": "PASTILLE",
          "synonyms": []
        },
        {
          "conceptId": "C42968",
          "definition": "A drug delivery system that often contains an adhesive backing that is usually applied to an external site on the body.  Its ingredients either passively diffuse from, or are actively transported from, some portion of the patch.  Depending upon the patch, the ingredients are either delivered to the outer surface of the body or into the body.  A patch is sometimes synonymous with the terms Extended Release Film and System. (NCI)",
          "preferredTerm": "Patch Dosage Form",
          "submissionValue": "PATCH",
          "synonyms": []
        },
        {
          "conceptId": "C42923",
          "definition": "A drug delivery system in the form of a patch that releases the drug in such a manner that a reduction in dosing frequency compared to that drug presented as a conventional dosage form (e.g., a solution or a prompt drug-releasing, conventional solid dosage form). (NCI)",
          "preferredTerm": "Extended Release Patch Dosage Form",
          "submissionValue": "PATCH, EXTENDED RELEASE",
          "synonyms": []
        },
        {
          "conceptId": "C42911",
          "definition": "A drug delivery system in the form of a patch which is controlled by an electric current that releases the drug in such a manner that a reduction in dosing frequency compared to that drug presented as a conventional dosage form (e.g., a solution or a prompt drug-releasing, conventional solid dosage form). (NCI)",
          "preferredTerm": "Electrically Controlled Extended Release Patch Dosage Form",
          "submissionValue": "PATCH, EXTENDED RELEASE, ELECTRICALLY CONTROLLED",
          "synonyms": []
        },
        {
          "conceptId": "C42969",
          "definition": "A small sterile solid mass consisting of a highly purified drug (with or without excipients) made by the formation of granules, or by compression and molding. (NCI)",
          "preferredTerm": "Pellet Dosage Form",
          "submissionValue": "PELLET",
          "synonyms": []
        },
        {
          "conceptId": "C42943",
          "definition": "A small sterile solid mass consisting of a highly purified drug (with or without excipients) made by the formation of granules, or by compression and molding; they are intended for implantation in the body (usually subcutaneously) for the purpose of providing continuous release of the drug over long periods of time. (NCI)",
          "preferredTerm": "Implantable Pellet Dosage Form",
          "submissionValue": "PELLET, IMPLANTABLE",
          "synonyms": []
        },
        {
          "conceptId": "C42918",
          "definition": "A solid dosage form in which the drug itself is in the form of granules to which varying amounts of coating have been applied, and which releases a drug (or drugs) in such a manner to allow a reduction in dosing frequency as compared to that drug (or drugs) presented as a conventional dosage form. (NCI)",
          "preferredTerm": "Extended Release Coated Pellets Dosage Form",
          "submissionValue": "PELLETS, COATED, EXTENDED RELEASE",
          "synonyms": []
        },
        {
          "conceptId": "C25394",
          "definition": "A dose of medicine in the form of a small pellet. (NCI)",
          "preferredTerm": "Pill Dosage Form",
          "submissionValue": "PILL",
          "synonyms": []
        },
        {
          "conceptId": "C42970",
          "definition": "Substance intended for external application made of such materials and of such consistency as to adhere to the skin and attach to a dressing; plasters are intended to afford protection and support and/or to furnish an occlusion and macerating action and to bring medication into close contact with the skin. (NCI)",
          "preferredTerm": "Plaster Dosage Form",
          "submissionValue": "PLASTER",
          "synonyms": []
        },
        {
          "conceptId": "C47913",
          "definition": "A soft, moist mass of meal, herbs, seed, etc., usually applied hot in cloth that consists of gruel-like consistency. (NCI)",
          "preferredTerm": "Poultice Dosage Form",
          "submissionValue": "POULTICE",
          "synonyms": []
        },
        {
          "conceptId": "C42972",
          "definition": "An intimate mixture of dry, finely divided drugs and/or chemicals that may be intended for internal or external use. (NCI)",
          "preferredTerm": "Powder Dosage Form",
          "submissionValue": "POWDER",
          "synonyms": []
        },
        {
          "conceptId": "C42908",
          "definition": "A powder formulation intended to clean and/or polish the teeth, and which may contain certain additional agents. (NCI)",
          "preferredTerm": "Dentifrice Powder Dosage Form",
          "submissionValue": "POWDER, DENTIFRICE",
          "synonyms": []
        },
        {
          "conceptId": "C42973",
          "definition": "An intimate mixture of dry, finely divided drugs and/or chemicals, which, upon the addition of suitable vehicles, yields a solution. (NCI)",
          "preferredTerm": "Powder for Solution Dosage Form",
          "submissionValue": "POWDER, FOR SOLUTION",
          "synonyms": []
        },
        {
          "conceptId": "C42975",
          "definition": "An intimate mixture of dry, finely divided drugs and/or chemicals, which, upon the addition of suitable vehicles, yields a suspension (a liquid preparation containing the solid particles dispersed in the liquid vehicle). (NCI)",
          "preferredTerm": "Powder for Suspension Dosage Form",
          "submissionValue": "POWDER, FOR SUSPENSION",
          "synonyms": []
        },
        {
          "conceptId": "C42961",
          "definition": "A powder dosage form that is situated inside a container that has a mechanism to deliver a specified quantity. (NCI)",
          "preferredTerm": "Metered Powder Dosage Form",
          "submissionValue": "POWDER, METERED",
          "synonyms": []
        },
        {
          "conceptId": "C60988",
          "definition": "A small circular object with a vacant circular center that is usually intended to be placed in the body by special inserters, where the medication is released, generally for localized effects. (FDA)",
          "preferredTerm": "Ring Dosage Form",
          "submissionValue": "RING",
          "synonyms": []
        },
        {
          "conceptId": "C42979",
          "definition": "A liquid used to cleanse by flushing. (NCI)",
          "preferredTerm": "Rinse Dosage Form",
          "submissionValue": "RINSE",
          "synonyms": []
        },
        {
          "conceptId": "C42980",
          "definition": "A thick ointment or cerate (a fat or wax based preparation with a consistency between an ointment and a plaster). (NCI)",
          "preferredTerm": "Salve Dosage Form",
          "submissionValue": "SALVE",
          "synonyms": []
        },
        {
          "conceptId": "C42981",
          "definition": "A liquid soap or detergent used to clean the hair and scalp and is often used as a vehicle for dermatologic agents. (NCI)",
          "preferredTerm": "Shampoo Dosage Form",
          "submissionValue": "SHAMPOO",
          "synonyms": []
        },
        {
          "conceptId": "C42982",
          "definition": "A liquid soap or detergent containing one or more solid, insoluble substances dispersed in a liquid vehicle that is used to clean the hair and scalp and is often used as a vehicle for dermatologic agents. (NCI)",
          "preferredTerm": "Shampoo Suspension Dosage Form",
          "submissionValue": "SHAMPOO, SUSPENSION",
          "synonyms": []
        },
        {
          "conceptId": "C42983",
          "definition": "Any compound of one or more fatty acids, or their equivalents, with an alkali; soap is detergent and is much employed in liniments, enemas, and in making pills. It is also a mild aperient, antacid and antiseptic. (NCI)",
          "preferredTerm": "Soap Dosage Form",
          "submissionValue": "SOAP",
          "synonyms": []
        },
        {
          "conceptId": "C42986",
          "definition": "A clear, homogeneous liquid dosage form that contains one or more chemical substances dissolved in a solvent or mixture of mutually miscible solvents. Note: A liquid is pourable; it flows and conforms to its container at room temperature. It displays Newtonian or pseudoplastic flow behavior. (NCI)",
          "preferredTerm": "Solution Dosage Form",
          "submissionValue": "SOLUTION",
          "synonyms": []
        },
        {
          "conceptId": "C42898",
          "definition": "A liquid preparation (i.e., a substance that flows readily in its natural state) that contains a drug dissolved in a suitable solvent or mixture of mutually miscible solvents; the drug has been strengthened by the evaporation of its non-active parts. (NCI)",
          "preferredTerm": "Concentrate for Solution Dosage Form",
          "submissionValue": "SOLUTION, CONCENTRATE",
          "synonyms": []
        },
        {
          "conceptId": "C42987",
          "definition": "A solution for the preparation of an iced saline slush, which is administered by irrigation and used to induce regional hypothermia (in conditions such as certain open heart and kidney surgical procedures) by its direct application. (NCI)",
          "preferredTerm": "Solution For Slush Dosage Form",
          "submissionValue": "SOLUTION, FOR SLUSH",
          "synonyms": []
        },
        {
          "conceptId": "C60994",
          "definition": "A solution, which after usually being administered in a drop-wise fashion, forms a gel. (FDA)",
          "preferredTerm": "Gel Forming Drops Solution Dosage Form",
          "submissionValue": "SOLUTION, GEL FORMING / DROPS",
          "synonyms": []
        },
        {
          "conceptId": "C42935",
          "definition": "A solution that forms a gel when it comes in contact with ocular fluid, and which allows at least a reduction in dosing frequency",
          "preferredTerm": "Extended Release Gel Forming Solution Dosage Form",
          "submissionValue": "SOLUTION, GEL FORMING, EXTENDED RELEASE",
          "synonyms": []
        },
        {
          "conceptId": "C60992",
          "definition": "A solution which is usually administered in a drop-wise fashion. (FDA)",
          "preferredTerm": "Drops Solution Dosage Form",
          "submissionValue": "SOLUTION/ DROPS",
          "synonyms": []
        },
        {
          "conceptId": "C47912",
          "definition": "A porous, interlacing, absorbent material that contains a drug.  It is typically used for applying or introducing medication, or for cleansing.  A sponge usually retains its shape.(FDA)",
          "preferredTerm": "Sponge Dosage Form",
          "submissionValue": "SPONGE",
          "synonyms": []
        },
        {
          "conceptId": "C42989",
          "definition": "A liquid minutely divided as by a jet of air or steam. (NCI)",
          "preferredTerm": "Spray Dosage Form",
          "submissionValue": "SPRAY",
          "synonyms": []
        },
        {
          "conceptId": "C42962",
          "definition": "A non-pressurized dosage form consisting of valves which allow the dispensing of a specified quantity of spray upon each activation. (NCI)",
          "preferredTerm": "Metered Spray Dosage Form",
          "submissionValue": "SPRAY, METERED",
          "synonyms": []
        },
        {
          "conceptId": "C42990",
          "definition": "A liquid preparation containing solid particles dispersed in a liquid vehicle and in the form of coarse droplets or as finely divided solids to be applied locally, most usually to the nasal-pharyngeal tract, or topically to the skin. (NCI)",
          "preferredTerm": "Spray Suspension Dosage Form",
          "submissionValue": "SPRAY, SUSPENSION",
          "synonyms": []
        },
        {
          "conceptId": "C42991",
          "definition": "A dosage form prepared in a relatively long and slender often cylindrical form. (NCI)",
          "preferredTerm": "Stick Dosage Form",
          "submissionValue": "STICK",
          "synonyms": []
        },
        {
          "conceptId": "C47914",
          "definition": "A long narrow piece of material.",
          "preferredTerm": "Strip Dosage Form",
          "submissionValue": "STRIP",
          "synonyms": []
        },
        {
          "conceptId": "C42993",
          "definition": "A solid body of various weights and shapes, adapted for introduction into the rectal, vaginal, or urethral orifice of the human body; they usually melt, soften, or dissolve at body temperature. (NCI)",
          "preferredTerm": "Suppository Dosage Form",
          "submissionValue": "SUPPOSITORY",
          "synonyms": []
        },
        {
          "conceptId": "C42924",
          "definition": "A drug delivery system in the form of a suppository that allows at least a reduction in dosing frequency. (NCI)",
          "preferredTerm": "Extended Release Suppository Dosage Form",
          "submissionValue": "SUPPOSITORY, EXTENDED RELEASE",
          "synonyms": []
        },
        {
          "conceptId": "C42994",
          "definition": "A liquid dosage form that contains solid particles dispersed in a liquid vehicle. Note: A liquid is pourable; it flows and conforms to its container at room temperature. It displays Newtonian or pseudoplastic flow behavior.(FDA)",
          "preferredTerm": "Suspension Dosage Form",
          "submissionValue": "SUSPENSION",
          "synonyms": []
        },
        {
          "conceptId": "C42925",
          "definition": "A liquid preparation consisting of solid particles dispersed throughout a liquid phase in which the particles are not soluble; the suspension has been formulated in a manner to allow at least a reduction in dosing frequency as compared to that drug presented as a conventional dosage form (e.g., as a solution or a prompt drug-releasing, conventional solid dosage form). (NCI)",
          "preferredTerm": "Extended Release Suspension Dosage Form",
          "submissionValue": "SUSPENSION, EXTENDED RELEASE",
          "synonyms": []
        },
        {
          "conceptId": "C60995",
          "definition": "A suspension which is usually administered in a dropwise fashion. (FDA)",
          "preferredTerm": "Drops Suspension Dosage Form",
          "submissionValue": "SUSPENSION/DROPS",
          "synonyms": []
        },
        {
          "conceptId": "C47889",
          "definition": "A strand or fiber used to hold wound edges in apposition during healing. (NCI)",
          "preferredTerm": "Suture Dosage Form",
          "submissionValue": "SUTURE",
          "synonyms": []
        },
        {
          "conceptId": "C47898",
          "definition": "A small piece of relatively flat absorbent material that contains a drug.  A swab may also be attached to one end of a small stick.  A swab is typically used for applying medication or for cleansing. (NCI)",
          "preferredTerm": "Swab Dosage Form",
          "submissionValue": "SWAB",
          "synonyms": []
        },
        {
          "conceptId": "C42996",
          "definition": "An oral solution containing high concentrations of sucrose or other sugars; the term has also been used to include any other liquid dosage form prepared in a sweet and viscid vehicle, including oral suspensions.  (NCI)",
          "preferredTerm": "Syrup Dosage Form",
          "submissionValue": "SYRUP",
          "synonyms": []
        },
        {
          "conceptId": "C42998",
          "definition": "A solid dosage form containing medicinal substances with or without suitable diluents.  (NCI)",
          "preferredTerm": "Tablet Dosage Form",
          "submissionValue": "TABLET",
          "synonyms": []
        },
        {
          "conceptId": "C42893",
          "definition": "A solid dosage form containing medicinal substances with or without suitable diluents that is intended to be chewed, producing a pleasant tasting residue in the oral cavity that is easily swallowed and does not leave a bitter or unpleasant after-taste. (NCI)",
          "preferredTerm": "Chewable Tablet Dosage Form",
          "submissionValue": "TABLET, CHEWABLE",
          "synonyms": []
        },
        {
          "conceptId": "C42897",
          "definition": "A solid dosage form that contains medicinal substances with or without suitable diluents and is covered with a designated coating. (NCI)",
          "preferredTerm": "Coated Tablet Dosage Form",
          "submissionValue": "TABLET, COATED",
          "synonyms": []
        },
        {
          "conceptId": "C60997",
          "definition": "A solid dosage form containing a conglomerate of medicinal particles that have each been covered with a coating. (FDA)",
          "preferredTerm": "Tablet Coated Particles Dosage Form",
          "submissionValue": "TABLET, COATED PARTICLES",
          "synonyms": []
        },
        {
          "conceptId": "C42905",
          "definition": "A solid dosage form which releases a drug (or drugs) at a time other than promptly after administration. Enteric-coated articles are delayed release dosage forms. (NCI)",
          "preferredTerm": "Delayed Release Tablet Dosage Form",
          "submissionValue": "TABLET, DELAYED RELEASE",
          "synonyms": []
        },
        {
          "conceptId": "C42997",
          "definition": "A solid dosage form containing a conglomerate of medicinal particles that have been covered with a coating which releases a drug (or drugs) at a time other than promptly after administration. Enteric-coated articles are delayed release dosage forms.  (NCI)",
          "preferredTerm": "Delayed Release Particles Tablet Dosage Form",
          "submissionValue": "TABLET, DELAYED RELEASE PARTICLES",
          "synonyms": []
        },
        {
          "conceptId": "C42910",
          "definition": "A solid dosage form containing mixtures of acids (e.g., citric acid, tartaric acid) and sodium bicarbonate, which release carbon dioxide when dissolved in water; it is intended to be dissolved or dispersed in water before administration.(FDA)",
          "preferredTerm": "Effervescent Tablet Dosage Form",
          "submissionValue": "TABLET, EFFERVESCENT",
          "synonyms": []
        },
        {
          "conceptId": "C42927",
          "definition": "A solid dosage form containing a drug which allows at least a reduction in dosing frequency as compared to that drug presented in conventional dosage form. (NCI)",
          "preferredTerm": "Extended Release Tablet Dosage Form",
          "submissionValue": "TABLET, EXTENDED RELEASE",
          "synonyms": []
        },
        {
          "conceptId": "C42931",
          "definition": "A solid dosage form that contains medicinal substances with or without suitable diluents and is coated with a thin layer of a water-insoluble or water-soluble polymer. (NCI)",
          "preferredTerm": "Film Coated Tablet Dosage Form",
          "submissionValue": "TABLET, FILM COATED",
          "synonyms": []
        },
        {
          "conceptId": "C42930",
          "definition": "A solid dosage form that contains medicinal substances with or without suitable diluents and is coated with a thin layer of a water-insoluble or water-soluble polymer; the tablet is formulated in such manner as to make the contained medicament available over an extended period of time following ingestion. (NCI)",
          "preferredTerm": "Film Coated Extended Release Tablet Dosage Form",
          "submissionValue": "TABLET, FILM COATED, EXTENDED RELEASE",
          "synonyms": []
        },
        {
          "conceptId": "C61004",
          "definition": "A tablet that forms a solution when placed in a liquid. (FDA)",
          "preferredTerm": "Tablet For Solution Dosage Form",
          "submissionValue": "TABLET, FOR SOLUTION",
          "synonyms": []
        },
        {
          "conceptId": "C61005",
          "definition": "A tablet that forms a suspension when placed in a liquid (formerly referred to as a Dispersible Tablet).",
          "preferredTerm": "Tablet For Suspension Dosage Form",
          "submissionValue": "TABLET, FOR SUSPENSION",
          "synonyms": [
            "TABLET, DISPERSIBLE"
          ]
        },
        {
          "conceptId": "C42964",
          "definition": "A solid dosage form containing medicinal substances that have been compressed to form a multiple-layered tablet or a tablet-within-a-tablet, the inner tablet being the core and the outer portion being the shell. (NCI)",
          "preferredTerm": "Multilayered Tablet Dosage Form",
          "submissionValue": "TABLET, MULTILAYER",
          "synonyms": []
        },
        {
          "conceptId": "C42963",
          "definition": "A solid dosage form containing medicinal substances that have been compressed to form a multiple-layered tablet or a tablet-within-a-tablet, the inner tablet being the core and the outer portion being the shell, which, additionally, is covered in a designated coating; the tablet is formulated in such manner as to allow at least a reduction in dosing frequency as compared to that drug presented as a conventional dosage form. (NCI)",
          "preferredTerm": "Multilayered Extended Release Tablet Dosage Form",
          "submissionValue": "TABLET, MULTILAYER, EXTENDED RELEASE",
          "synonyms": []
        },
        {
          "conceptId": "C42999",
          "definition": "A solid dosage form containing medicinal substances which disintegrates rapidly, usually within a matter of seconds, when placed upon the tongue.  (NCI)",
          "preferredTerm": "Orally Disintegrating Tablet Dosage Form",
          "submissionValue": "TABLET, ORALLY DISINTEGRATING",
          "synonyms": []
        },
        {
          "conceptId": "C61006",
          "definition": "A solid dosage form containing medicinal substances which disintegrates rapidly, usually within a matter of seconds, when placed upon the tongue, but which releases a drug (or drugs) at a time other than promptly after administration. (FDA)",
          "preferredTerm": "Tablet Orally Disintegrating Delayed Release Dosage Form",
          "submissionValue": "TABLET, ORALLY DISINTEGRATING, DELAYED RELEASE",
          "synonyms": []
        },
        {
          "conceptId": "C42985",
          "definition": "A solid dosage form that contains medicinal substances with or without suitable diluents and possesses the ability to dissolve in fluids. (NCI)",
          "preferredTerm": "Soluble Tablet Dosage Form",
          "submissionValue": "TABLET, SOLUBLE",
          "synonyms": []
        },
        {
          "conceptId": "C42992",
          "definition": "A solid dosage form that contains medicinal substances with or without suitable diluents and is coated with a colored or an uncolored water-soluble sugar. (NCI)",
          "preferredTerm": "Sugar Coated Tablet Dosage Form",
          "submissionValue": "TABLET, SUGAR COATED",
          "synonyms": []
        },
        {
          "conceptId": "C47892",
          "definition": "A plug made of cotton, sponge, or oakum variously used in surgery to plug the nose, vagina, etc., for the control of hemorrhage or the absorption of secretions. (NCI)",
          "preferredTerm": "Tampon Dosage Form",
          "submissionValue": "TAMPON",
          "synonyms": []
        },
        {
          "conceptId": "C47897",
          "definition": "A narrow woven fabric, or a narrow extruded synthetic (such as plastic), usually with an adhesive on one or both sides. (NCI)",
          "preferredTerm": "Tape Dosage Form",
          "submissionValue": "TAPE",
          "synonyms": []
        },
        {
          "conceptId": "C43000",
          "definition": "An alcoholic or hydroalcoholic solution prepared from vegetable materials or from chemical substances.  (NCI)",
          "preferredTerm": "Tincture Dosage Form",
          "submissionValue": "TINCTURE",
          "synonyms": []
        },
        {
          "conceptId": "C43001",
          "definition": "A discoid-shaped solid containing the medicinal agent in a suitably flavored base; troches are placed in the mouth where they slowly dissolve, liberating the active ingredients.  (NCI)",
          "preferredTerm": "Troche Dosage Form",
          "submissionValue": "TROCHE",
          "synonyms": []
        },
        {
          "conceptId": "C43002",
          "definition": "A dosage form has yet to be assigned.  (NCI)",
          "preferredTerm": "Unassigned Dosage Form",
          "submissionValue": "UNASSIGNED",
          "synonyms": []
        },
        {
          "conceptId": "C43003",
          "definition": "A thin slice of material containing a medicinal agent.  (NCI)",
          "preferredTerm": "Wafer Dosage Form",
          "submissionValue": "WAFER",
          "synonyms": []
        }
      ]
    },
    {
      "conceptId": "C49627",
      "definition": "The reason that a subject was discontinued from a clinical trial.",
      "extensible": "Yes",
      "name": "Reason for Non-Completion",
      "preferredTerm": "",
      "submissionValue": "[NCOMPLT]",
      "synonyms": [
        "Completion/Reason for Non-Completion"
      ],
      "terms": [
        {
          "conceptId": "C41331",
          "definition": "Any untoward medical occurrence in a patient or clinical investigation subject administered a pharmaceutical product and which does not necessarily have a causal relationship with this treatment. An adverse event (AE) can therefore be any unintended sign (including an abnormal laboratory finding), symptom,or disease temporally associated with the use of a medicinal (investigational) product, whether or not related to the medicinal (investigational) product. NOTE: For further information, see the ICH Guideline for Clinical Safety Data Management: Definitions and Standards for Expedited Reporting. \u201c[Modified from ICH E2A]\u201d Synonyms: side effect, adverse experience. See also serious adverse event, serious adverse experience.  (CDISC glossary)",
          "preferredTerm": "Adverse Event",
          "submissionValue": "ADVERSE EVENT",
          "synonyms": []
        },
        {
          "conceptId": "C25250",
          "definition": "To possess every necessary or normal part or component or step; having come or been brought to a conclusion. (NCI)",
          "preferredTerm": "Complete",
          "submissionValue": "COMPLETED",
          "synonyms": []
        },
        {
          "conceptId": "C28554",
          "definition": "The absence of life or state of being dead. (NCI)",
          "preferredTerm": "Death",
          "submissionValue": "DEATH",
          "synonyms": []
        },
        {
          "conceptId": "C48226",
          "definition": "The lack of expected or desired effect related to a therapy. (NCI)",
          "preferredTerm": "Lack of Efficacy",
          "submissionValue": "LACK OF EFFICACY",
          "synonyms": []
        },
        {
          "conceptId": "C48227",
          "definition": "The loss or lack of continuation of follow-up after a study has officially closed.  See Follow-up. (NCI)",
          "preferredTerm": "Lost To Follow-up",
          "submissionValue": "LOST TO FOLLOW-UP",
          "synonyms": []
        },
        {
          "conceptId": "C49631",
          "definition": "An indication that a subject has not agreed with or followed the instructions related to the study medication. (NCI)",
          "preferredTerm": "Non-Compliance With Study Drug",
          "submissionValue": "NON-COMPLIANCE WITH STUDY DRUG",
          "synonyms": []
        },
        {
          "conceptId": "C17649",
          "definition": "Different than the one(s) previously specified or mentioned. (NCI)",
          "preferredTerm": "Other",
          "submissionValue": "OTHER",
          "synonyms": [
            "Other"
          ]
        },
        {
          "conceptId": "C48250",
          "definition": "A position, opinion or judgment reached after consideration by a physician with reference to subject. (NCI)",
          "preferredTerm": "Physician Decision",
          "submissionValue": "PHYSICIAN DECISION",
          "synonyms": []
        },
        {
          "conceptId": "C25742",
          "definition": "Pregnancy is the state or condition of having a developing embryo or fetus in the body (uterus), after union of an ovum and spermatozoon, during the period from conception to birth. (NCI)",
          "preferredTerm": "Pregnancy",
          "submissionValue": "PREGNANCY",
          "synonyms": []
        },
        {
          "conceptId": "C35571",
          "definition": "A disease process that is increasing in scope or severity. (NCI)",
          "preferredTerm": "Progressive Disease",
          "submissionValue": "PROGRESSIVE DISEASE",
          "synonyms": []
        },
        {
          "conceptId": "C48251",
          "definition": "An event or decision that stands in contrast to the guidelines set out by the protocol. (NCI)",
          "preferredTerm": "Protocol Violation",
          "submissionValue": "PROTOCOL VIOLATION",
          "synonyms": []
        },
        {
          "conceptId": "C25746",
          "definition": "A healing process and/or an outcome implying relative health.  The term is typically used in the context of direct and indirect effects of sickness or injury. (NCI)",
          "preferredTerm": "Recovery",
          "submissionValue": "RECOVERY",
          "synonyms": []
        },
        {
          "conceptId": "C49628",
          "definition": "The potential subject who does not meet one or more criteria required for participation in a trial.",
          "preferredTerm": "Trial Screen Failure",
          "submissionValue": "SCREEN FAILURE",
          "synonyms": []
        },
        {
          "conceptId": "C49632",
          "definition": "An indication that a clinical study was stopped by its sponsor.  (NCI)",
          "preferredTerm": "Study Terminated By Sponsor",
          "submissionValue": "STUDY TERMINATED BY SPONSOR",
          "synonyms": []
        },
        {
          "conceptId": "C49633",
          "definition": "A problem with some technical aspect of a clinical study, usually related to an instrument.  (NCI)",
          "preferredTerm": "Technical Problem",
          "submissionValue": "TECHNICAL PROBLEMS",
          "synonyms": []
        },
        {
          "conceptId": "C49634",
          "definition": "An indication that a study participant has removed itself from the study.  (NCI)",
          "preferredTerm": "Withdrawal by Subject",
          "submissionValue": "WITHDRAWAL BY SUBJECT",
          "synonyms": []
        }
      ]
    },
    {
      "conceptId": "C49638",
      "definition": "The name of a code list that contains terms that reference timepoints within and without a defined time period.",
      "extensible": "No",
      "name": "Relation to Reference Period",
      "preferredTerm": "",
      "submissionValue": "[STENRF]",
      "synonyms": [
        "Relation to Reference Period"
      ],
      "terms": [
        {
          "conceptId": "C38008",
          "definition": "The time period following a point or another period of time. (NCI)",
          "preferredTerm": "Status Post",
          "submissionValue": "AFTER",
          "synonyms": []
        },
        {
          "conceptId": "C25629",
          "definition": "Earlier in time or order. (NCI)",
          "preferredTerm": "Prior",
          "submissionValue": "BEFORE",
          "synonyms": []
        },
        {
          "conceptId": "C25490",
          "definition": "At some point in a given period of time. (NCI)",
          "preferredTerm": "During",
          "submissionValue": "DURING",
          "synonyms": []
        },
        {
          "conceptId": "C49640",
          "definition": "Within a certain period of time or after a certain point or period in time. (NCI)",
          "preferredTerm": "During Or After",
          "submissionValue": "DURING/AFTER",
          "synonyms": []
        },
        {
          "conceptId": "C17998",
          "definition": "Not known, not observed, not recorded, or refused. (NCI)",
          "preferredTerm": "Unknown",
          "submissionValue": "U",
          "synonyms": [
            "UNKNOWN",
            "Unknown"
          ]
        }
      ]
    },
    {
      "conceptId": "C38114",
      "definition": "The course by which a substance was administered in order to reach the site of action in the body.",
      "extensible": "Yes",
      "name": "Route of Administration",
      "preferredTerm": "",
      "submissionValue": "[ROUTE]",
      "synonyms": [
        "Route of Administration"
      ],
      "terms": [
        {
          "conceptId": "C38192",
          "definition": "Administration to or by way of the ear.(FDA)",
          "preferredTerm": "Auricular Route of Administration",
          "submissionValue": "AURICULAR (OTIC)",
          "synonyms": []
        },
        {
          "conceptId": "C38193",
          "definition": "Administration directed toward the cheek, generally from within the mouth.(FDA)",
          "preferredTerm": "Buccal Route of Administration",
          "submissionValue": "BUCCAL",
          "synonyms": []
        },
        {
          "conceptId": "C38194",
          "definition": "Administration to the conjunctiva, the delicate membrane that lines the eyelids and covers the exposed surface of the eyeball.(FDA)",
          "preferredTerm": "Conjunctival Route of Administration",
          "submissionValue": "CONJUNCTIVAL",
          "synonyms": []
        },
        {
          "conceptId": "C38675",
          "definition": "Administration to the skin.(FDA)",
          "preferredTerm": "Cutaneous Route of Administration",
          "submissionValue": "CUTANEOUS",
          "synonyms": []
        },
        {
          "conceptId": "C38197",
          "definition": "Administration to a tooth or teeth.(FDA)",
          "preferredTerm": "Dental Route of Administration",
          "submissionValue": "DENTAL",
          "synonyms": []
        },
        {
          "conceptId": "C38633",
          "definition": "Administration of through the diffusion of substance through a membrane in an electric field.(FDA)",
          "preferredTerm": "Electro-osmosis Route of Administration",
          "submissionValue": "ELECTRO-OSMOSIS",
          "synonyms": []
        },
        {
          "conceptId": "C38205",
          "definition": "Administration within the canal of the cervix uteri. Synonymous with the term intracervical.(FDA)",
          "preferredTerm": "Endocervical Route of Administration",
          "submissionValue": "ENDOCERVICAL",
          "synonyms": []
        },
        {
          "conceptId": "C38206",
          "definition": "Administration within the nasal sinuses of the head.(FDA)",
          "preferredTerm": "Endosinusial Route of Administration",
          "submissionValue": "ENDOSINUSIAL",
          "synonyms": []
        },
        {
          "conceptId": "C38208",
          "definition": "Administration directly into the trachea. Synonymous with the term intratracheal.(FDA)",
          "preferredTerm": "Endotracheal Route of Administration",
          "submissionValue": "ENDOTRACHEAL",
          "synonyms": []
        },
        {
          "conceptId": "C38209",
          "definition": "Administration directly into the intestines.(FDA)",
          "preferredTerm": "Enteral Route of Administration",
          "submissionValue": "ENTERAL",
          "synonyms": []
        },
        {
          "conceptId": "C38210",
          "definition": "Administration upon or over the dura mater.(FDA)",
          "preferredTerm": "Epidural Route of Administration",
          "submissionValue": "EPIDURAL",
          "synonyms": []
        },
        {
          "conceptId": "C38211",
          "definition": "Administration to the outside of the membrane enveloping the fetus.(FDA)",
          "preferredTerm": "Extraamniotic Route of Administration",
          "submissionValue": "EXTRA-AMNIOTIC",
          "synonyms": []
        },
        {
          "conceptId": "C38212",
          "definition": "Administration outside of the body.(FDA)",
          "preferredTerm": "Extracorporeal Circulation Route of Administration",
          "submissionValue": "EXTRACORPOREAL",
          "synonyms": []
        },
        {
          "conceptId": "C38200",
          "definition": "Administration through hemodialysate fluid.(FDA)",
          "preferredTerm": "Administration Via Hemodialysis",
          "submissionValue": "HEMODIALYSIS",
          "synonyms": []
        },
        {
          "conceptId": "C38215",
          "definition": "Administration that results in substances passing into tissue spaces or into cells.(FDA)",
          "preferredTerm": "Infiltration Route of Administration",
          "submissionValue": "INFILTRATION",
          "synonyms": []
        },
        {
          "conceptId": "C38219",
          "definition": "Administration to or in the interstices of a tissue.(FDA)",
          "preferredTerm": "Interstitial Route of Administration",
          "submissionValue": "INTERSTITIAL",
          "synonyms": []
        },
        {
          "conceptId": "C38220",
          "definition": "Administration within the abdomen.(FDA)",
          "preferredTerm": "Intraabdominal Route of Administration",
          "submissionValue": "INTRA-ABDOMINAL",
          "synonyms": []
        },
        {
          "conceptId": "C38221",
          "definition": "Administration within the amnion.(FDA)",
          "preferredTerm": "Intraamniotic Route of Administration",
          "submissionValue": "INTRA-AMNIOTIC",
          "synonyms": []
        },
        {
          "conceptId": "C38222",
          "definition": "Administration within an artery or arteries.(FDA)",
          "preferredTerm": "Intraarterial Route of Administration",
          "submissionValue": "INTRA-ARTERIAL",
          "synonyms": []
        },
        {
          "conceptId": "C38223",
          "definition": "Administration within a joint.(FDA)",
          "preferredTerm": "Intraarticular Route of Administration",
          "submissionValue": "INTRA-ARTICULAR",
          "synonyms": []
        },
        {
          "conceptId": "C38224",
          "definition": "Administration within the bile, bile ducts or gallbladder.(FDA)",
          "preferredTerm": "Intrabiliary Route of Administration",
          "submissionValue": "INTRABILIARY",
          "synonyms": []
        },
        {
          "conceptId": "C38225",
          "definition": "Administration within a bronchus.(FDA)",
          "preferredTerm": "Intrabronchial Route of Administration",
          "submissionValue": "INTRABRONCHIAL",
          "synonyms": []
        },
        {
          "conceptId": "C38226",
          "definition": "Administration within a bursa.(FDA)",
          "preferredTerm": "Intrabursal Route of Administration",
          "submissionValue": "INTRABURSAL",
          "synonyms": []
        },
        {
          "conceptId": "C38227",
          "definition": "Administration within the heart.(FDA)",
          "preferredTerm": "Intracardiac Route of Administration",
          "submissionValue": "INTRACARDIAC",
          "synonyms": []
        },
        {
          "conceptId": "C38228",
          "definition": "Administration within a cartilage; endochondral.(FDA)",
          "preferredTerm": "Intracartilaginous Route of Administration",
          "submissionValue": "INTRACARTILAGINOUS",
          "synonyms": []
        },
        {
          "conceptId": "C38229",
          "definition": "Administration within the cauda equina.(FDA)",
          "preferredTerm": "Intracaudal Route of Administration",
          "submissionValue": "INTRACAUDAL",
          "synonyms": []
        },
        {
          "conceptId": "C38230",
          "definition": "Administration within a pathologic cavity, such as occurs in the lung in tuberculosis.(FDA)",
          "preferredTerm": "Intracavernous Route of Administration",
          "submissionValue": "INTRACAVERNOUS",
          "synonyms": []
        },
        {
          "conceptId": "C38231",
          "definition": "Administration within a non-pathologic cavity, such as that of the cervix, uterus, or penis, or such as that is formed as the result of a wound.(FDA)",
          "preferredTerm": "Intracavitary Route of Administration",
          "submissionValue": "INTRACAVITARY",
          "synonyms": []
        },
        {
          "conceptId": "C38232",
          "definition": "Administration within the cerebrum.(FDA)",
          "preferredTerm": "Intracerebral Route of Administration",
          "submissionValue": "INTRACEREBRAL",
          "synonyms": []
        },
        {
          "conceptId": "C38233",
          "definition": "Administration within the cisterna magna cerebellomedularis.(FDA)",
          "preferredTerm": "Intracisternal Route of Administration",
          "submissionValue": "INTRACISTERNAL",
          "synonyms": []
        },
        {
          "conceptId": "C38234",
          "definition": "Administration within the cornea (the transparent structure forming the anterior part of the fibrous tunic of the eye).(FDA)",
          "preferredTerm": "Intracorneal Route of Administration",
          "submissionValue": "INTRACORNEAL",
          "synonyms": []
        },
        {
          "conceptId": "C38217",
          "definition": "Administration of a drug within a portion of a tooth which is covered by enamel and which is separated from the roots by a slightly constricted region known as the neck.(FDA)",
