{"_links": {"parentPackage": {"href": "/mdr/ct/packages/sendct-2015-09-25", "title": "SEND Controlled Terminology Package 23 Effective 2015-09-25", "type": "Terminology"}, "priorVersion": {"href": "/mdr/ct/packages/sendct-2015-06-26/codelists/C85494", "title": "CDISC SDTM Pharmacokinetic Parameter Unit of Measure Terminology", "type": "Code List"}, "rootItem": {"href": "/mdr/root/ct/sendct/codelists/C85494", "title": "Version-agnostic anchor resource for codelist C85494", "type": "Root Value Domain"}, "self": {"href": "/mdr/ct/packages/sendct-2015-09-25/codelists/C85494", "title": "CDISC SDTM Pharmacokinetic Parameter Unit of Measure Terminology", "type": "Code List"}}, "conceptId": "C85494", "definition": "Units of measure for pharmacokinetic data and parameters.", "extensible": "true", "name": "PK Units of Measure", "preferredTerm": "CDISC SDTM Pharmacokinetic Parameter Unit of Measure Terminology", "submissionValue": "PKUNIT", "synonyms": ["PK Units of Measure"], "terms": [{"conceptId": "C25613", "definition": "A fraction or ratio with 100 understood as the denominator. (NCI)", "preferredTerm": "Percentage", "submissionValue": "%", "synonyms": ["Percentage"]}, {"conceptId": "C120727", "definition": "Liters per day (flow rate), divided by kilograms per meter squared (body mass index).", "preferredTerm": "Liter per Day per Kilogram per Meter Squared", "submissionValue": "(L/day)/(kg/m2)"}, {"conceptId": "C120728", "definition": "Liters per day (flow rate), divided by milligrams per day (daily dose).", "preferredTerm": "Liter per Day per Milligram per Day", "submissionValue": "(L/day)/(mg/day)"}, {"conceptId": "C120729", "definition": "Liters per day (flow rate), divided by milligrams per kilogram (dose normalized by body weight).", "preferredTerm": "Liter per Day per Milligram per Kilogram", "submissionValue": "(L/day)/(mg/kg)"}, {"conceptId": "C120730", "definition": "Liters per day (flow rate), divided by milligrams per kilogram per day (daily dose normalized by body weight).", "preferredTerm": "Liter per Day per Milligram per Kilogram per Day", "submissionValue": "(L/day)/(mg/kg/day)"}, {"conceptId": "C120731", "definition": "Liters per day (flow rate), divided by milligrams per meter squared (dose normalized by surface area).", "preferredTerm": "Liter per Day per Milligram per Meter Squared", "submissionValue": "(L/day)/(mg/m2)"}, {"conceptId": "C120732", "definition": "Liters per day (flow rate), divided by milligrams per meter squared per day (daily dose normalized by surface area).", "preferredTerm": "Liter per Day per Milligram per Meter Squared per Day", "submissionValue": "(L/day)/(mg/m2/day)"}, {"conceptId": "C120733", "definition": "Liters per day (flow rate), divided by micrograms per day (daily dose).", "preferredTerm": "Liter per Day per Microgram per Day", "submissionValue": "(L/day)/(ug/day)"}, {"conceptId": "C120734", "definition": "Liters per day (flow rate), divided by micrograms per kilogram (dose normalized by body weight).", "preferredTerm": "Liter per Day per Microgram per Kilogram", "submissionValue": "(L/day)/(ug/kg)"}, {"conceptId": "C120735", "definition": "Liters per day (flow rate), divided by micrograms per kilogram per day (daily dose normalized by body weight).", "preferredTerm": "Liter per Day per Microgram per Kilogram per Day", "submissionValue": "(L/day)/(ug/kg/day)"}, {"conceptId": "C120736", "definition": "Liters per day (flow rate), divided by micrograms per meter squared (dose normalized by surface area).", "preferredTerm": "Liter per Day per Microgram per Meter Squared", "submissionValue": "(L/day)/(ug/m2)"}, {"conceptId": "C120737", "definition": "Liters per day (flow rate), divided by micrograms per meter squared per day (daily dose normalized by surface area).", "preferredTerm": "Liter per Day per Microgram per Meter Squared per Day", "submissionValue": "(L/day)/(ug/m2/day)"}, {"conceptId": "C85657", "definition": "Liters per day (flow rate), divided by grams (weight).", "preferredTerm": "Liter per Gram per Day", "submissionValue": "(L/day)/g"}, {"conceptId": "C120738", "definition": "Liters per day (flow rate), divided by meters squared (surface area).", "preferredTerm": "Liter per Day per Meter Squared", "submissionValue": "(L/day)/m2"}, {"conceptId": "C85672", "definition": "Liters per day (flow rate), divided by milligrams (dose).", "preferredTerm": "Liter per Milligram per Day", "submissionValue": "(L/day)/mg"}, {"conceptId": "C85665", "definition": "Liters per day (flow rate), divided by micrograms (dose).", "preferredTerm": "Liter per Microgram per Day", "submissionValue": "(L/day)/ug"}, {"conceptId": "C120739", "definition": "Liters per hour (flow rate), divided by kilograms per meter squared (body mass index).", "preferredTerm": "Liter per Hour per Kilogram per Meter Squared", "submissionValue": "(L/h)/(kg/m2)"}, {"conceptId": "C120740", "definition": "Liters per hour (flow rate), divided by milligrams per day (daily dose).", "preferredTerm": "Liter per Hour per Milligram per Day", "submissionValue": "(L/h)/(mg/day)"}, {"conceptId": "C120741", "definition": "Liters per hour (flow rate), divided by milligrams per kilogram (dose normalized by body weight).", "preferredTerm": "Liter per Hour per Milligram per Kilogram", "submissionValue": "(L/h)/(mg/kg)"}, {"conceptId": "C120742", "definition": "Liters per hour (flow rate), divided by milligrams per kilogram per day (daily dose normalized by body weight).", "preferredTerm": "Liter per Hour per Milligram per Kilogram per Day", "submissionValue": "(L/h)/(mg/kg/day)"}, {"conceptId": "C120743", "definition": "Liters per hour (flow rate), divided by milligrams per meter squared (dose normalized by surface area).", "preferredTerm": "Liter per Hour per Milligram per Meter Squared", "submissionValue": "(L/h)/(mg/m2)"}, {"conceptId": "C120744", "definition": "Liters per hour (flow rate), divided by milligrams per meter squared per day (daily dose normalized by surface area).", "preferredTerm": "Liter per Hour per Milligram per Meter Squared per Day", "submissionValue": "(L/h)/(mg/m2/day)"}, {"conceptId": "C120745", "definition": "Liters per hour (flow rate), divided by micrograms per day (daily dose).", "preferredTerm": "Liter per Hour per Microgram per Day", "submissionValue": "(L/h)/(ug/day)"}, {"conceptId": "C120746", "definition": "Liters per hour (flow rate), divided by micrograms per kilogram (dose normalized by body weight).", "preferredTerm": "Liter per Hour per Microgram per Kilogram", "submissionValue": "(L/h)/(ug/kg)"}, {"conceptId": "C120747", "definition": "Liters per hour (flow rate), divided by micrograms per kilogram per day (daily dose normalized by body weight).", "preferredTerm": "Liter per Hour per Microgram per Kilogram per Day", "submissionValue": "(L/h)/(ug/kg/day)"}, {"conceptId": "C120748", "definition": "Liters per hour (flow rate), divided by micrograms per meter squared (dose normalized by surface area).", "preferredTerm": "Liter per Hour per Microgram per Meter Squared", "submissionValue": "(L/h)/(ug/m2)"}, {"conceptId": "C120749", "definition": "Liters per hour (flow rate), divided by micrograms per meter squared per day (daily dose normalized by surface area).", "preferredTerm": "Liter per Hour per Microgram per Meter Squared per Day", "submissionValue": "(L/h)/(ug/m2/day)"}, {"conceptId": "C85658", "definition": "Liters per hour (flow rate), divided by grams (weight).", "preferredTerm": "Liter per Gram per Hour", "submissionValue": "(L/h)/g"}, {"conceptId": "C85673", "definition": "Liters per hour (flow rate), divided by milligrams (dose).", "preferredTerm": "Liter per Milligram per Hour", "submissionValue": "(L/h)/mg"}, {"conceptId": "C85662", "definition": "Liters per hour (flow rate), divided by micrograms (dose).", "preferredTerm": "Liter per Microgram per Hour", "submissionValue": "(L/h)/ug"}, {"conceptId": "C120750", "definition": "Liters per minute (flow rate), divided by kilograms per meter squared (body mass index).", "preferredTerm": "Liter per Minute per Kilogram per Meter Squared", "submissionValue": "(L/min)/(kg/m2)"}, {"conceptId": "C120751", "definition": "Liters per minute (flow rate), divided by milligrams per day (daily dose).", "preferredTerm": "Liter per Minute per Milligram per Day", "submissionValue": "(L/min)/(mg/day)"}, {"conceptId": "C120752", "definition": "Liters per minute (flow rate), divided by milligrams per kilogram (dose normalized by body weight).", "preferredTerm": "Liter per Minute per Milligram per Kilogram", "submissionValue": "(L/min)/(mg/kg)"}, {"conceptId": "C120753", "definition": "Liters per minute (flow rate), divided by milligrams per kilogram per day (daily dose normalized by body weight).", "preferredTerm": "Liter per Minute per Milligram per Kilogram per Day", "submissionValue": "(L/min)/(mg/kg/day)"}, {"conceptId": "C120754", "definition": "Liters per minute (flow rate), divided by milligrams per meter squared (dose normalized by surface area).", "preferredTerm": "Liter per Minute per Milligram per Meter Squared", "submissionValue": "(L/min)/(mg/m2)"}, {"conceptId": "C120755", "definition": "Liters per minute (flow rate), divided by milligrams per meter squared per day (daily dose normalized by surface area).", "preferredTerm": "Liter per Minute per Milligram per Meter Squared per Day", "submissionValue": "(L/min)/(mg/m2/day)"}, {"conceptId": "C120756", "definition": "Liters per minute (flow rate), divided by micrograms per day (daily dose).", "preferredTerm": "Liter per Minute per Microgram per Day", "submissionValue": "(L/min)/(ug/day)"}, {"conceptId": "C120757", "definition": "Liters per minute (flow rate), divided by micrograms per kilogram (dose normalized by body weight).", "preferredTerm": "Liter per Minute per Microgram per Kilogram", "submissionValue": "(L/min)/(ug/kg)"}, {"conceptId": "C120758", "definition": "Liters per minute (flow rate), divided by micrograms per kilogram per day (daily dose normalized by body weight).", "preferredTerm": "Liter per Minute per Microgram per Kilogram per Day", "submissionValue": "(L/min)/(ug/kg/day)"}, {"conceptId": "C120759", "definition": "Liters per minute (flow rate), divided by micrograms per meter squared (dose normalized by surface area).", "preferredTerm": "Liter per Minute per Microgram per Meter Squared", "submissionValue": "(L/min)/(ug/m2)"}, {"conceptId": "C120760", "definition": "Liters per minute (flow rate), divided by micrograms per meter squared per day (daily dose normalized by surface area).", "preferredTerm": "Liter per Minute per Microgram per Meter Squared per Day", "submissionValue": "(L/min)/(ug/m2/day)"}, {"conceptId": "C85659", "definition": "Liters per minute (flow rate), divided by grams (weight).", "preferredTerm": "Liter per Gram per Minute", "submissionValue": "(L/min)/g"}, {"conceptId": "C85674", "definition": "Liters per minute (flow rate), divided by milligrams (dose).", "preferredTerm": "Liter per Milligram per Minute", "submissionValue": "(L/min)/mg"}, {"conceptId": "C85666", "definition": "Liters per minute (flow rate), divided by micrograms (dose).", "preferredTerm": "Liter per Microgram per Minute", "submissionValue": "(L/min)/ug"}, {"conceptId": "C120761", "definition": "Milliliters per day (flow rate), divided by kilograms per meter squared (body mass index).", "preferredTerm": "Milliliter per Day per Kilogram per Meter Squared", "submissionValue": "(mL/day)/(kg/m2)"}, {"conceptId": "C120762", "definition": "Milliliters per day (flow rate), divided by milligrams per day (daily dose).", "preferredTerm": "Milliliter per Day per Milligram per Day", "submissionValue": "(mL/day)/(mg/day)"}, {"conceptId": "C120763", "definition": "Milliliters per day (flow rate), divided by milligrams per kilogram (dose normalized by body weight).", "preferredTerm": "Milliliter per Day per Milligram per Kilogram", "submissionValue": "(mL/day)/(mg/kg)"}, {"conceptId": "C120764", "definition": "Milliliters per day (flow rate), divided by milligrams per kilogram per day (daily dose normalized by body weight).", "preferredTerm": "Milliliter per Day per Milligram per Kilogram per Day", "submissionValue": "(mL/day)/(mg/kg/day)"}, {"conceptId": "C120765", "definition": "Milliliters per day (flow rate), divided by milligrams per meter squared (dose normalized by surface area).", "preferredTerm": "Milliliter per Day per Milligram per Meter Squared", "submissionValue": "(mL/day)/(mg/m2)"}, {"conceptId": "C120766", "definition": "Milliliters per day (flow rate), divided by milligrams per meter squared per day (daily dose normalized by surface area).", "preferredTerm": "Milliliter per Day per Milligram per Meter Squared per Day", "submissionValue": "(mL/day)/(mg/m2/day)"}, {"conceptId": "C120767", "definition": "Milliliters per day (flow rate), divided by micrograms per day (daily dose).", "preferredTerm": "Milliliter per Day per Microgram per Day", "submissionValue": "(mL/day)/(ug/day)"}, {"conceptId": "C120768", "definition": "Milliliters per day (flow rate), divided by micrograms per kilogram (dose normalized by body weight).", "preferredTerm": "Milliliter per Day per Microgram per Kilogram", "submissionValue": "(mL/day)/(ug/kg)"}, {"conceptId": "C120769", "definition": "Milliliters per day (flow rate), divided by micrograms per kilogram per day (daily dose normalized by body weight).", "preferredTerm": "Milliliter per Day per Microgram per Kilogram per Day", "submissionValue": "(mL/day)/(ug/kg/day)"}, {"conceptId": "C120770", "definition": "Milliliters per day (flow rate), divided by micrograms per meter squared (dose normalized by surface area).", "preferredTerm": "Milliliter per Day per Microgram per Meter Squared", "submissionValue": "(mL/day)/(ug/m2)"}, {"conceptId": "C120771", "definition": "Milliliters per day (flow rate), divided by micrograms per meter squared per day (daily dose normalized by surface area).", "preferredTerm": "Milliliter per Day per Microgram per Meter Squared per Day", "submissionValue": "(mL/day)/(ug/m2/day)"}, {"conceptId": "C120772", "definition": "Milliliters per day (flow rate), divided by grams (weight).", "preferredTerm": "Milliliter per Day per Gram", "submissionValue": "(mL/day)/g"}, {"conceptId": "C120773", "definition": "Milliliters per day (flow rate), divided by meters squared (surface area).", "preferredTerm": "Milliliter per Day per Meter Squared", "submissionValue": "(mL/day)/m2"}, {"conceptId": "C120774", "definition": "Milliliters per day (flow rate), divided by milligrams (dose).", "preferredTerm": "Milliliter per Day per Milligram", "submissionValue": "(mL/day)/mg"}, {"conceptId": "C120775", "definition": "Milliliters per day (flow rate), divided by micrograms (dose).", "preferredTerm": "Milliliter per Day per Microgram", "submissionValue": "(mL/day)/ug"}, {"conceptId": "C120776", "definition": "Milliliters per hour (flow rate), divided by kilograms per meter squared (body mass index).", "preferredTerm": "Milliliter per Hour per Kilogram per Meter Squared", "submissionValue": "(mL/h)/(kg/m2)"}, {"conceptId": "C120777", "definition": "Milliliters per hour (flow rate), divided by milligrams per day (daily dose).", "preferredTerm": "Milliliter per Hour per Milligram per Day", "submissionValue": "(mL/h)/(mg/day)"}, {"conceptId": "C120778", "definition": "Milliliters per hour (flow rate), divided by milligrams per kilogram (dose normalized by body weight).", "preferredTerm": "Milliliter per Hour per Milligram per Kilogram", "submissionValue": "(mL/h)/(mg/kg)"}, {"conceptId": "C120779", "definition": "Milliliters per hour (flow rate), divided by milligrams per kilogram per day (daily dose normalized by body weight).", "preferredTerm": "Milliliter per Hour per Milligram per Kilogram per Day", "submissionValue": "(mL/h)/(mg/kg/day)"}, {"conceptId": "C120780", "definition": "Milliliters per hour (flow rate), divided by milligrams per meter squared (dose normalized by surface area).", "preferredTerm": "Milliliter per Hour per Milligram per Meter Squared", "submissionValue": "(mL/h)/(mg/m2)"}, {"conceptId": "C120781", "definition": "Milliliters per hour (flow rate), divided by milligrams per meter squared per day (daily dose normalized by surface area).", "preferredTerm": "Milliliter per Hour per Milligram per Meter Squared per Day", "submissionValue": "(mL/h)/(mg/m2/day)"}, {"conceptId": "C120782", "definition": "Milliliters per hour (flow rate), divided by micrograms per day (daily dose).", "preferredTerm": "Milliliter per Hour per Microgram per Day", "submissionValue": "(mL/h)/(ug/day)"}, {"conceptId": "C120783", "definition": "Milliliters per hour (flow rate), divided by micrograms per kilogram (dose normalized by body weight).", "preferredTerm": "Milliliter per Hour per Microgram per Kilogram", "submissionValue": "(mL/h)/(ug/kg)"}, {"conceptId": "C120784", "definition": "Milliliters per hour (flow rate), divided by micrograms per kilogram per day (daily dose normalized by body weight).", "preferredTerm": "Milliliter per Hour per Microgram per Kilogram per Day", "submissionValue": "(mL/h)/(ug/kg/day)"}, {"conceptId": "C120785", "definition": "Milliliters per hour (flow rate), divided by micrograms per meter squared (dose normalized by surface area).", "preferredTerm": "Milliliter per Hour per Microgram per Meter Squared", "submissionValue": "(mL/h)/(ug/m2)"}, {"conceptId": "C120786", "definition": "Milliliters per hour (flow rate), divided by micrograms per meter squared per day (daily dose normalized by surface area).", "preferredTerm": "Milliliter per Hour per Microgram per Meter Squared per Day", "submissionValue": "(mL/h)/(ug/m2/day)"}, {"conceptId": "C120787", "definition": "Milliliters per hour (flow rate), divided by grams (weight).", "preferredTerm": "Milliliter per Hour per Gram", "submissionValue": "(mL/h)/g"}, {"conceptId": "C120788", "definition": "Milliliters per hour (flow rate), divided by meters squared (surface area).", "preferredTerm": "Milliliter per Hour per Meter Squared", "submissionValue": "(mL/h)/m2"}, {"conceptId": "C120789", "definition": "Milliliters per hour (flow rate), divided by milligrams (dose).", "preferredTerm": "Milliliter per Hour per Milligram", "submissionValue": "(mL/h)/mg"}, {"conceptId": "C120790", "definition": "Milliliters per hour (flow rate), divided by micrograms (dose).", "preferredTerm": "Milliliter per Hour per Microgram", "submissionValue": "(mL/h)/ug"}, {"conceptId": "C120791", "definition": "Milliliters per minute (flow rate), divided by kilograms per meter squared (body mass index).", "preferredTerm": "Milliliter per Minute per Kilogram per Meter Squared", "submissionValue": "(mL/min)/(kg/m2)"}, {"conceptId": "C120792", "definition": "Milliliters per minute (flow rate), divided by milligrams per day (daily dose).", "preferredTerm": "Milliliter per Minute per Milligram per Day", "submissionValue": "(mL/min)/(mg/day)"}, {"conceptId": "C120793", "definition": "Milliliters per minute (flow rate), divided by milligrams per kilogram (dose normalized by body weight).", "preferredTerm": "Milliliter per Minute per Milligram per Kilogram", "submissionValue": "(mL/min)/(mg/kg)"}, {"conceptId": "C120794", "definition": "Milliliters per minute (flow rate), divided by milligrams per kilogram per day (daily dose normalized by body weight).", "preferredTerm": "Milliliter per Minute per Milligram per Kilogram per Day", "submissionValue": "(mL/min)/(mg/kg/day)"}, {"conceptId": "C120795", "definition": "Milliliters per minute (flow rate), divided by milligrams per meter squared (dose normalized by surface area).", "preferredTerm": "Milliliter per Minute per Milligram per Meter Squared", "submissionValue": "(mL/min)/(mg/m2)"}, {"conceptId": "C120796", "definition": "Milliliters per minute (flow rate), divided by milligrams per meter squared per day (daily dose normalized by surface area).", "preferredTerm": "Milliliter per Minute per Milligram per Meter Squared per Day", "submissionValue": "(mL/min)/(mg/m2/day)"}, {"conceptId": "C120797", "definition": "Milliliters per minute (flow rate), divided by micrograms per day (daily dose).", "preferredTerm": "Milliliter per Minute per Microgram per Day", "submissionValue": "(mL/min)/(ug/day)"}, {"conceptId": "C120798", "definition": "Milliliters per minute (flow rate), divided by micrograms per kilogram (dose normalized by body weight).", "preferredTerm": "Milliliter per Minute per Microgram per Kilogram", "submissionValue": "(mL/min)/(ug/kg)"}, {"conceptId": "C120799", "definition": "Milliliters per minute (flow rate), divided by micrograms per kilogram per day (daily dose normalized by body weight).", "preferredTerm": "Milliliter per Minute per Microgram per Kilogram per Day", "submissionValue": "(mL/min)/(ug/kg/day)"}, {"conceptId": "C120800", "definition": "Milliliters per minute (flow rate), divided by micrograms per meter squared (dose normalized by surface area).", "preferredTerm": "Milliliter per Minute per Microgram per Meter Squared", "submissionValue": "(mL/min)/(ug/m2)"}, {"conceptId": "C120801", "definition": "Milliliters per minute (flow rate), divided by micrograms per meter squared per day (daily dose normalized by surface area).", "preferredTerm": "Milliliter per Minute per Microgram per Meter Squared per Day", "submissionValue": "(mL/min)/(ug/m2/day)"}, {"conceptId": "C120802", "definition": "Milliliters per minute (flow rate), divided by grams (weight).", "preferredTerm": "Milliliter per Minute per Gram", "submissionValue": "(mL/min)/g"}, {"conceptId": "C120803", "definition": "Milliliters per minute (flow rate), divided by meters squared (surface area).", "preferredTerm": "Milliliter per Minute per Meter Squared", "submissionValue": "(mL/min)/m2"}, {"conceptId": "C120804", "definition": "Milliliters per minute (flow rate), divided by milligrams (dose).", "preferredTerm": "Milliliter per Minute per Milligram", "submissionValue": "(mL/min)/mg"}, {"conceptId": "C120805", "definition": "Milliliters per minute (flow rate), divided by micrograms (dose).", "preferredTerm": "Milliliter per Minute per Microgram", "submissionValue": "(mL/min)/ug"}, {"conceptId": "C25473", "definition": "A rate of occurrence within a period of time equal to one day.", "preferredTerm": "Daily", "submissionValue": "/day", "synonyms": ["Daily", "Per Day"]}, {"conceptId": "C66966", "definition": "A rate of occurrences within a period of time equal to one hour.", "preferredTerm": "Per Hour", "submissionValue": "/h", "synonyms": ["Per Hour"]}, {"conceptId": "C85645", "definition": "International units per day.", "preferredTerm": "International Unit per Day", "submissionValue": "IU/day", "synonyms": ["IU/d"]}, {"conceptId": "C85646", "definition": "International units per hour.", "preferredTerm": "International Unit per Hour", "submissionValue": "IU/h", "synonyms": ["IU/h"]}, {"conceptId": "C67377", "definition": "A unit of concentration (biologic activity) equal to one international unit of substance per milliliter of solution.", "preferredTerm": "International Unit per Milliliter", "submissionValue": "IU/mL", "synonyms": ["IE/mL", "International Unit per Milliliter", "Kilo International Unit per Liter", "kIU/L"]}, {"conceptId": "C119366", "definition": "International units per milliliter (concentration), divided by kilograms per meter squared (body mass index).", "preferredTerm": "International Unit per Milliliter per Kilogram per Meter Squared", "submissionValue": "IU/mL/(kg/m2)"}, {"conceptId": "C119367", "definition": "International units per milliliter (concentration), divided by milligrams per day (daily dose).", "preferredTerm": "International Unit per Milliliter per Milligram per Day", "submissionValue": "IU/mL/(mg/day)"}, {"conceptId": "C119368", "definition": "International units per milliliter (concentration), divided by milligrams per kilogram.", "preferredTerm": "International Unit per Milliliter per Milligram per Kilogram", "submissionValue": "IU/mL/(mg/kg)"}, {"conceptId": "C119369", "definition": "International units per milliliter (concentration), divided by milligrams per kilogram per day.", "preferredTerm": "International Unit per Milliliter per Milligram per Kilogram per Day", "submissionValue": "IU/mL/(mg/kg/day)"}, {"conceptId": "C119370", "definition": "International units per milliliter (concentration), divided by milligrams per meter squared.", "preferredTerm": "International Unit per Milliliter per Milligram per Meter Squared", "submissionValue": "IU/mL/(mg/m2)"}, {"conceptId": "C119371", "definition": "International units per milliliter (concentration), divided by milligrams per meter squared per day (daily dose normalized by surface area).", "preferredTerm": "International Unit per Milliliter per Milligram per Meter Squared per Day", "submissionValue": "IU/mL/(mg/m2/day)"}, {"conceptId": "C119372", "definition": "International units per milliliter (concentration), divided by micrograms per day (daily dose).", "preferredTerm": "International Unit per Milliliter per Microgram per Day", "submissionValue": "IU/mL/(ug/day)"}, {"conceptId": "C119373", "definition": "International units per milliliter (concentration), divided by micrograms per kilogram.", "preferredTerm": "International Unit per Milliliter per Microgram per Kilogram", "submissionValue": "IU/mL/(ug/kg)"}, {"conceptId": "C119374", "definition": "International units per milliliter (concentration), divided by micrograms per kilogram per day.", "preferredTerm": "International Unit per Milliliter per Microgram per Kilogram per Day", "submissionValue": "IU/mL/(ug/kg/day)"}, {"conceptId": "C119375", "definition": "International units per milliliter (concentration), divided by micrograms per meter squared.", "preferredTerm": "International Unit per Milliliter per Microgram per Meter Squared", "submissionValue": "IU/mL/(ug/m2)"}, {"conceptId": "C119376", "definition": "International units per milliliter (concentration), divided by micrograms per meter squared per day (daily dose normalized by surface area).", "preferredTerm": "International Unit per Milliliter per Microgram per Meter Squared per Day", "submissionValue": "IU/mL/(ug/m2/day)"}, {"conceptId": "C119377", "definition": "International units per milliliter (concentration), divided by grams (weight).", "preferredTerm": "International Unit per Milliliter per Gram", "submissionValue": "IU/mL/g"}, {"conceptId": "C119378", "definition": "International units per milliliter (concentration), divided by kilograms (weight).", "preferredTerm": "International Unit per Milliliter per Kilogram", "submissionValue": "IU/mL/kg"}, {"conceptId": "C119379", "definition": "International units per milliliter (concentration), divided by meters squared (surface area).", "preferredTerm": "International Unit per Milliliter per Meter Squared", "submissionValue": "IU/mL/m2"}, {"conceptId": "C119380", "definition": "International units per milliliter (concentration), divided by milligrams (dose).", "preferredTerm": "International Unit per Milliliter per Milligram", "submissionValue": "IU/mL/mg"}, {"conceptId": "C119381", "definition": "International units per milliliter (concentration), divided by micrograms (dose).", "preferredTerm": "International Unit per Milliliter per Microgram", "submissionValue": "IU/mL/ug"}, {"conceptId": "C85647", "definition": "International units per minute.", "preferredTerm": "International Unit per Minute", "submissionValue": "IU/min", "synonyms": ["IU/min"]}, {"conceptId": "C48505", "definition": "A unit of volume equal to a cubic decimeter, or one thousandth of cubic meter, or 1000 cubic centimeters, or approximately 61.023 744 cubic inches.(NCI)", "preferredTerm": "Liter", "submissionValue": "L", "synonyms": ["Liter"]}, {"conceptId": "C120806", "definition": "Liters (volume), divided by kilograms per meter squared (body mass index).", "preferredTerm": "Liter per Kilogram per Meter Squared", "submissionValue": "L/(kg/m2)"}, {"conceptId": "C123561", "definition": "Liters (volume), divided by milligrams per day (daily dose).", "preferredTerm": "Liter Divided by Milligram Per Day", "submissionValue": "L/(mg/day)", "synonyms": ["mL/(ug/day)"]}, {"conceptId": "C120807", "definition": "Liters (volume), divided by milligrams per kilogram (dose normalized by body weight).", "preferredTerm": "Liter per Milligram per Kilogram", "submissionValue": "L/(mg/kg)"}, {"conceptId": "C120808", "definition": "Liters (volume), divided by milligrams per kilogram per day (daily dose normalized by body weight).", "preferredTerm": "Liter per Milligram per Kilogram per Day", "submissionValue": "L/(mg/kg/day)"}, {"conceptId": "C123562", "definition": "Liters (volume), divided by milligrams per meter squared (dose normalized by surface area).", "preferredTerm": "Liter Divided by Milligram per Meter Squared", "submissionValue": "L/(mg/m2)", "synonyms": ["mL/(ug/m2)"]}, {"conceptId": "C120809", "definition": "Liters (volume), divided by milligrams per meter squared per day (daily dose normalized by surface area).", "preferredTerm": "Liter per Milligram per Meter Squared per Day", "submissionValue": "L/(mg/m2/day)"}, {"conceptId": "C123563", "definition": "Liters (volume), divided by micrograms per day (daily dose).", "preferredTerm": "Liter Divided by Microgram per Day", "submissionValue": "L/(ug/day)"}, {"conceptId": "C120810", "definition": "Liters (volume), divided by micrograms per kilogram (dose normalized by body weight).", "preferredTerm": "Liter per Microgram per Kilogram", "submissionValue": "L/(ug/kg)"}, {"conceptId": "C120811", "definition": "Liters (volume), divided by micrograms per kilogram per day (daily dose normalized by body weight).", "preferredTerm": "Liter per Microgram per Kilogram per Day", "submissionValue": "L/(ug/kg/day)"}, {"conceptId": "C120812", "definition": "Liters (volume), divided by micrograms per meter squared (dose normalized by surface area).", "preferredTerm": "Liter per Microgram per Meter Squared", "submissionValue": "L/(ug/m2)"}, {"conceptId": "C120813", "definition": "Liters (volume), divided by micrograms per meter squared per day (daily dose normalized by surface area).", "preferredTerm": "Liter per Microgram per Meter Squared per Day", "submissionValue": "L/(ug/m2/day)"}, {"conceptId": "C69110", "definition": "A unit of flow rate, defined as a rate of one liter per day.", "preferredTerm": "Liter per Day", "submissionValue": "L/day"}, {"conceptId": "C69160", "definition": "Liters per hour.", "preferredTerm": "Liter per Hour", "submissionValue": "L/h", "synonyms": ["L/h"]}, {"conceptId": "C73755", "definition": "Liters per kilogram per day.", "preferredTerm": "Milliliter per Gram per Day", "submissionValue": "L/kg/day", "synonyms": ["L/day/kg", "L/kg/d", "Milliliter per Gram per Day", "mL/day/g", "mL/g/day", "uL/day/mg", "uL/mg/day"]}, {"conceptId": "C73756", "definition": "Milliliters per gram per hour.", "preferredTerm": "Milliliter per Gram per Hour", "submissionValue": "L/kg/h", "synonyms": ["Milliliter per Gram per Hour"]}, {"conceptId": "C73757", "definition": "Milliliters per gram per minute.", "preferredTerm": "Milliliter per Gram per Minute", "submissionValue": "L/kg/min", "synonyms": ["Milliliter per Gram per Minute"]}, {"conceptId": "C120814", "definition": "Liters (volume), divided by meters squared (surface area).", "preferredTerm": "Liter per Meter Squared", "submissionValue": "L/m2"}, {"conceptId": "C67388", "definition": "A unit of volumetric flow rate defined as the rate at which one liter of matter travels during the period of time equal to one minute.(NCI)", "preferredTerm": "Liter per Minute", "submissionValue": "L/min", "synonyms": ["Liters per Minute"]}, {"conceptId": "C120815", "definition": "Liters (volume), divided by micrograms (dose).", "preferredTerm": "Liter per Microgram", "submissionValue": "L/ug"}, {"conceptId": "C44256", "definition": "A unit of measurement for the quotient of the amount of one entity to another.", "preferredTerm": "Ratio", "submissionValue": "RATIO"}, {"conceptId": "C25301", "definition": "The time for Earth to make a complete rotation on its axis; ordinarily divided into twenty-four hours. This also refers to a specific day. (NCI)", "preferredTerm": "Day", "submissionValue": "day", "synonyms": ["Day"]}, {"conceptId": "C85583", "definition": "Days times femtograms per milliliter (area under the curve).", "preferredTerm": "Day Times Femtogram per Milliliter", "submissionValue": "day*fg/mL"}, {"conceptId": "C111167", "definition": "Days times femtograms per milliliter (area under the curve), divided by kilograms per meter squared (body mass index).", "preferredTerm": "Day Times Femtogram per Milliliter per Kilogram per Meter Squared", "submissionValue": "day*fg/mL/(kg/m2)"}, {"conceptId": "C117894", "definition": "Days times femtograms per milliliter (area under the curve), divided by milligrams per gram (dose normalized by body weight).", "preferredTerm": "Day Times Femtogram Per Milliliter Per Milligram Per Gram", "submissionValue": "day*fg/mL/(mg/g)"}, {"conceptId": "C117895", "definition": "Days times femtograms per milliliter (area under the curve), divided by milligrams per gram per day (daily dose normalized by body weight).", "preferredTerm": "Day Times Femtogram Per Milliliter Per Milligram Per Gram Per Day", "submissionValue": "day*fg/mL/(mg/g/day)"}, {"conceptId": "C112244", "definition": "Days times femtograms per milliliter (area under the curve), divided by grams (weight).", "preferredTerm": "Day Times Femtogram Per Milliliter Per Gram", "submissionValue": "day*fg/mL/g"}, {"conceptId": "C112245", "definition": "Days times femtograms per milliliter (area under the curve), divided by kilograms (weight).", "preferredTerm": "Day Times Femtogram Per Milliliter Per Kilogram", "submissionValue": "day*fg/mL/kg"}, {"conceptId": "C111168", "definition": "Days times femtograms per milliliter (area under the curve), divided by meters squared (surface area).", "preferredTerm": "Day Times Femtogram per Milliliter per Meter Squared", "submissionValue": "day*fg/mL/m2"}, {"conceptId": "C85584", "definition": "Days times grams per milliliter (area under the curve).", "preferredTerm": "Day Times Gram per Milliliter", "submissionValue": "day*g/mL"}, {"conceptId": "C111169", "definition": "Days times grams per milliliter (area under the curve), divided by kilograms per meter squared (body mass index).", "preferredTerm": "Day Times Gram per Milliliter per Kilogram per Meter Squared", "submissionValue": "day*g/mL/(kg/m2)"}, {"conceptId": "C117896", "definition": "Days times grams per milliliter (area under the curve), divided by milligrams per gram (dose normalized by body weight).", "preferredTerm": "Day Times gram Per Milliliter Per Milligram Per Gram", "submissionValue": "day*g/mL/(mg/g)"}, {"conceptId": "C117897", "definition": "Days times grams per milliliter (area under the curve), divided by milligrams per gram per day (daily dose normalized by body weight).", "preferredTerm": "Day Times gram Per Milliliter Per Milligram Per Gram Per Day", "submissionValue": "day*g/mL/(mg/g/day)"}, {"conceptId": "C112246", "definition": "Days times grams per milliliter (area under the curve), divided by grams (weight).", "preferredTerm": "Day Times Gram Per Milliliter Per Gram", "submissionValue": "day*g/mL/g"}, {"conceptId": "C112247", "definition": "Days times grams per milliliter (area under the curve), divided by kilograms (weight).", "preferredTerm": "Day Times Gram Per Milliliter Per Kilogram", "submissionValue": "day*g/mL/kg"}, {"conceptId": "C111170", "definition": "Days times grams per milliliter (area under the curve), divided by meters squared (surface area).", "preferredTerm": "Day Times Gram per Milliliter per Meter Squared", "submissionValue": "day*g/mL/m2"}, {"conceptId": "C85588", "definition": "Days times milligrams per milliliter (area under the curve).", "preferredTerm": "Day Times Milligram per Milliliter", "submissionValue": "day*mg/mL"}, {"conceptId": "C111175", "definition": "Days times milligrams per milliliter (area under the curve), divided by kilograms per meter squared (body mass index).", "preferredTerm": "Day Times Milligram per Milliliter per Kilogram per Meter Squared", "submissionValue": "day*mg/mL/(kg/m2)"}, {"conceptId": "C117898", "definition": "Days times milligrams per milliliter (area under the curve), divided by milligrams per gram (dose normalized by body weight).", "preferredTerm": "Day Times Milligram Per Milliliter Per Milligram Per Gram", "submissionValue": "day*mg/mL/(mg/g)"}, {"conceptId": "C117899", "definition": "Days times milligrams per milliliter (area under the curve), divided by milligrams per gram per day (daily dose normalized by body weight).", "preferredTerm": "Day Times Milligram Per Milliliter Per Milligram Per Gram Per Day", "submissionValue": "day*mg/mL/(mg/g/day)"}, {"conceptId": "C112252", "definition": "Days times milligrams per milliliter (area under the curve), divided by grams (weight).", "preferredTerm": "Day Times Milligram Per Milliliter Per Gram", "submissionValue": "day*mg/mL/g"}, {"conceptId": "C112253", "definition": "Days times milligrams per milliliter (area under the curve), divided by kilograms (weight).", "preferredTerm": "Day Times Milligram Per Milliliter Per Kilogram", "submissionValue": "day*mg/mL/kg"}, {"conceptId": "C111176", "definition": "Days times milligrams per milliliter (area under the curve), divided by meters squared (surface area).", "preferredTerm": "Day Times Milligram per Milliliter per Meter Squared", "submissionValue": "day*mg/mL/m2"}, {"conceptId": "C85587", "definition": "Days times millimoles per liter (area under the curve).", "preferredTerm": "Day Times Micromole per Milliliter", "submissionValue": "day*mmol/L"}, {"conceptId": "C111177", "definition": "Days times millimoles per liter (area under the curve), divided by kilograms per meter squared (body mass index).", "preferredTerm": "Day Times Millimole per Liter per Kilogram per Meter Squared", "submissionValue": "day*mmol/L/(kg/m2)"}, {"conceptId": "C117900", "definition": "Days times millimoles per liter (area under the curve), divided by milligrams per gram (dose normalized by body weight).", "preferredTerm": "Day Times Millimole Per Liter Per Milligram Per Gram", "submissionValue": "day*mmol/L/(mg/g)"}, {"conceptId": "C117901", "definition": "Days times millimoles per liter (area under the curve), divided by milligrams per gram per day (daily dose normalized by body weight).", "preferredTerm": "Day Times Millimole Per Liter Per Milligram Per Gram Per Day", "submissionValue": "day*mmol/L/(mg/g/day)"}, {"conceptId": "C112254", "definition": "Days times millimoles per liter (area under the curve), divided by grams (weight).", "preferredTerm": "Day Times Millimole Per Liter Per Gram", "submissionValue": "day*mmol/L/g"}, {"conceptId": "C112255", "definition": "Days times millimoles per liter (area under the curve), divided by kilograms (weight).", "preferredTerm": "Day Times Millimole Per Liter Per Kilogram", "submissionValue": "day*mmol/L/kg"}, {"conceptId": "C111178", "definition": "Days times millimoles per liter (area under the curve), divided by meters squared (surface area).", "preferredTerm": "Day Times Millimole per Liter per Meter Squared", "submissionValue": "day*mmol/L/m2"}, {"conceptId": "C85589", "definition": "Days times moles per liter (area under the curve).", "preferredTerm": "Day Times Millimole per Milliliter", "submissionValue": "day*mol/L"}, {"conceptId": "C111179", "definition": "Days times moles per liter (area under the curve), divided by kilograms per meter squared (body mass index).", "preferredTerm": "Day Times Mole per Liter per Kilogram per Meter Squared", "submissionValue": "day*mol/L/(kg/m2)"}, {"conceptId": "C117902", "definition": "Days times moles per liter (area under the curve), divided by milligrams per gram (dose normalized by body weight).", "preferredTerm": "Day Times mole Per Liter Per Milligram Per Gram", "submissionValue": "day*mol/L/(mg/g)"}, {"conceptId": "C117903", "definition": "Days times moles per liter (area under the curve), divided by milligrams per gram per day (daily dose normalized by body weight).", "preferredTerm": "Day Times mole Per Liter Per Milligram Per Gram Per Day", "submissionValue": "day*mol/L/(mg/g/day)"}, {"conceptId": "C112256", "definition": "Days times moles per liter (area under the curve), divided by grams (weight).", "preferredTerm": "Day Times Mole Per Liter Per Gram", "submissionValue": "day*mol/L/g"}, {"conceptId": "C112257", "definition": "Days times moles per liter (area under the curve), divided by kilograms (weight).", "preferredTerm": "Day Times Mole Per Liter Per Kilogram", "submissionValue": "day*mol/L/kg"}, {"conceptId": "C111180", "definition": "Days times moles per liter (area under the curve), divided by meters squared (surface area).", "preferredTerm": "Day Times Mole per Liter per Meter Squared", "submissionValue": "day*mol/L/m2"}, {"conceptId": "C85591", "definition": "Days times nanograms per milliliter (area under the curve).", "preferredTerm": "Day Times Nanogram per Milliliter", "submissionValue": "day*ng/mL"}, {"conceptId": "C111181", "definition": "Days times nanograms per milliliter (area under the curve), divided by kilograms per meter squared (body mass index).", "preferredTerm": "Day Times Nanogram per Milliliter per Kilogram per Meter Squared", "submissionValue": "day*ng/mL/(kg/m2)"}, {"conceptId": "C117904", "definition": "Days times nanograms per milliliter (area under the curve), divided by milligrams per gram (dose normalized by body weight).", "preferredTerm": "Day Times Nanogram Per Milliliter Per Milligram Per Gram", "submissionValue": "day*ng/mL/(mg/g)"}, {"conceptId": "C117905", "definition": "Days times nanograms per milliliter (area under the curve), divided by milligrams per gram per day (daily dose normalized by body weight).", "preferredTerm": "Day Times Nanogram Per Milliliter Per Milligram Per Gram Per Day", "submissionValue": "day*ng/mL/(mg/g/day)"}, {"conceptId": "C112258", "definition": "Days times nanograms per milliliter (area under the curve), divided by grams (weight).", "preferredTerm": "Day Times Nanogram Per Milliliter Per Gram", "submissionValue": "day*ng/mL/g"}, {"conceptId": "C112259", "definition": "Days times nanograms per milliliter (area under the curve), divided by kilograms (weight).", "preferredTerm": "Day Times Nanogram Per Milliliter Per Kilogram", "submissionValue": "day*ng/mL/kg"}, {"conceptId": "C111182", "definition": "Days times nanograms per milliliter (area under the curve), divided by meters squared (surface area).", "preferredTerm": "Day Times Nanogram per Milliliter per Meter Squared", "submissionValue": "day*ng/mL/m2"}, {"conceptId": "C85594", "definition": "Days times nanomoles per liter (area under the curve).", "preferredTerm": "Day Times Picomole per Milliliter", "submissionValue": "day*nmol/L"}, {"conceptId": "C111183", "definition": "Days times nanomoles per liter (area under the curve), divided by kilograms per meter squared (body mass index).", "preferredTerm": "Day Times Nanomole per Liter per Kilogram per Meter Squared", "submissionValue": "day*nmol/L/(kg/m2)"}, {"conceptId": "C117906", "definition": "Days times nanomoles per liter (area under the curve), divided by milligrams per gram (dose normalized by body weight).", "preferredTerm": "Day Times Nanomole Per Liter Per Milligram Per Gram", "submissionValue": "day*nmol/L/(mg/g)"}, {"conceptId": "C117907", "definition": "Days times nanomoles per liter (area under the curve), divided by milligrams per gram per day (daily dose normalized by body weight).", "preferredTerm": "Day Times Nanomole Per Liter Per Milligram Per Gram Per Day", "submissionValue": "day*nmol/L/(mg/g/day)"}, {"conceptId": "C112260", "definition": "Days times nanomoles per liter (area under the curve), divided by grams (weight).", "preferredTerm": "Day Times Nanomole Per Liter Per Gram", "submissionValue": "day*nmol/L/g"}, {"conceptId": "C112261", "definition": "Days times nanomoles per liter (area under the curve), divided by kilograms (weight).", "preferredTerm": "Day Times Nanomole Per Liter Per Kilogram", "submissionValue": "day*nmol/L/kg"}, {"conceptId": "C111184", "definition": "Days times nanomoles per liter (area under the curve), divided by meters squared (surface area).", "preferredTerm": "Day Times Nanomole per Liter per Meter Squared", "submissionValue": "day*nmol/L/m2"}, {"conceptId": "C85593", "definition": "Days times picograms per milliliter (area under the curve).", "preferredTerm": "Day Times Picogram per Milliliter", "submissionValue": "day*pg/mL"}, {"conceptId": "C111185", "definition": "Days times picograms per milliliter (area under the curve), divided by kilograms per meter squared (body mass index).", "preferredTerm": "Day Times Picogram per Milliliter per Kilogram per Meter Squared", "submissionValue": "day*pg/mL/(kg/m2)"}, {"conceptId": "C117908", "definition": "Days times picograms per milliliter (area under the curve), divided by milligrams per gram (dose normalized by body weight).", "preferredTerm": "Day Times Picogram Per Milliliter Per Milligram Per Gram", "submissionValue": "day*pg/mL/(mg/g)"}, {"conceptId": "C117909", "definition": "Days times picograms per milliliter (area under the curve), divided by milligrams per gram per day (daily dose normalized by body weight).", "preferredTerm": "Day Times Picogram Per Milliliter Per Milligram Per Gram Per Day", "submissionValue": "day*pg/mL/(mg/g/day)"}, {"conceptId": "C112262", "definition": "Days times picograms per milliliter (area under the curve), divided by grams (weight).", "preferredTerm": "Day Times Picogram Per Milliliter Per Gram", "submissionValue": "day*pg/mL/g"}, {"conceptId": "C112263", "definition": "Days times picograms per milliliter (area under the curve), divided by kilograms (weight).", "preferredTerm": "Day Times Picogram Per Milliliter Per Kilogram", "submissionValue": "day*pg/mL/kg"}, {"conceptId": "C111186", "definition": "Days times picograms per milliliter (area under the curve), divided by meters squared (surface area).", "preferredTerm": "Day Times Picogram per Milliliter per Meter Squared", "submissionValue": "day*pg/mL/m2"}, {"conceptId": "C111187", "definition": "Days times picomoles per liter (area under the curve).", "preferredTerm": "Day Times Picomole per Liter", "submissionValue": "day*pmol/L"}, {"conceptId": "C111188", "definition": "Days times picomoles per liter (area under the curve), divided by kilograms per meter squared (body mass index).", "preferredTerm": "Day Times Picomole per Liter per Kilogram per Meter Squared", "submissionValue": "day*pmol/L/(kg/m2)"}, {"conceptId": "C117910", "definition": "Days times picomoles per liter (area under the curve), divided by milligrams per gram (dose normalized by body weight).", "preferredTerm": "Day Times Picomole Per Liter Per Milligram Per Gram", "submissionValue": "day*pmol/L/(mg/g)"}, {"conceptId": "C117911", "definition": "Days times picomoles per liter (area under the curve), divided by milligrams per gram per day (daily dose normalized by body weight).", "preferredTerm": "Day Times Picomole Per Liter Per Milligram Per Gram Per Day", "submissionValue": "day*pmol/L/(mg/g/day)"}, {"conceptId": "C112264", "definition": "Days times picomoles per liter (area under the curve), divided by grams (weight).", "preferredTerm": "Day Times Picomole Per Liter Per Gram", "submissionValue": "day*pmol/L/g"}, {"conceptId": "C112265", "definition": "Days times picomoles per liter (area under the curve), divided by kilograms (weight).", "preferredTerm": "Day Times Picomole Per Liter Per Kilogram", "submissionValue": "day*pmol/L/kg"}, {"conceptId": "C111189", "definition": "Days times picomoles per liter (area under the curve), divided by meters squared (surface area).", "preferredTerm": "Day Times Picomole per Liter per Meter Squared", "submissionValue": "day*pmol/L/m2"}, {"conceptId": "C85586", "definition": "Days times micrograms per milliliter (area under the curve).", "preferredTerm": "Day Times Microgram per Milliliter", "submissionValue": "day*ug/mL"}, {"conceptId": "C111171", "definition": "Days times micrograms per milliliter (area under the curve), divided by kilograms per meter squared (body mass index).", "preferredTerm": "Day Times Microgram per Milliliter per Kilogram per Meter Squared", "submissionValue": "day*ug/mL/(kg/m2)"}, {"conceptId": "C117912", "definition": "Days times micrograms per milliliter (area under the curve), divided by milligrams per gram (dose normalized by body weight).", "preferredTerm": "Day Times Microgram Per Milliliter Per Milligram Per Gram", "submissionValue": "day*ug/mL/(mg/g)"}, {"conceptId": "C117913", "definition": "Days times micrograms per milliliter (area under the curve), divided by milligrams per gram per day (daily dose normalized by body weight).", "preferredTerm": "Day Times Microgram Per Milliliter Per Milligram Per Gram Per Day", "submissionValue": "day*ug/mL/(mg/g/day)"}, {"conceptId": "C112248", "definition": "Days times micrograms per milliliter (area under the curve), divided by grams (weight).", "preferredTerm": "Day Times Microgram Per Milliliter Per Gram", "submissionValue": "day*ug/mL/g"}, {"conceptId": "C112249", "definition": "Days times micrograms per milliliter (area under the curve), divided by kilograms (weight).", "preferredTerm": "Day Times Microgram Per Milliliter Per Kilogram", "submissionValue": "day*ug/mL/kg"}, {"conceptId": "C111172", "definition": "Days times micrograms per milliliter (area under the curve), divided by meters squared (surface area).", "preferredTerm": "Day Times Microgram per Milliliter per Meter Squared", "submissionValue": "day*ug/mL/m2"}, {"conceptId": "C85592", "definition": "Days times micromoles per liter (area under the curve).", "preferredTerm": "Day Times Nanomole per Milliliter", "submissionValue": "day*umol/L"}, {"conceptId": "C111173", "definition": "Days times micromoles per liter (area under the curve), divided by kilograms per meter squared (body mass index).", "preferredTerm": "Day Times Micromole per Liter per Kilogram per Meter Squared", "submissionValue": "day*umol/L/(kg/m2)"}, {"conceptId": "C117914", "definition": "Days times micromoles per liter (area under the curve), divided by milligrams per gram (dose normalized by body weight).", "preferredTerm": "Day Times Micromole Per Liter Per Milligram Per Gram", "submissionValue": "day*umol/L/(mg/g)"}, {"conceptId": "C117915", "definition": "Days times micromoles per liter (area under the curve), divided by milligrams per gram per day (daily dose normalized by body weight).", "preferredTerm": "Day Times Micromole Per Liter Per Milligram Per Gram Per Day", "submissionValue": "day*umol/L/(mg/g/day)"}, {"conceptId": "C112250", "definition": "Days times micromoles per liter (area under the curve), divided by grams (weight).", "preferredTerm": "Day Times Micromole Per Liter Per Gram", "submissionValue": "day*umol/L/g"}, {"conceptId": "C112251", "definition": "Days times micromoles per liter (area under the curve), divided by kilograms (weight).", "preferredTerm": "Day Times Micromole Per Liter Per Kilogram", "submissionValue": "day*umol/L/kg"}, {"conceptId": "C111174", "definition": "Days times micromoles per liter (area under the curve), divided by meters squared (surface area).", "preferredTerm": "Day Times Micromole per Liter per Meter Squared", "submissionValue": "day*umol/L/m2"}, {"conceptId": "C85597", "definition": "A unit of concentration or mass density equal to one femtogram of substance per milliliter of solution or one picogram of substance per liter of solution.", "preferredTerm": "Femtogram per Milliliter", "submissionValue": "fg/mL", "synonyms": ["fg/mL", "pg/L"]}, {"conceptId": "C119336", "definition": "Femtograms per milliliter (concentration), divided by kilograms per meter squared (body mass index).", "preferredTerm": "Femtogram per Milliliter per Kilogram per Meter Squared", "submissionValue": "fg/mL/(kg/m2)"}, {"conceptId": "C119337", "definition": "Femtograms per milliliter (concentration), divided by milligrams per day (daily dose).", "preferredTerm": "Femtogram per Milliliter per Milligram per Day", "submissionValue": "fg/mL/(mg/day)"}, {"conceptId": "C119338", "definition": "Femtograms per milliliter (concentration), divided by milligrams per kilogram.", "preferredTerm": "Femtogram per Milliliter per Milligram per Kilogram", "submissionValue": "fg/mL/(mg/kg)"}, {"conceptId": "C119339", "definition": "Femtograms per milliliter (concentration), divided by milligrams per kilogram per day.", "preferredTerm": "Femtogram per Milliliter per Milligram per Kilogram per Day", "submissionValue": "fg/mL/(mg/kg/day)"}, {"conceptId": "C119340", "definition": "Femtograms per milliliter (concentration), divided by milligrams per meter squared.", "preferredTerm": "Femtogram per Milliliter per Milligram per Meter Squared", "submissionValue": "fg/mL/(mg/m2)"}, {"conceptId": "C119341", "definition": "Femtograms per milliliter (concentration), divided by milligrams per meter squared per day (daily dose normalized by surface area).", "preferredTerm": "Femtogram per Milliliter per Milligram per Meter Squared per Day", "submissionValue": "fg/mL/(mg/m2/day)"}, {"conceptId": "C119342", "definition": "Femtograms per milliliter (concentration), divided by micrograms per day (daily dose).", "preferredTerm": "Femtogram per Milliliter per Microgram per Day", "submissionValue": "fg/mL/(ug/day)"}, {"conceptId": "C119343", "definition": "Femtograms per milliliter (concentration), divided by micrograms per kilogram.", "preferredTerm": "Femtogram per Milliliter per Microgram per Kilogram", "submissionValue": "fg/mL/(ug/kg)"}, {"conceptId": "C119344", "definition": "Femtograms per milliliter (concentration), divided by micrograms per kilogram per day.", "preferredTerm": "Femtogram per Milliliter per Microgram per Kilogram per Day", "submissionValue": "fg/mL/(ug/kg/day)"}, {"conceptId": "C119345", "definition": "Femtograms per milliliter (concentration), divided by micrograms per meter squared.", "preferredTerm": "Femtogram per Milliliter per Microgram per Meter Squared", "submissionValue": "fg/mL/(ug/m2)"}, {"conceptId": "C119346", "definition": "Femtograms per milliliter (concentration), divided by micrograms per meter squared per day (daily dose normalized by surface area).", "preferredTerm": "Femtogram per Milliliter per Microgram per Meter Squared per Day", "submissionValue": "fg/mL/(ug/m2/day)"}, {"conceptId": "C119347", "definition": "Femtograms per milliliter (concentration), divided by grams (weight).", "preferredTerm": "Femtogram per Milliliter per Gram", "submissionValue": "fg/mL/g"}, {"conceptId": "C119348", "definition": "Femtograms per milliliter (concentration), divided by kilograms (weight).", "preferredTerm": "Femtogram per Milliliter per Kilogram", "submissionValue": "fg/mL/kg"}, {"conceptId": "C119349", "definition": "Femtograms per milliliter (concentration), divided by meters squared (surface area).", "preferredTerm": "Femtogram per Milliliter per Meter Squared", "submissionValue": "fg/mL/m2"}, {"conceptId": "C119350", "definition": "Femtograms per milliliter (concentration), divided by milligrams (dose).", "preferredTerm": "Femtogram per Milliliter per Milligram", "submissionValue": "fg/mL/mg"}, {"conceptId": "C119351", "definition": "Femtograms per milliliter (concentration), divided by micrograms (dose).", "preferredTerm": "Femtogram per Milliliter per Microgram", "submissionValue": "fg/mL/ug"}, {"conceptId": "C48155", "definition": "A metric unit of mass equal to one one thousandth of a kilogram. (NCI)", "preferredTerm": "Gram", "submissionValue": "g", "synonyms": ["Gram"]}, {"conceptId": "C67372", "definition": "A dose calculation unit expressed in gram(s) per period of time equal to twenty-four hours.", "preferredTerm": "Gram per 24 Hours", "submissionValue": "g/day", "synonyms": ["Gram per Day", "g/24h", "g/d", "gram/24 Hours", "gram/day"]}, {"conceptId": "C85601", "definition": "Grams per hour.", "preferredTerm": "Gram per Hour", "submissionValue": "g/h", "synonyms": ["g/h", "gram/h"]}, {"conceptId": "C64566", "definition": "A unit of concentration or mass density equal to one gram of substance per milliliter of solution or one kilogram of substance per liter of solution.", "preferredTerm": "Kilogram per Liter", "submissionValue": "g/mL", "synonyms": ["Gram per Milliliter", "Kilogram per Liter", "g/mL", "gram/mL", "kg/L", "mg/uL"]}, {"conceptId": "C119352", "definition": "Grams per milliliter (concentration), divided by kilograms per meter squared (body mass index).", "preferredTerm": "Gram per Milliliter per Kilogram per Meter Squared", "submissionValue": "g/mL/(kg/m2)"}, {"conceptId": "C119353", "definition": "Grams per milliliter (concentration), divided by milligrams per day (daily dose).", "preferredTerm": "Gram per Milliliter per Milligram per Day", "submissionValue": "g/mL/(mg/day)"}, {"conceptId": "C105462", "definition": "Grams per milliliter (concentration), divided by milligrams per kilogram (dose normalized by body weight).", "preferredTerm": "Gram Per Milliliter Per Milligram Per Kilogram", "submissionValue": "g/mL/(mg/kg)"}, {"conceptId": "C105463", "definition": "Grams per milliliter (concentration), divided by milligrams per kilogram per day (daily dose normalized by body weight).", "preferredTerm": "Gram Per Milliliter Per Milligram Per Kilogram Per Day", "submissionValue": "g/mL/(mg/kg/day)"}, {"conceptId": "C119354", "definition": "Grams per milliliter (concentration), divided by milligrams per meter squared.", "preferredTerm": "Gram per Milliliter per Milligram per Meter Squared", "submissionValue": "g/mL/(mg/m2)"}, {"conceptId": "C119355", "definition": "Grams per milliliter (concentration), divided by milligrams per meter squared per day (daily dose normalized by surface area).", "preferredTerm": "Gram per Milliliter per Milligram per Meter Squared per Day", "submissionValue": "g/mL/(mg/m2/day)"}, {"conceptId": "C119356", "definition": "Grams per milliliter (concentration), divided by micrograms per day (daily dose).", "preferredTerm": "Gram per Milliliter per Microgram per Day", "submissionValue": "g/mL/(ug/day)"}, {"conceptId": "C119357", "definition": "Grams per milliliter (concentration), divided by micrograms per kilogram.", "preferredTerm": "Gram per Milliliter per Microgram per Kilogram", "submissionValue": "g/mL/(ug/kg)"}, {"conceptId": "C119358", "definition": "Grams per milliliter (concentration), divided by micrograms per kilogram per day.", "preferredTerm": "Gram per Milliliter per Microgram per Kilogram per Day", "submissionValue": "g/mL/(ug/kg/day)"}, {"conceptId": "C119359", "definition": "Grams per milliliter (concentration), divided by micrograms per meter squared.", "preferredTerm": "Gram per Milliliter per Microgram per Meter Squared", "submissionValue": "g/mL/(ug/m2)"}, {"conceptId": "C119360", "definition": "Grams per milliliter (concentration), divided by micrograms per meter squared per day (daily dose normalized by surface area).", "preferredTerm": "Gram per Milliliter per Microgram per Meter Squared per Day", "submissionValue": "g/mL/(ug/m2/day)"}, {"conceptId": "C119361", "definition": "Grams per milliliter (concentration), divided by grams (weight).", "preferredTerm": "Gram per Milliliter per Gram", "submissionValue": "g/mL/g"}, {"conceptId": "C119362", "definition": "Grams per milliliter (concentration), divided by kilograms (weight).", "preferredTerm": "Gram per Milliliter per Kilogram", "submissionValue": "g/mL/kg"}, {"conceptId": "C119363", "definition": "Grams per milliliter (concentration), divided by meters squared (surface area).", "preferredTerm": "Gram per Milliliter per Meter Squared", "submissionValue": "g/mL/m2"}, {"conceptId": "C119364", "definition": "Grams per milliliter (concentration), divided by milligrams (dose).", "preferredTerm": "Gram per Milliliter per Milligram", "submissionValue": "g/mL/mg"}, {"conceptId": "C119365", "definition": "Grams per milliliter (concentration), divided by micrograms (dose).", "preferredTerm": "Gram per Milliliter per Microgram", "submissionValue": "g/mL/ug"}, {"conceptId": "C85602", "definition": "Grams per minute.", "preferredTerm": "Gram per Minute", "submissionValue": "g/min", "synonyms": ["g/min", "gram/min"]}, {"conceptId": "C25529", "definition": "A unit measure of time equal to 3,600 seconds or 60 minutes. It is approximately 1/24 of a median day. (NCI)", "preferredTerm": "Hour", "submissionValue": "h", "synonyms": ["Hour", "hr"]}, {"conceptId": "C85611", "definition": "Hours times femtograms per milliliter (area under the curve).", "preferredTerm": "Hour Times Femtogram per Milliliter", "submissionValue": "h*fg/mL"}, {"conceptId": "C111210", "definition": "Hours times femtograms per milliliter (area under the curve), divided by kilograms per meter squared (body mass index).", "preferredTerm": "Hour Times Femtogram per Milliliter per Kilogram per Meter Squared", "submissionValue": "h*fg/mL/(kg/m2)"}, {"conceptId": "C117916", "definition": "Hours times femtograms per milliliter (area under the curve), divided by milligrams per gram (dose normalized by body weight).", "preferredTerm": "Hour Times Femtogram Per Milliliter Per Milligram Per Gram", "submissionValue": "h*fg/mL/(mg/g)"}, {"conceptId": "C117917", "definition": "Hours times femtograms per milliliter (area under the curve), divided by milligrams per gram per day (daily dose normalized by body weight).", "preferredTerm": "Hour Times Femtogram Per Milliliter Per Milligram Per Gram Per Day", "submissionValue": "h*fg/mL/(mg/g/day)"}, {"conceptId": "C112298", "definition": "Hours times femtograms per milliliter (area under the curve), divided by grams (weight).", "preferredTerm": "Hour Times Femtogram Per Milliliter Per Gram", "submissionValue": "h*fg/mL/g"}, {"conceptId": "C112299", "definition": "Hours times femtograms per milliliter (area under the curve), divided by kilograms (weight).", "preferredTerm": "Hour Times Femtogram Per Milliliter Per Kilogram", "submissionValue": "h*fg/mL/kg"}, {"conceptId": "C111211", "definition": "Hours times femtograms per milliliter (area under the curve), divided by meters squared (surface area).", "preferredTerm": "Hour Times Femtogram per Milliliter per Meter Squared", "submissionValue": "h*fg/mL/m2"}, {"conceptId": "C85613", "definition": "Hours times grams per milliliter (area under the curve).", "preferredTerm": "Hour Times Gram per Milliliter", "submissionValue": "h*g/mL"}, {"conceptId": "C111212", "definition": "Hours times grams per milliliter (area under the curve), divided by kilograms per meter squared (body mass index).", "preferredTerm": "Hour Times Gram per Milliliter per Kilogram per Meter Squared", "submissionValue": "h*g/mL/(kg/m2)"}, {"conceptId": "C117918", "definition": "Hours times grams per milliliter (area under the curve), divided by milligrams per gram (dose normalized by body weight).", "preferredTerm": "Hour Times gram Per Milliliter Per Milligram Per Gram", "submissionValue": "h*g/mL/(mg/g)"}, {"conceptId": "C117919", "definition": "Hours times grams per milliliter (area under the curve), divided by milligrams per gram per day (daily dose normalized by body weight).", "preferredTerm": "Hour Times gram Per Milliliter Per Milligram Per Gram Per Day", "submissionValue": "h*g/mL/(mg/g/day)"}, {"conceptId": "C105464", "definition": "Hours times grams per milliliter (area under the curve), divided by milligrams per kilogram (dose normalized by body weight).", "preferredTerm": "Hour Times Gram Per Milliliter Per Milligram Per Kilogram", "submissionValue": "h*g/mL/(mg/kg)", "synonyms": ["h*g/mL/(ug/g)"]}, {"conceptId": "C105465", "definition": "Hours times grams per milliliter (area under the curve), divided by milligrams per kilogram per day (daily dose normalized by body weight).", "preferredTerm": "Hour Times Gram Per Milliliter Per Milligram Per Kilogram Per Day", "submissionValue": "h*g/mL/(mg/kg/day)", "synonyms": ["h*g/mL/(ug/g/day)"]}, {"conceptId": "C112300", "definition": "Hours times grams per milliliter (area under the curve), divided by grams (weight).", "preferredTerm": "Hour Times Gram Per Milliliter Per Gram", "submissionValue": "h*g/mL/g"}, {"conceptId": "C112301", "definition": "Hours times grams per milliliter (area under the curve), divided by kilograms (weight).", "preferredTerm": "Hour Times Gram Per Milliliter Per Kilogram", "submissionValue": "h*g/mL/kg"}, {"conceptId": "C111213", "definition": "Hours times grams per milliliter (area under the curve), divided by meters squared (surface area).", "preferredTerm": "Hour Times Gram per Milliliter per Meter Squared", "submissionValue": "h*g/mL/m2"}, {"conceptId": "C85621", "definition": "Hours times milligrams per milliliter (area under the curve).", "preferredTerm": "Hour Times Milligram per Milliliter", "submissionValue": "h*mg/mL"}, {"conceptId": "C111218", "definition": "Hours times milligrams per milliliter (area under the curve), divided by kilograms per meter squared (body mass index).", "preferredTerm": "Hour Times Milligram per Milliliter per Kilogram per Meter Squared", "submissionValue": "h*mg/mL/(kg/m2)"}, {"conceptId": "C117920", "definition": "Hours times milligrams per milliliter (area under the curve), divided by milligrams per gram (dose normalized by body weight).", "preferredTerm": "Hour Times Milligram Per Milliliter Per Milligram Per Gram", "submissionValue": "h*mg/mL/(mg/g)"}, {"conceptId": "C117921", "definition": "Hours times milligrams per milliliter (area under the curve), divided by milligrams per gram per day (daily dose normalized by body weight).", "preferredTerm": "Hour Times Milligram Per Milliliter Per Milligram Per Gram Per Day", "submissionValue": "h*mg/mL/(mg/g/day)"}, {"conceptId": "C105468", "definition": "Hours times milligrams per milliliter (area under the curve), divided by milligrams per kilogram (dose normalized by body weight).", "preferredTerm": "Hour Times Milligram Per Milliliter Per Milligram Per Kilogram", "submissionValue": "h*mg/mL/(mg/kg)", "synonyms": ["h*mg/mL/(ug/g)"]}, {"conceptId": "C105469", "definition": "Hours times milligrams per milliliter (area under the curve), divided by milligrams per kilogram per day (daily dose normalized by body weight).", "preferredTerm": "Hour Times Milligram Per Milliliter Per Milligram Per Kilogram Per Day", "submissionValue": "h*mg/mL/(mg/kg/day)", "synonyms": ["h*mg/mL/(ug/g/day)"]}, {"conceptId": "C112305", "definition": "Hours times milligrams per milliliter (area under the curve), divided by grams (weight).", "preferredTerm": "Hour Times Milligram Per Milliliter Per Gram", "submissionValue": "h*mg/mL/g"}, {"conceptId": "C112306", "definition": "Hours times milligrams per milliliter (area under the curve), divided by kilograms (weight).", "preferredTerm": "Hour Times Milligram Per Milliliter Per Kilogram", "submissionValue": "h*mg/mL/kg"}, {"conceptId": "C111219", "definition": "Hours times milligrams per milliliter (area under the curve), divided by meters squared (surface area).", "preferredTerm": "Hour Times Milligram per Milliliter per Meter Squared", "submissionValue": "h*mg/mL/m2"}, {"conceptId": "C85618", "definition": "Hours times millimoles per liter (area under the curve).", "preferredTerm": "Hour Times Micromole per Milliliter", "submissionValue": "h*mmol/L"}, {"conceptId": "C111220", "definition": "Hours times millimoles per liter (area under the curve), divided by kilograms per meter squared (body mass index).", "preferredTerm": "Hour Times Millimole per Liter per Kilogram per Meter Squared", "submissionValue": "h*mmol/L/(kg/m2)"}, {"conceptId": "C117922", "definition": "Hours times millimoles per liter (area under the curve), divided by milligrams per gram (dose normalized by body weight).", "preferredTerm": "Hour Times Millimole Per Liter Per Milligram Per Gram", "submissionValue": "h*mmol/L/(mg/g)"}, {"conceptId": "C117923", "definition": "Hours times millimoles per liter (area under the curve), divided by milligrams per gram per day (daily dose normalized by body weight).", "preferredTerm": "Hour Times Millimole Per Liter Per Milligram Per Gram Per Day", "submissionValue": "h*mmol/L/(mg/g/day)"}, {"conceptId": "C106530", "definition": "Hours times millimoles per liter (area under the curve), divided by grams (weight).", "preferredTerm": "Hour times Millimole Per Liter Per Gram", "submissionValue": "h*mmol/L/g"}, {"conceptId": "C112307", "definition": "Hours times millimoles per liter (area under the curve), divided by kilograms (weight).", "preferredTerm": "Hour Times Millimole Per Liter Per Kilogram", "submissionValue": "h*mmol/L/kg"}, {"conceptId": "C111221", "definition": "Hours times millimoles per liter (area under the curve), divided by meters squared (surface area).", "preferredTerm": "Hour Times Millimole per Liter per Meter Squared", "submissionValue": "h*mmol/L/m2"}, {"conceptId": "C85622", "definition": "Hours times moles per liter (area under the curve).", "preferredTerm": "Hour Times Millimole per Milliliter", "submissionValue": "h*mol/L"}, {"conceptId": "C111222", "definition": "Hours times moles per liter (area under the curve), divided by kilograms per meter squared (body mass index).", "preferredTerm": "Hour Times Mole per Liter per Kilogram per Meter Squared", "submissionValue": "h*mol/L/(kg/m2)"}, {"conceptId": "C117924", "definition": "Hours times moles per liter (area under the curve), divided by milligrams per gram (dose normalized by body weight).", "preferredTerm": "Hour Times mole Per Liter Per Milligram Per Gram", "submissionValue": "h*mol/L/(mg/g)"}, {"conceptId": "C117925", "definition": "Hours times moles per liter (area under the curve), divided by milligrams per gram per day (daily dose normalized by body weight).", "preferredTerm": "Hour Times mole Per Liter Per Milligram Per Gram Per Day", "submissionValue": "h*mol/L/(mg/g/day)"}, {"conceptId": "C106531", "definition": "Hours times moles per liter (area under the curve), divided by grams (weight).", "preferredTerm": "Hour times Mole Per Liter Per Gram", "submissionValue": "h*mol/L/g"}, {"conceptId": "C112308", "definition": "Hours times moles per liter (area under the curve), divided by kilograms (weight).", "preferredTerm": "Hour Times Mole Per Liter Per Kilogram", "submissionValue": "h*mol/L/kg"}, {"conceptId": "C111223", "definition": "Hours times moles per liter (area under the curve), divided by meters squared (surface area).", "preferredTerm": "Hour Times Mole per Liter per Meter Squared", "submissionValue": "h*mol/L/m2"}, {"conceptId": "C85624", "definition": "Hours times nanograms per milliliter (area under the curve).", "preferredTerm": "Hour Times Nanogram per Milliliter", "submissionValue": "h*ng/mL"}, {"conceptId": "C111224", "definition": "Hours times nanograms per milliliter (area under the curve), divided by kilograms per meter squared (body mass index).", "preferredTerm": "Hour Times Nanogram per Milliliter per Kilogram per Meter Squared", "submissionValue": "h*ng/mL/(kg/m2)"}, {"conceptId": "C117926", "definition": "Hours times nanograms per milliliter (area under the curve), divided by milligrams per gram (dose normalized by body weight).", "preferredTerm": "Hour Times Nanogram Per Milliliter Per Milligram Per Gram", "submissionValue": "h*ng/mL/(mg/g)"}, {"conceptId": "C117927", "definition": "Hours times nanograms per milliliter (area under the curve), divided by milligrams per gram per day (daily dose normalized by body weight).", "preferredTerm": "Hour Times Nanogram Per Milliliter Per Milligram Per Gram Per Day", "submissionValue": "h*ng/mL/(mg/g/day)"}, {"conceptId": "C85628", "definition": "Hours times nanograms per milliliter (area under the curve), divided by milligrams per kilogram (dose normalized by body weight).", "preferredTerm": "Hour Times Nanogram per Milliliter per Milligram per Kilogram", "submissionValue": "h*ng/mL/(mg/kg)", "synonyms": ["h*ng/mL/(ug/g)"]}, {"conceptId": "C105470", "definition": "Hours times nanograms per milliliter (area under the curve), divided by milligrams per kilogram per day (daily dose normalized by body weight).", "preferredTerm": "Hour Times Nanogram Per Milliliter Per Milligram Per Kilogram Per Day", "submissionValue": "h*ng/mL/(mg/kg/day)", "synonyms": ["h*ng/mL/(ug/g/day)"]}, {"conceptId": "C85629", "definition": "Hours times nanograms per milliliter (area under the curve), divided by milligrams per meter squared (dose normalized by surface area).", "preferredTerm": "Hour Times Nanogram per Milliliter per Milligram per Meter Squared", "submissionValue": "h*ng/mL/(mg/m2)"}, {"conceptId": "C85625", "definition": "Hours times nanograms per milliliter (area under the curve), divided by grams (weight).", "preferredTerm": "Hour Times Nanogram per Milliliter per Gram", "submissionValue": "h*ng/mL/g"}, {"conceptId": "C85626", "definition": "Hours times nanograms per milliliter (area under the curve), divided by kilograms (weight).", "preferredTerm": "Hour Times Nanogram per Milliliter per Kilogram", "submissionValue": "h*ng/mL/kg"}, {"conceptId": "C111225", "definition": "Hours times nanograms per milliliter (area under the curve), divided by meters squared (surface area).", "preferredTerm": "Hour Times Nanogram per Milliliter per Meter Squared", "submissionValue": "h*ng/mL/m2"}, {"conceptId": "C85627", "definition": "Hours times nanograms per milliliter (area under the curve), divided by milligrams (dose).", "preferredTerm": "Hour Times Nanogram per Milliliter per Milligram", "submissionValue": "h*ng/mL/mg", "synonyms": ["h*ng/mL/mg", "h*ng/mg/mL", "ng*h/mL/mg", "ng*h/mg/mL"]}, {"conceptId": "C85640", "definition": "Hours times nanomoles per liter (area under the curve).", "preferredTerm": "Hour Times Picomole per Milliliter", "submissionValue": "h*nmol/L"}, {"conceptId": "C111226", "definition": "Hours times nanomoles per liter (area under the curve), divided by kilograms per meter squared (body mass index).", "preferredTerm": "Hour Times Nanomole per Liter per Kilogram per Meter Squared", "submissionValue": "h*nmol/L/(kg/m2)"}, {"conceptId": "C117928", "definition": "Hours times nanomoles per liter (area under the curve), divided by milligrams per gram (dose normalized by body weight).", "preferredTerm": "Hour Times Nanomole Per Liter Per Milligram Per Gram", "submissionValue": "h*nmol/L/(mg/g)"}, {"conceptId": "C117929", "definition": "Hours times nanomoles per liter (area under the curve), divided by milligrams per gram per day (daily dose normalized by body weight).", "preferredTerm": "Hour Times Nanomole Per Liter Per Milligram Per Gram Per Day", "submissionValue": "h*nmol/L/(mg/g/day)"}, {"conceptId": "C116062", "definition": "Hours times nanomoles per liter (area under the curve), divided by grams (dose or weight).", "preferredTerm": "Hour Times Nanomole per Liter per Gram", "submissionValue": "h*nmol/L/g"}, {"conceptId": "C112309", "definition": "Hours times nanomoles per liter (area under the curve), divided by kilograms (weight).", "preferredTerm": "Hour Times Nanomole Per Liter Per Kilogram", "submissionValue": "h*nmol/L/kg"}, {"conceptId": "C111227", "definition": "Hours times nanomoles per liter (area under the curve), divided by meters squared (surface area).", "preferredTerm": "Hour Times Nanomole per Liter per Meter Squared", "submissionValue": "h*nmol/L/m2"}, {"conceptId": "C85631", "definition": "Hours times nanomoles per liter per micromole.", "preferredTerm": "Hour Times Nanomole per Liter per Micromole", "submissionValue": "h*nmol/L/umol", "synonyms": ["h*nmol/L/mcmol", "h*nmol/umol/L", "nmol*h/L/umol", "nmol*h/umol/L"]}, {"conceptId": "C85635", "definition": "Hours times picograms per milliliter (area under the curve).", "preferredTerm": "Hour Times Picogram per Milliliter", "submissionValue": "h*pg/mL"}, {"conceptId": "C111228", "definition": "Hours times picograms per milliliter (area under the curve), divided by kilograms per meter squared (body mass index).", "preferredTerm": "Hour Times Picogram per Milliliter per Kilogram per Meter Squared", "submissionValue": "h*pg/mL/(kg/m2)"}, {"conceptId": "C117930", "definition": "Hours times picograms per milliliter (area under the curve), divided by milligrams per gram (dose normalized by body weight).", "preferredTerm": "Hour Times Picogram Per Milliliter Per Milligram Per Gram", "submissionValue": "h*pg/mL/(mg/g)"}, {"conceptId": "C117931", "definition": "Hours times picograms per milliliter (area under the curve), divided by milligrams per gram per day (daily dose normalized by body weight).", "preferredTerm": "Hour Times Picogram Per Milliliter Per Milligram Per Gram Per Day", "submissionValue": "h*pg/mL/(mg/g/day)"}, {"conceptId": "C105471", "definition": "Hours times picograms per milliliter (area under the curve), divided by milligrams per kilogram (dose normalized by body weight).", "preferredTerm": "Hour Times Picogram Per Milliliter Per Milligram Per Kilogram", "submissionValue": "h*pg/mL/(mg/kg)", "synonyms": ["h*pg/mL/(ug/g)"]}, {"conceptId": "C105472", "definition": "Hours times picograms per milliliter (area under the curve), divided by milligrams per kilogram per day (daily dose normalized by body weight).", "preferredTerm": "Hour Times Picogram Per Milliliter Per Milligram Per Kilogram Per Day", "submissionValue": "h*pg/mL/(mg/kg/day)", "synonyms": ["h*pg/mL/(ug/g/day)"]}, {"conceptId": "C112310", "definition": "Hours times picograms per milliliter (area under the curve), divided by grams (weight).", "preferredTerm": "Hour Times Picogram Per Milliliter Per Gram", "submissionValue": "h*pg/mL/g"}, {"conceptId": "C85636", "definition": "Hours times picograms per milliliter (area under the curve), divided by kilograms (weight).", "preferredTerm": "Hour Times Picogram per Milliliter per Kilogram", "submissionValue": "h*pg/mL/kg"}, {"conceptId": "C111229", "definition": "Hours times picograms per milliliter (area under the curve), divided by meters squared (surface area).", "preferredTerm": "Hour Times Picogram per Milliliter per Meter Squared", "submissionValue": "h*pg/mL/m2"}, {"conceptId": "C85638", "definition": "Hours times picograms per milliliter (area under the curve), divided by milligrams (dose).", "preferredTerm": "Hour Times Picogram per Milliliter per Milligram", "submissionValue": "h*pg/mL/mg", "synonyms": ["h*pg/mL/mg", "h*pg/mg/mL", "pg*h/mL/mg", "pg*h/mg/mL"]}, {"conceptId": "C85612", "definition": "Hours times picomoles per liter (area under the curve).", "preferredTerm": "Hour Times Femtomole per Milliliter", "submissionValue": "h*pmol/L"}, {"conceptId": "C111230", "definition": "Hours times picomoles per liter (area under the curve), divided by kilograms per meter squared (body mass index).", "preferredTerm": "Hour Times Picomole per Liter per Kilogram per Meter Squared", "submissionValue": "h*pmol/L/(kg/m2)"}, {"conceptId": "C117932", "definition": "Hours times picomoles per liter (area under the curve), divided by milligrams per gram (dose normalized by body weight).", "preferredTerm": "Hour Times Picomole Per Liter Per Milligram Per Gram", "submissionValue": "h*pmol/L/(mg/g)"}, {"conceptId": "C117933", "definition": "Hours times picomoles per liter (area under the curve), divided by milligrams per gram per day (daily dose normalized by body weight).", "preferredTerm": "Hour Times Picomole Per Liter Per Milligram Per Gram Per Day", "submissionValue": "h*pmol/L/(mg/g/day)"}, {"conceptId": "C106532", "definition": "Hours times picomoles per liter (area under the curve), divided by grams (weight).", "preferredTerm": "Hour times Picomole Per Liter Per Gram", "submissionValue": "h*pmol/L/g"}, {"conceptId": "C112311", "definition": "Hours times picomoles per liter (area under the curve), divided by kilograms (weight).", "preferredTerm": "Hour Times Picomole Per Liter Per Kilogram", "submissionValue": "h*pmol/L/kg"}, {"conceptId": "C111231", "definition": "Hours times picomoles per liter (area under the curve), divided by meters squared (surface area).", "preferredTerm": "Hour Times Picomole per Liter per Meter Squared", "submissionValue": "h*pmol/L/m2"}, {"conceptId": "C85615", "definition": "Hours times micrograms per milliliter (area under the curve).", "preferredTerm": "Hour Times Microgram per Milliliter", "submissionValue": "h*ug/mL"}, {"conceptId": "C111214", "definition": "Hours times micrograms per milliliter (area under the curve), divided by kilograms per meter squared (body mass index).", "preferredTerm": "Hour Times Microgram per Milliliter per Kilogram per Meter Squared", "submissionValue": "h*ug/mL/(kg/m2)"}, {"conceptId": "C117934", "definition": "Hours times micrograms per milliliter (area under the curve), divided by milligrams per gram (dose normalized by body weight).", "preferredTerm": "Hour Times Microgram Per Milliliter Per Milligram Per Gram", "submissionValue": "h*ug/mL/(mg/g)"}, {"conceptId": "C117935", "definition": "Hours times micrograms per milliliter (area under the curve), divided by milligrams per gram per day (daily dose normalized by body weight).", "preferredTerm": "Hour Times Microgram Per Milliliter Per Milligram Per Gram Per Day", "submissionValue": "h*ug/mL/(mg/g/day)"}, {"conceptId": "C105466", "definition": "Hours times micrograms per milliliter (area under the curve), divided by milligrams per kilogram (dose normalized by body weight).", "preferredTerm": "Hour Times Microgram Per Milliliter Per Milligram Per Kilogram", "submissionValue": "h*ug/mL/(mg/kg)", "synonyms": ["h*ug/mL/(ug/g)"]}, {"conceptId": "C105467", "definition": "Hours times micrograms per milliliter (area under the curve), divided by milligrams per kilogram per day (daily dose normalized by body weight).", "preferredTerm": "Hour Times Microgram Per Milliliter Per Milligram Per Kilogram Per Day", "submissionValue": "h*ug/mL/(mg/kg/day)", "synonyms": ["h*ug/mL/(ug/g/day)"]}, {"conceptId": "C112302", "definition": "Hours times micrograms per milliliter (area under the curve), divided by grams (weight).", "preferredTerm": "Hour Times Microgram Per Milliliter Per Gram", "submissionValue": "h*ug/mL/g"}, {"conceptId": "C112303", "definition": "Hours times micrograms per milliliter (area under the curve), divided by kilograms (weight).", "preferredTerm": "Hour Times Microgram Per Milliliter Per Kilogram", "submissionValue": "h*ug/mL/kg"}, {"conceptId": "C111215", "definition": "Hours times micrograms per milliliter (area under the curve), divided by meters squared (surface area).", "preferredTerm": "Hour Times Microgram per Milliliter per Meter Squared", "submissionValue": "h*ug/mL/m2"}, {"conceptId": "C85617", "definition": "Hours times micrograms per milliliter (area under the curve), divided by milligrams (dose).", "preferredTerm": "Hour Times Microgram per Milliliter per Milligram", "submissionValue": "h*ug/mL/mg", "synonyms": ["h*mcg/mL/mg", "h*ug/mg/mL", "ug*h/mL/mg", "ug*h/mg/mL"]}, {"conceptId": "C85632", "definition": "Hours times micromoles per liter (area under the curve).", "preferredTerm": "Hour Times Nanomole per Milliliter", "submissionValue": "h*umol/L"}, {"conceptId": "C111216", "definition": "Hours times micromoles per liter (area under the curve), divided by kilograms per meter squared (body mass index).", "preferredTerm": "Hour Times Micromole per Liter per Kilogram per Meter Squared", "submissionValue": "h*umol/L/(kg/m2)"}, {"conceptId": "C117936", "definition": "Hours times micromoles per liter (area under the curve), divided by milligrams per gram (dose normalized by body weight).", "preferredTerm": "Hour Times Micromole Per Liter Per Milligram Per Gram", "submissionValue": "h*umol/L/(mg/g)"}, {"conceptId": "C117937", "definition": "Hours times micromoles per liter (area under the curve), divided by milligrams per gram per day (daily dose normalized by body weight).", "preferredTerm": "Hour Times Micromole Per Liter Per Milligram Per Gram Per Day", "submissionValue": "h*umol/L/(mg/g/day)"}, {"conceptId": "C116063", "definition": "Hours times micromoles per liter (area under the curve), divided by grams (dose or weight).", "preferredTerm": "Hour Times Micromole per liter per Gram", "submissionValue": "h*umol/L/g"}, {"conceptId": "C112304", "definition": "Hours times micromoles per liter (area under the curve), divided by kilograms (weight).", "preferredTerm": "Hour Times Micromole Per Liter Per Kilogram", "submissionValue": "h*umol/L/kg"}, {"conceptId": "C111217", "definition": "Hours times micromoles per liter (area under the curve), divided by meters squared (surface area).", "preferredTerm": "Hour Times Micromole per Liter per Meter Squared", "submissionValue": "h*umol/L/m2"}, {"conceptId": "C85606", "definition": "Hours squared times milligrams per milliliter.", "preferredTerm": "Hour Squared Times Milligram per Milliliter", "submissionValue": "h2*mg/mL", "synonyms": ["h*h*mg/mL", "h2*g/L", "h2*ug/uL", "h^2*mg/mL", "mg*h2/mL"]}, {"conceptId": "C85605", "definition": "Hours squared times millimoles per liter (area under the moment curve).", "preferredTerm": "Hour Squared Times Micromole per Milliliter", "submissionValue": "h2*mmol/L"}, {"conceptId": "C85607", "definition": "Hours squared times moles per liter (area under the moment curve).", "preferredTerm": "Hour Squared Times Millimole per Milliliter", "submissionValue": "h2*mol/L"}, {"conceptId": "C85608", "definition": "Hours squared times nanograms per milliliter.", "preferredTerm": "Hour Squared Times Nanogram per Milliliter", "submissionValue": "h2*ng/mL", "synonyms": ["h*h*ng/mL", "h2*ug/L", "h^2*ng/mL", "ng*h2/mL"]}, {"conceptId": "C85610", "definition": "Hours squared times nanomoles per liter (area under the moment curve).", "preferredTerm": "Hour Squared Times Picomole per Milliliter", "submissionValue": "h2*nmol/L"}, {"conceptId": "C85609", "definition": "Hours squared times picogram per milliliter.", "preferredTerm": "Hour Squared Times Picogram per Milliliter", "submissionValue": "h2*pg/mL", "synonyms": ["h*h*pg/mL", "h2*ng/L", "h^2*pg/mL", "pg*h2/mL"]}, {"conceptId": "C106529", "definition": "Hours squared times picomoles per liter (area under the moment curve).", "preferredTerm": "Hour Squared Times Picomole Per Liter", "submissionValue": "h2*pmol/L"}, {"conceptId": "C85604", "definition": "Hours squared times micrograms per milliliter.", "preferredTerm": "Hour Squared Times Microgram per Milliliter", "submissionValue": "h2*ug/mL", "synonyms": ["h*h*ug/mL", "h2*mcg/mL", "h2*mg/L", "h^2*ug/mL", "ug*h2/mL"]}, {"conceptId": "C106528", "definition": "Hours squared times micromoles per liter (area under the moment curve).", "preferredTerm": "Hour Squared Times Micromole Per Liter", "submissionValue": "h2*umol/L"}, {"conceptId": "C67376", "definition": "A unit of concentration (biologic activity) equal to one milli-international unit of substance per milliliter of solution or one international unit of substance per liter of solution.", "preferredTerm": "International Unit per Liter", "submissionValue": "mIU/mL", "synonyms": ["IE/L", "IU/L", "International Unit per Liter", "mIU/mL"]}, {"conceptId": "C119396", "definition": "Milli-international units per milliliter (concentration), divided by kilograms per meter squared (body mass index).", "preferredTerm": "Milli-International Unit per Milliliter per Kilogram per Meter Squared", "submissionValue": "mIU/mL/(kg/m2)"}, {"conceptId": "C119397", "definition": "Milli-international units per milliliter (concentration), divided by milligrams per day (daily dose).", "preferredTerm": "Milli-International Unit per Milliliter per Milligram per Day", "submissionValue": "mIU/mL/(mg/day)"}, {"conceptId": "C119398", "definition": "Milli-international units per milliliter (concentration), divided by milligrams per kilogram.", "preferredTerm": "Milli-International Unit per Milliliter per Milligram per Kilogram", "submissionValue": "mIU/mL/(mg/kg)"}, {"conceptId": "C119399", "definition": "Milli-international units per milliliter (concentration), divided by milligrams per kilogram per day.", "preferredTerm": "Milli-International Unit per Milliliter per Milligram per Kilogram per Day", "submissionValue": "mIU/mL/(mg/kg/day)"}, {"conceptId": "C119400", "definition": "Milli-international units per milliliter (concentration), divided by milligrams per meter squared.", "preferredTerm": "Milli-International Unit per Milliliter per Milligram per Meter Squared", "submissionValue": "mIU/mL/(mg/m2)"}, {"conceptId": "C119401", "definition": "Milli-international units per milliliter (concentration), divided by milligrams per meter squared per day (daily dose normalized by surface area).", "preferredTerm": "Milli-International Unit per Milliliter per Milligram per Meter Squared per Day", "submissionValue": "mIU/mL/(mg/m2/day)"}, {"conceptId": "C119402", "definition": "Milli-international units per milliliter (concentration), divided by micrograms per day (daily dose).", "preferredTerm": "Milli-International Unit per Milliliter per Microgram per Day", "submissionValue": "mIU/mL/(ug/day)"}, {"conceptId": "C119403", "definition": "Milli-international units per milliliter (concentration), divided by micrograms per kilogram.", "preferredTerm": "Milli-International Unit per Milliliter per Microgram per Kilogram", "submissionValue": "mIU/mL/(ug/kg)"}, {"conceptId": "C119404", "definition": "Milli-international units per milliliter (concentration), divided by micrograms per kilogram per day.", "preferredTerm": "Milli-International Unit per Milliliter per Microgram per Kilogram per Day", "submissionValue": "mIU/mL/(ug/kg/day)"}, {"conceptId": "C119405", "definition": "Milli-international units per milliliter (concentration), divided by micrograms per meter squared.", "preferredTerm": "Milli-International Unit per Milliliter per Microgram per Meter Squared", "submissionValue": "mIU/mL/(ug/m2)"}, {"conceptId": "C119406", "definition": "Milli-international units per milliliter (concentration), divided by micrograms per meter squared per day (daily dose normalized by surface area).", "preferredTerm": "Milli-International Unit per Milliliter per Microgram per Meter Squared per Day", "submissionValue": "mIU/mL/(ug/m2/day)"}, {"conceptId": "C119407", "definition": "Milli-international units per milliliter (concentration), divided by grams (weight).", "preferredTerm": "Milli-International Unit per Milliliter per Gram", "submissionValue": "mIU/mL/g"}, {"conceptId": "C119408", "definition": "Milli-international units per milliliter (concentration), divided by kilograms (weight).", "preferredTerm": "Milli-International Unit per Milliliter per Kilogram", "submissionValue": "mIU/mL/kg"}, {"conceptId": "C119409", "definition": "Milli-international units per milliliter (concentration), divided by meters squared (surface area).", "preferredTerm": "Milli-International Unit per Milliliter per Meter Squared", "submissionValue": "mIU/mL/m2"}, {"conceptId": "C119410", "definition": "Milli-international units per milliliter (concentration), divided by milligrams (dose).", "preferredTerm": "Milli-International Unit per Milliliter per Milligram", "submissionValue": "mIU/mL/mg"}, {"conceptId": "C119411", "definition": "Milli-international units per milliliter (concentration), divided by micrograms (dose).", "preferredTerm": "Milli-International Unit per Milliliter per Microgram", "submissionValue": "mIU/mL/ug"}, {"conceptId": "C28254", "definition": "The unit of volume equal to one thousandth of a liter, one cubic centimeter, 10E-6 cubic meter, or approximately to 0.061 023 7 cubic inch.(NCI)", "preferredTerm": "Milliliter", "submissionValue": "mL", "synonyms": ["Milliliter", "cm3"]}, {"conceptId": "C120816", "definition": "Milliliters (volume), divided by kilograms per meter squared (body mass index).", "preferredTerm": "Milliliter per Kilogram per Meter Squared", "submissionValue": "mL/(kg/m2)"}, {"conceptId": "C120817", "definition": "Milliliters (volume), divided by milligrams per day (daily dose).", "preferredTerm": "Milliliter per Milligram per Day", "submissionValue": "mL/(mg/day)"}, {"conceptId": "C120818", "definition": "Milliliters (volume), divided by milligrams per kilogram (dose normalized by body weight).", "preferredTerm": "Milliliter per Milligram per Kilogram", "submissionValue": "mL/(mg/kg)"}, {"conceptId": "C120819", "definition": "Milliliters (volume), divided by milligrams per kilogram per day (daily dose normalized by body weight).", "preferredTerm": "Milliliter per Milligram per Kilogram per Day", "submissionValue": "mL/(mg/kg/day)"}, {"conceptId": "C120820", "definition": "Milliliters (volume), divided by milligrams per meter squared (dose normalized by surface area).", "preferredTerm": "Milliliter per Milligram per Meter Squared", "submissionValue": "mL/(mg/m2)"}, {"conceptId": "C120821", "definition": "Milliliters (volume), divided by milligrams per meter squared per day (daily dose normalized by surface area).", "preferredTerm": "Milliliter per Milligram per Meter Squared per Day", "submissionValue": "mL/(mg/m2/day)"}, {"conceptId": "C120822", "definition": "Milliliters (volume), divided by micrograms per kilogram (dose normalized by body weight).", "preferredTerm": "Milliliter per Microgram per Kilogram", "submissionValue": "mL/(ug/kg)"}, {"conceptId": "C120823", "definition": "Milliliters (volume), divided by micrograms per kilogram per day (daily dose normalized by body weight).", "preferredTerm": "Milliliter per Microgram per Kilogram per Day", "submissionValue": "mL/(ug/kg/day)"}, {"conceptId": "C120824", "definition": "Milliliters (volume), divided by micrograms per meter squared per day (daily dose normalized by surface area).", "preferredTerm": "Milliliter per Microgram per Meter Squared per Day", "submissionValue": "mL/(ug/m2/day)"}, {"conceptId": "C67410", "definition": "Milliliters per day.", "preferredTerm": "Milliliter per 24 Hours", "submissionValue": "mL/day", "synonyms": ["Milliliter per Day"]}, {"conceptId": "C66962", "definition": "A unit of volumetric flow rate defined as the rate at which one milliliter of matter travels during the period of time equal to one hour.(NCI)", "preferredTerm": "Milliliter per Hour", "submissionValue": "mL/h", "synonyms": ["Milliliters per Hour"]}, {"conceptId": "C73758", "definition": "Milliliters per kilogram per day.", "preferredTerm": "Milliliter per Kilogram per Day", "submissionValue": "mL/kg/day", "synonyms": ["Milliliter per Kilogram per Day"]}, {"conceptId": "C73759", "definition": "Milliliters per kilogram per hour.", "preferredTerm": "Milliliter per Kilogram per Hour", "submissionValue": "mL/kg/h", "synonyms": ["Milliliter per Kilogram per Hour"]}, {"conceptId": "C73760", "definition": "Milliliters per kilogram per minute.", "preferredTerm": "Milliliter per Kilogram per Minute", "submissionValue": "mL/kg/min", "synonyms": ["Milliliter per Kilogram per Minute", "mL/kg/min", "mL/min/kg", "uL/g/min", "uL/min/g"]}, {"conceptId": "C64777", "definition": "A metric unit of volumetric flow rate defined as the rate at which one milliliter of matter travels during the period of time equal to one minute.(NCI)", "preferredTerm": "Milliliter per Minute", "submissionValue": "mL/min", "synonyms": ["Milliliters per Minute"]}, {"conceptId": "C28253", "definition": "The unit of mass equal to one thousandth of a gram or 1000 micrograms. One milligram equals approximately 0.015432 grain or 35.274 x 10E-6 ounce.(NCI)", "preferredTerm": "Milligram", "submissionValue": "mg", "synonyms": ["Milligram"]}, {"conceptId": "C67399", "definition": "A unit of measure referring to the ratio between mass expressed in milligrams per day.(NCI)", "preferredTerm": "Milligram per 24 Hours", "submissionValue": "mg/day", "synonyms": ["Milligram per Day"]}, {"conceptId": "C66969", "definition": "A unit of mass flow rate equivalent to the rate at which one thousandth of a gram of matter travels to a given object or space over a period of time equal to one hour.(NCI)", "preferredTerm": "Milligram per Hour", "submissionValue": "mg/h", "synonyms": ["Milligram per Hour"]}, {"conceptId": "C42576", "definition": "A unit of concentration or mass density equal to one milligram of substance per milliliter of solution or one gram of substance per liter of solution.", "preferredTerm": "Kilogram per Cubic Meter", "submissionValue": "mg/mL", "synonyms": ["Gram per Liter", "Kilogram per Cubic Meter", "Microgram per Microliter", "Milligram per Milliliter", "g/L", "kg/m3", "mg/mL", "ug/uL"]}, {"conceptId": "C119382", "definition": "Milligrams per milliliter (concentration), divided by kilograms per meter squared (body mass index).", "preferredTerm": "Milligram per Milliliter per Kilogram per Meter Squared", "submissionValue": "mg/mL/(kg/m2)"}, {"conceptId": "C119383", "definition": "Milligrams per milliliter (concentration), divided by milligrams per day (daily dose).", "preferredTerm": "Milligram per Milliliter per Milligram per Day", "submissionValue": "mg/mL/(mg/day)"}, {"conceptId": "C105475", "definition": "Milligrams per milliliter (concentration), divided by milligrams per kilogram (dose normalized by body weight).", "preferredTerm": "Milligram Per Milliliter Per Milligram Per Kilogram", "submissionValue": "mg/mL/(mg/kg)"}, {"conceptId": "C105476", "definition": "Milligrams per milliliter (concentration), divided by milligrams per kilogram per day (daily dose normalized by body weight).", "preferredTerm": "Milligram Per Milliliter Per Milligram Per Kilogram Per Day", "submissionValue": "mg/mL/(mg/kg/day)"}, {"conceptId": "C119384", "definition": "Milligrams per milliliter (concentration), divided by milligrams per meter squared.", "preferredTerm": "Milligram per Milliliter per Milligram per Meter Squared", "submissionValue": "mg/mL/(mg/m2)"}, {"conceptId": "C119385", "definition": "Milligrams per milliliter (concentration), divided by milligrams per meter squared per day (daily dose normalized by surface area).", "preferredTerm": "Milligram per Milliliter per Milligram per Meter Squared per Day", "submissionValue": "mg/mL/(mg/m2/day)"}, {"conceptId": "C119386", "definition": "Milligrams per milliliter (concentration), divided by micrograms per day (daily dose).", "preferredTerm": "Milligram per Milliliter per Microgram per Day", "submissionValue": "mg/mL/(ug/day)"}, {"conceptId": "C119387", "definition": "Milligrams per milliliter (concentration), divided by micrograms per kilogram.", "preferredTerm": "Milligram per Milliliter per Microgram per Kilogram", "submissionValue": "mg/mL/(ug/kg)"}, {"conceptId": "C119388", "definition": "Milligrams per milliliter (concentration), divided by micrograms per kilogram per day.", "preferredTerm": "Milligram per Milliliter per Microgram per Kilogram per Day", "submissionValue": "mg/mL/(ug/kg/day)"}, {"conceptId": "C119389", "definition": "Milligrams per milliliter (concentration), divided by micrograms per meter squared.", "preferredTerm": "Milligram per Milliliter per Microgram per Meter Squared", "submissionValue": "mg/mL/(ug/m2)"}, {"conceptId": "C119390", "definition": "Milligrams per milliliter (concentration), divided by micrograms per meter squared per day (daily dose normalized by surface area).", "preferredTerm": "Milligram per Milliliter per Microgram per Meter Squared per Day", "submissionValue": "mg/mL/(ug/m2/day)"}, {"conceptId": "C119391", "definition": "Milligrams per milliliter (concentration), divided by grams (weight).", "preferredTerm": "Milligram per Milliliter per Gram", "submissionValue": "mg/mL/g"}, {"conceptId": "C85711", "definition": "Milligrams per milliliter per hour.", "preferredTerm": "Milligram per Milliliter per Hour", "submissionValue": "mg/mL/h", "synonyms": ["g/L/h", "g/h/L", "mg/h/mL", "ug/h/uL", "ug/uL/h"]}, {"conceptId": "C119392", "definition": "Milligrams per milliliter (concentration), divided by kilograms (weight).", "preferredTerm": "Milligram per Milliliter per Kilogram", "submissionValue": "mg/mL/kg"}, {"conceptId": "C119393", "definition": "Milligrams per milliliter (concentration), divided by meters squared (surface area).", "preferredTerm": "Milligram per Milliliter per Meter Squared", "submissionValue": "mg/mL/m2"}, {"conceptId": "C119394", "definition": "Milligrams per milliliter (concentration), divided by milligrams (dose).", "preferredTerm": "Milligram per Milliliter per Milligram", "submissionValue": "mg/mL/mg"}, {"conceptId": "C119395", "definition": "Milligrams per milliliter (concentration), divided by micrograms (dose).", "preferredTerm": "Milligram per Milliliter per Microgram", "submissionValue": "mg/mL/ug"}, {"conceptId": "C73742", "definition": "Milligrams per minute.", "preferredTerm": "Milligram per Minute", "submissionValue": "mg/min", "synonyms": ["Milligram per Minute"]}, {"conceptId": "C48154", "definition": "A unit measure of time equal to 60 seconds.(NCI)", "preferredTerm": "Minute", "submissionValue": "min", "synonyms": ["Minute Unit of Time"]}, {"conceptId": "C85724", "definition": "Minutes times femtograms per milliliter (area under the curve).", "preferredTerm": "Minute Times Femtogram per Milliliter", "submissionValue": "min*fg/mL"}, {"conceptId": "C111254", "definition": "Minutes times femtograms per milliliter (area under the curve), divided by kilograms per meter squared (body mass index).", "preferredTerm": "Minute Times Femtogram per Milliliter per Kilogram per Meter Squared", "submissionValue": "min*fg/mL/(kg/m2)"}, {"conceptId": "C117938", "definition": "Minutes times femtograms per milliliter (area under the curve), divided by milligrams per gram (dose normalized by body weight).", "preferredTerm": "Minute Times Femtogram Per Milliliter Per Milligram Per Gram", "submissionValue": "min*fg/mL/(mg/g)"}, {"conceptId": "C117939", "definition": "Minutes times femtograms per milliliter (area under the curve), divided by milligrams per gram per day (daily dose normalized by body weight).", "preferredTerm": "Minute Times Femtogram Per Milliliter Per Milligram Per Gram Per Day", "submissionValue": "min*fg/mL/(mg/g/day)"}, {"conceptId": "C112334", "definition": "Minutes times femtograms per milliliter (area under the curve), divided by grams (weight).", "preferredTerm": "Minute Times Femtogram Per Milliliter Per Gram", "submissionValue": "min*fg/mL/g"}, {"conceptId": "C112335", "definition": "Minutes times femtograms per milliliter (area under the curve), divided by kilograms (weight).", "preferredTerm": "Minute Times Femtogram Per Milliliter Per Kilogram", "submissionValue": "min*fg/mL/kg"}, {"conceptId": "C111255", "definition": "Minutes times femtograms per milliliter (area under the curve), divided by meters squared (surface area).", "preferredTerm": "Minute Times Femtogram per Milliliter per Meter Squared", "submissionValue": "min*fg/mL/m2"}, {"conceptId": "C85725", "definition": "Minutes times grams per milliliter (area under the curve).", "preferredTerm": "Minute Times Gram per Milliliter", "submissionValue": "min*g/mL"}, {"conceptId": "C111256", "definition": "Minutes times grams per milliliter (area under the curve), divided by kilograms per meter squared (body mass index).", "preferredTerm": "Minute Times Gram per Milliliter per Kilogram per Meter Squared", "submissionValue": "min*g/mL/(kg/m2)"}, {"conceptId": "C117940", "definition": "Minutes times grams per milliliter (area under the curve), divided by milligrams per gram (dose normalized by body weight).", "preferredTerm": "Minute Times gram Per Milliliter Per Milligram Per Gram", "submissionValue": "min*g/mL/(mg/g)"}, {"conceptId": "C117941", "definition": "Minutes times grams per milliliter (area under the curve), divided by milligrams per gram per day (daily dose normalized by body weight).", "preferredTerm": "Minute Times gram Per Milliliter Per Milligram Per Gram Per Day", "submissionValue": "min*g/mL/(mg/g/day)"}, {"conceptId": "C112336", "definition": "Minutes times grams per milliliter (area under the curve), divided by grams (weight).", "preferredTerm": "Minute Times Gram Per Milliliter Per Gram", "submissionValue": "min*g/mL/g"}, {"conceptId": "C112337", "definition": "Minutes times grams per milliliter (area under the curve), divided by kilograms (weight).", "preferredTerm": "Minute Times Gram Per Milliliter Per Kilogram", "submissionValue": "min*g/mL/kg"}, {"conceptId": "C111257", "definition": "Minutes times grams per milliliter (area under the curve), divided by meters squared (surface area).", "preferredTerm": "Minute Times Gram per Milliliter per Meter Squared", "submissionValue": "min*g/mL/m2"}, {"conceptId": "C85729", "definition": "Minutes times milligrams per milliliter (area under the curve).", "preferredTerm": "Minute Times Milligram per Milliliter", "submissionValue": "min*mg/mL"}, {"conceptId": "C111262", "definition": "Minutes times milligrams per milliliter (area under the curve), divided by kilograms per meter squared (body mass index).", "preferredTerm": "Minute Times Milligram per Milliliter per Kilogram per Meter Squared", "submissionValue": "min*mg/mL/(kg/m2)"}, {"conceptId": "C117942", "definition": "Minutes times milligrams per milliliter (area under the curve), divided by milligrams per gram (dose normalized by body weight).", "preferredTerm": "Minute Times Milligram Per Milliliter Per Milligram Per Gram", "submissionValue": "min*mg/mL/(mg/g)"}, {"conceptId": "C117943", "definition": "Minutes times milligrams per milliliter (area under the curve), divided by milligrams per gram per day (daily dose normalized by body weight).", "preferredTerm": "Minute Times Milligram Per Milliliter Per Milligram Per Gram Per Day", "submissionValue": "min*mg/mL/(mg/g/day)"}, {"conceptId": "C112342", "definition": "Minutes times milligrams per milliliter (area under the curve), divided by grams (weight).", "preferredTerm": "Minute Times Milligram Per Milliliter Per Gram", "submissionValue": "min*mg/mL/g"}, {"conceptId": "C112343", "definition": "Minutes times milligrams per milliliter (area under the curve), divided by kilograms (weight).", "preferredTerm": "Minute Times Milligram Per Milliliter Per Kilogram", "submissionValue": "min*mg/mL/kg"}, {"conceptId": "C111263", "definition": "Minutes times milligrams per milliliter (area under the curve), divided by meters squared (surface area).", "preferredTerm": "Minute Times Milligram per Milliliter per Meter Squared", "submissionValue": "min*mg/mL/m2"}, {"conceptId": "C85728", "definition": "Minutes times millimoles per liter (area under the curve).", "preferredTerm": "Minute Times Micromole per Milliliter", "submissionValue": "min*mmol/L"}, {"conceptId": "C111264", "definition": "Minutes times millimoles per liter (area under the curve), divided by kilograms per meter squared (body mass index).", "preferredTerm": "Minute Times Millimole per Liter per Kilogram per Meter Squared", "submissionValue": "min*mmol/L/(kg/m2)"}, {"conceptId": "C117944", "definition": "Minutes times millimoles per liter (area under the curve), divided by milligrams per gram (dose normalized by body weight).", "preferredTerm": "Minute Times Millimole Per Liter Per Milligram Per Gram", "submissionValue": "min*mmol/L/(mg/g)"}, {"conceptId": "C117945", "definition": "Minutes times millimoles per liter (area under the curve), divided by milligrams per gram per day (daily dose normalized by body weight).", "preferredTerm": "Minute Times Millimole Per Liter Per Milligram Per Gram Per Day", "submissionValue": "min*mmol/L/(mg/g/day)"}, {"conceptId": "C112344", "definition": "Minutes times millimoles per liter (area under the curve), divided by grams (weight).", "preferredTerm": "Minute Times Millimole Per Liter Per Gram", "submissionValue": "min*mmol/L/g"}, {"conceptId": "C112345", "definition": "Minutes times millimoles per liter (area under the curve), divided by kilograms (weight).", "preferredTerm": "Minute Times Millimole Per Liter Per Kilogram", "submissionValue": "min*mmol/L/kg"}, {"conceptId": "C111265", "definition": "Minutes times millimoles per liter (area under the curve), divided by meters squared (surface area).", "preferredTerm": "Minute Times Millimole per Liter per Meter Squared", "submissionValue": "min*mmol/L/m2"}, {"conceptId": "C85730", "definition": "Minutes times moles per liter (area under the curve).", "preferredTerm": "Minute Times Millimole per Milliliter", "submissionValue": "min*mol/L"}, {"conceptId": "C111266", "definition": "Minutes times moles per liter (area under the curve), divided by kilograms per meter squared (body mass index).", "preferredTerm": "Minute Times Mole per Liter per Kilogram per Meter Squared", "submissionValue": "min*mol/L/(kg/m2)"}, {"conceptId": "C117946", "definition": "Minutes times moles per liter (area under the curve), divided by milligrams per gram (dose normalized by body weight).", "preferredTerm": "Minute Times mole Per Liter Per Milligram Per Gram", "submissionValue": "min*mol/L/(mg/g)"}, {"conceptId": "C117947", "definition": "Minutes times moles per liter (area under the curve), divided by milligrams per gram per day (daily dose normalized by body weight).", "preferredTerm": "Minute Times mole Per Liter Per Milligram Per Gram Per Day", "submissionValue": "min*mol/L/(mg/g/day)"}, {"conceptId": "C112346", "definition": "Minutes times moles per liter (area under the curve), divided by grams (weight).", "preferredTerm": "Minute Times Mole Per Liter Per Gram", "submissionValue": "min*mol/L/g"}, {"conceptId": "C112347", "definition": "Minutes times moles per liter (area under the curve), divided by kilograms (weight).", "preferredTerm": "Minute Times Mole Per Liter Per Kilogram", "submissionValue": "min*mol/L/kg"}, {"conceptId": "C111267", "definition": "Minutes times moles per liter (area under the curve), divided by meters squared (surface area).", "preferredTerm": "Minute Times Mole per Liter per Meter Squared", "submissionValue": "min*mol/L/m2"}, {"conceptId": "C85732", "definition": "Minutes times nanograms per milliliter (area under the curve).", "preferredTerm": "Minute Times Nanogram per Milliliter", "submissionValue": "min*ng/mL"}, {"conceptId": "C111268", "definition": "Minutes times nanograms per milliliter (area under the curve), divided by kilograms per meter squared (body mass index).", "preferredTerm": "Minute Times Nanogram per Milliliter per Kilogram per Meter Squared", "submissionValue": "min*ng/mL/(kg/m2)"}, {"conceptId": "C117948", "definition": "Minutes times nanograms per milliliter (area under the curve), divided by milligrams per gram (dose normalized by body weight).", "preferredTerm": "Minute Times Nanogram Per Milliliter Per Milligram Per Gram", "submissionValue": "min*ng/mL/(mg/g)"}, {"conceptId": "C117949", "definition": "Minutes times nanograms per milliliter (area under the curve), divided by milligrams per gram per day (daily dose normalized by body weight).", "preferredTerm": "Minute Times Nanogram Per Milliliter Per Milligram Per Gram Per Day", "submissionValue": "min*ng/mL/(mg/g/day)"}, {"conceptId": "C112348", "definition": "Minutes times nanograms per milliliter (area under the curve), divided by grams (weight).", "preferredTerm": "Minute Times Nanogram Per Milliliter Per Gram", "submissionValue": "min*ng/mL/g"}, {"conceptId": "C112349", "definition": "Minutes times nanograms per milliliter (area under the curve), divided by kilograms (weight).", "preferredTerm": "Minute Times Nanogram Per Milliliter Per Kilogram", "submissionValue": "min*ng/mL/kg"}, {"conceptId": "C111269", "definition": "Minutes times nanograms per milliliter (area under the curve), divided by meters squared (surface area).", "preferredTerm": "Minute Times Nanogram per Milliliter per Meter Squared", "submissionValue": "min*ng/mL/m2"}, {"conceptId": "C85735", "definition": "Minutes times nanomoles per liter (area under the curve).", "preferredTerm": "Minute Times Picomole per Milliliter", "submissionValue": "min*nmol/L"}, {"conceptId": "C111270", "definition": "Minutes times nanomoles per liter (area under the curve), divided by kilograms per meter squared (body mass index).", "preferredTerm": "Minute Times Nanomole per Liter per Kilogram per Meter Squared", "submissionValue": "min*nmol/L/(kg/m2)"}, {"conceptId": "C117950", "definition": "Minutes times nanomoles per liter (area under the curve), divided by milligrams per gram (dose normalized by body weight).", "preferredTerm": "Minute Times Nanomole Per Liter Per Milligram Per Gram", "submissionValue": "min*nmol/L/(mg/g)"}, {"conceptId": "C117951", "definition": "Minutes times nanomoles per liter (area under the curve), divided by milligrams per gram per day (daily dose normalized by body weight).", "preferredTerm": "Minute Times Nanomole Per Liter Per Milligram Per Gram Per Day", "submissionValue": "min*nmol/L/(mg/g/day)"}, {"conceptId": "C112350", "definition": "Minutes times nanomoles per liter (area under the curve), divided by grams (weight).", "preferredTerm": "Minute Times Nanomole Per Liter Per Gram", "submissionValue": "min*nmol/L/g"}, {"conceptId": "C112351", "definition": "Minutes times nanomoles per liter (area under the curve), divided by kilograms (weight).", "preferredTerm": "Minute Times Nanomole Per Liter Per Kilogram", "submissionValue": "min*nmol/L/kg"}, {"conceptId": "C111271", "definition": "Minutes times nanomoles per liter (area under the curve), divided by meters squared (surface area).", "preferredTerm": "Minute Times Nanomole per Liter per Meter Squared", "submissionValue": "min*nmol/L/m2"}, {"conceptId": "C85734", "definition": "Minutes times picograms per milliliter (area under the curve).", "preferredTerm": "Minute Times Picogram per Milliliter", "submissionValue": "min*pg/mL"}, {"conceptId": "C111272", "definition": "Minutes times picograms per milliliter (area under the curve), divided by kilograms per meter squared (body mass index).", "preferredTerm": "Minute Times Picogram per Milliliter per Kilogram per Meter Squared", "submissionValue": "min*pg/mL/(kg/m2)"}, {"conceptId": "C117952", "definition": "Minutes times picograms per milliliter (area under the curve), divided by milligrams per gram (dose normalized by body weight).", "preferredTerm": "Minute Times Picogram Per Milliliter Per Milligram Per Gram", "submissionValue": "min*pg/mL/(mg/g)"}, {"conceptId": "C117953", "definition": "Minutes times picograms per milliliter (area under the curve), divided by milligrams per gram per day (daily dose normalized by body weight).", "preferredTerm": "Minute Times Picogram Per Milliliter Per Milligram Per Gram Per Day", "submissionValue": "min*pg/mL/(mg/g/day)"}, {"conceptId": "C112352", "definition": "Minutes times picograms per milliliter (area under the curve), divided by grams (weight).", "preferredTerm": "Minute Times Picogram Per Milliliter Per Gram", "submissionValue": "min*pg/mL/g"}, {"conceptId": "C112353", "definition": "Minutes times picograms per milliliter (area under the curve), divided by kilograms (weight).", "preferredTerm": "Minute Times Picogram Per Milliliter Per Kilogram", "submissionValue": "min*pg/mL/kg"}, {"conceptId": "C111273", "definition": "Minutes times picograms per milliliter (area under the curve), divided by meters squared (surface area).", "preferredTerm": "Minute Times Picogram per Milliliter per Meter Squared", "submissionValue": "min*pg/mL/m2"}, {"conceptId": "C106543", "definition": "Minutes times picomoles per liter (area under the curve).", "preferredTerm": "Minute Times Picomole Per Liter", "submissionValue": "min*pmol/L"}, {"conceptId": "C111274", "definition": "Minutes times picomoles per liter (area under the curve), divided by kilograms per meter squared (body mass index).", "preferredTerm": "Minute Times Picomole per Liter per Kilogram per Meter Squared", "submissionValue": "min*pmol/L/(kg/m2)"}, {"conceptId": "C117954", "definition": "Minutes times picomoles per liter (area under the curve), divided by milligrams per gram (dose normalized by body weight).", "preferredTerm": "Minute Times Picomole Per Liter Per Milligram Per Gram", "submissionValue": "min*pmol/L/(mg/g)"}, {"conceptId": "C117955", "definition": "Minutes times picomoles per liter (area under the curve), divided by milligrams per gram per day (daily dose normalized by body weight).", "preferredTerm": "Minute Times Picomole Per Liter Per Milligram Per Gram Per Day", "submissionValue": "min*pmol/L/(mg/g/day)"}, {"conceptId": "C112354", "definition": "Minutes times picomoles per liter (area under the curve), divided by grams (weight).", "preferredTerm": "Minute Times Picomole Per Liter Per Gram", "submissionValue": "min*pmol/L/g"}, {"conceptId": "C112355", "definition": "Minutes times picomoles per liter (area under the curve), divided by kilograms (weight).", "preferredTerm": "Minute Times Picomole Per Liter Per Kilogram", "submissionValue": "min*pmol/L/kg"}, {"conceptId": "C111275", "definition": "Minutes times picomoles per liter (area under the curve), divided by meters squared (surface area).", "preferredTerm": "Minute Times Picomole per Liter per Meter Squared", "submissionValue": "min*pmol/L/m2"}, {"conceptId": "C85727", "definition": "Minutes times micrograms per milliliter (area under the curve).", "preferredTerm": "Minute Times Microgram per Milliliter", "submissionValue": "min*ug/mL"}, {"conceptId": "C111258", "definition": "Minutes times micrograms per milliliter (area under the curve), divided by kilograms per meter squared (body mass index).", "preferredTerm": "Minute Times Microgram per Milliliter per Kilogram per Meter Squared", "submissionValue": "min*ug/mL/(kg/m2)"}, {"conceptId": "C117956", "definition": "Minutes times micrograms per milliliter (area under the curve), divided by milligrams per gram (dose normalized by body weight).", "preferredTerm": "Minute Times Microgram Per Milliliter Per Milligram Per Gram", "submissionValue": "min*ug/mL/(mg/g)"}, {"conceptId": "C117957", "definition": "Minutes times micrograms per milliliter (area under the curve), divided by milligrams per gram per day (daily dose normalized by body weight).", "preferredTerm": "Minute Times Microgram Per Milliliter Per Milligram Per Gram Per Day", "submissionValue": "min*ug/mL/(mg/g/day)"}, {"conceptId": "C112338", "definition": "Minutes times micrograms per milliliter (area under the curve), divided by grams (weight).", "preferredTerm": "Minute Times Microgram Per Milliliter Per Gram", "submissionValue": "min*ug/mL/g"}, {"conceptId": "C112339", "definition": "Minutes times micrograms per milliliter (area under the curve), divided by kilograms (weight).", "preferredTerm": "Minute Times Microgram Per Milliliter Per Kilogram", "submissionValue": "min*ug/mL/kg"}, {"conceptId": "C111259", "definition": "Minutes times micrograms per milliliter (area under the curve), divided by meters squared (surface area).", "preferredTerm": "Minute Times Microgram per Milliliter per Meter Squared", "submissionValue": "min*ug/mL/m2"}, {"conceptId": "C85733", "definition": "Minutes times micromoles per liter (area under the curve).", "preferredTerm": "Minute Times Nanomole per Milliliter", "submissionValue": "min*umol/L"}, {"conceptId": "C111260", "definition": "Minutes times micromoles per liter (area under the curve), divided by kilograms per meter squared (body mass index).", "preferredTerm": "Minute Times Micromole per Liter per Kilogram per Meter Squared", "submissionValue": "min*umol/L/(kg/m2)"}, {"conceptId": "C117958", "definition": "Minutes times micromoles per liter (area under the curve), divided by milligrams per gram (dose normalized by body weight).", "preferredTerm": "Minute Times Micromole Per Liter Per Milligram Per Gram", "submissionValue": "min*umol/L/(mg/g)"}, {"conceptId": "C117959", "definition": "Minutes times micromoles per liter (area under the curve), divided by milligrams per gram per day (daily dose normalized by body weight).", "preferredTerm": "Minute Times Micromole Per Liter Per Milligram Per Gram Per Day", "submissionValue": "min*umol/L/(mg/g/day)"}, {"conceptId": "C112340", "definition": "Minutes times micromoles per liter (area under the curve), divided by grams (weight).", "preferredTerm": "Minute Times Micromole Per Liter Per Gram", "submissionValue": "min*umol/L/g"}, {"conceptId": "C112341", "definition": "Minutes times micromoles per liter (area under the curve), divided by kilograms (weight).", "preferredTerm": "Minute Times Micromole Per Liter Per Kilogram", "submissionValue": "min*umol/L/kg"}, {"conceptId": "C111261", "definition": "Minutes times micromoles per liter (area under the curve), divided by meters squared (surface area).", "preferredTerm": "Minute Times Micromole per Liter per Meter Squared", "submissionValue": "min*umol/L/m2"}, {"conceptId": "C48513", "definition": "A unit of amount of substance equal to 0.001 mole.(NCI)", "preferredTerm": "Millimole", "submissionValue": "mmol", "synonyms": ["Millimole"]}, {"conceptId": "C64387", "definition": "A unit of concentration (molarity unit) equal to one millimole of solute per liter of solution.", "preferredTerm": "Millimole per Liter", "submissionValue": "mmol/L", "synonyms": ["Micromole per Milliliter", "Millimole per Liter", "Mole per Cubic Meter", "mcmol/mL", "mmol/L", "mol/m3", "nmol/uL", "umol/mL"]}, {"conceptId": "C119412", "definition": "Millimoles per liter (concentration), divided by kilograms per meter squared (body mass index).", "preferredTerm": "Millimole per Liter per Kilogram per Meter Squared", "submissionValue": "mmol/L/(kg/m2)"}, {"conceptId": "C119413", "definition": "Millimoles per liter (concentration), divided by milligrams per day (daily dose).", "preferredTerm": "Millimole per Liter per Milligram per Day", "submissionValue": "mmol/L/(mg/day)"}, {"conceptId": "C119414", "definition": "Millimoles per liter (concentration), divided by milligrams per kilogram.", "preferredTerm": "Millimole per Liter per Milligram per Kilogram", "submissionValue": "mmol/L/(mg/kg)"}, {"conceptId": "C119415", "definition": "Millimoles per liter (concentration), divided by milligrams per kilogram per day.", "preferredTerm": "Millimole per Liter per Milligram per Kilogram per Day", "submissionValue": "mmol/L/(mg/kg/day)"}, {"conceptId": "C119416", "definition": "Millimoles per liter (concentration), divided by milligrams per meter squared.", "preferredTerm": "Millimole per Liter per Milligram per Meter Squared", "submissionValue": "mmol/L/(mg/m2)"}, {"conceptId": "C119417", "definition": "Millimoles per liter (concentration), divided by milligrams per meter squared per day (daily dose normalized by surface area).", "preferredTerm": "Millimole per Liter per Milligram per Meter Squared per Day", "submissionValue": "mmol/L/(mg/m2/day)"}, {"conceptId": "C119418", "definition": "Millimoles per liter (concentration), divided by micrograms per day (daily dose).", "preferredTerm": "Millimole per Liter per Microgram per Day", "submissionValue": "mmol/L/(ug/day)"}, {"conceptId": "C119419", "definition": "Millimoles per liter (concentration), divided by micrograms per kilogram.", "preferredTerm": "Millimole per Liter per Microgram per Kilogram", "submissionValue": "mmol/L/(ug/kg)"}, {"conceptId": "C119420", "definition": "Millimoles per liter (concentration), divided by micrograms per kilogram per day.", "preferredTerm": "Millimole per Liter per Microgram per Kilogram per Day", "submissionValue": "mmol/L/(ug/kg/day)"}, {"conceptId": "C119421", "definition": "Millimoles per liter (concentration), divided by micrograms per meter squared.", "preferredTerm": "Millimole per Liter per Microgram per Meter Squared", "submissionValue": "mmol/L/(ug/m2)"}, {"conceptId": "C119422", "definition": "Millimoles per liter (concentration), divided by micrograms per meter squared per day (daily dose normalized by surface area).", "preferredTerm": "Millimole per Liter per Microgram per Meter Squared per Day", "submissionValue": "mmol/L/(ug/m2/day)"}, {"conceptId": "C119423", "definition": "Millimoles per liter (concentration), divided by grams (weight).", "preferredTerm": "Millimole per Liter per Gram", "submissionValue": "mmol/L/g"}, {"conceptId": "C119424", "definition": "Millimoles per liter (concentration), divided by kilograms (weight).", "preferredTerm": "Millimole per Liter per Kilogram", "submissionValue": "mmol/L/kg"}, {"conceptId": "C119425", "definition": "Millimoles per liter (concentration), divided by meters squared (surface area).", "preferredTerm": "Millimole per Liter per Meter Squared", "submissionValue": "mmol/L/m2"}, {"conceptId": "C119426", "definition": "Millimoles per liter (concentration), divided by milligrams (dose).", "preferredTerm": "Millimole per Liter per Milligram", "submissionValue": "mmol/L/mg"}, {"conceptId": "C119427", "definition": "Millimoles per liter (concentration), divided by micrograms (dose).", "preferredTerm": "Millimole per Liter per Microgram", "submissionValue": "mmol/L/ug"}, {"conceptId": "C85720", "definition": "Millimoles per hour.", "preferredTerm": "Millimole per Hour", "submissionValue": "mmol/h"}, {"conceptId": "C85721", "definition": "Millimoles per milliliter per hour.", "preferredTerm": "Millimole per Milliliter per Hour", "submissionValue": "mmol/mL/h", "synonyms": ["mmol/h/mL", "mmol/mL/h", "mol/L/h", "mol/h/L", "umol/h/uL", "umol/uL/h"]}, {"conceptId": "C85722", "definition": "Millimoles per minute.", "preferredTerm": "Millimole per Minute", "submissionValue": "mmol/min"}, {"conceptId": "C42539", "definition": "A unit defined as the amount of substance that contains as many elementary units as there are atoms in 0.012 kg of carbon-12. When the mole is used, the elementary entities must be specified and may be atoms, molecules, ions, electrons, other particles, or specified groups of such particles.(NCI)", "preferredTerm": "Mole", "submissionValue": "mol", "synonyms": ["Mole"]}, {"conceptId": "C48555", "definition": "A unit of concentration (molarity unit) equal to one mole of solute in one liter of solution.(NCI)", "preferredTerm": "Mole per Liter", "submissionValue": "mol/L", "synonyms": ["Mole per Liter", "mmol/mL", "mol/L"]}, {"conceptId": "C119428", "definition": "Moles per liter (concentration), divided by kilograms per meter squared (body mass index).", "preferredTerm": "Mole per Liter per Kilogram per Meter Squared", "submissionValue": "mol/L/(kg/m2)"}, {"conceptId": "C119429", "definition": "Moles per liter (concentration), divided by milligrams per day (daily dose).", "preferredTerm": "Mole per Liter per Milligram per Day", "submissionValue": "mol/L/(mg/day)"}, {"conceptId": "C119430", "definition": "Moles per liter (concentration), divided by milligrams per kilogram.", "preferredTerm": "Mole per Liter per Milligram per Kilogram", "submissionValue": "mol/L/(mg/kg)"}, {"conceptId": "C119431", "definition": "Moles per liter (concentration), divided by milligrams per kilogram per day.", "preferredTerm": "Mole per Liter per Milligram per Kilogram per Day", "submissionValue": "mol/L/(mg/kg/day)"}, {"conceptId": "C119432", "definition": "Moles per liter (concentration), divided by milligrams per meter squared.", "preferredTerm": "Mole per Liter per Milligram per Meter Squared", "submissionValue": "mol/L/(mg/m2)"}, {"conceptId": "C119433", "definition": "Moles per liter (concentration), divided by milligrams per meter squared per day (daily dose normalized by surface area).", "preferredTerm": "Mole per Liter per Milligram per Meter Squared per Day", "submissionValue": "mol/L/(mg/m2/day)"}, {"conceptId": "C119434", "definition": "Moles per liter (concentration), divided by micrograms per day (daily dose).", "preferredTerm": "Mole per Liter per Microgram per Day", "submissionValue": "mol/L/(ug/day)"}, {"conceptId": "C119435", "definition": "Moles per liter (concentration), divided by micrograms per kilogram.", "preferredTerm": "Mole per Liter per Microgram per Kilogram", "submissionValue": "mol/L/(ug/kg)"}, {"conceptId": "C119436", "definition": "Moles per liter (concentration), divided by micrograms per kilogram per day.", "preferredTerm": "Mole per Liter per Microgram per Kilogram per Day", "submissionValue": "mol/L/(ug/kg/day)"}, {"conceptId": "C119437", "definition": "Moles per liter (concentration), divided by micrograms per meter squared.", "preferredTerm": "Mole per Liter per Microgram per Meter Squared", "submissionValue": "mol/L/(ug/m2)"}, {"conceptId": "C119438", "definition": "Moles per liter (concentration), divided by micrograms per meter squared per day (daily dose normalized by surface area).", "preferredTerm": "Mole per Liter per Microgram per Meter Squared per Day", "submissionValue": "mol/L/(ug/m2/day)"}, {"conceptId": "C119439", "definition": "Moles per liter (concentration), divided by grams (weight).", "preferredTerm": "Mole per Liter per Gram", "submissionValue": "mol/L/g"}, {"conceptId": "C119440", "definition": "Moles per liter (concentration), divided by kilograms (weight).", "preferredTerm": "Mole per Liter per Kilogram", "submissionValue": "mol/L/kg"}, {"conceptId": "C119441", "definition": "Moles per liter (concentration), divided by meters squared (surface area).", "preferredTerm": "Mole per Liter per Meter Squared", "submissionValue": "mol/L/m2"}, {"conceptId": "C119442", "definition": "Moles per liter (concentration), divided by milligrams (dose).", "preferredTerm": "Mole per Liter per Milligram", "submissionValue": "mol/L/mg"}, {"conceptId": "C119443", "definition": "Moles per liter (concentration), divided by micrograms (dose).", "preferredTerm": "Mole per Liter per Microgram", "submissionValue": "mol/L/ug"}, {"conceptId": "C85737", "definition": "Moles per day.", "preferredTerm": "Mole per Day", "submissionValue": "mol/day", "synonyms": ["mol/d"]}, {"conceptId": "C85738", "definition": "Moles per hour.", "preferredTerm": "Mole per Hour", "submissionValue": "mol/h"}, {"conceptId": "C85739", "definition": "Moles per minute.", "preferredTerm": "Mole per Minute", "submissionValue": "mol/min"}, {"conceptId": "C69188", "definition": "A unit of volume equal to one billionth of a liter (10E-9 liter).(NCI)", "preferredTerm": "Nanoliter", "submissionValue": "nL", "synonyms": ["Nanoliter"]}, {"conceptId": "C85760", "definition": "Nanounits per milliliter.", "preferredTerm": "Nanounit per Milliliter", "submissionValue": "nU/mL", "synonyms": ["mcU/L", "nU/mL", "uU/L"]}, {"conceptId": "C48516", "definition": "A unit of mass equal to one billionth (10E-9) of a gram, or one millionth (10E-6) of a milligram.(NCI)", "preferredTerm": "Nanogram", "submissionValue": "ng", "synonyms": ["Nanogram"]}, {"conceptId": "C85741", "definition": "Nanograms per day.", "preferredTerm": "Nanogram per Day", "submissionValue": "ng/day", "synonyms": ["ng/d"]}, {"conceptId": "C85742", "definition": "Nanograms per hour.", "preferredTerm": "Nanogram per Hour", "submissionValue": "ng/h"}, {"conceptId": "C85743", "definition": "Nanograms per kilogram per minute.", "preferredTerm": "Nanogram per Kilogram per Minute", "submissionValue": "ng/kg/min", "synonyms": ["ng/kg/min", "ng/min/kg", "pg/g/min", "pg/min/g"]}, {"conceptId": "C67306", "definition": "A unit of concentration or mass density equal to one nanogram of substance per milliliter of solution or one microgram of substance per liter of solution.", "preferredTerm": "Microgram per Liter", "submissionValue": "ng/mL", "synonyms": ["Microgram per Liter", "Milligram per Cubic Meter", "Nanogram per Milliliter", "mcg/L", "mg/m3", "ng/mL", "ug/L"]}, {"conceptId": "C119444", "definition": "Nanograms per milliliter (concentration), divided by kilograms per meter squared (body mass index).", "preferredTerm": "Nanogram per Milliliter per Kilogram per Meter Squared", "submissionValue": "ng/mL/(kg/m2)"}, {"conceptId": "C119445", "definition": "Nanograms per milliliter (concentration), divided by milligrams per day (daily dose).", "preferredTerm": "Nanogram per Milliliter per Milligram per Day", "submissionValue": "ng/mL/(mg/day)"}, {"conceptId": "C105477", "definition": "Nanograms per milliliter (concentration), divided by milligrams per kilogram (dose normalized by body weight).", "preferredTerm": "Nanogram Per Milliliter Per Milligram Per Kilogram", "submissionValue": "ng/mL/(mg/kg)"}, {"conceptId": "C105478", "definition": "Nanograms per milliliter (concentration), divided by milligrams per kilogram per day (daily dose normalized by body weight).", "preferredTerm": "Nanogram Per Milliliter Per Milligram Per Kilogram Per Day", "submissionValue": "ng/mL/(mg/kg/day)"}, {"conceptId": "C119446", "definition": "Nanograms per milliliter (concentration), divided by milligrams per meter squared.", "preferredTerm": "Nanogram per Milliliter per Milligram per Meter Squared", "submissionValue": "ng/mL/(mg/m2)"}, {"conceptId": "C119447", "definition": "Nanograms per milliliter (concentration), divided by milligrams per meter squared per day (daily dose normalized by surface area).", "preferredTerm": "Nanogram per Milliliter per Milligram per Meter Squared per Day", "submissionValue": "ng/mL/(mg/m2/day)"}, {"conceptId": "C119448", "definition": "Nanograms per milliliter (concentration), divided by micrograms per day (daily dose).", "preferredTerm": "Nanogram per Milliliter per Microgram per Day", "submissionValue": "ng/mL/(ug/day)"}, {"conceptId": "C119449", "definition": "Nanograms per milliliter (concentration), divided by micrograms per kilogram.", "preferredTerm": "Nanogram per Milliliter per Microgram per Kilogram", "submissionValue": "ng/mL/(ug/kg)"}, {"conceptId": "C119450", "definition": "Nanograms per milliliter (concentration), divided by micrograms per kilogram per day.", "preferredTerm": "Nanogram per Milliliter per Microgram per Kilogram per Day", "submissionValue": "ng/mL/(ug/kg/day)"}, {"conceptId": "C119451", "definition": "Nanograms per milliliter (concentration), divided by micrograms per meter squared.", "preferredTerm": "Nanogram per Milliliter per Microgram per Meter Squared", "submissionValue": "ng/mL/(ug/m2)"}, {"conceptId": "C119452", "definition": "Nanograms per milliliter (concentration), divided by micrograms per meter squared per day (daily dose normalized by surface area).", "preferredTerm": "Nanogram per Milliliter per Microgram per Meter Squared per Day", "submissionValue": "ng/mL/(ug/m2/day)"}, {"conceptId": "C119453", "definition": "Nanograms per milliliter (concentration), divided by grams (weight).", "preferredTerm": "Nanogram per Milliliter per Gram", "submissionValue": "ng/mL/g"}, {"conceptId": "C67430", "definition": "Nanograms per milliliter per hour.", "preferredTerm": "Nanogram per Milliliter per Hour", "submissionValue": "ng/mL/h", "synonyms": ["ng/h/mL", "ng/mL/h", "ug/L/h"]}, {"conceptId": "C85746", "definition": "Nanograms per milliliter (concentration), divided by kilograms (weight).", "preferredTerm": "Nanogram per Milliliter per Kilogram", "submissionValue": "ng/mL/kg"}, {"conceptId": "C119454", "definition": "Nanograms per milliliter (concentration), divided by meters squared (surface area).", "preferredTerm": "Nanogram per Milliliter per Meter Squared", "submissionValue": "ng/mL/m2"}, {"conceptId": "C85747", "definition": "Nanograms per milliliter (concentration), divided by milligrams (dose).", "preferredTerm": "Nanogram per Milliliter per Milligram", "submissionValue": "ng/mL/mg"}, {"conceptId": "C119455", "definition": "Nanograms per milliliter (concentration), divided by micrograms (dose).", "preferredTerm": "Nanogram per Milliliter per Microgram", "submissionValue": "ng/mL/ug"}, {"conceptId": "C85744", "definition": "Nanograms per milligram of creatinine.", "preferredTerm": "Nanogram per Milligram of Creatinine", "submissionValue": "ng/mg of Creatinine", "synonyms": ["ng/mg of Creatinine", "ug/g of Creatinine"]}, {"conceptId": "C85749", "definition": "Nanograms per minute.", "preferredTerm": "Nanogram per Minute", "submissionValue": "ng/min"}, {"conceptId": "C48517", "definition": "A unit of amount of substance equal to one billionth (10E-9) of a mole.(NCI)", "preferredTerm": "Nanomole", "submissionValue": "nmol", "synonyms": ["Nanomole"]}, {"conceptId": "C67432", "definition": "A unit of concentration (molarity unit) equal to one nanomole of solute per liter of solution.", "preferredTerm": "Nanomole per Liter", "submissionValue": "nmol/L", "synonyms": ["Nanomole per Liter", "pmol/mL"]}, {"conceptId": "C119456", "definition": "Nanomoles per liter (concentration), divided by kilograms per meter squared (body mass index).", "preferredTerm": "Nanomole per Liter per Kilogram per Meter Squared", "submissionValue": "nmol/L/(kg/m2)"}, {"conceptId": "C119457", "definition": "Nanomoles per liter (concentration), divided by milligrams per day (daily dose).", "preferredTerm": "Nanomole per Liter per Milligram per Day", "submissionValue": "nmol/L/(mg/day)"}, {"conceptId": "C119458", "definition": "Nanomoles per liter (concentration), divided by milligrams per kilogram.", "preferredTerm": "Nanomole per Liter per Milligram per Kilogram", "submissionValue": "nmol/L/(mg/kg)"}, {"conceptId": "C119459", "definition": "Nanomoles per liter (concentration), divided by milligrams per kilogram per day.", "preferredTerm": "Nanomole per Liter per Milligram per Kilogram per Day", "submissionValue": "nmol/L/(mg/kg/day)"}, {"conceptId": "C119460", "definition": "Nanomoles per liter (concentration), divided by milligrams per meter squared.", "preferredTerm": "Nanomole per Liter per Milligram per Meter Squared", "submissionValue": "nmol/L/(mg/m2)"}, {"conceptId": "C119461", "definition": "Nanomoles per liter (concentration), divided by milligrams per meter squared per day (daily dose normalized by surface area).", "preferredTerm": "Nanomole per Liter per Milligram per Meter Squared per Day", "submissionValue": "nmol/L/(mg/m2/day)"}, {"conceptId": "C119462", "definition": "Nanomoles per liter (concentration), divided by micrograms per day (daily dose).", "preferredTerm": "Nanomole per Liter per Microgram per Day", "submissionValue": "nmol/L/(ug/day)"}, {"conceptId": "C119463", "definition": "Nanomoles per liter (concentration), divided by micrograms per kilogram.", "preferredTerm": "Nanomole per Liter per Microgram per Kilogram", "submissionValue": "nmol/L/(ug/kg)"}, {"conceptId": "C119464", "definition": "Nanomoles per liter (concentration), divided by micrograms per kilogram per day.", "preferredTerm": "Nanomole per Liter per Microgram per Kilogram per Day", "submissionValue": "nmol/L/(ug/kg/day)"}, {"conceptId": "C119465", "definition": "Nanomoles per liter (concentration), divided by micrograms per meter squared.", "preferredTerm": "Nanomole per Liter per Microgram per Meter Squared", "submissionValue": "nmol/L/(ug/m2)"}, {"conceptId": "C119466", "definition": "Nanomoles per liter (concentration), divided by micrograms per meter squared per day (daily dose normalized by surface area).", "preferredTerm": "Nanomole per Liter per Microgram per Meter Squared per Day", "submissionValue": "nmol/L/(ug/m2/day)"}, {"conceptId": "C119467", "definition": "Nanomoles per liter (concentration), divided by grams (weight).", "preferredTerm": "Nanomole per Liter per Gram", "submissionValue": "nmol/L/g"}, {"conceptId": "C119468", "definition": "Nanomoles per liter (concentration), divided by kilograms (weight).", "preferredTerm": "Nanomole per Liter per Kilogram", "submissionValue": "nmol/L/kg"}, {"conceptId": "C119469", "definition": "Nanomoles per liter (concentration), divided by meters squared (surface area).", "preferredTerm": "Nanomole per Liter per Meter Squared", "submissionValue": "nmol/L/m2"}, {"conceptId": "C119470", "definition": "Nanomoles per liter (concentration), divided by milligrams (dose).", "preferredTerm": "Nanomole per Liter per Milligram", "submissionValue": "nmol/L/mg"}, {"conceptId": "C119471", "definition": "Nanomoles per liter (concentration), divided by micrograms (dose).", "preferredTerm": "Nanomole per Liter per Microgram", "submissionValue": "nmol/L/ug"}, {"conceptId": "C85751", "definition": "Nanomoles per day.", "preferredTerm": "Nanomole per Day", "submissionValue": "nmol/day", "synonyms": ["nmol/d"]}, {"conceptId": "C85752", "definition": "Nanomoles per gram.", "preferredTerm": "Nanomole per Gram", "submissionValue": "nmol/g", "synonyms": ["nmol/g", "pmol/mg", "umol/kg"]}, {"conceptId": "C85753", "definition": "Nanomoles per hour.", "preferredTerm": "Nanomole per Hour", "submissionValue": "nmol/h"}, {"conceptId": "C85754", "definition": "Nanomoles per kilogram.", "preferredTerm": "Nanomole per Kilogram", "submissionValue": "nmol/kg", "synonyms": ["nmol/kg", "pmol/g"]}, {"conceptId": "C85757", "definition": "Nanomoles per milliliter per hour.", "preferredTerm": "Nanomole per Milliliter per Hour", "submissionValue": "nmol/mL/h", "synonyms": ["nmol/h/mL", "nmol/mL/h", "umol/L/h"]}, {"conceptId": "C85758", "definition": "Nanomoles per minute.", "preferredTerm": "Nanomole per Minute", "submissionValue": "nmol/min"}, {"conceptId": "C67331", "definition": "Picograms per deciliter.", "preferredTerm": "Picogram per Deciliter", "submissionValue": "pg/dL", "synonyms": ["Picogram per Deciliter"]}, {"conceptId": "C85778", "definition": "Picograms per day.", "preferredTerm": "Picogram per Day", "submissionValue": "pg/day", "synonyms": ["pg/d"]}, {"conceptId": "C85779", "definition": "Picograms per hour.", "preferredTerm": "Picogram per Hour", "submissionValue": "pg/h"}, {"conceptId": "C67327", "definition": "A unit of concentration or mass density equal to one picogram of substance per milliliter of solution or one nanogram of substance per liter of solution.", "preferredTerm": "Nanogram per Liter", "submissionValue": "pg/mL", "synonyms": ["Microgram per Cubic Meter", "ng/L", "pg/mL", "ug/m3"]}, {"conceptId": "C119472", "definition": "Picograms per milliliter (concentration), divided by kilograms per meter squared (body mass index).", "preferredTerm": "Picogram per Milliliter per Kilogram per Meter Squared", "submissionValue": "pg/mL/(kg/m2)"}, {"conceptId": "C119473", "definition": "Picograms per milliliter (concentration), divided by milligrams per day (daily dose).", "preferredTerm": "Picogram per Milliliter per Milligram per Day", "submissionValue": "pg/mL/(mg/day)"}, {"conceptId": "C105479", "definition": "Picograms per milliliter (concentration), divided by milligrams per kilogram (dose normalized by body weight).", "preferredTerm": "Picogram Per Milliliter Per Milligram Per Kilogram", "submissionValue": "pg/mL/(mg/kg)"}, {"conceptId": "C105480", "definition": "Picograms per milliliter (concentration), divided by milligrams per kilogram per day (daily dose normalized by body weight).", "preferredTerm": "Picogram Per Milliliter Per Milligram Per Kilogram Per Day", "submissionValue": "pg/mL/(mg/kg/day)"}, {"conceptId": "C119474", "definition": "Picograms per milliliter (concentration), divided by milligrams per meter squared.", "preferredTerm": "Picogram per Milliliter per Milligram per Meter Squared", "submissionValue": "pg/mL/(mg/m2)"}, {"conceptId": "C119475", "definition": "Picograms per milliliter (concentration), divided by milligrams per meter squared per day (daily dose normalized by surface area).", "preferredTerm": "Picogram per Milliliter per Milligram per Meter Squared per Day", "submissionValue": "pg/mL/(mg/m2/day)"}, {"conceptId": "C119476", "definition": "Picograms per milliliter (concentration), divided by micrograms per day (daily dose).", "preferredTerm": "Picogram per Milliliter per Microgram per Day", "submissionValue": "pg/mL/(ug/day)"}, {"conceptId": "C119477", "definition": "Picograms per milliliter (concentration), divided by micrograms per kilogram.", "preferredTerm": "Picogram per Milliliter per Microgram per Kilogram", "submissionValue": "pg/mL/(ug/kg)"}, {"conceptId": "C119478", "definition": "Picograms per milliliter (concentration), divided by micrograms per kilogram per day.", "preferredTerm": "Picogram per Milliliter per Microgram per Kilogram per Day", "submissionValue": "pg/mL/(ug/kg/day)"}, {"conceptId": "C119479", "definition": "Picograms per milliliter (concentration), divided by micrograms per meter squared.", "preferredTerm": "Picogram per Milliliter per Microgram per Meter Squared", "submissionValue": "pg/mL/(ug/m2)"}, {"conceptId": "C119480", "definition": "Picograms per milliliter (concentration), divided by micrograms per meter squared per day (daily dose normalized by surface area).", "preferredTerm": "Picogram per Milliliter per Microgram per Meter Squared per Day", "submissionValue": "pg/mL/(ug/m2/day)"}, {"conceptId": "C119481", "definition": "Picograms per milliliter (concentration), divided by grams (weight).", "preferredTerm": "Picogram per Milliliter per Gram", "submissionValue": "pg/mL/g"}, {"conceptId": "C119482", "definition": "Picograms per milliliter (concentration), divided by kilograms (weight).", "preferredTerm": "Picogram per Milliliter per Kilogram", "submissionValue": "pg/mL/kg"}, {"conceptId": "C119483", "definition": "Picograms per milliliter (concentration), divided by meters squared (surface area).", "preferredTerm": "Picogram per Milliliter per Meter Squared", "submissionValue": "pg/mL/m2"}, {"conceptId": "C119484", "definition": "Picograms per milliliter (concentration), divided by milligrams (dose).", "preferredTerm": "Picogram per Milliliter per Milligram", "submissionValue": "pg/mL/mg"}, {"conceptId": "C85781", "definition": "Picograms per milliliter (concentration), divided by micrograms (dose).", "preferredTerm": "Picogram per Milliliter per Microgram", "submissionValue": "pg/mL/ug", "synonyms": ["pg/mL/mcg"]}, {"conceptId": "C67396", "definition": "A unit of a mass fraction expressed as a number of micrograms of substance per kilogram of mixture. The unit is also used as a dose calculation unit.(NCI)", "preferredTerm": "Microgram per Kilogram", "submissionValue": "pg/mg", "synonyms": ["Microgram per Kilogram", "mcg/kg", "ng/g", "pg/mg", "ug/kg"]}, {"conceptId": "C85780", "definition": "Picograms per milligram creatinine.", "preferredTerm": "Picogram per Milligram of Creatinine", "submissionValue": "pg/mg Creatinine", "synonyms": ["ng/g of Creatinine", "pg/mg of Creatinine"]}, {"conceptId": "C85782", "definition": "Picograms per minute.", "preferredTerm": "Picogram per Minute", "submissionValue": "pg/min"}, {"conceptId": "C67434", "definition": "A unit of concentration (molarity unit) equal to one picomole of solute per liter of solution.", "preferredTerm": "Picomole per Liter", "submissionValue": "pmol/L", "synonyms": ["Femtomole per Milliliter", "Picomole per Liter", "fmol/mL"]}, {"conceptId": "C119485", "definition": "Picomoles per liter (concentration), divided by kilograms per meter squared (body mass index).", "preferredTerm": "Picomole per Liter per Kilogram per Meter Squared", "submissionValue": "pmol/L/(kg/m2)"}, {"conceptId": "C119486", "definition": "Picomoles per liter (concentration), divided by milligrams per day (daily dose).", "preferredTerm": "Picomole per Liter per Milligram per Day", "submissionValue": "pmol/L/(mg/day)"}, {"conceptId": "C119487", "definition": "Picomoles per liter (concentration), divided by milligrams per kilogram.", "preferredTerm": "Picomole per Liter per Milligram per Kilogram", "submissionValue": "pmol/L/(mg/kg)"}, {"conceptId": "C119488", "definition": "Picomoles per liter (concentration), divided by milligrams per kilogram per day.", "preferredTerm": "Picomole per Liter per Milligram per Kilogram per Day", "submissionValue": "pmol/L/(mg/kg/day)"}, {"conceptId": "C119489", "definition": "Picomoles per liter (concentration), divided by milligrams per meter squared.", "preferredTerm": "Picomole per Liter per Milligram per Meter Squared", "submissionValue": "pmol/L/(mg/m2)"}, {"conceptId": "C119490", "definition": "Picomoles per liter (concentration), divided by milligrams per meter squared per day (daily dose normalized by surface area).", "preferredTerm": "Picomole per Liter per Milligram per Meter Squared per Day", "submissionValue": "pmol/L/(mg/m2/day)"}, {"conceptId": "C119491", "definition": "Picomoles per liter (concentration), divided by micrograms per day (daily dose).", "preferredTerm": "Picomole per Liter per Microgram per Day", "submissionValue": "pmol/L/(ug/day)"}, {"conceptId": "C119492", "definition": "Picomoles per liter (concentration), divided by micrograms per kilogram.", "preferredTerm": "Picomole per Liter per Microgram per Kilogram", "submissionValue": "pmol/L/(ug/kg)"}, {"conceptId": "C119493", "definition": "Picomoles per liter (concentration), divided by micrograms per kilogram per day.", "preferredTerm": "Picomole per Liter per Microgram per Kilogram per Day", "submissionValue": "pmol/L/(ug/kg/day)"}, {"conceptId": "C119494", "definition": "Picomoles per liter (concentration), divided by micrograms per meter squared.", "preferredTerm": "Picomole per Liter per Microgram per Meter Squared", "submissionValue": "pmol/L/(ug/m2)"}, {"conceptId": "C119495", "definition": "Picomoles per liter (concentration), divided by micrograms per meter squared per day (daily dose normalized by surface area).", "preferredTerm": "Picomole per Liter per Microgram per Meter Squared per Day", "submissionValue": "pmol/L/(ug/m2/day)"}, {"conceptId": "C119496", "definition": "Picomoles per liter (concentration), divided by grams (weight).", "preferredTerm": "Picomole per Liter per Gram", "submissionValue": "pmol/L/g"}, {"conceptId": "C119497", "definition": "Picomoles per liter (concentration), divided by kilograms (weight).", "preferredTerm": "Picomole per Liter per Kilogram", "submissionValue": "pmol/L/kg"}, {"conceptId": "C119498", "definition": "Picomoles per liter (concentration), divided by meters squared (surface area).", "preferredTerm": "Picomole per Liter per Meter Squared", "submissionValue": "pmol/L/m2"}, {"conceptId": "C119499", "definition": "Picomoles per liter (concentration), divided by milligrams (dose).", "preferredTerm": "Picomole per Liter per Milligram", "submissionValue": "pmol/L/mg"}, {"conceptId": "C85784", "definition": "Picomoles per liter (concentration), divided by micrograms (dose).", "preferredTerm": "Picomole per Liter per Microgram", "submissionValue": "pmol/L/ug"}, {"conceptId": "C67405", "definition": "A unit of concentration (biologic activity) equal to one micro-international unit of substance per milliliter of solution or one milli-international unit of substance per liter of solution.", "preferredTerm": "Microinternational Unit per Milliliter", "submissionValue": "uIU/mL", "synonyms": ["Micro-International Unit per milliliter", "mIE/L", "mIU/L", "mcIU/mL", "uIU/mL"]}, {"conceptId": "C119513", "definition": "Micro-international units per milliliter (concentration), divided by kilograms per meter squared (body mass index).", "preferredTerm": "Micro-International Units per Milliliter per Kilogram per Meter Squared", "submissionValue": "uIU/mL/(kg/m2)"}, {"conceptId": "C119514", "definition": "Micro-international units per milliliter (concentration), divided by milligrams per day (daily dose).", "preferredTerm": "Micro-International Units per Milliliter per Milligram per Day", "submissionValue": "uIU/mL/(mg/day)"}, {"conceptId": "C119515", "definition": "Micro-international units per milliliter (concentration), divided by milligrams per kilogram.", "preferredTerm": "Micro-International Units per Milliliter per Milligram per Kilogram", "submissionValue": "uIU/mL/(mg/kg)"}, {"conceptId": "C119516", "definition": "Micro-international units per milliliter (concentration), divided by milligrams per kilogram per day.", "preferredTerm": "Micro-International Units per Milliliter per Milligram per Kilogram per Day", "submissionValue": "uIU/mL/(mg/kg/day)"}, {"conceptId": "C119517", "definition": "Micro-international units per milliliter (concentration), divided by milligrams per meter squared.", "preferredTerm": "Micro-International Units per Milliliter per Milligram per Meter Squared", "submissionValue": "uIU/mL/(mg/m2)"}, {"conceptId": "C119518", "definition": "Micro-international units per milliliter (concentration), divided by milligrams per meter squared per day (daily dose normalized by surface area).", "preferredTerm": "Micro-International Units per Milliliter per Milligram per Meter Squared per Day", "submissionValue": "uIU/mL/(mg/m2/day)"}, {"conceptId": "C119519", "definition": "Micro-international units per milliliter (concentration), divided by micrograms per day (daily dose).", "preferredTerm": "Micro-International Units per Milliliter per Microgram per Day", "submissionValue": "uIU/mL/(ug/day)"}, {"conceptId": "C119520", "definition": "Micro-international units per milliliter (concentration), divided by micrograms per kilogram.", "preferredTerm": "Micro-International Units per Milliliter per Microgram per Kilogram", "submissionValue": "uIU/mL/(ug/kg)"}, {"conceptId": "C119521", "definition": "Micro-international units per milliliter (concentration), divided by micrograms per kilogram per day.", "preferredTerm": "Micro-International Units per Milliliter per Microgram per Kilogram per Day", "submissionValue": "uIU/mL/(ug/kg/day)"}, {"conceptId": "C119522", "definition": "Micro-international units per milliliter (concentration), divided by micrograms per meter squared.", "preferredTerm": "Micro-International Units per Milliliter per Microgram per Meter Squared", "submissionValue": "uIU/mL/(ug/m2)"}, {"conceptId": "C119523", "definition": "Micro-international units per milliliter (concentration), divided by micrograms per meter squared per day (daily dose normalized by surface area).", "preferredTerm": "Micro-International Units per Milliliter per Microgram per Meter Squared per Day", "submissionValue": "uIU/mL/(ug/m2/day)"}, {"conceptId": "C119524", "definition": "Micro-international units per milliliter (concentration), divided by grams (weight).", "preferredTerm": "Micro-International Units per Milliliter per Gram", "submissionValue": "uIU/mL/g"}, {"conceptId": "C119525", "definition": "Micro-international units per milliliter (concentration), divided by kilograms (weight).", "preferredTerm": "Micro-International Units per Milliliter per Kilogram", "submissionValue": "uIU/mL/kg"}, {"conceptId": "C119526", "definition": "Micro-international units per milliliter (concentration), divided by meters squared (surface area).", "preferredTerm": "Micro-International Units per Milliliter per Meter Squared", "submissionValue": "uIU/mL/m2"}, {"conceptId": "C119527", "definition": "Micro-international units per milliliter (concentration), divided by milligrams (dose).", "preferredTerm": "Micro-International Units per Milliliter per Milligram", "submissionValue": "uIU/mL/mg"}, {"conceptId": "C119528", "definition": "Micro-international units per milliliter (concentration), divided by micrograms (dose).", "preferredTerm": "Micro-International Units per Milliliter per Microgram", "submissionValue": "uIU/mL/ug"}, {"conceptId": "C48152", "definition": "The unit of mass equal to one millionth of a gram or one thousandth of a milligram.(NCI)", "preferredTerm": "Microgram", "submissionValue": "ug", "synonyms": ["Microgram", "mcg"]}, {"conceptId": "C71205", "definition": "A unit of mass flow rate equivalent to the rate at which one millionth of a gram of matter travels to a given object or space over a period of time equal to twenty four hours. Microgram per day is also a dose administration rate unit equal to the rate at which one millionth of a gram of a product is administered per unit of time equal to twenty four hours.(NCI)", "preferredTerm": "Microgram per Day", "submissionValue": "ug/day", "synonyms": ["Microgram per Day", "mcg/day"]}, {"conceptId": "C67394", "definition": "A unit of mass flow rate equivalent to the rate at which one millionth of a gram of matter travels to a given object or space over a period of time equal to one hour.(NCI)", "preferredTerm": "Microgram per Hour", "submissionValue": "ug/h", "synonyms": ["Micrograms per Hour", "mcg/h"]}, {"conceptId": "C85703", "definition": "Micrograms per inhalation.", "preferredTerm": "Microgram per Inhalation", "submissionValue": "ug/inh", "synonyms": ["mcg/inh"]}, {"conceptId": "C64572", "definition": "A unit of concentration or mass density equal to one microgram of substance per milliliter of solution or one milligram of substance per liter of solution.", "preferredTerm": "Microgram per Milliliter", "submissionValue": "ug/mL", "synonyms": ["Gram per Cubic Meter", "Microgram per Milliliter", "Milligram per Liter", "g/m3", "mcg/mL", "mg/L", "ng/uL", "ug/mL"]}, {"conceptId": "C119500", "definition": "Micrograms per milliliter (concentration), divided by kilograms per meter squared (body mass index).", "preferredTerm": "Microgram per Milliliter per Kilogram per Meter Squared", "submissionValue": "ug/mL/(kg/m2)"}, {"conceptId": "C119501", "definition": "Micrograms per milliliter (concentration), divided by milligrams per day (daily dose).", "preferredTerm": "Microgram per Milliliter per Milligram per Day", "submissionValue": "ug/mL/(mg/day)"}, {"conceptId": "C105473", "definition": "Micrograms per milliliter (concentration), divided by milligrams per kilogram (dose normalized by body weight).", "preferredTerm": "Microgram Per Milliliter Per Milligram Per Kilogram", "submissionValue": "ug/mL/(mg/kg)"}, {"conceptId": "C105474", "definition": "Micrograms per milliliter (concentration), divided by milligrams per kilogram per day (daily dose normalized by body weight).", "preferredTerm": "Microgram Per Milliliter Per Milligram Per Kilogram Per Day", "submissionValue": "ug/mL/(mg/kg/day)"}, {"conceptId": "C119502", "definition": "Micrograms per milliliter (concentration), divided by milligrams per meter squared.", "preferredTerm": "Microgram per Milliliter per Milligram per Meter Squared", "submissionValue": "ug/mL/(mg/m2)"}, {"conceptId": "C119503", "definition": "Micrograms per milliliter (concentration), divided by milligrams per meter squared per day (daily dose normalized by surface area).", "preferredTerm": "Microgram per Milliliter per Milligram per Meter Squared per Day", "submissionValue": "ug/mL/(mg/m2/day)"}, {"conceptId": "C119504", "definition": "Micrograms per milliliter (concentration), divided by micrograms per day (daily dose).", "preferredTerm": "Microgram per Milliliter per Microgram per Day", "submissionValue": "ug/mL/(ug/day)"}, {"conceptId": "C119505", "definition": "Micrograms per milliliter (concentration), divided by micrograms per kilogram.", "preferredTerm": "Microgram per Milliliter per Microgram per Kilogram", "submissionValue": "ug/mL/(ug/kg)"}, {"conceptId": "C119506", "definition": "Micrograms per milliliter (concentration), divided by micrograms per kilogram per day.", "preferredTerm": "Microgram per Milliliter per Microgram per Kilogram per Day", "submissionValue": "ug/mL/(ug/kg/day)"}, {"conceptId": "C119507", "definition": "Micrograms per milliliter (concentration), divided by micrograms per meter squared.", "preferredTerm": "Microgram per Milliliter per Microgram per Meter Squared", "submissionValue": "ug/mL/(ug/m2)"}, {"conceptId": "C119508", "definition": "Micrograms per milliliter (concentration), divided by micrograms per meter squared per day (daily dose normalized by surface area).", "preferredTerm": "Microgram per Milliliter per Microgram per Meter Squared per Day", "submissionValue": "ug/mL/(ug/m2/day)"}, {"conceptId": "C119509", "definition": "Micrograms per milliliter (concentration), divided by grams (weight).", "preferredTerm": "Microgram per Milliliter per Gram", "submissionValue": "ug/mL/g"}, {"conceptId": "C119510", "definition": "Micrograms per milliliter (concentration), divided by kilograms (weight).", "preferredTerm": "Microgram per Milliliter per Kilogram", "submissionValue": "ug/mL/kg"}, {"conceptId": "C119511", "definition": "Micrograms per milliliter (concentration), divided by meters squared (surface area).", "preferredTerm": "Microgram per Milliliter per Meter Squared", "submissionValue": "ug/mL/m2"}, {"conceptId": "C85710", "definition": "Micrograms per milliliter (concentration), divided by milligrams (dose).", "preferredTerm": "Milligram per Liter per Milligram", "submissionValue": "ug/mL/mg"}, {"conceptId": "C119512", "definition": "Micrograms per milliliter (concentration), divided by micrograms (dose).", "preferredTerm": "Microgram per Milliliter per Microgram", "submissionValue": "ug/mL/ug"}, {"conceptId": "C71211", "definition": "A unit of mass flow rate equivalent to the rate at which one millionth of a gram of matter travels to a given object or space over a period of time equal to one minute. Microgram per minute is also a dose administration rate unit equal to the rate at which one millionth of a gram of a product is administered per unit of time equal to one minute.(NCI)", "preferredTerm": "Microgram per Minute", "submissionValue": "ug/min", "synonyms": ["Micrograms per Minute", "mcg/min"]}, {"conceptId": "C85704", "definition": "Micrograms per puff.", "preferredTerm": "Microgram per Puff", "submissionValue": "ug/puff", "synonyms": ["mcg/puff"]}, {"conceptId": "C48509", "definition": "A unit of amount of substance equal to one millionth (10E-6) of a mole.(NCI)", "preferredTerm": "Micromole", "submissionValue": "umol", "synonyms": ["Micromole", "mcmol"]}, {"conceptId": "C48508", "definition": "A unit of concentration (molarity unit) equal to one micromole of solute per liter of solution.", "preferredTerm": "Micromole per Liter", "submissionValue": "umol/L", "synonyms": ["Micromole per Liter"]}, {"conceptId": "C119529", "definition": "Micromoles per liter (concentration), divided by kilograms per meter squared (body mass index).", "preferredTerm": "Micromole per Liter per Kilogram per Meter Squared", "submissionValue": "umol/L/(kg/m2)"}, {"conceptId": "C119530", "definition": "Micromoles per liter (concentration), divided by milligrams per day (daily dose).", "preferredTerm": "Micromole per Liter per Milligram per Day", "submissionValue": "umol/L/(mg/day)"}, {"conceptId": "C119531", "definition": "Micromoles per liter (concentration), divided by milligrams per kilogram.", "preferredTerm": "Micromole per Liter per Milligram per Kilogram", "submissionValue": "umol/L/(mg/kg)"}, {"conceptId": "C119532", "definition": "Micromoles per liter (concentration), divided by milligrams per kilogram per day.", "preferredTerm": "Micromole per Liter per Milligram per Kilogram per Day", "submissionValue": "umol/L/(mg/kg/day)"}, {"conceptId": "C119533", "definition": "Micromoles per liter (concentration), divided by milligrams per meter squared.", "preferredTerm": "Micromole per Liter per Milligram per Meter Squared", "submissionValue": "umol/L/(mg/m2)"}, {"conceptId": "C119534", "definition": "Micromoles per liter (concentration), divided by milligrams per meter squared per day (daily dose normalized by surface area).", "preferredTerm": "Micromole per Liter per Milligram per Meter Squared per Day", "submissionValue": "umol/L/(mg/m2/day)"}, {"conceptId": "C119535", "definition": "Micromoles per liter (concentration), divided by micrograms per day (daily dose).", "preferredTerm": "Micromole per Liter per Microgram per Day", "submissionValue": "umol/L/(ug/day)"}, {"conceptId": "C119536", "definition": "Micromoles per liter (concentration), divided by micrograms per kilogram.", "preferredTerm": "Micromole per Liter per Microgram per Kilogram", "submissionValue": "umol/L/(ug/kg)"}, {"conceptId": "C119537", "definition": "Micromoles per liter (concentration), divided by micrograms per kilogram per day.", "preferredTerm": "Micromole per Liter per Microgram per Kilogram per Day", "submissionValue": "umol/L/(ug/kg/day)"}, {"conceptId": "C119538", "definition": "Micromoles per liter (concentration), divided by micrograms per meter squared.", "preferredTerm": "Micromole per Liter per Microgram per Meter Squared", "submissionValue": "umol/L/(ug/m2)"}, {"conceptId": "C119539", "definition": "Micromoles per liter (concentration), divided by micrograms per meter squared per day (daily dose normalized by surface area).", "preferredTerm": "Micromole per Liter per Microgram per Meter Squared per Day", "submissionValue": "umol/L/(ug/m2/day)"}, {"conceptId": "C119540", "definition": "Micromoles per liter (concentration), divided by grams (weight).", "preferredTerm": "Micromole per Liter per Gram", "submissionValue": "umol/L/g"}, {"conceptId": "C119541", "definition": "Micromoles per liter (concentration), divided by kilograms (weight).", "preferredTerm": "Micromole per Liter per Kilogram", "submissionValue": "umol/L/kg"}, {"conceptId": "C119542", "definition": "Micromoles per liter (concentration), divided by meters squared (surface area).", "preferredTerm": "Micromole per Liter per Meter Squared", "submissionValue": "umol/L/m2"}, {"conceptId": "C119543", "definition": "Micromoles per liter (concentration), divided by milligrams (dose).", "preferredTerm": "Micromole per Liter per Milligram", "submissionValue": "umol/L/mg"}, {"conceptId": "C119544", "definition": "Micromoles per liter (concentration), divided by micrograms (dose).", "preferredTerm": "Micromole per Liter per Microgram", "submissionValue": "umol/L/ug"}, {"conceptId": "C67406", "definition": "A unit of amount of substance flow rate equivalent to the rate at which one millionth of a mole of substance travels to a given object or space over a period of time equal to 24 hours.(NCI)", "preferredTerm": "Micromole per 24 Hours", "submissionValue": "umol/day", "synonyms": ["Micromoles per Day", "mcmol/day"]}, {"conceptId": "C85707", "definition": "Micromoles per hour.", "preferredTerm": "Micromole per Hour", "submissionValue": "umol/h", "synonyms": ["mcmol/h", "umol/h"]}, {"conceptId": "C85708", "definition": "Micromoles per minute.", "preferredTerm": "Micromole per Minute", "submissionValue": "umol/min", "synonyms": ["mcmol/min", "umol/min"]}]}