{"_links": {"parentPackage": {"href": "/mdr/ct/packages/sendct-2015-09-25", "title": "SEND Controlled Terminology Package 23 Effective 2015-09-25", "type": "Terminology"}, "priorVersion": {"href": "/mdr/ct/packages/sendct-2015-06-26/codelists/C89962", "title": "CDISC SEND Body Weight Test Code Terminology", "type": "Code List"}, "rootItem": {"href": "/mdr/root/ct/sendct/codelists/C89962", "title": "Version-agnostic anchor resource for codelist C89962", "type": "Root Value Domain"}, "self": {"href": "/mdr/ct/packages/sendct-2015-09-25/codelists/C89962", "title": "CDISC SEND Body Weight Test Code Terminology", "type": "Code List"}}, "conceptId": "C89962", "definition": "Terminology for the test codes concerned with the measurement of body mass.", "extensible": "true", "name": "Body Weight Test Code", "preferredTerm": "CDISC SEND Body Weight Test Code Terminology", "submissionValue": "BWTESTCD", "synonyms": ["Body Weight Test Code"], "terms": [{"conceptId": "C81328", "definition": "The weight of a subject. (NCI)", "preferredTerm": "Body Weight", "submissionValue": "BW", "synonyms": ["Body Weight"]}, {"conceptId": "C90464", "definition": "The weight of a subject at a specified end point. (NCI)", "preferredTerm": "Terminal Body Weight", "submissionValue": "TERMBW", "synonyms": ["Terminal Body Weight"]}]}