{"_links": {"parentPackage": {"href": "/mdr/ct/packages/sendct-2015-09-25", "title": "SEND Controlled Terminology Package 23 Effective 2015-09-25", "type": "Terminology"}, "priorVersion": {"href": "/mdr/ct/packages/sendct-2015-06-26/codelists/C90000", "title": "CDISC SEND Severity Terminology", "type": "Code List"}, "rootItem": {"href": "/mdr/root/ct/sendct/codelists/C90000", "title": "Version-agnostic anchor resource for codelist C90000", "type": "Root Value Domain"}, "self": {"href": "/mdr/ct/packages/sendct-2015-09-25/codelists/C90000", "title": "CDISC SEND Severity Terminology", "type": "Code List"}}, "conceptId": "C90000", "definition": "SEND terminology related to the degree of an occurrence of something undesirable.", "extensible": "false", "name": "Severity", "preferredTerm": "CDISC SEND Severity Terminology", "submissionValue": "SEV", "synonyms": ["Severity"], "terms": [{"conceptId": "C48662", "definition": "The fourth level of severity in an ordered list based on a five-level scale of minimal, mild, moderate, marked, and severe.", "preferredTerm": "Marked", "submissionValue": "MARKED"}, {"conceptId": "C70666", "definition": "The second level of severity in an ordered list based on a five-level scale of minimal, mild, moderate, marked, and severe.", "preferredTerm": "Mild", "submissionValue": "MILD", "synonyms": ["Slight"]}, {"conceptId": "C25570", "definition": "The first (lowest) level of severity in an ordered list based on a five-level scale of minimal, mild, moderate, marked, and severe.", "preferredTerm": "Minimum", "submissionValue": "MINIMAL", "synonyms": ["Trace"]}, {"conceptId": "C61376", "definition": "The third level of severity in an ordered list based on a five-level scale of minimal, mild, moderate, marked, and severe.", "preferredTerm": "Moderate", "submissionValue": "MODERATE"}, {"conceptId": "C70667", "definition": "The fifth (highest) level of severity in an ordered list based on a five-level scale of minimal, mild, moderate, marked, and severe.", "preferredTerm": "Severe", "submissionValue": "SEVERE"}]}