{"_links": {"parentPackage": {"href": "/mdr/ct/packages/sdtmct-2016-09-30", "title": "SDTM Controlled Terminology Package 27 Effective 2016-09-30", "type": "Terminology"}, "priorVersion": {"href": "/mdr/ct/packages/sdtmct-2016-06-24/codelists/C106667", "title": "CDISC Questionnaire HAQ-DI Test Code Terminology", "type": "Code List"}, "rootItem": {"href": "/mdr/root/ct/sdtmct/codelists/C106667", "title": "Version-agnostic anchor resource for codelist C106667", "type": "Root Value Domain"}, "self": {"href": "/mdr/ct/packages/sdtmct-2016-09-30/codelists/C106667", "title": "CDISC Questionnaire HAQ-DI Test Code Terminology", "type": "Code List"}}, "conceptId": "C106667", "definition": "Health Assessment Questionnaire Disability Index test code.", "extensible": "false", "name": "Health Assessment Questionnaire Disability Index Questionnaire Test Code", "preferredTerm": "CDISC Questionnaire HAQ-DI Test Code Terminology", "submissionValue": "HAQ01TC", "synonyms": ["Health Assessment Questionnaire Disability Index Questionnaire Test Code"], "terms": [{"conceptId": "C106809", "definition": "Health Assessment Questionnaire Disability Index - Dressing & Grooming: Are you able to dress yourself, including tying shoelaces and doing buttons?", "preferredTerm": "HAQ-DI - Able to Dress Yourself", "submissionValue": "HAQ0101", "synonyms": ["HAQ01-Dress Yourself"]}, {"conceptId": "C106810", "definition": "Health Assessment Questionnaire Disability Index - Dressing & Grooming: Are you able to shampoo your hair?", "preferredTerm": "HAQ-DI - Able to Shampoo Hair", "submissionValue": "HAQ0102", "synonyms": ["HAQ01-Shampoo Your Hair"]}, {"conceptId": "C106811", "definition": "Health Assessment Questionnaire Disability Index - Arising: Are you able to stand up from a straight chair?", "preferredTerm": "HAQ-DI - Able to Stand Up From Chair", "submissionValue": "HAQ0103", "synonyms": ["HAQ01-Stand Up From a Straight Chair"]}, {"conceptId": "C106812", "definition": "Health Assessment Questionnaire Disability Index - Arising: Are you able to get in and out of bed?", "preferredTerm": "HAQ-DI - Able to Get In and Out of Bed", "submissionValue": "HAQ0104", "synonyms": ["HAQ01-Get In and Out of Bed"]}, {"conceptId": "C106813", "definition": "Health Assessment Questionnaire Disability Index - Eating: Are you able to cut your meat?", "preferredTerm": "HAQ-DI - Able to Cut Meat", "submissionValue": "HAQ0105", "synonyms": ["HAQ01-Cut Your Meat"]}, {"conceptId": "C106814", "definition": "Health Assessment Questionnaire Disability Index - Eating: Are you able to lift a full cup or glass to your mouth?", "preferredTerm": "HAQ-DI - Able to Lift Cup or Glass to Mouth", "submissionValue": "HAQ0106", "synonyms": ["HAQ01-Lift a Full Cup or Glass to Mouth"]}, {"conceptId": "C106815", "definition": "Health Assessment Questionnaire Disability Index - Eating: Are you able to open a new milk carton?", "preferredTerm": "HAQ-DI - Able to Open Milk Carton", "submissionValue": "HAQ0107", "synonyms": ["HAQ01-Open a New Milk Carton"]}, {"conceptId": "C106816", "definition": "Health Assessment Questionnaire Disability Index - Walking: Are you able to walk outdoors on flat ground?", "preferredTerm": "HAQ-DI - Able to Walk Outdoors On Flat Ground", "submissionValue": "HAQ0108", "synonyms": ["HAQ01-Walk Outdoors on Flat Ground"]}, {"conceptId": "C106817", "definition": "Health Assessment Questionnaire Disability Index - Walking: Are you able to climb up five steps?", "preferredTerm": "HAQ-DI - Able to Climb Up Steps", "submissionValue": "HAQ0109", "synonyms": ["HAQ01-Climb Up Five Steps"]}, {"conceptId": "C106818", "definition": "Health Assessment Questionnaire Disability Index - Aids or devices that you usually use for any of these activities: Cane.", "preferredTerm": "HAQ-DI - Aids or Devices - Cane", "submissionValue": "HAQ0110", "synonyms": ["HAQ01-Aid: Cane"]}, {"conceptId": "C106819", "definition": "Health Assessment Questionnaire Disability Index - Aids or devices that you usually use for any of these activities: Walker.", "preferredTerm": "HAQ-DI - Aids or Devices - Walker", "submissionValue": "HAQ0111", "synonyms": ["HAQ01-Aid: Walker"]}, {"conceptId": "C106820", "definition": "Health Assessment Questionnaire Disability Index - Aids or devices that you usually use for any of these activities: Crutches.", "preferredTerm": "HAQ-DI - Aids or Devices - Crutches", "submissionValue": "HAQ0112", "synonyms": ["HAQ01-Aid: Crutches"]}, {"conceptId": "C106821", "definition": "Health Assessment Questionnaire Disability Index - Aids or devices that you usually use for any of these activities: Wheelchair.", "preferredTerm": "HAQ-DI - Aids or Devices - Wheelchair", "submissionValue": "HAQ0113", "synonyms": ["HAQ01-Aid: Wheelchair"]}, {"conceptId": "C106822", "definition": "Health Assessment Questionnaire Disability Index - Aids or devices that you usually use for any of these activities: Devices used for Dressing (button hook, zipper pull, long-handled shoe horn, etc.).", "preferredTerm": "HAQ-DI - Aids or Devices - Used For Dressing", "submissionValue": "HAQ0114", "synonyms": ["HAQ01-Aid: Devices Used for Dressing"]}, {"conceptId": "C106823", "definition": "Health Assessment Questionnaire Disability Index - Aids or devices that you usually use for any of these activities: Built up or special utensils.", "preferredTerm": "HAQ-DI - Aids or Devices - Built Up or Special Utensils", "submissionValue": "HAQ0115", "synonyms": ["HAQ01-Aid: Built Up or Special Utensils"]}, {"conceptId": "C106824", "definition": "Health Assessment Questionnaire Disability Index - Aids or devices that you usually use for any of these activities: Special or built up chair.", "preferredTerm": "HAQ-DI - Aids or Devices - Special or Built Up Chair", "submissionValue": "HAQ0116", "synonyms": ["HAQ01-Aid: Special or Built Up Chair"]}, {"conceptId": "C106825", "definition": "Health Assessment Questionnaire Disability Index - Aids or devices that you usually use for any of these activities: Other.", "preferredTerm": "HAQ-DI - Aids or Devices For Dress/Arising/Eat/Walk-Other", "submissionValue": "HAQ0117", "synonyms": ["HAQ01-Othr Aid (Dress/Arising/Eat/Walk)"]}, {"conceptId": "C106826", "definition": "Health Assessment Questionnaire Disability Index - Aids or devices that you usually use for any of these activities: Other (Specify).", "preferredTerm": "HAQ-DI - Aids or Devices For Dress/Arising/Eat/Walk-Specify", "submissionValue": "HAQ0118", "synonyms": ["HAQ01-Spec Aid (Dress/Arising/Eat/Walk)"]}, {"conceptId": "C106827", "definition": "Health Assessment Questionnaire Disability Index - Usually need help from another person: Dressing and Grooming.", "preferredTerm": "HAQ-DI - Help From Another Person - Dressing and Grooming", "submissionValue": "HAQ0119", "synonyms": ["HAQ01-Help: Dressing and Grooming"]}, {"conceptId": "C106828", "definition": "Health Assessment Questionnaire Disability Index - Usually need help from another person: Arising.", "preferredTerm": "HAQ-DI - Help From Another Person - Arising", "submissionValue": "HAQ0120", "synonyms": ["HAQ01-Help: Arising"]}, {"conceptId": "C106829", "definition": "Health Assessment Questionnaire Disability Index - Usually need help from another person: Eating.", "preferredTerm": "HAQ-DI - Help From Another Person - Eating", "submissionValue": "HAQ0121", "synonyms": ["HAQ01-Help: Eating"]}, {"conceptId": "C106830", "definition": "Health Assessment Questionnaire Disability Index - Usually need help from another person: Walking.", "preferredTerm": "HAQ-DI - Help From Another Person - Walking", "submissionValue": "HAQ0122", "synonyms": ["HAQ01-Help: Walking"]}, {"conceptId": "C106831", "definition": "Health Assessment Questionnaire Disability Index - Hygiene: Are you able to wash and dry your body?", "preferredTerm": "HAQ-DI - Able to Wash and Dry Body", "submissionValue": "HAQ0123", "synonyms": ["HAQ01-Wash and Dry Your Body"]}, {"conceptId": "C106832", "definition": "Health Assessment Questionnaire Disability Index - Hygiene: Are you able to take a tub bath?", "preferredTerm": "HAQ-DI - Able to Take Tub Bath", "submissionValue": "HAQ0124", "synonyms": ["HAQ01-Take a Tub Bath"]}, {"conceptId": "C106833", "definition": "Health Assessment Questionnaire Disability Index - Hygiene: Are you able to get on and off the toilet?", "preferredTerm": "HAQ-DI - Able to Get On and Off Toilet", "submissionValue": "HAQ0125", "synonyms": ["HAQ01-Get On and Off The Toilet"]}, {"conceptId": "C106834", "definition": "Health Assessment Questionnaire Disability Index - Reach: Are you able to reach and get down a 5 pound object (such as a bag of sugar) from just above your head?", "preferredTerm": "HAQ-DI - Able to Reach and Get Down Object From Above Head", "submissionValue": "HAQ0126", "synonyms": ["HAQ01-Reach-Get Down 5 Lb Obj Above Head"]}, {"conceptId": "C106835", "definition": "Health Assessment Questionnaire Disability Index - Reach: Are you able to bend down to pick up clothing from the floor?", "preferredTerm": "HAQ-DI - Able to Bend Down and Pick Up Clothing From Floor", "submissionValue": "HAQ0127", "synonyms": ["HAQ01-Bend Down Pick Up Clothing - Floor"]}, {"conceptId": "C106836", "definition": "Health Assessment Questionnaire Disability Index - Grip: Are you able to open car doors?", "preferredTerm": "HAQ-DI - Able to Open Car Doors", "submissionValue": "HAQ0128", "synonyms": ["HAQ01-Open Car Doors"]}, {"conceptId": "C106837", "definition": "Health Assessment Questionnaire Disability Index - Grip: Are you able to open jars which have been previously opened?", "preferredTerm": "HAQ-DI - Able to Open Previously Opened Jars", "submissionValue": "HAQ0129", "synonyms": ["HAQ01-Open Jars Previously Opened"]}, {"conceptId": "C106838", "definition": "Health Assessment Questionnaire Disability Index - Grip: Are you able to turn faucets on and off?", "preferredTerm": "HAQ-DI - Able to Turn Faucets On and Off", "submissionValue": "HAQ0130", "synonyms": ["HAQ01-Turn Faucets On And Off"]}, {"conceptId": "C106839", "definition": "Health Assessment Questionnaire Disability Index - Activities: Are you able to run errands and shop?", "preferredTerm": "HAQ-DI - Able to Run Errands and Shop", "submissionValue": "HAQ0131", "synonyms": ["HAQ01-Run Errands and Shop"]}, {"conceptId": "C106840", "definition": "Health Assessment Questionnaire Disability Index - Activities: Are you able to get in and out of a car?", "preferredTerm": "HAQ-DI - Able to Get In and Out of Car", "submissionValue": "HAQ0132", "synonyms": ["HAQ01-Get In and Out of a Car"]}, {"conceptId": "C106841", "definition": "Health Assessment Questionnaire Disability Index - Activities: Are you able to do chores such as vacuuming or yardwork?", "preferredTerm": "HAQ-DI - Able to Do Chores - Vacuuming or Yardwork", "submissionValue": "HAQ0133", "synonyms": ["HAQ01-Able to Do Chores"]}, {"conceptId": "C106842", "definition": "Health Assessment Questionnaire Disability Index - Aids or devices that you usually use for any of these activities: Raised toilet seat.", "preferredTerm": "HAQ-DI - Aids or Devices - Raised Toilet Seat", "submissionValue": "HAQ0134", "synonyms": ["HAQ01-Aid: Raised Toilet Seat"]}, {"conceptId": "C106843", "definition": "Health Assessment Questionnaire Disability Index - Aids or devices that you usually use for any of these activities: Bathtub seat.", "preferredTerm": "HAQ-DI - Aids or Devices - Bathtub Seat", "submissionValue": "HAQ0135", "synonyms": ["HAQ01-Aid: Bathtub Seat"]}, {"conceptId": "C107020", "definition": "Health Assessment Questionnaire Disability Index - Aids or devices that you usually use for any of these activities: Jar opener (for jars previously opened).", "preferredTerm": "HAQ-DI - Aids or Devices - Jar Opener (Jars Previously Opened)", "submissionValue": "HAQ0136", "synonyms": ["HAQ01-Aid: Jar Opener (Previously Open)"]}, {"conceptId": "C106844", "definition": "Health Assessment Questionnaire Disability Index - Aids or devices that you usually use for any of these activities: Bathtub bar.", "preferredTerm": "HAQ-DI - Aids or Devices - Bathtub Bar", "submissionValue": "HAQ0137", "synonyms": ["HAQ01-Aid: Bathtub Bar"]}, {"conceptId": "C106845", "definition": "Health Assessment Questionnaire Disability Index - Aids or devices that you usually use for any of these activities: Long-handled appliances for reach.", "preferredTerm": "HAQ-DI - Aids or Devices - Long-Handled Appliances for Reach", "submissionValue": "HAQ0138", "synonyms": ["HAQ01-Aid: Long-Handled Appl Reach"]}, {"conceptId": "C106846", "definition": "Health Assessment Questionnaire Disability Index - Aids or devices that you usually use for any of these activities: Long-handled appliances in bathroom.", "preferredTerm": "HAQ-DI - Aids or Devices - Long-Handled Appliances in Bathroom", "submissionValue": "HAQ0139", "synonyms": ["HAQ01-Aid: Long-Handled Appl Bathroom"]}, {"conceptId": "C107093", "definition": "Health Assessment Questionnaire Disability Index - Aids or devices that you usually use for any of these activities: Other.", "preferredTerm": "HAQ-DI - Aids or Devices For Hygiene/Reach/Grip/Act-Other", "submissionValue": "HAQ0140", "synonyms": ["HAQ01-Othr Aid (Hygiene/Reach/Grip/Act)"]}, {"conceptId": "C107094", "definition": "Health Assessment Questionnaire Disability Index - Aids or devices that you usually use for any of these activities: Other (Specify).", "preferredTerm": "HAQ-DI - Aids or Devices For Hygiene/Reach/Grip/Act-Specify", "submissionValue": "HAQ0141", "synonyms": ["HAQ01-Spec Aid (Hygiene/Reach/Grip/Act)"]}, {"conceptId": "C106847", "definition": "Health Assessment Questionnaire Disability Index - Usually need help from another person: Hygiene.", "preferredTerm": "HAQ-DI - Help From Another Person - Hygiene", "submissionValue": "HAQ0142", "synonyms": ["HAQ01-Help: Hygiene"]}, {"conceptId": "C106848", "definition": "Health Assessment Questionnaire Disability Index - Usually need help from another person: Reach.", "preferredTerm": "HAQ-DI - Help From Another Person - Reach", "submissionValue": "HAQ0143", "synonyms": ["HAQ01-Help: Reach"]}, {"conceptId": "C106849", "definition": "Health Assessment Questionnaire Disability Index - Usually need help from another person: Gripping and opening things.", "preferredTerm": "HAQ-DI - Help From Another Person - Gripping and Opening Things", "submissionValue": "HAQ0144", "synonyms": ["HAQ01-Help: Gripping and Opening Things"]}, {"conceptId": "C106850", "definition": "Health Assessment Questionnaire Disability Index - Usually need help from another person: Errands and chores.", "preferredTerm": "HAQ-DI - Help From Another Person - Errands and Chores", "submissionValue": "HAQ0145", "synonyms": ["HAQ01-Help: Errands and Chores"]}, {"conceptId": "C106851", "definition": "Health Assessment Questionnaire Disability Index - How much pain have you had because of your illness in the past week?", "preferredTerm": "HAQ-DI - Severity of Pain in the Past Week", "submissionValue": "HAQ0146", "synonyms": ["HAQ01-Severity of Pain"]}]}