{"_links": {"parentPackage": {"href": "/mdr/ct/packages/sdtmct-2016-09-30", "title": "SDTM Controlled Terminology Package 27 Effective 2016-09-30", "type": "Terminology"}, "priorVersion": {"href": "/mdr/ct/packages/sdtmct-2016-06-24/codelists/C115390", "title": "CDISC Functional Test HAI Test Code Terminology", "type": "Code List"}, "rootItem": {"href": "/mdr/root/ct/sdtmct/codelists/C115390", "title": "Version-agnostic anchor resource for codelist C115390", "type": "Root Value Domain"}, "self": {"href": "/mdr/ct/packages/sdtmct-2016-09-30/codelists/C115390", "title": "CDISC Functional Test HAI Test Code Terminology", "type": "Code List"}}, "conceptId": "C115390", "definition": "Hauser Ambulation Index test code.", "extensible": "false", "name": "Hauser Ambulation Index Functional Test Test Code", "preferredTerm": "CDISC Functional Test HAI Test Code Terminology", "submissionValue": "HAI01TC", "synonyms": ["Hauser Ambulation Index Functional Test Test Code"], "terms": [{"conceptId": "C115806", "definition": "Hauser Ambulation Index - Ambulation index.", "preferredTerm": "HAI - Ambulation Index", "submissionValue": "HAI0101", "synonyms": ["HAI01-Ambulation Index"]}]}