{"_links": {"parentPackage": {"href": "/mdr/ct/packages/sdtmct-2016-09-30", "title": "SDTM Controlled Terminology Package 27 Effective 2016-09-30", "type": "Terminology"}, "priorVersion": {"href": "/mdr/ct/packages/sdtmct-2016-06-24/codelists/C115393", "title": "CDISC Functional Test PASAT Test Name Terminology", "type": "Code List"}, "rootItem": {"href": "/mdr/root/ct/sdtmct/codelists/C115393", "title": "Version-agnostic anchor resource for codelist C115393", "type": "Root Value Domain"}, "self": {"href": "/mdr/ct/packages/sdtmct-2016-09-30/codelists/C115393", "title": "CDISC Functional Test PASAT Test Name Terminology", "type": "Code List"}}, "conceptId": "C115393", "definition": "Paced Auditory Serial Addition Test test name.", "extensible": "false", "name": "Paced Auditory Serial Addition Test Functional Test Test Name", "preferredTerm": "CDISC Functional Test PASAT Test Name Terminology", "submissionValue": "PASAT1TN", "synonyms": ["Paced Auditory Serial Addition Test Functional Test Test Name"], "terms": [{"conceptId": "C115811", "definition": "Paced Auditory Serial Addition Test - Did it take more than one attempt to get one successful trial?", "preferredTerm": "PASAT - More Than One Attempt", "submissionValue": "PASAT1-More Than One Attempt", "synonyms": ["PASAT1-More Than One Attempt"]}, {"conceptId": "C115810", "definition": "Paced Auditory Serial Addition Test - Percent correct.", "preferredTerm": "PASAT - Percent Correct", "submissionValue": "PASAT1-Percent Correct", "synonyms": ["PASAT1-Percent Correct"]}, {"conceptId": "C115814", "definition": "Paced Auditory Serial Addition Test - Total commission errors.", "preferredTerm": "PASAT - Total Commission Errors", "submissionValue": "PASAT1-Total Commission Errors", "synonyms": ["PASAT1-Total Commission Errors"]}, {"conceptId": "C115809", "definition": "Paced Auditory Serial Addition Test - Total correct.", "preferredTerm": "PASAT - Total Correct", "submissionValue": "PASAT1-Total Correct", "synonyms": ["PASAT1-Total Correct"]}, {"conceptId": "C115812", "definition": "Paced Auditory Serial Addition Test - Total correct in first half.", "preferredTerm": "PASAT - Total Correct in First Half", "submissionValue": "PASAT1-Total Correct in First Half", "synonyms": ["PASAT1-Total Correct in First Half"]}, {"conceptId": "C115813", "definition": "Paced Auditory Serial Addition Test - Total correct in second half.", "preferredTerm": "PASAT - Total Correct in Second Half", "submissionValue": "PASAT1-Total Correct in Second Half", "synonyms": ["PASAT1-Total Correct in Second Half"]}, {"conceptId": "C115815", "definition": "Paced Auditory Serial Addition Test - Total omission errors.", "preferredTerm": "PASAT - Total Omission Errors", "submissionValue": "PASAT1-Total Omission Errors", "synonyms": ["PASAT1-Total Omission Errors"]}]}