{"_links": {"parentPackage": {"href": "/mdr/ct/packages/sdtmct-2016-09-30", "title": "SDTM Controlled Terminology Package 27 Effective 2016-09-30", "type": "Terminology"}, "priorVersion": {"href": "/mdr/ct/packages/sdtmct-2016-06-24/codelists/C116108", "title": "CDISC SDTM Death Details Test Code Terminology", "type": "Code List"}, "rootItem": {"href": "/mdr/root/ct/sdtmct/codelists/C116108", "title": "Version-agnostic anchor resource for codelist C116108", "type": "Root Value Domain"}, "self": {"href": "/mdr/ct/packages/sdtmct-2016-09-30/codelists/C116108", "title": "CDISC SDTM Death Details Test Code Terminology", "type": "Code List"}}, "conceptId": "C116108", "definition": "Terminology relevant to the death detail assessment short name.", "extensible": "true", "name": "Death Details Test Code", "preferredTerm": "CDISC SDTM Death Details Test Code Terminology", "submissionValue": "DDTESTCD", "synonyms": ["Death Details Test Code"], "terms": [{"conceptId": "C124331", "definition": "The physical location at which the subject ceased to live.", "preferredTerm": "Location of Death", "submissionValue": "LOCDTH", "synonyms": ["Location of Death"]}, {"conceptId": "C99531", "definition": "The primary significant event which ultimately led to death.", "preferredTerm": "Primary Cause of Death", "submissionValue": "PRCDTH", "synonyms": ["Primary Cause of Death"]}, {"conceptId": "C116142", "definition": "The secondary significant event which ultimately led to death.", "preferredTerm": "Secondary Cause of Death", "submissionValue": "SECDTH", "synonyms": ["Secondary Cause of Death"]}]}