{"_links": {"parentPackage": {"href": "/mdr/ct/packages/sdtmct-2016-09-30", "title": "SDTM Controlled Terminology Package 27 Effective 2016-09-30", "type": "Terminology"}, "priorVersion": {"href": "/mdr/ct/packages/sdtmct-2016-06-24/codelists/C116103", "title": "CDISC SDTM Nervous System Physiology Test Name Terminology", "type": "Code List"}, "rootItem": {"href": "/mdr/root/ct/sdtmct/codelists/C116103", "title": "Version-agnostic anchor resource for codelist C116103", "type": "Root Value Domain"}, "self": {"href": "/mdr/ct/packages/sdtmct-2016-09-30/codelists/C116103", "title": "CDISC SDTM Nervous System Physiology Test Name Terminology", "type": "Code List"}}, "conceptId": "C116103", "definition": "Terminology relevant to the test names that describe nervous system physiology findings.", "extensible": "true", "name": "Nervous System Physiology Test Name", "preferredTerm": "CDISC SDTM Nervous System Physiology Test Name Terminology", "submissionValue": "NVTEST", "synonyms": ["Nervous System Physiology Test Name"], "terms": [{"conceptId": "C114183", "definition": "A measurement of change in volume of an organ or anatomical feature as determined by a shift in tissue boundary over time.", "preferredTerm": "Boundary Shift Integral", "submissionValue": "Boundary Shift Integral", "synonyms": ["Boundary Shift Integral"]}, {"conceptId": "C117886", "definition": "An assessment of the latency of the N145 or N2 wave of the visual evoked potential assessment waveform.", "preferredTerm": "N145 Latency", "submissionValue": "N145 Latency", "synonyms": ["N145 Latency"]}, {"conceptId": "C117887", "definition": "The magnitude, or height, of the P100 wave of the visual evoked potential assessment waveform. This assessment calculates the height from the N75 negative peak to the P100 positive peak.", "preferredTerm": "N75 to P100 Peak to Peak Amplitude", "submissionValue": "P100 Amplitude", "synonyms": ["P100 Amplitude"]}, {"conceptId": "C117888", "definition": "An assessment of the latency of the P100 or P1 wave of the visual evoked potential assessment waveform.", "preferredTerm": "P100 Latency", "submissionValue": "P100 Latency", "synonyms": ["P100 Latency"]}, {"conceptId": "C116141", "definition": "The ratio between the uptake or binding of a radiopharmaceutical agent in an anatomical region of interest and a context-defined reference anatomical region.", "preferredTerm": "Standard Uptake Value Ratio", "submissionValue": "Standard Uptake Value Ratio", "synonyms": ["Standard Uptake Value Ratio"]}, {"conceptId": "C41145", "definition": "The dimension between two surfaces of an object, usually the smallest dimension as opposed to the width or the length.", "preferredTerm": "Thickness", "submissionValue": "Thickness", "synonyms": ["Thickness"]}, {"conceptId": "C25335", "definition": "The amount of three dimensional space occupied by an object or the capacity of a space or container. (NCI)", "preferredTerm": "Volume", "submissionValue": "Volume", "synonyms": ["Volume"]}]}