{"_links": {"parentPackage": {"href": "/mdr/ct/packages/sdtmct-2016-09-30", "title": "SDTM Controlled Terminology Package 27 Effective 2016-09-30", "type": "Terminology"}, "priorVersion": {"href": "/mdr/ct/packages/sdtmct-2016-06-24/codelists/C116106", "title": "CDISC SDTM Pharmacogenomics Findings Test Code Terminology", "type": "Code List"}, "rootItem": {"href": "/mdr/root/ct/sdtmct/codelists/C116106", "title": "Version-agnostic anchor resource for codelist C116106", "type": "Root Value Domain"}, "self": {"href": "/mdr/ct/packages/sdtmct-2016-09-30/codelists/C116106", "title": "CDISC SDTM Pharmacogenomics Findings Test Code Terminology", "type": "Code List"}}, "conceptId": "C116106", "definition": "Terminology relevant to the test codes that describe pharmacogenomics findings.", "extensible": "true", "name": "Pharmacogenomics Findings Test Code", "preferredTerm": "CDISC SDTM Pharmacogenomics Findings Test Code Terminology", "submissionValue": "PFTESTCD", "synonyms": ["Pharmacogenomics Findings Test Code"], "terms": [{"conceptId": "C16277", "definition": "The determination of which version of the gene is on each chromosome.", "preferredTerm": "Allele", "submissionValue": "ALLELE", "synonyms": ["Allele"]}]}