{"_links": {"parentPackage": {"href": "/mdr/ct/packages/sdtmct-2016-09-30", "title": "SDTM Controlled Terminology Package 27 Effective 2016-09-30", "type": "Terminology"}, "priorVersion": {"href": "/mdr/ct/packages/sdtmct-2016-06-24/codelists/C117737", "title": "CDISC SDTM Graft Type Terminology", "type": "Code List"}, "rootItem": {"href": "/mdr/root/ct/sdtmct/codelists/C117737", "title": "Version-agnostic anchor resource for codelist C117737", "type": "Root Value Domain"}, "self": {"href": "/mdr/ct/packages/sdtmct-2016-09-30/codelists/C117737", "title": "CDISC SDTM Graft Type Terminology", "type": "Code List"}}, "conceptId": "C117737", "definition": "A terminology codelist relevant to the type of graft implanted in the subject.", "extensible": "true", "name": "Graft Type", "preferredTerm": "CDISC SDTM Graft Type Terminology", "submissionValue": "GRAFTTYP", "synonyms": ["Graft Type"], "terms": [{"conceptId": "C117816", "definition": "A vessel graft comprised of an artery that has been completely detached from its original location.  (NCI)", "preferredTerm": "Free Arterial Graft", "submissionValue": "ARTERIAL GRAFT, FREE"}, {"conceptId": "C117817", "definition": "A vessel graft comprised of an artery whose origin remains intact.", "preferredTerm": "In Situ Arterial Graft", "submissionValue": "ARTERIAL GRAFT, IN-SITU"}, {"conceptId": "C117818", "definition": "A vessel graft comprised of a vein harvested from a different anatomical location.", "preferredTerm": "Autologous Vein Graft", "submissionValue": "AUTOLOGOUS VEIN GRAFT"}, {"conceptId": "C117819", "definition": "An arterial graft harvested from a cadaver. (NCI)", "preferredTerm": "Cadaveric Arterial Graft", "submissionValue": "CADAVERIC GRAFT, ARTERIAL"}, {"conceptId": "C117820", "definition": "A venous graft harvested from a cadaver. (NCI)", "preferredTerm": "Cadaveric Venous Graft", "submissionValue": "CADAVERIC GRAFT, VENOUS"}, {"conceptId": "C117821", "definition": "A vessel graft comprised of two or more conduit materials.", "preferredTerm": "Composite Vessel Graft", "submissionValue": "COMPOSITE GRAFT"}, {"conceptId": "C117822", "definition": "A vessel graft comprised of the saphenous vein.", "preferredTerm": "Saphenous Vein Graft", "submissionValue": "SAPHENOUS VEIN GRAFT", "synonyms": ["SVG"]}, {"conceptId": "C117823", "definition": "A vessel graft comprised of non-biological material.", "preferredTerm": "Synthetic Vessel Graft", "submissionValue": "SYNTHETIC GRAFT"}]}