{"_links": {"parentPackage": {"href": "/mdr/ct/packages/sdtmct-2016-09-30", "title": "SDTM Controlled Terminology Package 27 Effective 2016-09-30", "type": "Terminology"}, "priorVersion": {"href": "/mdr/ct/packages/sdtmct-2016-06-24/codelists/C120528", "title": "CDISC SDTM Microbiology Test Name Terminology", "type": "Code List"}, "rootItem": {"href": "/mdr/root/ct/sdtmct/codelists/C120528", "title": "Version-agnostic anchor resource for codelist C120528", "type": "Root Value Domain"}, "self": {"href": "/mdr/ct/packages/sdtmct-2016-09-30/codelists/C120528", "title": "CDISC SDTM Microbiology Test Name Terminology", "type": "Code List"}}, "conceptId": "C120528", "definition": "Terminology relevant to the microbiology test names of the CDISC Study Data Tabulation Model.", "extensible": "true", "name": "Microbiology Test Name", "preferredTerm": "CDISC SDTM Microbiology Test Name Terminology", "submissionValue": "MBTEST", "synonyms": ["Microbiology Test Name"], "terms": [{"conceptId": "C128981", "definition": "A measurement of any rod-shaped bacteria that resist decolorizing by acid after accepting an aqueous stain solution, due to the mycolic acids in their cell walls.", "preferredTerm": "Acid-Fast Bacilli Measurement", "submissionValue": "Acid-Fast Bacilli"}, {"conceptId": "C120677", "definition": "A measurement of the influenza A antigen in a biological specimen.", "preferredTerm": "Influenza A Antigen Measurement", "submissionValue": "Influenza A Antigen", "synonyms": ["Influenza A Antigen"]}, {"conceptId": "C120678", "definition": "A measurement of the influenza A/B antigen in a biological specimen.", "preferredTerm": "Influenza A/B Antigen Measurement", "submissionValue": "Influenza A/B Antigen", "synonyms": ["Influenza A/B Antigen"]}, {"conceptId": "C120679", "definition": "A measurement of the influenza B antigen in a biological specimen.", "preferredTerm": "Influenza B Antigen Measurement", "submissionValue": "Influenza B Antigen", "synonyms": ["Influenza B Antigen"]}, {"conceptId": "C128982", "definition": "A measurement of the organisms assignable to the Mycobacterium tuberculosis species in a biological specimen.", "preferredTerm": "Mycobacterium Tuberculosis Measurement", "submissionValue": "Mycobacterium Tuberculosis"}, {"conceptId": "C128983", "definition": "A measurement of the organisms assignable to the Mycobacterium tuberculosis complex in a biological specimen.", "preferredTerm": "Mycobacterium Tuberculosis Complex Measurement", "submissionValue": "Mycobacterium Tuberculosis Complex"}, {"conceptId": "C120680", "definition": "The identification of the type of a viral organism in a biological specimen.", "preferredTerm": "Viral Identification", "submissionValue": "Viral Identification", "synonyms": ["Viral Identification"]}]}