{"_links": {"parentPackage": {"href": "/mdr/ct/packages/sdtmct-2016-09-30", "title": "SDTM Controlled Terminology Package 27 Effective 2016-09-30", "type": "Terminology"}, "priorVersion": {"href": "/mdr/ct/packages/sdtmct-2016-06-24/codelists/C124309", "title": "CDISC SDTM Tumor or Lesion Properties Test Result Terminology", "type": "Code List"}, "rootItem": {"href": "/mdr/root/ct/sdtmct/codelists/C124309", "title": "Version-agnostic anchor resource for codelist C124309", "type": "Root Value Domain"}, "self": {"href": "/mdr/ct/packages/sdtmct-2016-09-30/codelists/C124309", "title": "CDISC SDTM Tumor or Lesion Properties Test Result Terminology", "type": "Code List"}}, "conceptId": "C124309", "definition": "Terminology relevant to the results from the assessment or measurement of a tumor, lesion or site of disease.", "extensible": "true", "name": "Tumor or Lesion Properties Test Result", "preferredTerm": "CDISC SDTM Tumor or Lesion Properties Test Result Terminology", "submissionValue": "TRPROPRS", "synonyms": ["Tumor or Lesion Properties Test Result"], "terms": [{"conceptId": "C48190", "definition": "Not existing in a specified place at a specified time. (NCI)", "preferredTerm": "Absent", "submissionValue": "ABSENT"}, {"conceptId": "C73432", "definition": "An increase in size, volume, quantity or scope in comparison to normal or previous state.", "preferredTerm": "Enlargement", "submissionValue": "ENLARGEMENT"}, {"conceptId": "C86071", "definition": "Open to question.", "preferredTerm": "Equivocal", "submissionValue": "EQUIVOCAL"}, {"conceptId": "C126054", "definition": "The absence of disease or pathology. (NCI)", "preferredTerm": "Non-Pathological", "submissionValue": "NON-PATHOLOGICAL"}, {"conceptId": "C124445", "definition": "Incapable of being handled, touched or felt through palpation. (NCI)", "preferredTerm": "Non-Palpable", "submissionValue": "NONPALPABLE"}, {"conceptId": "C25606", "definition": "Capable of being handled, touched or felt through palpation. (NCI)", "preferredTerm": "Palpable", "submissionValue": "PALPABLE"}, {"conceptId": "C25610", "definition": "Manifesting disease or pathology.", "preferredTerm": "Pathologic", "submissionValue": "PATHOLOGICAL"}, {"conceptId": "C25626", "definition": "Being or existing in a specified place or at the specified time. (NCI)", "preferredTerm": "Present", "submissionValue": "PRESENT"}, {"conceptId": "C126055", "definition": "There is evidence of disease without any indication or sign of unequivocal progression.", "preferredTerm": "Present Without Unequivocal Progression", "submissionValue": "PRESENT WITHOUT UNEQUIVOCAL PROGRESSION"}, {"conceptId": "C123645", "definition": "Leaving no doubt; not open to question. (NCI)", "preferredTerm": "Unequivocal", "submissionValue": "UNEQUIVOCAL"}, {"conceptId": "C96644", "definition": "An overall level of substantial worsening in non-target disease that is of a magnitude that, even in the presence of SD or PR in target disease, the treating physician would feel it important to change therapy. (RECIST)", "preferredTerm": "Unequivocal Progression", "submissionValue": "UNEQUIVOCAL PROGRESSION"}]}