{"_links": {"parentPackage": {"href": "/mdr/ct/packages/sdtmct-2016-09-30", "title": "SDTM Controlled Terminology Package 27 Effective 2016-09-30", "type": "Terminology"}, "priorVersion": {"href": "/mdr/ct/packages/sdtmct-2016-06-24/codelists/C127358", "title": "CDISC Questionnaire FACT-P Version 4 Test Code Terminology", "type": "Code List"}, "rootItem": {"href": "/mdr/root/ct/sdtmct/codelists/C127358", "title": "Version-agnostic anchor resource for codelist C127358", "type": "Root Value Domain"}, "self": {"href": "/mdr/ct/packages/sdtmct-2016-09-30/codelists/C127358", "title": "CDISC Questionnaire FACT-P Version 4 Test Code Terminology", "type": "Code List"}}, "conceptId": "C127358", "definition": "The Functional Assessment of Cancer Therapy-Prostate Version 4 test code.", "extensible": "false", "name": "The Functional Assessment of Cancer Therapy-Prostate Version 4 Questionnaire Test Code", "preferredTerm": "CDISC Questionnaire FACT-P Version 4 Test Code Terminology", "submissionValue": "FAC023TC", "synonyms": ["The Functional Assessment of Cancer Therapy-Prostate Version 4 Questionnaire Test Code"], "terms": [{"conceptId": "C127465", "definition": "Functional Assessment of Cancer Therapy-Prostate Version 4 - Physical Well-Being: I have a lack of energy.", "preferredTerm": "FACT-P Version 4 - I Have a Lack of Energy", "submissionValue": "FAC02301", "synonyms": ["FAC023-I Have a Lack of Energy"]}, {"conceptId": "C127466", "definition": "Functional Assessment of Cancer Therapy-Prostate Version 4 - Physical Well-Being: I have nausea.", "preferredTerm": "FACT-P Version 4 - I Have Nausea", "submissionValue": "FAC02302", "synonyms": ["FAC023-I Have Nausea"]}, {"conceptId": "C127467", "definition": "Functional Assessment of Cancer Therapy-Prostate Version 4 - Physical Well-Being: Because of my physical condition, I have trouble meeting the needs of my family.", "preferredTerm": "FACT-P Version 4 - Trouble Meeting Needs of Family", "submissionValue": "FAC02303", "synonyms": ["FAC023-Trouble Meeting Needs of Family"]}, {"conceptId": "C127468", "definition": "Functional Assessment of Cancer Therapy-Prostate Version 4 - Physical Well-Being: I have pain.", "preferredTerm": "FACT-P Version 4 - I Have Pain", "submissionValue": "FAC02304", "synonyms": ["FAC023-I Have Pain"]}, {"conceptId": "C127469", "definition": "Functional Assessment of Cancer Therapy-Prostate Version 4 - Physical Well-Being: I am bothered by side effects of treatment.", "preferredTerm": "FACT-P Version 4 - Bothered by Treatment Side Effect", "submissionValue": "FAC02305", "synonyms": ["FAC023-Bothered by Treatment Side Effect"]}, {"conceptId": "C127470", "definition": "Functional Assessment of Cancer Therapy-Prostate Version 4 - Physical Well-Being: I feel ill.", "preferredTerm": "FACT-P Version 4 - I Feel Ill", "submissionValue": "FAC02306", "synonyms": ["FAC023-I Feel Ill"]}, {"conceptId": "C127471", "definition": "Functional Assessment of Cancer Therapy-Prostate Version 4 - Physical Well-Being: I am forced to spend time in bed.", "preferredTerm": "FACT-P Version 4 - I Am Forced to Spend Time in Bed", "submissionValue": "FAC02307", "synonyms": ["FAC023-I Am Forced to Spend Time in Bed"]}, {"conceptId": "C127472", "definition": "Functional Assessment of Cancer Therapy-Prostate Version 4 - Social/Family Well-Being: I feel close to my friends.", "preferredTerm": "FACT-P Version 4 - I Feel Close to My Friends", "submissionValue": "FAC02308", "synonyms": ["FAC023-I Feel Close to My Friends"]}, {"conceptId": "C127473", "definition": "Functional Assessment of Cancer Therapy-Prostate Version 4 - Social/Family Well-Being: I get emotional support from my family.", "preferredTerm": "FACT-P Version 4 - Get Emotional Support From Family", "submissionValue": "FAC02309", "synonyms": ["FAC023-Get Emotional Support From Family"]}, {"conceptId": "C127474", "definition": "Functional Assessment of Cancer Therapy-Prostate Version 4 - Social/Family Well-Being: I get support from my friends.", "preferredTerm": "FACT-P Version 4 - I Get Support From My Friends", "submissionValue": "FAC02310", "synonyms": ["FAC023-I Get Support From My Friends"]}, {"conceptId": "C127475", "definition": "Functional Assessment of Cancer Therapy-Prostate Version 4 - Social/Family Well-Being: My family has accepted my illness.", "preferredTerm": "FACT-P Version 4 - My Family Has Accepted My Illness", "submissionValue": "FAC02311", "synonyms": ["FAC023-My Family Has Accepted My Illness"]}, {"conceptId": "C127476", "definition": "Functional Assessment of Cancer Therapy-Prostate Version 4 - Social/Family Well-Being: I am satisfied with family communication about my illness.", "preferredTerm": "FACT-P Version 4 - Satisfied With Family Communication", "submissionValue": "FAC02312", "synonyms": ["FAC023-Satisfied Family Comm of Illness"]}, {"conceptId": "C127477", "definition": "Functional Assessment of Cancer Therapy-Prostate Version 4 - Social/Family Well-Being: I feel close to my partner (or the person who is my main support).", "preferredTerm": "FACT-P Version 4 - I Feel Close to My Partner", "submissionValue": "FAC02313", "synonyms": ["FAC023-I Feel Close to My Partner"]}, {"conceptId": "C127478", "definition": "Functional Assessment of Cancer Therapy-Prostate Version 4 - Social/Family Well-Being: I am satisfied with my sex life.", "preferredTerm": "FACT-P Version 4 - I Am Satisfied With My Sex Life", "submissionValue": "FAC02314", "synonyms": ["FAC023-I Am Satisfied With My Sex Life"]}, {"conceptId": "C127479", "definition": "Functional Assessment of Cancer Therapy-Prostate Version 4 - Emotional Well-Being: I feel sad.", "preferredTerm": "FACT-P Version 4 - I Feel Sad", "submissionValue": "FAC02315", "synonyms": ["FAC023-I Feel Sad"]}, {"conceptId": "C127480", "definition": "Functional Assessment of Cancer Therapy-Prostate Version 4 - Emotional Well-Being: I am satisfied with how I am coping with my illness.", "preferredTerm": "FACT-P Version 4 - Satisfied With How I Am Coping", "submissionValue": "FAC02316", "synonyms": ["FAC023-Satisfied With How I Am Coping"]}, {"conceptId": "C127481", "definition": "Functional Assessment of Cancer Therapy-Prostate Version 4 - Emotional Well-Being: I am losing hope in the fight against my illness.", "preferredTerm": "FACT-P Version 4 - Losing Hope Against Illness", "submissionValue": "FAC02317", "synonyms": ["FAC023-Losing Hope Against Illness"]}, {"conceptId": "C127482", "definition": "Functional Assessment of Cancer Therapy-Prostate Version 4 - Emotional Well-Being: I feel nervous.", "preferredTerm": "FACT-P Version 4 - I Feel Nervous", "submissionValue": "FAC02318", "synonyms": ["FAC023-I Feel Nervous"]}, {"conceptId": "C127483", "definition": "Functional Assessment of Cancer Therapy-Prostate Version 4 - Emotional Well-Being: I worry about dying.", "preferredTerm": "FACT-P Version 4 - I Worry About Dying", "submissionValue": "FAC02319", "synonyms": ["FAC023-I Worry About Dying"]}, {"conceptId": "C127484", "definition": "Functional Assessment of Cancer Therapy-Prostate Version 4 - Emotional Well-Being: I worry that my condition will get worse.", "preferredTerm": "FACT-P Version 4 - Worry My Condition Will Get Worse", "submissionValue": "FAC02320", "synonyms": ["FAC023-Worry My Condition Will Get Worse"]}, {"conceptId": "C127485", "definition": "Functional Assessment of Cancer Therapy-Prostate Version 4 - Functional Well-Being: I am able to work (include work at home).", "preferredTerm": "FACT-P Version 4 - I Am Able to Work", "submissionValue": "FAC02321", "synonyms": ["FAC023-I Am Able to Work"]}, {"conceptId": "C127486", "definition": "Functional Assessment of Cancer Therapy-Prostate Version 4 - Functional Well-Being: My work (include work at home) is fulfilling.", "preferredTerm": "FACT-P Version 4 - My Work Is Fulfilling", "submissionValue": "FAC02322", "synonyms": ["FAC023-My Work Is Fulfilling"]}, {"conceptId": "C127487", "definition": "Functional Assessment of Cancer Therapy-Prostate Version 4 - Functional Well-Being: I am able to enjoy life.", "preferredTerm": "FACT-P Version 4 - I Am Able to Enjoy Life", "submissionValue": "FAC02323", "synonyms": ["FAC023-I Am Able to Enjoy Life"]}, {"conceptId": "C127488", "definition": "Functional Assessment of Cancer Therapy-Prostate Version 4 - Functional Well-Being: I have accepted my illness.", "preferredTerm": "FACT-P Version 4 - I Have Accepted My Illness", "submissionValue": "FAC02324", "synonyms": ["FAC023-I Have Accepted My Illness"]}, {"conceptId": "C127489", "definition": "Functional Assessment of Cancer Therapy-Prostate Version 4 - Functional Well-Being: I am sleeping well.", "preferredTerm": "FACT-P Version 4 - I Am Sleeping Well", "submissionValue": "FAC02325", "synonyms": ["FAC023-I Am Sleeping Well"]}, {"conceptId": "C127490", "definition": "Functional Assessment of Cancer Therapy-Prostate Version 4 - Functional Well-Being: I am enjoying the things I usually do for fun.", "preferredTerm": "FACT-P Version 4 - Enjoy Things I Usually Do for Fun", "submissionValue": "FAC02326", "synonyms": ["FAC023-Enjoy Things I Usually Do for Fun"]}, {"conceptId": "C127491", "definition": "Functional Assessment of Cancer Therapy-Prostate Version 4 - Functional Well-Being: I am content with the quality of my life right now.", "preferredTerm": "FACT-P Version 4 - Content With Quality of My Life", "submissionValue": "FAC02327", "synonyms": ["FAC023-Content With Quality of My Life"]}, {"conceptId": "C127492", "definition": "Functional Assessment of Cancer Therapy-Prostate Version 4 - Additional Concerns: I am losing weight.", "preferredTerm": "FACT-P Version 4 - I Am Losing Weight", "submissionValue": "FAC02328", "synonyms": ["FAC023-I Am Losing Weight"]}, {"conceptId": "C127493", "definition": "Functional Assessment of Cancer Therapy-Prostate Version 4 - Additional Concerns: I have a good appetite.", "preferredTerm": "FACT-P Version 4 - I Have a Good Appetite", "submissionValue": "FAC02329", "synonyms": ["FAC023-I Have a Good Appetite"]}, {"conceptId": "C127494", "definition": "Functional Assessment of Cancer Therapy-Prostate Version 4 - Additional Concerns: I have aches and pains that bother me.", "preferredTerm": "FACT-P Version 4 - Have Aches and Pains That Bother Me", "submissionValue": "FAC02330", "synonyms": ["FAC023-Have Aches/Pains That Bother Me"]}, {"conceptId": "C127495", "definition": "Functional Assessment of Cancer Therapy-Prostate Version 4 - Additional Concerns: I have certain parts of my body where I experience pain.", "preferredTerm": "FACT-P Version 4 - Certain Parts of Body Experience Pain", "submissionValue": "FAC02331", "synonyms": ["FAC023-Certain Parts of Body Have Pain"]}, {"conceptId": "C127496", "definition": "Functional Assessment of Cancer Therapy-Prostate Version 4 - Additional Concerns: My pain keeps me from doing things I want to do.", "preferredTerm": "FACT-P Version 4 - Pain Keeps Me From Doing Things", "submissionValue": "FAC02332", "synonyms": ["FAC023-Pain Keeps Me From Doing Things"]}, {"conceptId": "C127497", "definition": "Functional Assessment of Cancer Therapy-Prostate Version 4 - Additional Concerns: I am satisfied with my present comfort level.", "preferredTerm": "FACT-P Version 4 - Satisfied With Comfort Level", "submissionValue": "FAC02333", "synonyms": ["FAC023-Satisfied With Comfort Level"]}, {"conceptId": "C127498", "definition": "Functional Assessment of Cancer Therapy-Prostate Version 4 - Additional Concerns: I am able to feel like a man.", "preferredTerm": "FACT-P Version 4 - I Am Able to Feel Like a Man", "submissionValue": "FAC02334", "synonyms": ["FAC023-I Am Able to Feel Like a Man"]}, {"conceptId": "C127499", "definition": "Functional Assessment of Cancer Therapy-Prostate Version 4 - Additional Concerns: I have trouble moving my bowels.", "preferredTerm": "FACT-P Version 4 - I Have Trouble Moving My Bowels", "submissionValue": "FAC02335", "synonyms": ["FAC023-I Have Trouble Moving My Bowels"]}, {"conceptId": "C127500", "definition": "Functional Assessment of Cancer Therapy-Prostate Version 4 - Additional Concerns: I have difficulty urinating.", "preferredTerm": "FACT-P Version 4 - I Have Difficulty Urinating", "submissionValue": "FAC02336", "synonyms": ["FAC023-I Have Difficulty Urinating"]}, {"conceptId": "C127501", "definition": "Functional Assessment of Cancer Therapy-Prostate Version 4 - Additional Concerns: I urinate more frequently than usual.", "preferredTerm": "FACT-P Version 4 - I Urinate More Frequently", "submissionValue": "FAC02337", "synonyms": ["FAC023-I Urinate More Frequently"]}, {"conceptId": "C127502", "definition": "Functional Assessment of Cancer Therapy-Prostate Version 4 - Additional Concerns: My problems with urinating limit my activities.", "preferredTerm": "FACT-P Version 4 - Problem Urinating Limits Activity", "submissionValue": "FAC02338", "synonyms": ["FAC023-Problem Urinating Limits Activity"]}, {"conceptId": "C127503", "definition": "Functional Assessment of Cancer Therapy-Prostate Version 4 - Additional Concerns: I am able to have and maintain an erection.", "preferredTerm": "FACT-P Version 4 - Able to Have and Maintain an Erection", "submissionValue": "FAC02339", "synonyms": ["FAC023-Able to Have/Maintain Erection"]}]}