{"_links": {"parentPackage": {"href": "/mdr/ct/packages/sdtmct-2016-09-30", "title": "SDTM Controlled Terminology Package 27 Effective 2016-09-30", "type": "Terminology"}, "priorVersion": {"href": "/mdr/ct/packages/sdtmct-2016-06-24/codelists/C127350", "title": "CDISC Questionnaire EPIC-26 Test Code Terminology", "type": "Code List"}, "rootItem": {"href": "/mdr/root/ct/sdtmct/codelists/C127350", "title": "Version-agnostic anchor resource for codelist C127350", "type": "Root Value Domain"}, "self": {"href": "/mdr/ct/packages/sdtmct-2016-09-30/codelists/C127350", "title": "CDISC Questionnaire EPIC-26 Test Code Terminology", "type": "Code List"}}, "conceptId": "C127350", "definition": "The Expanded Prostate Cancer Index Composite Short Form test code.", "extensible": "false", "name": "The Expanded Prostate Cancer Index Composite Short Form Questionnaire Test Code", "preferredTerm": "CDISC Questionnaire EPIC-26 Test Code Terminology", "submissionValue": "EPIC1TC", "synonyms": ["The Expanded Prostate Cancer Index Composite Short Form Questionnaire Test Code"], "terms": [{"conceptId": "C127373", "definition": "The Expanded Prostate Cancer Index Composite Short Form - Over the past 4 weeks, how often have you leaked urine?", "preferredTerm": "EPIC-26 - How Often Have You Leaked Urine", "submissionValue": "EPIC101", "synonyms": ["EPIC1-How Often Have You Leaked Urine"]}, {"conceptId": "C127374", "definition": "The Expanded Prostate Cancer Index Composite Short Form - Which of the following best describes your urinary control during the last 4 weeks?", "preferredTerm": "EPIC-26 - Best Describes Urinary Control", "submissionValue": "EPIC102", "synonyms": ["EPIC1-Best Describes Urinary Control"]}, {"conceptId": "C127375", "definition": "The Expanded Prostate Cancer Index Composite Short Form - How many pads or adult diapers per day did you usually use to control leakage during the last 4 weeks?", "preferredTerm": "EPIC-26 - Pads or Adult Diapers per Day", "submissionValue": "EPIC103", "synonyms": ["EPIC1-Pads or Adult Diapers per Day"]}, {"conceptId": "C127376", "definition": "The Expanded Prostate Cancer Index Composite Short Form - How big a problem, if any, has each of the following been for you during the last 4 weeks? Dripping or leaking urine.", "preferredTerm": "EPIC-26 - Dripping or Leaking Urine", "submissionValue": "EPIC104A", "synonyms": ["EPIC1-Problem Dripping or Leaking Urine"]}, {"conceptId": "C127377", "definition": "The Expanded Prostate Cancer Index Composite Short Form - How big a problem, if any, has each of the following been for you during the last 4 weeks? Pain or burning on urination.", "preferredTerm": "EPIC-26 - Pain or Burning on Urination", "submissionValue": "EPIC104B", "synonyms": ["EPIC1-Problem Pain/Burning on Urination"]}, {"conceptId": "C127378", "definition": "The Expanded Prostate Cancer Index Composite Short Form - How big a problem, if any, has each of the following been for you during the last 4 weeks? Bleeding with urination.", "preferredTerm": "EPIC-26 - Bleeding With Urination", "submissionValue": "EPIC104C", "synonyms": ["EPIC1-Problem Bleeding With Urination"]}, {"conceptId": "C127379", "definition": "The Expanded Prostate Cancer Index Composite Short Form - How big a problem, if any, has each of the following been for you during the last 4 weeks? Weak urine stream or incomplete emptying.", "preferredTerm": "EPIC-26 - Weak Urine Stream or Incomplete Emptying", "submissionValue": "EPIC104D", "synonyms": ["EPIC1-Problem Weak Urine Stream/Emptying"]}, {"conceptId": "C127380", "definition": "The Expanded Prostate Cancer Index Composite Short Form - How big a problem, if any, has each of the following been for you during the last 4 weeks? Need to urinate frequently during the day.", "preferredTerm": "EPIC-26 - Urinate Frequently During the Day", "submissionValue": "EPIC104E", "synonyms": ["EPIC1-Problem Need to Urinate Frequently"]}, {"conceptId": "C127381", "definition": "The Expanded Prostate Cancer Index Composite Short Form - Overall, how big a problem has your urinary function been for you during the last 4 weeks?", "preferredTerm": "EPIC-26 - Overall Problem Urinary Function", "submissionValue": "EPIC105", "synonyms": ["EPIC1-Overall Problem Urinary Function"]}, {"conceptId": "C127382", "definition": "The Expanded Prostate Cancer Index Composite Short Form - How big a problem, if any, has each of the following been for you? Urgency to have a bowel movement.", "preferredTerm": "EPIC-26 - Urgency to Have a Bowel Movement", "submissionValue": "EPIC106A", "synonyms": ["EPIC1-Problem Urgency of Bowel Movement"]}, {"conceptId": "C127383", "definition": "The Expanded Prostate Cancer Index Composite Short Form - How big a problem, if any, has each of the following been for you? Increased frequency of bowel movements.", "preferredTerm": "EPIC-26 - Increased Frequency of Bowel Movements", "submissionValue": "EPIC106B", "synonyms": ["EPIC1-Problem Increased Freq Bowel Move"]}, {"conceptId": "C127384", "definition": "The Expanded Prostate Cancer Index Composite Short Form - How big a problem, if any, has each of the following been for you? Losing control of your stools.", "preferredTerm": "EPIC-26 - Losing Control of Stools", "submissionValue": "EPIC106C", "synonyms": ["EPIC1-Problem Losing Control of Stools"]}, {"conceptId": "C127385", "definition": "The Expanded Prostate Cancer Index Composite Short Form - How big a problem, if any, has each of the following been for you? Bloody stools.", "preferredTerm": "EPIC-26 - Bloody Stools", "submissionValue": "EPIC106D", "synonyms": ["EPIC1-Problem Bloody Stools"]}, {"conceptId": "C127386", "definition": "The Expanded Prostate Cancer Index Composite Short Form - How big a problem, if any, has each of the following been for you? Abdominal/pelvic/rectal pain.", "preferredTerm": "EPIC-26 - Abdominal or Pelvic or Rectal Pain", "submissionValue": "EPIC106E", "synonyms": ["EPIC1-Problem Abdom/Pelvic/Rectal Pain"]}, {"conceptId": "C127387", "definition": "The Expanded Prostate Cancer Index Composite Short Form - Overall, how big a problem have your bowel habits been for you during the last 4 weeks?", "preferredTerm": "EPIC-26 - Overall Problem Bowel Habits", "submissionValue": "EPIC107", "synonyms": ["EPIC1-Overall Problem Bowel Habits"]}, {"conceptId": "C127388", "definition": "The Expanded Prostate Cancer Index Composite Short Form - How would you rate each of the following during the last 4 weeks? Your ability to have an erection?", "preferredTerm": "EPIC-26 - Ability to Have an Erection", "submissionValue": "EPIC108A", "synonyms": ["EPIC1-Rate Ability to Have an Erection"]}, {"conceptId": "C127389", "definition": "The Expanded Prostate Cancer Index Composite Short Form - How would you rate each of the following during the last 4 weeks? Your ability to reach orgasm (climax)?", "preferredTerm": "EPIC-26 - Ability to Reach Orgasm", "submissionValue": "EPIC108B", "synonyms": ["EPIC1-Rate Ability to Reach Orgasm"]}, {"conceptId": "C127390", "definition": "The Expanded Prostate Cancer Index Composite Short Form - How would you describe the usual quality of your erections during the last 4 weeks?", "preferredTerm": "EPIC-26 - Quality of Erections", "submissionValue": "EPIC109", "synonyms": ["EPIC1-Quality of Your Erections"]}, {"conceptId": "C127391", "definition": "The Expanded Prostate Cancer Index Composite Short Form - How would you describe the frequency of your erections during the last 4 weeks?", "preferredTerm": "EPIC-26 - Frequency of Erections", "submissionValue": "EPIC110", "synonyms": ["EPIC1-Frequency of Your Erections"]}, {"conceptId": "C127392", "definition": "The Expanded Prostate Cancer Index Composite Short Form - Overall, how would you rate your ability to function sexually during the last 4 weeks?", "preferredTerm": "EPIC-26 - Ability to Function Sexually", "submissionValue": "EPIC111", "synonyms": ["EPIC1-Rate Ability to Function Sexually"]}, {"conceptId": "C127393", "definition": "The Expanded Prostate Cancer Index Composite Short Form - Overall, how big a problem has your sexual function or lack of sexual function been for you during the last 4 weeks?", "preferredTerm": "EPIC-26 - Overall Problem Sexual Function", "submissionValue": "EPIC112", "synonyms": ["EPIC1-Overall Problem Sexual Function"]}, {"conceptId": "C127394", "definition": "The Expanded Prostate Cancer Index Composite Short Form - How big a problem during the last 4 weeks, if any, has each of the following been for you? Hot flashes.", "preferredTerm": "EPIC-26 - Hot Flashes", "submissionValue": "EPIC113A", "synonyms": ["EPIC1-Problem Hot Flashes"]}, {"conceptId": "C127395", "definition": "The Expanded Prostate Cancer Index Composite Short Form - How big a problem during the last 4 weeks, if any, has each of the following been for you? Breast tenderness/enlargement.", "preferredTerm": "EPIC-26 - Breast Tender or Enlargement", "submissionValue": "EPIC113B", "synonyms": ["EPIC1-Problem Breast Tender/Enlargement"]}, {"conceptId": "C127396", "definition": "The Expanded Prostate Cancer Index Composite Short Form - How big a problem during the last 4 weeks, if any, has each of the following been for you? Feeling depressed.", "preferredTerm": "EPIC-26 - Feeling Depressed", "submissionValue": "EPIC113C", "synonyms": ["EPIC1-Problem Feeling Depressed"]}, {"conceptId": "C127397", "definition": "The Expanded Prostate Cancer Index Composite Short Form - How big a problem during the last 4 weeks, if any, has each of the following been for you? Lack of energy.", "preferredTerm": "EPIC-26 - Lack of Energy", "submissionValue": "EPIC113D", "synonyms": ["EPIC1-Problem Lack of Energy"]}, {"conceptId": "C127398", "definition": "The Expanded Prostate Cancer Index Composite Short Form - How big a problem during the last 4 weeks, if any, has each of the following been for you? Change in body weight.", "preferredTerm": "EPIC-26 - Change in Body Weight", "submissionValue": "EPIC113E", "synonyms": ["EPIC1-Problem Change in Body Weight"]}]}