{"_links": {"parentPackage": {"href": "/mdr/ct/packages/sdtmct-2016-09-30", "title": "SDTM Controlled Terminology Package 27 Effective 2016-09-30", "type": "Terminology"}, "priorVersion": {"href": "/mdr/ct/packages/sdtmct-2016-06-24/codelists/C66737", "title": "CDISC SDTM Trial Phase Terminology", "type": "Code List"}, "rootItem": {"href": "/mdr/root/ct/sdtmct/codelists/C66737", "title": "Version-agnostic anchor resource for codelist C66737", "type": "Root Value Domain"}, "self": {"href": "/mdr/ct/packages/sdtmct-2016-09-30/codelists/C66737", "title": "CDISC SDTM Trial Phase Terminology", "type": "Code List"}}, "conceptId": "C66737", "definition": "A terminology codelist relevant to the phase, or stage, of the clinical trial.", "extensible": "true", "name": "Trial Phase Response", "preferredTerm": "CDISC SDTM Trial Phase Terminology", "submissionValue": "TPHASE", "synonyms": ["Trial Phase Response"], "terms": [{"conceptId": "C48660", "definition": "Determination of a value is not relevant in the current context. (NCI)", "preferredTerm": "Not Applicable", "submissionValue": "NOT APPLICABLE", "synonyms": ["NA", "Not Applicable"]}, {"conceptId": "C15600", "definition": "The initial introduction of an investigational new drug into humans. Phase 1 studies are typically closely monitored and may be conducted in patients or normal volunteer subjects. NOTE: These studies are designed to determine the metabolism and pharmacologic actions of the drug in humans, the side effects associated with increasing doses, and, if possible, to gain early evidence on effectiveness. During Phase 1, sufficient information about the drug's pharmacokinetics and pharmacological effects should be obtained to permit the design of well-controlled, scientifically valid, Phase 2 studies. The total number of subjects and patients included in Phase I studies varies with the drug, but is generally in the range of 20 to 80. Phase 1 studies also include studies of drug metabolism, structure-activity relationships, and mechanism of action in humans, as well as studies in which investigational drugs are used as research tools to explore biological phenomena or disease processes. [After FDA CDER Handbook, ICH E8] (CDISC glossary)", "preferredTerm": "Phase I Trial", "submissionValue": "PHASE I TRIAL", "synonyms": ["1", "Trial Phase 1"]}, {"conceptId": "C15693", "definition": "A class of clinical study that combines elements characteristic of traditional Phase I and Phase II trials. See also Phase I, Phase II.", "preferredTerm": "Phase I/II Trial", "submissionValue": "PHASE I/II TRIAL", "synonyms": ["1-2", "Trial Phase 1-2"]}, {"conceptId": "C15601", "definition": "Phase 2. Controlled clinical studies conducted to evaluate the effectiveness of the drug for a particular indication or indications in patients with the disease or condition under study and to determine the common short-term side effects and risks associated with the drug. NOTE: Phase 2 studies are typically well controlled, closely monitored, and conducted in a relatively small number of patients, usually involving no more than several hundred subjects. [After FDA CDER Handbook, ICH E8] (CDISC glossary)", "preferredTerm": "Phase II Trial", "submissionValue": "PHASE II TRIAL", "synonyms": ["2", "Trial Phase 2"]}, {"conceptId": "C15694", "definition": "A class of clinical study that combines elements characteristic of traditional Phase II and Phase III trials.", "preferredTerm": "Phase II/III Trial", "submissionValue": "PHASE II/III TRIAL", "synonyms": ["2-3", "Trial Phase 2-3"]}, {"conceptId": "C49686", "definition": "A clinical research protocol generally referred to as a pilot or feasibility trial that aims to prove the concept of the new intervention in question. (NCI)", "preferredTerm": "Phase IIa Trial", "submissionValue": "PHASE IIA TRIAL", "synonyms": ["2A", "Trial Phase 2A"]}, {"conceptId": "C49688", "definition": "A clinical research protocol generally referred to as a well-controlled and pivotal trial that aims to prove the mechanism of action of the new intervention in question. A pivotal study will generally be well-controlled, randomized, of adequate size, and whenever possible, double-blind. (NCI)", "preferredTerm": "Phase IIb Trial", "submissionValue": "PHASE IIB TRIAL", "synonyms": ["2B", "Trial Phase 2B"]}, {"conceptId": "C15602", "definition": "Phase 3. Studies are expanded controlled and uncontrolled trials. They are performed after preliminary evidence suggesting effectiveness of the drug has been obtained, and are intended to gather the additional information about effectiveness and safety that is needed to confirm efficacy and evaluate the overall benefit-risk relationship of the drug and to provide an adequate basis for physician labeling. NOTE: Phase 3 studies usually include from several hundred to several thousand subjects. [After FDA CDER Handbook, ICH E8] (CDISC glossary)", "preferredTerm": "Phase III Trial", "submissionValue": "PHASE III TRIAL", "synonyms": ["3", "Trial Phase 3"]}, {"conceptId": "C49687", "definition": "A classification typically assigned retrospectively to a Phase III trial upon determination by regulatory authorities of a need for a Phase III B trial. (NCI)", "preferredTerm": "Phase IIIa Trial", "submissionValue": "PHASE IIIA TRIAL", "synonyms": ["3A", "Trial Phase 3A"]}, {"conceptId": "C49689", "definition": "A subcategory of Phase III trials done near the time of approval to elicit additional findings. NOTE: Dossier review may continue while associated Phase IIIB trials are conducted. These trials may be required as a condition of regulatory authority approval.", "preferredTerm": "Phase IIIb Trial", "submissionValue": "PHASE IIIB TRIAL", "synonyms": ["3B", "Trial Phase 3B"]}, {"conceptId": "C15603", "definition": "Phase 4. Postmarketing (Phase 4) studies to delineate additional information about the drug's risks, benefits, and optimal use that may be requested by regulatory authorities in conjunction with marketing approval. NOTE: These studies could include, but would not be limited to, studying different doses or schedules of administration than were used in Phase 2 studies, use of the drug in other patient populations or other stages of the disease, or use of the drug over a longer period of time. [After FDA CDER Handbook, ICH E8] (CDISC glossary)", "preferredTerm": "Phase IV Trial", "submissionValue": "PHASE IV TRIAL", "synonyms": ["4", "Trial Phase 4"]}, {"conceptId": "C47865", "definition": "Postmarketing surveillance is sometimes referred to as Phase V.", "preferredTerm": "Phase V Trial", "submissionValue": "PHASE V TRIAL", "synonyms": ["5", "Trial Phase 5"]}]}