{"_links": {"parentPackage": {"href": "/mdr/ct/packages/sdtmct-2016-09-30", "title": "SDTM Controlled Terminology Package 27 Effective 2016-09-30", "type": "Terminology"}, "priorVersion": {"href": "/mdr/ct/packages/sdtmct-2016-06-24/codelists/C74559", "title": "CDISC SDTM Subject Characteristic Test Code Terminology", "type": "Code List"}, "rootItem": {"href": "/mdr/root/ct/sdtmct/codelists/C74559", "title": "Version-agnostic anchor resource for codelist C74559", "type": "Root Value Domain"}, "self": {"href": "/mdr/ct/packages/sdtmct-2016-09-30/codelists/C74559", "title": "CDISC SDTM Subject Characteristic Test Code Terminology", "type": "Code List"}}, "conceptId": "C74559", "definition": "The test code representing each subject characteristic.", "extensible": "true", "name": "Subject Characteristic Test Code", "preferredTerm": "CDISC SDTM Subject Characteristic Test Code Terminology", "submissionValue": "SCTESTCD", "synonyms": ["Subject Characteristic Test Code"], "terms": [{"conceptId": "C112233", "definition": "An indication as to whether the subject was breast fed (received mother's milk) as an infant.", "preferredTerm": "Breast Fed Indicator", "submissionValue": "BRFEDIND", "synonyms": ["Breast Fed Indicator"]}, {"conceptId": "C102625", "definition": "A public health activity whereby individuals who have been exposed to a person with a suspected or confirmed contagious illness are identified, usually for the purpose of identifying additional cases of the illness, or to offer some form of prophylactic intervention to either prevent or ameliorate disease in the exposed individual.", "preferredTerm": "Disease Contact Investigation", "submissionValue": "CNTCINV", "synonyms": ["Contact Investigation"]}, {"conceptId": "C102631", "definition": "The date on which the subject arrived in the reporting country from the country of potential disease exposure.", "preferredTerm": "Entry Date from Country of Potential Disease Exposure", "submissionValue": "CTRYDDTC", "synonyms": ["Entry Date from Ptntl Cntry Disease Exp"]}, {"conceptId": "C102612", "definition": "System of classification based on the nation in which an individual was exposed to a disease, regardless of the nation in which he/she currently resides.", "preferredTerm": "Country of Potential Disease Exposure", "submissionValue": "CTRYDEXP", "synonyms": ["Country of Potential Disease Exposure"]}, {"conceptId": "C17953", "definition": "Highest level of education that a person has attained.", "preferredTerm": "Education Level", "submissionValue": "EDULEVEL", "synonyms": ["Level of Education Attained"]}, {"conceptId": "C122393", "definition": "The number of years of education that a person has completed.", "preferredTerm": "Number of Years of Education", "submissionValue": "EDUYRNUM", "synonyms": ["Number of Years of Education"]}, {"conceptId": "C25193", "definition": "A code specifying the job performed by the employee for the employer. For example, accountant, programmer analyst, patient care associate, staff nurse, etc.", "preferredTerm": "Occupation", "submissionValue": "EMPJOB", "synonyms": ["Employee Job"]}, {"conceptId": "C124435", "definition": "The gestational age of the subject at birth.", "preferredTerm": "Gestational Age at Birth", "submissionValue": "GSTABRTH", "synonyms": ["Gestational Age at Birth"]}, {"conceptId": "C114182", "definition": "The preferred hand of use for controlled and efficient performance of motor tasks.", "preferredTerm": "Dominant Hand", "submissionValue": "HANDDOM", "synonyms": ["Dominant Hand"]}, {"conceptId": "C74565", "definition": "A code qualifying the employment in various ways, such as, full-time vs. part time, etc.", "preferredTerm": "Employee Job Class", "submissionValue": "JOBCLAS", "synonyms": ["Employee Job Class"]}, {"conceptId": "C25188", "definition": "A demographic parameter indicating a person's current conjugal status.", "preferredTerm": "Marital Status", "submissionValue": "MARISTAT", "synonyms": ["Marital Status"]}, {"conceptId": "C28407", "definition": "System of classification based on nation from which a person originates, regardless of the nation in which he/she currently resides.", "preferredTerm": "National Origin", "submissionValue": "NATORIG", "synonyms": ["National Origin"]}, {"conceptId": "C112400", "definition": "An indication as to whether the subject was born prior to 38 weeks gestation.", "preferredTerm": "Premature Birth Indicator", "submissionValue": "PREMBRTH", "synonyms": ["Premature Birth Indicator"]}, {"conceptId": "C102699", "definition": "The categorization of individuals with or without the potential for having a particular disease.", "preferredTerm": "Priority of Disease Contact", "submissionValue": "PRICON", "synonyms": ["Priority of Disease Contact"]}, {"conceptId": "C102666", "definition": "An indication that a subject is part of a population group that has a greater chance of contracting a disease or disorder.", "preferredTerm": "Member Of High Risk Population", "submissionValue": "RISKPOP", "synonyms": ["Member of High Risk Population"]}, {"conceptId": "C102711", "definition": "Social factors such as personal behavior, lifestyle, or environment belonging to the subject which are known to increase the likelihood of infection and disease.", "preferredTerm": "Social Risk Factor", "submissionValue": "RISKSOC", "synonyms": ["Social Risk Factor"]}, {"conceptId": "C74566", "definition": "A code specifying the method used by the employer to compute the employee's salary or wages. For example, hourly, annual, or commission.", "preferredTerm": "Employee Salary Type", "submissionValue": "SALTYP", "synonyms": ["Employee Salary Type"]}, {"conceptId": "C102708", "definition": "The environment within which the person may have come into contact with a disease carrier, or played the role of a disease carrier.", "preferredTerm": "Setting of Disease Contact", "submissionValue": "SETCON", "synonyms": ["Setting of Contact"]}, {"conceptId": "C124436", "definition": "The physical sexual characteristics of the neonate at birth.", "preferredTerm": "Sex at Birth", "submissionValue": "SEXRBRTH", "synonyms": ["Sex Reported at Birth"]}, {"conceptId": "C74563", "definition": "Test to categorize the sensitivity of a subject's skin to sunlight. (Fitzpatrick TB. The validity and practicality of sun-reactive skin types I through VI. Arch. Dermatol. 1998 124: 869-871.)", "preferredTerm": "Fitzpatrick Classification Scale", "submissionValue": "SKINCLAS", "synonyms": ["Fitzpatrick Skin Classification", "Skin Classification"]}, {"conceptId": "C74580", "definition": "A distinctive characteristic of the skin marked by the amount of sebum secreted by sebaceous glands.", "preferredTerm": "Skin Type", "submissionValue": "SKINTYP", "synonyms": ["Skin Type"]}, {"conceptId": "C102713", "definition": "A public health activity for the determination of who transmitted a disease to another subject and whether this person: is still infectious; was reported to the health department as a disease case or suspect; or has infected others.", "preferredTerm": "Source Case Investigation", "submissionValue": "SRCCSINV", "synonyms": ["Source Case Investigation"]}, {"conceptId": "C4876", "definition": "Subjective evidence of disease perceived by the patient.", "preferredTerm": "Symptom", "submissionValue": "SYMPTOM", "synonyms": ["Symptom"]}, {"conceptId": "C112424", "definition": "The classification of the two offspring born from the same pregnancy.", "preferredTerm": "Twin Type", "submissionValue": "TWINTYP", "synonyms": ["Twin Type"]}, {"conceptId": "C102723", "definition": "Identification and clinical investigation of disease contacts.", "preferredTerm": "Type of Contagion Contact", "submissionValue": "TYPCON", "synonyms": ["Type of Contact"]}]}