{"_links": {"parentPackage": {"href": "/mdr/ct/packages/sdtmct-2016-09-30", "title": "SDTM Controlled Terminology Package 27 Effective 2016-09-30", "type": "Terminology"}, "priorVersion": {"href": "/mdr/ct/packages/sdtmct-2016-06-24/codelists/C78737", "title": "CDISC SDTM Relationship Type Terminology", "type": "Code List"}, "rootItem": {"href": "/mdr/root/ct/sdtmct/codelists/C78737", "title": "Version-agnostic anchor resource for codelist C78737", "type": "Root Value Domain"}, "self": {"href": "/mdr/ct/packages/sdtmct-2016-09-30/codelists/C78737", "title": "CDISC SDTM Relationship Type Terminology", "type": "Code List"}}, "conceptId": "C78737", "definition": "The description of relationship types between a record or set of records.", "extensible": "false", "name": "Relationship Type", "preferredTerm": "CDISC SDTM Relationship Type Terminology", "submissionValue": "RELTYPE", "synonyms": ["Relationship Type"], "terms": [{"conceptId": "C78728", "definition": "More than one. (NCI)", "preferredTerm": "Many", "submissionValue": "MANY", "synonyms": ["Many", "Several"]}, {"conceptId": "C66832", "definition": "A textual representation of the numeral 1.", "preferredTerm": "One", "submissionValue": "ONE"}]}