{"_links": {"parentPackage": {"href": "/mdr/ct/packages/sdtmct-2016-09-30", "title": "SDTM Controlled Terminology Package 27 Effective 2016-09-30", "type": "Terminology"}, "priorVersion": {"href": "/mdr/ct/packages/sdtmct-2016-06-24/codelists/C96778", "title": "CDISC SDTM Tumor or Lesion Properties Test Name Terminology", "type": "Code List"}, "rootItem": {"href": "/mdr/root/ct/sdtmct/codelists/C96778", "title": "Version-agnostic anchor resource for codelist C96778", "type": "Root Value Domain"}, "self": {"href": "/mdr/ct/packages/sdtmct-2016-09-30/codelists/C96778", "title": "CDISC SDTM Tumor or Lesion Properties Test Name Terminology", "type": "Code List"}}, "conceptId": "C96778", "definition": "Terminology relevant to the test codes that describe the assessment or measurement of a tumor, lesion or site of disease.", "extensible": "true", "name": "Tumor or Lesion Properties Test Name", "preferredTerm": "CDISC SDTM Tumor or Lesion Properties Test Name Terminology", "submissionValue": "TRTEST", "synonyms": ["Tumor or Lesion Properties Test Name"], "terms": [{"conceptId": "C103347", "definition": "The current value minus the lowest value previously recorded.", "preferredTerm": "Absolute Change From Nadir", "submissionValue": "Absolute Change From Nadir", "synonyms": ["Absolute Change From Nadir"]}, {"conceptId": "C112218", "definition": "The current sum of diameters minus the lowest sum of diameters previously recorded.", "preferredTerm": "Absolute Change From Nadir in Sum of Diameter", "submissionValue": "Absolute Change Nadir in Sum of Diam", "synonyms": ["Absolute Change Nadir in Sum of Diam"]}, {"conceptId": "C25244", "definition": "The extent of a 2-dimensional surface enclosed within a boundary. (NCI)", "preferredTerm": "Area", "submissionValue": "Area", "synonyms": ["Area"]}, {"conceptId": "C96566", "definition": "A semiquantitative analysis of the average uptake of analyte by body tissue in relation to the total administered dose of the analyte.", "preferredTerm": "Average Metabolic Standard Uptake Value", "submissionValue": "Average Metabolic Standard Uptake Value", "synonyms": ["Average Metabolic Standard Uptake Value"]}, {"conceptId": "C126056", "definition": "An indication as to whether calcification is present.", "preferredTerm": "Calcification Indicator", "submissionValue": "Calcification Indicator", "synonyms": ["Calcification Indicator"]}, {"conceptId": "C25285", "definition": "The length of a straight line passing through the center of a circle or sphere and connecting two points on the circumference. (NCI)", "preferredTerm": "Diameter", "submissionValue": "Diameter", "synonyms": ["Diameter"]}, {"conceptId": "C119551", "definition": "An indication as to whether lesion failure occurred.", "preferredTerm": "Lesion Failure Indicator", "submissionValue": "Lesion Failure Indicator", "synonyms": ["Lesion Failure Indicator"]}, {"conceptId": "C119556", "definition": "An indication as to whether an appropriate clinical context was present before lesion revascularization occurred.", "preferredTerm": "Lesion Revascularization Clinical Indicator", "submissionValue": "Lesion Revas Clinical Indicator", "synonyms": ["Lesion Revas Clinical Indicator"]}, {"conceptId": "C119555", "definition": "An indication as to whether clinical or functional ischemia is present before lesion revascularization occurred.", "preferredTerm": "Lesion Revascularization Ischemia Indicator", "submissionValue": "Lesion Revas Ischemia Indicator", "synonyms": ["Lesion Revas Ischemia Indicator"]}, {"conceptId": "C119552", "definition": "An indication as to whether repeat revascularization of a lesion occurred.", "preferredTerm": "Lesion Revascularization Indicator", "submissionValue": "Lesion Revascularization Indicator", "synonyms": ["Lesion Revascularization Indicator"]}, {"conceptId": "C119553", "definition": "An indication as to whether a performed procedure of a target lesion is considered successful.", "preferredTerm": "Lesion Success Indicator", "submissionValue": "Lesion Success Indicator", "synonyms": ["Lesion Success Indicator"]}, {"conceptId": "C119554", "definition": "An indication as to whether limb failure occurred.", "preferredTerm": "Limb Failure Indicator", "submissionValue": "Limb Failure Indicator", "synonyms": ["Limb Failure Indicator"]}, {"conceptId": "C96684", "definition": "The longest possible length of a straight line passing through the center of a circular or spheroid object that connects two points on the circumference.", "preferredTerm": "Longest Diameter", "submissionValue": "Longest Diameter", "synonyms": ["Longest Diameter"]}, {"conceptId": "C96685", "definition": "The longest possible straight line or plane through a body or figure that is at a right angle to a given line or plane.", "preferredTerm": "Longest Perpendicular", "submissionValue": "Longest Perpendicular", "synonyms": ["Longest Perpendicular"]}, {"conceptId": "C124448", "definition": "A condition or state of a lymph node at a particular time.", "preferredTerm": "Lymph Node State", "submissionValue": "Lymph Node State", "synonyms": ["Lymph Node State"]}, {"conceptId": "C103421", "definition": "The verification/confirmation by other methods or modalities that a tumor, which has not been previously seen or characterized, is present in the subject.", "preferredTerm": "New Tumor Confirmation", "submissionValue": "New Tumor Confirmed", "synonyms": ["New Tumor Confirmed"]}, {"conceptId": "C124446", "definition": "The number of lymph nodes that were examined.", "preferredTerm": "Number of Lymph Nodes Examined", "submissionValue": "Number of Lymph Nodes Examined", "synonyms": ["Number of Lymph Nodes Examined"]}, {"conceptId": "C124447", "definition": "The number of subject lymph nodes that were positive for presence of disease.", "preferredTerm": "Number of Lymph Nodes Positive", "submissionValue": "Number of Lymph Nodes Positive", "synonyms": ["Number of Lymph Nodes Positive"]}, {"conceptId": "C124449", "definition": "A condition or state of the tumor with regards to its palpability status at a particular point in time.", "preferredTerm": "Palpable State", "submissionValue": "Palpable State", "synonyms": ["Palpable State"]}, {"conceptId": "C112371", "definition": "The (current sum of longest diameters minus the baseline sum of longest diameters) divided by the baseline sum of longest diameters, multiplied by 100.", "preferredTerm": "Percent Change From Baseline in Sum of Longest Diameter", "submissionValue": "Percent Change Baseline Sum Longest Diam", "synonyms": ["Percent Change Baseline Sum Longest Diam"]}, {"conceptId": "C112369", "definition": "The (current sum of areas minus the baseline sum of areas) divided by the baseline sum of areas, multiplied by 100.", "preferredTerm": "Percent Change From Baseline in Sum of Area", "submissionValue": "Percent Change Baseline in Sum of Area", "synonyms": ["Percent Change Baseline in Sum of Area"]}, {"conceptId": "C112370", "definition": "The (current sum of diameters minus the baseline sum of diameters) divided by the baseline sum of diameters, multiplied by 100.", "preferredTerm": "Percent Change From Baseline in Sum of Diameter", "submissionValue": "Percent Change Baseline in Sum of Diam", "synonyms": ["Percent Change Baseline in Sum of Diam"]}, {"conceptId": "C112372", "definition": "The (current sum of volumes minus the baseline sum of volumes) divided by the baseline sum of volumes, multiplied by 100.", "preferredTerm": "Percent Change From Baseline in Sum of Volume", "submissionValue": "Percent Change Baseline in Sum of Volume", "synonyms": ["Percent Change Baseline in Sum of Volume"]}, {"conceptId": "C96621", "definition": "The (current value minus the baseline value) divided by the baseline value, multiplied by 100.", "preferredTerm": "Percent Change From Baseline", "submissionValue": "Percent Change From Baseline", "synonyms": ["Percent Change From Baseline"]}, {"conceptId": "C96622", "definition": "The (current value minus the lowest value previously recorded) divided by the lowest value previously recorded, multiplied by 100.", "preferredTerm": "Percent Change From Nadir", "submissionValue": "Percent Change From Nadir", "synonyms": ["Percent Change From Nadir"]}, {"conceptId": "C112374", "definition": "The (current sum of longest diameters minus the lowest sum of longest diameters previously recorded) divided by the lowest sum of longest diameters previously recorded, multiplied by 100.", "preferredTerm": "Percent Change From Nadir in Sum of Longest Diameter", "submissionValue": "Percent Change Nadir in Sum Longest Diam", "synonyms": ["Percent Change Nadir in Sum Longest Diam"]}, {"conceptId": "C126057", "definition": "The (current sum of areas minus the lowest sum of areas previously recorded) divided by the lowest sum of areas previously recorded, multiplied by 100.", "preferredTerm": "Percent Change From Nadir in Sum of Area", "submissionValue": "Percent Change Nadir in Sum of Area", "synonyms": ["Percent Change Nadir in Sum of Area"]}, {"conceptId": "C112373", "definition": "The (current sum of diameters minus the lowest sum of diameters previously recorded) divided by the lowest sum of diameters previously recorded, multiplied by 100.", "preferredTerm": "Percent Change From Nadir in Sum of Diameter", "submissionValue": "Percent Change Nadir in Sum of Diam", "synonyms": ["Percent Change Nadir in Sum of Diam"]}, {"conceptId": "C96627", "definition": "The transparency of a material to the passage of X-rays and other forms of radiation.", "preferredTerm": "Radiodensity", "submissionValue": "Radiodensity", "synonyms": ["Radiodensity"]}, {"conceptId": "C103441", "definition": "A calculation of the aggregated diameter values for tumors other than the lymph nodes.", "preferredTerm": "Sum of Diameters of Non Lymph Node Tumors", "submissionValue": "Sum Diameters of Non Lymph Node Tumors", "synonyms": ["Sum Diameters of Non Lymph Node Tumors"]}, {"conceptId": "C96630", "definition": "A calculation of the aggregated area values.", "preferredTerm": "Sum of Areas", "submissionValue": "Sum of Area", "synonyms": ["Sum of Area", "Sum of Products of Perpendicular Diameters"]}, {"conceptId": "C96631", "definition": "A calculation of the aggregated diameter values.", "preferredTerm": "Sum of Diameters", "submissionValue": "Sum of Diameter", "synonyms": ["Sum of Diameter"]}, {"conceptId": "C96632", "definition": "A calculation of the aggregated longest diameter values.", "preferredTerm": "Sum of Longest Diameters", "submissionValue": "Sum of Longest Diameter", "synonyms": ["Sum of Longest Diameter"]}, {"conceptId": "C96633", "definition": "A calculation of the aggregated longest perpendicular values.", "preferredTerm": "Sum of Longest Perpendiculars", "submissionValue": "Sum of Longest Perpendicular", "synonyms": ["Sum of Longest Perpendicular"]}, {"conceptId": "C96634", "definition": "A calculation of the aggregated diameter values taken from the viable portion of the tumor mass.", "preferredTerm": "Sum of Viable Diameters", "submissionValue": "Sum of Viable Diameter", "synonyms": ["Sum of Viable Diameter"]}, {"conceptId": "C96635", "definition": "A calculation of the aggregated volume values.", "preferredTerm": "Sum of Volumes", "submissionValue": "Sum of Volume", "synonyms": ["Sum of Volume"]}, {"conceptId": "C96643", "definition": "A condition or state of a tumor at a particular time.", "preferredTerm": "Tumor Status", "submissionValue": "Tumor State", "synonyms": ["Tumor State"]}, {"conceptId": "C119557", "definition": "An indication as to whether vessel failure occurred.", "preferredTerm": "Vessel Failure Indicator", "submissionValue": "Vessel Failure Indicator", "synonyms": ["Vessel Failure Indicator"]}, {"conceptId": "C119558", "definition": "An indication as to whether an artery is patent (free of TLR or restenosis) following intervention.", "preferredTerm": "Vessel Patency Indicator", "submissionValue": "Vessel Patency Indicator", "synonyms": ["Vessel Patency Indicator"]}, {"conceptId": "C119559", "definition": "An indication as to whether repeat revascularization of an artery containing a lesion occurred.", "preferredTerm": "Vessel Revascularization Indicator", "submissionValue": "Vessel Revascularization Indicator", "synonyms": ["Vessel Revascularization Indicator"]}, {"conceptId": "C96646", "definition": "The diameter of the portion of the tumor mass that is capable of growth, proliferation and metastasis.", "preferredTerm": "Viable Tumor Diameter", "submissionValue": "Viable Diameter", "synonyms": ["Viable Diameter"]}, {"conceptId": "C25335", "definition": "The amount of three dimensional space occupied by an object or the capacity of a space or container. (NCI)", "preferredTerm": "Volume", "submissionValue": "Volume", "synonyms": ["Volume"]}]}