{"_links": {"parentPackage": {"href": "/mdr/ct/packages/protocolct-2021-06-25", "title": "Protocol Controlled Terminology Package 46 Effective 2021-06-25", "type": "Terminology"}, "rootItem": {"href": "/mdr/root/ct/protocolct/codelists/C147069", "title": "Version-agnostic anchor resource for codelist C147069", "type": "Root Value Domain"}, "self": {"href": "/mdr/ct/packages/protocolct-2021-06-25/codelists/C147069", "title": "CDISC Protocol Randomization Type Response Terminology", "type": "Code List"}}, "conceptId": "C147069", "definition": "A terminology codelist relevant to the types of randomization schemas associated with a randomized controlled trial.", "name": "Randomization Type Value Set", "preferredTerm": "CDISC Protocol Randomization Type Response Terminology", "submissionValue": "Randomization Type Value Set", "synonyms": ["Randomization Type Value Set"], "terms": [{"conceptId": "C147126", "definition": "A type of randomization schema in which the group assignment probability of a participant is adjusted based on the group assignments of those participants already randomized in the trial.", "preferredTerm": "Adaptive Randomization", "submissionValue": "Adaptive Randomization"}, {"conceptId": "C147127", "definition": "A type of adaptive randomization in which a pre-specified number of participants is assigned to a block containing the same pre-specified number of balanced group assignments in random order.", "preferredTerm": "Block Randomization", "submissionValue": "Block Randomization", "synonyms": ["Constrained Randomization"]}, {"conceptId": "C147143", "definition": "A type of adaptive randomization in which the participant is assigned to the treatment group in an attempt to minimize imbalances in the number of participants for each stratification covariate across treatment groups.", "preferredTerm": "Minimization Randomization", "submissionValue": "Minimization Randomization", "synonyms": ["Covariate Adaptive Randomization"]}, {"conceptId": "C147144", "definition": "A type of randomization schema in which each participant has the same chance of being randomized into any one group as all other participants.", "preferredTerm": "Simple Randomization", "submissionValue": "Simple Randomization", "synonyms": ["Unrestricted Randomization"]}, {"conceptId": "C147145", "definition": "A type of block randomization in which participants are stratified into groups based on prognostic variables and then randomized into balanced treatment groups.", "preferredTerm": "Stratified Randomization", "submissionValue": "Stratified Randomization"}, {"conceptId": "C142743", "definition": "A type of randomization schema in which unequal numbers of participants are purposely assigned to multiple treatment groups.", "preferredTerm": "Unequal Randomization", "submissionValue": "Unequal Randomization"}]}