{"_links": {"parentPackage": {"href": "/mdr/ct/packages/protocolct-2021-06-25", "title": "Protocol Controlled Terminology Package 46 Effective 2021-06-25", "type": "Terminology"}, "rootItem": {"href": "/mdr/root/ct/protocolct/codelists/C170440", "title": "Version-agnostic anchor resource for codelist C170440", "type": "Root Value Domain"}, "self": {"href": "/mdr/ct/packages/protocolct-2021-06-25/codelists/C170440", "title": "CDISC Protocol Endpoint Attribute Terminology", "type": "Code List"}}, "conceptId": "C170440", "definition": "A terminology value set relevant to the attributes of the endpoint entity.", "name": "Endpoint Attribute Terminology", "preferredTerm": "CDISC Protocol Endpoint Attribute Terminology", "submissionValue": "Endpoint Attribute Terminology", "synonyms": ["Endpoint Attribute Terminology"], "terms": [{"conceptId": "C170557", "definition": "A characterization or classification of the defined variable intended to reflect an outcome measure of interest that is statistically analyzed to address a particular research question.", "preferredTerm": "Study Endpoint Type", "submissionValue": "Endpoint Type"}, {"conceptId": "C170558", "definition": "The rationale or explanation for why each study endpoint was chosen.", "preferredTerm": "Justification for Study Endpoint", "submissionValue": "Justification for Endpoint"}]}