{"_links": {"parentPackage": {"href": "/mdr/ct/packages/sdtmct-2023-06-30", "title": "SDTM Controlled Terminology Package 54 Effective 2023-06-30", "type": "Terminology"}, "priorVersion": {"href": "/mdr/ct/packages/sdtmct-2023-03-31/codelists/C101832", "title": "CDISC SDTM Findings About Test Code Terminology", "type": "Code List"}, "rootItem": {"href": "/mdr/root/ct/sdtmct/codelists/C101832", "title": "Version-agnostic anchor resource for codelist C101832", "type": "Root Value Domain"}, "self": {"href": "/mdr/ct/packages/sdtmct-2023-06-30/codelists/C101832", "title": "CDISC SDTM Findings About Test Code Terminology", "type": "Code List"}}, "conceptId": "C101832", "definition": "Terminology relevant to the test codes that describe findings about an event or intervention.", "extensible": "true", "name": "Findings About Test Code", "preferredTerm": "CDISC SDTM Findings About Test Code Terminology", "submissionValue": "FATESTCD", "synonyms": ["Findings About Test Code"], "terms": [{"conceptId": "C181313", "definition": "The number of abscesses observed.", "preferredTerm": "Number of Abscesses", "submissionValue": "ABSCNUM", "synonyms": ["Number of Abscesses"]}, {"conceptId": "C118936", "definition": "Categorization of the type of acute myocardial infarction.", "preferredTerm": "Acute Myocardial Infarction Type", "submissionValue": "ACMITYPE", "synonyms": ["Acute Myocardial Infarction Type"]}, {"conceptId": "C117037", "definition": "Action taken with respect to a device in a study, which may or may not be the device under study.", "preferredTerm": "Action Taken with Device", "submissionValue": "ACNDEV", "synonyms": ["Action Taken With Device"]}, {"conceptId": "C163412", "definition": "Action taken with respect to a subject in a study.", "preferredTerm": "Action Taken With Subject", "submissionValue": "ACNSBJ", "synonyms": ["Action Taken With Subject"]}, {"conceptId": "C124437", "definition": "The agent, stimulus, activity, or event that causes stress with an acute frequency, which has the highest level of severity.", "preferredTerm": "Most Severe Acute Stressor", "submissionValue": "ACUTSTRS", "synonyms": ["Most Severe Acute Stressor"]}, {"conceptId": "C88069", "definition": "An indication as to whether an adverse event improves or disappears after stopping a study treatment.", "preferredTerm": "Positive Dechallenge Reaction Indicator", "submissionValue": "AEDCHIND", "synonyms": ["AE Improve/Resolve with Dechallenge Ind", "AE Improve/Resolve with Dechallenge Indicator"]}, {"conceptId": "C88070", "definition": "An indication as to whether an adverse event reappears or worsens after restarting a study treatment.", "preferredTerm": "Positive Rechallenge Indicator", "submissionValue": "AERCHIND", "synonyms": ["AE Reappear/Worsen with Rechallenge Ind", "AE Reappear/Worsen with Rechallenge Indicator"]}, {"conceptId": "C124438", "definition": "The age at which the first episode occurred.", "preferredTerm": "Age at First Episode", "submissionValue": "AGEEPSD1", "synonyms": ["Age At First Episode"]}, {"conceptId": "C139175", "definition": "The age at which the full-time use of a pre-specified object first occurred.", "preferredTerm": "Age at Full-Time Use", "submissionValue": "AGEFTUSE", "synonyms": ["Age at Full-Time Use"]}, {"conceptId": "C124439", "definition": "The age at which the first hospitalization event occurred.", "preferredTerm": "Age at First Hospitalization", "submissionValue": "AGEHOSP1", "synonyms": ["Age At First Hospitalization"]}, {"conceptId": "C174273", "definition": "The age at which illness-specific symptoms first began.", "preferredTerm": "Age Symptom Started", "submissionValue": "AGESYMST", "synonyms": ["Age Symptoms Started"]}, {"conceptId": "C124440", "definition": "The age at which the first treatment for the condition occurred.", "preferredTerm": "Age at First Treatment", "submissionValue": "AGETRT1", "synonyms": ["Age At First Treatment"]}, {"conceptId": "C184464", "definition": "The total number of alcoholic drinks.", "preferredTerm": "Number of Alcoholic Drinks Measurement", "submissionValue": "ALCDRKN", "synonyms": ["Number of Alcoholic Drinks"]}, {"conceptId": "C25377", "definition": "The outward or visible aspect of an entity.", "preferredTerm": "Appearance", "submissionValue": "APPEAR", "synonyms": ["Aper"]}, {"conceptId": "C112221", "definition": "A relative measurement (ratio or percentage) of the allergen wheal size to the positive control wheal size in an allergen skin test.", "preferredTerm": "Allergen Skin Response Index", "submissionValue": "ASRINDEX", "synonyms": ["Allergen Skin Response Index"]}, {"conceptId": "C112222", "definition": "A semi-quantitative assessment of the intensity of the wheal and flare reaction.", "preferredTerm": "Allergen Skin Response Intensity", "submissionValue": "ASRINT", "synonyms": ["Allergen Skin Response Intensity"]}, {"conceptId": "C181316", "definition": "An indication as to whether a biopsy specimen was collected.", "preferredTerm": "Biopsy Specimen Taken Indicator", "submissionValue": "BIOPSIND", "synonyms": ["Biopsy Specimen Taken Indicator"]}, {"conceptId": "C181317", "definition": "The total number of biopsy specimens collected.", "preferredTerm": "Number of Biopsy Specimens Taken", "submissionValue": "BIOPSNUM", "synonyms": ["Number of Biopsy Specimens Taken"]}, {"conceptId": "C122195", "definition": "An indication as to whether blistering occurred.", "preferredTerm": "Blistering Indicator", "submissionValue": "BLISTIND", "synonyms": ["Blistering Indicator"]}, {"conceptId": "C181318", "definition": "A description of the appearance of the anatomical site from which a biopsy specimen has been collected.", "preferredTerm": "Pathologic Appearance of Biopsy Site", "submissionValue": "BPSPTHAP", "synonyms": ["Pathologic Appearance of Biopsy Site"]}, {"conceptId": "C172476", "definition": "A measurement of the number of calories expended.", "preferredTerm": "Calories Burned", "submissionValue": "CALBURN", "synonyms": ["Calories Burned"]}, {"conceptId": "C119229", "definition": "The method by which the coronary artery thrombosis event is determined or diagnosed.", "preferredTerm": "Coronary Artery Thrombosis Method of Identification", "submissionValue": "CATMTHID", "synonyms": ["Coronary Artery Thrombosis Method Ident"]}, {"conceptId": "C124441", "definition": "The agent, stimulus, activity, or event that causes stress with a chronic frequency, which has the highest level of severity.", "preferredTerm": "Most Severe Chronic Stressor", "submissionValue": "CHRNSTRS", "synonyms": ["Most Severe Chronic Stressor"]}, {"conceptId": "C124442", "definition": "An indication as to whether the subject was admitted to a healthcare clinic.", "preferredTerm": "Clinic Stay Indicator", "submissionValue": "CLININD", "synonyms": ["Clinic Stay Indicator"]}, {"conceptId": "C199692", "definition": "The phase of the contrast agent distribution within the body after its administration.", "preferredTerm": "Contrast Agent Enhancement Phase", "submissionValue": "CONTEPH", "synonyms": ["Contrast Enhancement Phase"]}, {"conceptId": "C94596", "definition": "The total amount that a subject is exposed to over time.", "preferredTerm": "Cumulative Exposure", "submissionValue": "CUMEXP", "synonyms": ["Cumulative Exposure"]}, {"conceptId": "C184449", "definition": "A determination of the alpha carotene in a nutritional product or meal, or a portion thereof.", "preferredTerm": "Dietary Alpha Carotene Measurement", "submissionValue": "DACARO", "synonyms": ["Dietary Alpha Carotene"]}, {"conceptId": "C172463", "definition": "A determination of the total added sugars in a nutritional product or meal, or a portion thereof.", "preferredTerm": "Dietary Added Sugar Measurement", "submissionValue": "DADDSUG", "synonyms": ["Dietary Added Sugar"]}, {"conceptId": "C184463", "definition": "A determination of the total amount of alcohol in a nutritional product or meal, or a portion thereof.", "preferredTerm": "Dietary Alcohol Measurement", "submissionValue": "DALCOHOL", "synonyms": ["Dietary Alcohol", "Dietary Ethanol"]}, {"conceptId": "C184441", "definition": "A determination of the total 20:4 arachidonic acid in a nutritional product or meal, or a portion thereof.", "preferredTerm": "Dietary Arachidonic Acid Measurement", "submissionValue": "DARAC", "synonyms": ["Dietary 20:4 Arachidonate", "Dietary 20:4 Arachidonic Acid", "Dietary Arachidonic Acid"]}, {"conceptId": "C184450", "definition": "A determination of the alpha tocopherol in a nutritional product or meal, or a portion thereof.", "preferredTerm": "Dietary Alpha Tocopherol Measurement", "submissionValue": "DATOCO", "synonyms": ["Dietary Alpha Tocopherol"]}, {"conceptId": "C184461", "definition": "A determination of the total added vitamin B12 in a nutritional product or meal, or a portion thereof.", "preferredTerm": "Dietary Added Vitamin B12 Measurement", "submissionValue": "DAVITB12", "synonyms": ["Dietary Added Vitamin B12"]}, {"conceptId": "C184462", "definition": "A determination of the total added vitamin E in a nutritional product or meal, or a portion thereof.", "preferredTerm": "Dietary Added Vitamin E Measurement", "submissionValue": "DAVITE", "synonyms": ["Dietary Added Vitamin E"]}, {"conceptId": "C184451", "definition": "A determination of the beta carotene in a nutritional product or meal, or a portion thereof.", "preferredTerm": "Dietary Beta Carotene Measurement", "submissionValue": "DBCARO", "synonyms": ["Dietary Beta Carotene"]}, {"conceptId": "C184465", "definition": "A determination of the total beans and peas in a nutritional product or meal, or a portion thereof.", "preferredTerm": "Dietary Beans and Peas Measurement", "submissionValue": "DBEANPEA", "synonyms": ["Dietary Beans and Peas"]}, {"conceptId": "C184446", "definition": "A determination of the total 4:0 butyric acid in a nutritional product or meal, or a portion thereof.", "preferredTerm": "Dietary Butyric Acid Measurement", "submissionValue": "DBUTR", "synonyms": ["Dietary 4:0 Butyrate", "Dietary 4:0 Butyric Acid", "Dietary Butyric Acid"]}, {"conceptId": "C184453", "definition": "A determination of the total calcium in a nutritional product or meal, or a portion thereof.", "preferredTerm": "Dietary Calcium Measurement", "submissionValue": "DCA", "synonyms": ["Dietary Calcium"]}, {"conceptId": "C184452", "definition": "A determination of the caffeine in a nutritional product or meal, or a portion thereof.", "preferredTerm": "Dietary Caffeine Measurement", "submissionValue": "DCAFFEIN", "synonyms": ["Dietary Caffeine"]}, {"conceptId": "C172464", "definition": "A determination of the total dietary calories in a nutritional product or meal, or a portion thereof.", "preferredTerm": "Dietary Calories Measurement", "submissionValue": "DCAL", "synonyms": ["Dietary Calories"]}, {"conceptId": "C184447", "definition": "A determination of the total 6:0 caproic acid in a nutritional product or meal, or a portion thereof.", "preferredTerm": "Dietary Caproic Acid Measurement", "submissionValue": "DCAPO", "synonyms": ["Dietary 6:0 Caproate", "Dietary 6:0 Caproic Acid", "Dietary Caproic Acid"]}, {"conceptId": "C184430", "definition": "A determination of the total 10:0 capric acid in a nutritional product or meal, or a portion thereof.", "preferredTerm": "Dietary Capric Acid Measurement", "submissionValue": "DCAPR", "synonyms": ["Dietary 10:0 Caprate", "Dietary 10:0 Capric Acid", "Dietary Capric Acid"]}, {"conceptId": "C184448", "definition": "A determination of the total 8:0 caprylic acid in a nutritional product or meal, or a portion thereof.", "preferredTerm": "Dietary Caprylic Acid Measurement", "submissionValue": "DCAPY", "synonyms": ["Dietary 8:0 Caprylate", "Dietary 8:0 Caprylic Acid", "Dietary Caprylic Acid"]}, {"conceptId": "C172461", "definition": "A determination of the total carbohydrate in a nutritional product or meal, or a portion thereof.", "preferredTerm": "Total Dietary Carbohydrate Measurement", "submissionValue": "DCARBT", "synonyms": ["Dietary Total Carbohydrate"]}, {"conceptId": "C176284", "definition": "An indication as to whether an individual is unable to discontinue the use of a substance due to dependence.", "preferredTerm": "Unable to Discontinue Use Due to Dependence Indicator", "submissionValue": "DCDEPIND", "synonyms": ["Unable to Discon Dependent Indicator", "Unable to Discontinue Dependent Indicator"]}, {"conceptId": "C184454", "definition": "A determination of the total cheese in a nutritional product or meal, or a portion thereof.", "preferredTerm": "Dietary Cheese Measurement", "submissionValue": "DCHEESE", "synonyms": ["Dietary Cheese"]}, {"conceptId": "C184466", "definition": "A determination of the total cholesterol in a nutritional product or meal, or a portion thereof.", "preferredTerm": "Dietary Cholesterol Measurement", "submissionValue": "DCHOLEST", "synonyms": ["Dietary Cholesterol"]}, {"conceptId": "C184467", "definition": "A determination of the choline in a nutritional product or meal, or a portion thereof.", "preferredTerm": "Dietary Choline Measurement", "submissionValue": "DCHOLINE", "synonyms": ["Dietary Choline"]}, {"conceptId": "C184468", "definition": "A determination of the total citrus, melons, and berries in a nutritional product or meal, or a portion thereof.", "preferredTerm": "Dietary Citrus, Melons, and Berries Measurement", "submissionValue": "DCITMELB", "synonyms": ["Dietary Citrus, Melons, and Berries"]}, {"conceptId": "C184444", "definition": "A determination of the total 22:5 clupanodonic acid in a nutritional product or meal, or a portion thereof.", "preferredTerm": "Dietary Clupanodonic Acid Measurement", "submissionValue": "DCPND", "synonyms": ["Dietary 22:5 Clupanodonate", "Dietary 22:5 Clupanodonic Acid", "Dietary Clupanodonic Acid"]}, {"conceptId": "C186015", "definition": "A determination of the beta-cryptoxanthin in a nutritional product or meal, or a portion thereof.", "preferredTerm": "Dietary Beta-Cryptoxanthin Measurement", "submissionValue": "DCRXANB", "synonyms": ["Dietary Beta-Cryptoxanthin"]}, {"conceptId": "C184455", "definition": "A determination of the total copper in a nutritional product or meal, or a portion thereof.", "preferredTerm": "Dietary Copper Measurement", "submissionValue": "DCU", "synonyms": ["Dietary Copper"]}, {"conceptId": "C184337", "definition": "A determination of the total dairy (food products produced from or containing milk) in a nutritional product or meal, or a portion thereof.", "preferredTerm": "Dietary Dairy Measurement", "submissionValue": "DDAIRYT", "synonyms": ["Dietary Total Dairy"]}, {"conceptId": "C184445", "definition": "A determination of the total 22:6 docosahexaenoic acid in a nutritional product or meal, or a portion thereof.", "preferredTerm": "Dietary Docosahexaenoic Acid Measurement", "submissionValue": "DDCHX", "synonyms": ["Dietary 22:6 Docosahexaenoate", "Dietary 22:6 Docosahexaenoic Acid", "Dietary Docosahexaenoic Acid"]}, {"conceptId": "C184471", "definition": "A determination of the eggs in a nutritional product or meal, or a portion thereof.", "preferredTerm": "Dietary Eggs Measurement", "submissionValue": "DEGGS", "synonyms": ["Dietary Eggs"]}, {"conceptId": "C184443", "definition": "A determination of the total 22:1 erucic acid in a nutritional product or meal, or a portion thereof.", "preferredTerm": "Dietary Erucic Acid Measurement", "submissionValue": "DERUC", "synonyms": ["Dietary 22:1 Erucate", "Dietary 22:1 Erucic Acid", "Dietary Erucic Acid"]}, {"conceptId": "C176277", "definition": "A determination of the number of devices within a subject.", "preferredTerm": "Number of Devices Present", "submissionValue": "DEVPNUM", "synonyms": ["Number of Devices Present"]}, {"conceptId": "C172471", "definition": "A determination of the total monounsaturated fat in a nutritional product or meal, or a portion thereof.", "preferredTerm": "Dietary Monounsaturated Fat Measurement", "submissionValue": "DFATM", "synonyms": ["Dietary Fat, Monounsaturated"]}, {"conceptId": "C172472", "definition": "A determination of the total polyunsaturated fat in a nutritional product or meal, or a portion thereof.", "preferredTerm": "Dietary Polyunsaturated Fat Measurement", "submissionValue": "DFATP", "synonyms": ["Dietary Fat, Polyunsaturated"]}, {"conceptId": "C172470", "definition": "A determination of the total saturated fat in a nutritional product or meal, or a portion thereof.", "preferredTerm": "Dietary Saturated Fat Measurement", "submissionValue": "DFATS", "synonyms": ["Dietary Fat, Saturated"]}, {"conceptId": "C172460", "definition": "A determination of the total fat in a nutritional product or meal, or a portion thereof.", "preferredTerm": "Total Dietary Fat Measurement", "submissionValue": "DFATT", "synonyms": ["Dietary Fat, Total"]}, {"conceptId": "C184456", "definition": "A determination of the total iron in a nutritional product or meal, or a portion thereof.", "preferredTerm": "Dietary Iron Measurement", "submissionValue": "DFE", "synonyms": ["Dietary Iron"]}, {"conceptId": "C186016", "definition": "The sum of food folate and normalized folic acid (as food folate equivalents) in a nutritional product or meal, or a portion thereof.", "preferredTerm": "Dietary Folate Equivalents Measurement", "submissionValue": "DFEQ", "synonyms": ["DFE", "Dietary Folate Equivalents"]}, {"conceptId": "C172469", "definition": "A determination of the total fiber in a nutritional product or meal, or a portion thereof.", "preferredTerm": "Dietary Fiber Measurement", "submissionValue": "DFIBER", "synonyms": ["Dietary Fiber"]}, {"conceptId": "C186017", "definition": "A determination of the naturally occurring folate in a nutritional product or meal, or a portion thereof.", "preferredTerm": "Dietary Food Folate Measurement", "submissionValue": "DFOLFD", "synonyms": ["Dietary Food Folate"]}, {"conceptId": "C186018", "definition": "A determination of the folic acid in a nutritional product or meal, or a portion thereof.", "preferredTerm": "Dietary Folic Acid Measurement", "submissionValue": "DFOLIC", "synonyms": ["Dietary Folic Acid"]}, {"conceptId": "C186019", "definition": "A determination of the total folate (supplemental folic acid + food folate) in a nutritional product or meal, or a portion thereof.", "preferredTerm": "Dietary Total Folate Measurement", "submissionValue": "DFOLTOT", "synonyms": ["Dietary Total Folate"]}, {"conceptId": "C184472", "definition": "A determination of the fruit juice in a nutritional product or meal, or a portion thereof.", "preferredTerm": "Dietary Fruit Juice Measurement", "submissionValue": "DFRTJUCE", "synonyms": ["Dietary Fruit Juice"]}, {"conceptId": "C172465", "definition": "A determination of the total fruit in a nutritional product or meal, or a portion thereof.", "preferredTerm": "Dietary Fruit Measurement", "submissionValue": "DFRUIT", "synonyms": ["Dietary Fruit"]}, {"conceptId": "C184440", "definition": "A determination of the total 20:1 gadoleic acid in a nutritional product or meal, or a portion thereof.", "preferredTerm": "Dietary Gadoleic Acid Measurement", "submissionValue": "DGADL", "synonyms": ["Dietary 20:1 Gadoleate", "Dietary 20:1 Gadoleic Acid", "Dietary Gadoleic Acid"]}, {"conceptId": "C172467", "definition": "A determination of the total grain in a nutritional product or meal, or a portion thereof.", "preferredTerm": "Dietary Grain Measurement", "submissionValue": "DGRAIN", "synonyms": ["Dietary Grain"]}, {"conceptId": "C184484", "definition": "A determination of the total refined grains in a nutritional product or meal, or a portion thereof.", "preferredTerm": "Dietary Grain, Refined Measurement", "submissionValue": "DGRAINRF", "synonyms": ["Dietary Grain, Refined"]}, {"conceptId": "C184502", "definition": "A determination of the whole grains in a nutritional product or meal, or a portion thereof.", "preferredTerm": "Dietary Whole Grains Measurement", "submissionValue": "DGRAINWH", "synonyms": ["Dietary Whole Grains"]}, {"conceptId": "C25285", "definition": "The length of a straight line passing through the center of a circle or sphere and connecting two points on the circumference. (NCI)", "preferredTerm": "Diameter", "submissionValue": "DIAMETER", "synonyms": ["Diameter"]}, {"conceptId": "C78721", "definition": "The quantity of a product that has been dispensed. (NCI)", "preferredTerm": "Dispensed Amount", "submissionValue": "DISPAMT", "synonyms": ["Dispensed Amount"]}, {"conceptId": "C25167", "definition": "The actual or calculated span between two points (real or virtual).", "preferredTerm": "Distance", "submissionValue": "DISTANCE", "synonyms": ["Distance"]}, {"conceptId": "C198212", "definition": "Description of the distribution pattern of a finding within the examined area.", "preferredTerm": "Distribution Pattern Finding Description", "submissionValue": "DISTR", "synonyms": ["Distribution"]}, {"conceptId": "C184457", "definition": "A determination of the total potassium in a nutritional product or meal, or a portion thereof.", "preferredTerm": "Dietary Potassium Measurement", "submissionValue": "DK", "synonyms": ["Dietary Potassium"]}, {"conceptId": "C184431", "definition": "A determination of the total 12:0 lauric acid in a nutritional product or meal, or a portion thereof.", "preferredTerm": "Dietary Lauric Acid Measurement", "submissionValue": "DLAUR", "synonyms": ["Dietary 12:0 Laurate", "Dietary 12:0 Lauric Acid", "Dietary Lauric Acid"]}, {"conceptId": "C184437", "definition": "A determination of the total 18:2 linoleic acid in a nutritional product or meal, or a portion thereof.", "preferredTerm": "Dietary Linoleic Acid Measurement", "submissionValue": "DLINO", "synonyms": ["Dietary 18:2 Linoleate", "Dietary 18:2 Linoleic Acid", "Dietary Linoleic Acid"]}, {"conceptId": "C184438", "definition": "A determination of the total 18:3 linolenic acid in a nutritional product or meal, or a portion thereof.", "preferredTerm": "Dietary Linolenic Acid Measurement", "submissionValue": "DLINOL", "synonyms": ["Dietary 18:3 Linolenate", "Dietary 18:3 Linolenic Acid", "Dietary Linolenic Acid"]}, {"conceptId": "C184473", "definition": "A determination of the lutein and zeaxanthin in a nutritional product or meal, or a portion thereof.", "preferredTerm": "Dietary Lutein and Zeaxanthin Measurement", "submissionValue": "DLUTZXAN", "synonyms": ["Dietary Lutein and Zeaxanthin"]}, {"conceptId": "C184474", "definition": "A determination of the lycopene in a nutritional product or meal, or a portion thereof.", "preferredTerm": "Dietary Lycopene Measurement", "submissionValue": "DLYCOP", "synonyms": ["Dietary Lycopene"]}, {"conceptId": "C172468", "definition": "A determination of the total meat in a nutritional product or meal, or a portion thereof.", "preferredTerm": "Dietary Meat Measurement", "submissionValue": "DMEAT", "synonyms": ["Dietary Meat"]}, {"conceptId": "C184469", "definition": "A determination of the cured meat in a nutritional product or meal, or a portion thereof.", "preferredTerm": "Dietary Meat, Cured Measurement", "submissionValue": "DMEATCUR", "synonyms": ["Dietary Meat, Cured"]}, {"conceptId": "C184480", "definition": "A determination of the organ meat in a nutritional product or meal, or a portion thereof.", "preferredTerm": "Dietary Meat, Organ Measurement", "submissionValue": "DMEATORG", "synonyms": ["Dietary Meat, Organ"]}, {"conceptId": "C184504", "definition": "A determination of the total meat, poultry, and seafood in a nutritional product or meal, or a portion thereof.", "preferredTerm": "Dietary Meat, Poultry, and Seafood Measurement", "submissionValue": "DMEATPLS", "synonyms": ["Dietary Meat, Poultry, and Seafood"]}, {"conceptId": "C172462", "definition": "A determination of the total magnesium in a nutritional product or meal, or a portion thereof.", "preferredTerm": "Dietary Magnesium Measurement", "submissionValue": "DMG", "synonyms": ["Dietary Magnesium"]}, {"conceptId": "C184475", "definition": "A determination of the milk in a nutritional product or meal, or a portion thereof.", "preferredTerm": "Dietary Milk Measurement", "submissionValue": "DMILK", "synonyms": ["Dietary Milk"]}, {"conceptId": "C184476", "definition": "A determination of the moisture content in a nutritional product or meal, or a portion thereof.", "preferredTerm": "Dietary Moisture Measurement", "submissionValue": "DMOISTUR", "synonyms": ["Dietary Moisture"]}, {"conceptId": "C184432", "definition": "A determination of the total 14:0 myristic acid in a nutritional product or meal, or a portion thereof.", "preferredTerm": "Dietary Myristic Acid Measurement", "submissionValue": "DMYRST", "synonyms": ["Dietary 14:0 Myristate", "Dietary 14:0 Myristic Acid", "Dietary Myristic Acid"]}, {"conceptId": "C184459", "definition": "A determination of the total sodium in a nutritional product or meal, or a portion thereof.", "preferredTerm": "Dietary Sodium Measurement", "submissionValue": "DNA", "synonyms": ["Dietary Sodium"]}, {"conceptId": "C184477", "definition": "A determination of the niacin in a nutritional product or meal, or a portion thereof.", "preferredTerm": "Dietary Niacin Measurement", "submissionValue": "DNIACIN", "synonyms": ["Dietary Niacin", "Dietary Vitamin B3"]}, {"conceptId": "C184478", "definition": "A determination of the total nuts and seeds in a nutritional product or meal, or a portion thereof.", "preferredTerm": "Dietary Nuts and Seeds Measurement", "submissionValue": "DNUTSEED", "synonyms": ["Dietary Nuts and Seeds"]}, {"conceptId": "C184479", "definition": "A determination of the oils in a nutritional product or meal, or a portion thereof.", "preferredTerm": "Dietary Oils Measurement", "submissionValue": "DOILS", "synonyms": ["Dietary Oils"]}, {"conceptId": "C184436", "definition": "A determination of the total 18:1 oleic acid in a nutritional product or meal, or a portion thereof.", "preferredTerm": "Dietary Oleic Acid Measurement", "submissionValue": "DOLE", "synonyms": ["Dietary 18:1 Oleate", "Dietary 18:1 Oleic Acid", "Dietary Oleic Acid"]}, {"conceptId": "C184481", "definition": "A determination of the phosphorus in a nutritional product or meal, or a portion thereof.", "preferredTerm": "Dietary Phosphorus Measurement", "submissionValue": "DP", "synonyms": ["Dietary Phosphorus"]}, {"conceptId": "C184433", "definition": "A determination of the total 16:0 palmitic acid in a nutritional product or meal, or a portion thereof.", "preferredTerm": "Dietary Palmitic Acid Measurement", "submissionValue": "DPALM", "synonyms": ["Dietary 16:0 Palmitate", "Dietary 16:0 Palmitic Acid", "Dietary Palmitic Acid"]}, {"conceptId": "C184434", "definition": "A determination of the total 16:1 palmitoleic acid in a nutritional product or meal, or a portion thereof.", "preferredTerm": "Dietary Palmitoleic Acid Measurement", "submissionValue": "DPALMO", "synonyms": ["Dietary 16:1 Palmitoleate", "Dietary 16:1 Palmitoleic Acid", "Dietary Palmitoleic Acid"]}, {"conceptId": "C184439", "definition": "A determination of the total 18:4 parinaric acid in a nutritional product or meal, or a portion thereof.", "preferredTerm": "Dietary Parinaric Acid Measurement", "submissionValue": "DPARN", "synonyms": ["Dietary 18:4 Parinarate", "Dietary 18:4 Parinaric Acid", "Dietary Parinaric Acid"]}, {"conceptId": "C184482", "definition": "A determination of the potatoes in a nutritional product or meal, or a portion thereof.", "preferredTerm": "Dietary Potatoes Measurement", "submissionValue": "DPOTATO", "synonyms": ["Dietary Potatoes"]}, {"conceptId": "C184483", "definition": "A determination of the poultry in a nutritional product or meal, or a portion thereof.", "preferredTerm": "Dietary Poultry Measurement", "submissionValue": "DPOULTRY", "synonyms": ["Dietary Poultry"]}, {"conceptId": "C172459", "definition": "A determination of the total protein in a nutritional product or meal, or a portion thereof.", "preferredTerm": "Dietary Protein Measurement", "submissionValue": "DPROT", "synonyms": ["Dietary Protein"]}, {"conceptId": "C184494", "definition": "A determination of the protein-rich food in a nutritional product or meal, or a portion thereof.", "preferredTerm": "Dietary Protein Foods Measurement", "submissionValue": "DPROTFD", "synonyms": ["Dietary Protein Foods"]}, {"conceptId": "C184485", "definition": "A determination of the retinol in a nutritional product or meal, or a portion thereof.", "preferredTerm": "Dietary Retinol Measurement", "submissionValue": "DRETINOL", "synonyms": ["Dietary Retinol", "Dietary Vitamin A"]}, {"conceptId": "C184486", "definition": "A determination of the riboflavin in a nutritional product or meal, or a portion thereof.", "preferredTerm": "Dietary Riboflavin Measurement", "submissionValue": "DRIBFLVN", "synonyms": ["Dietary Riboflavin", "Dietary Vitamin B2"]}, {"conceptId": "C102626", "definition": "The state or condition of not responding to a pharmacological agent.", "preferredTerm": "Drug Resistance Status", "submissionValue": "DRSTAT", "synonyms": ["Drug Resistance Status"]}, {"conceptId": "C184458", "definition": "A determination of the total selenium in a nutritional product or meal, or a portion thereof.", "preferredTerm": "Dietary Selenium Measurement", "submissionValue": "DSE", "synonyms": ["Dietary Selenium"]}, {"conceptId": "C184487", "definition": "A determination of the seafood high in n-3 fatty acids in a nutritional product or meal, or a portion thereof.", "preferredTerm": "Dietary Seafood High in n-3 Fatty Acids Measurement", "submissionValue": "DSFHN3FA", "synonyms": ["Dietary Seafood High in n-3 Fatty Acids"]}, {"conceptId": "C184488", "definition": "A determination of the seafood low in n-3 fatty acids in a nutritional product or meal, or a portion thereof.", "preferredTerm": "Dietary Seafood Low in n-3 Fatty Acids Measurement", "submissionValue": "DSFLN3FA", "synonyms": ["Dietary Seafood Low in n-3 Fatty Acids"]}, {"conceptId": "C184489", "definition": "A determination of the solid fats in a nutritional product or meal, or a portion thereof.", "preferredTerm": "Dietary Solid Fats Measurement", "submissionValue": "DSLDFAT", "synonyms": ["Dietary Solid Fats"]}, {"conceptId": "C184490", "definition": "A determination of the soy-containing products in a nutritional product or meal, or a portion thereof.", "preferredTerm": "Dietary Soy Products Measurement", "submissionValue": "DSOYPROD", "synonyms": ["Dietary Soy Products"]}, {"conceptId": "C184435", "definition": "A determination of the total 18:0 stearic acid in a nutritional product or meal, or a portion thereof.", "preferredTerm": "Dietary Stearic Acid Measurement", "submissionValue": "DSTER", "synonyms": ["Dietary 18:0 Stearate", "Dietary 18:0 Stearic Acid", "Dietary Stearic Acid"]}, {"conceptId": "C184338", "definition": "A determination of the total sugars in a nutritional product or meal, or a portion thereof.", "preferredTerm": "Dietary Sugar Measurement", "submissionValue": "DSUGART", "synonyms": ["Dietary Total Sugars"]}, {"conceptId": "C184491", "definition": "A determination of the theobromine in a nutritional product or meal, or a portion thereof.", "preferredTerm": "Dietary Theobromine Measurement", "submissionValue": "DTHEOBR", "synonyms": ["Dietary Theobromine"]}, {"conceptId": "C184492", "definition": "A determination of the thiamine in a nutritional product or meal, or a portion thereof.", "preferredTerm": "Dietary Thiamine Measurement", "submissionValue": "DTHIAMIN", "synonyms": ["Dietary Thiamin", "Dietary Thiamine", "Dietary Vitamin B1"]}, {"conceptId": "C184442", "definition": "A determination of the total 20:5 timnodonic acid in a nutritional product or meal, or a portion thereof.", "preferredTerm": "Dietary Timnodonic Acid Measurement", "submissionValue": "DTMND", "synonyms": ["Dietary 20:5 Timnodonate", "Dietary 20:5 Timnodonic Acid", "Dietary Timnodonic Acid"]}, {"conceptId": "C184493", "definition": "A determination of the tomatoes in a nutritional product or meal, or a portion thereof.", "preferredTerm": "Dietary Tomatoes Measurement", "submissionValue": "DTOMATO", "synonyms": ["Dietary Tomatoes"]}, {"conceptId": "C174280", "definition": "The number of devices inserted into an individual.", "preferredTerm": "Number of Devices Inserted", "submissionValue": "DVCINSN", "synonyms": ["Number of Devices Inserted"]}, {"conceptId": "C172466", "definition": "A determination of the total vegetables in a nutritional product or meal, or a portion thereof.", "preferredTerm": "Dietary Vegetable Measurement", "submissionValue": "DVEG", "synonyms": ["Dietary Vegetable"]}, {"conceptId": "C184470", "definition": "A determination of the total dark green vegetables in a nutritional product or meal, or a portion thereof.", "preferredTerm": "Dietary Vegetables, Dark Green Measurement", "submissionValue": "DVEGDG", "synonyms": ["Dietary Vegetables, Dark Green"]}, {"conceptId": "C184495", "definition": "A determination of the total red and orange vegetables in a nutritional product or meal, or a portion thereof.", "preferredTerm": "Dietary Vegetables, Red and Orange Measurement", "submissionValue": "DVEGRO", "synonyms": ["Dietary Vegetables, Red and Orange"]}, {"conceptId": "C184496", "definition": "A determination of the total starchy vegetables in a nutritional product or meal, or a portion thereof.", "preferredTerm": "Dietary Vegetables, Starchy Measurement", "submissionValue": "DVEGSTAR", "synonyms": ["Dietary Vegetables, Starchy"]}, {"conceptId": "C184497", "definition": "A determination of the total vitamin A in a nutritional product or meal, or a portion thereof.", "preferredTerm": "Dietary Vitamin A Measurement", "submissionValue": "DVITA", "synonyms": ["Dietary Vitamin A"]}, {"conceptId": "C184353", "definition": "A determination of the total vitamin B12 in a nutritional product or meal, or a portion thereof.", "preferredTerm": "Dietary Vitamin B12 Measurement", "submissionValue": "DVITB12", "synonyms": ["Dietary Vitamin B12"]}, {"conceptId": "C184498", "definition": "A determination of the total vitamin B6 in a nutritional product or meal, or a portion thereof.", "preferredTerm": "Dietary Vitamin B6 Measurement", "submissionValue": "DVITB6", "synonyms": ["Dietary Vitamin B6"]}, {"conceptId": "C184499", "definition": "A determination of the total vitamin C in a nutritional product or meal, or a portion thereof.", "preferredTerm": "Dietary Vitamin C Measurement", "submissionValue": "DVITC", "synonyms": ["Dietary Vitamin C"]}, {"conceptId": "C184500", "definition": "A determination of the total vitamin D in a nutritional product or meal, or a portion thereof.", "preferredTerm": "Dietary Vitamin D Measurement", "submissionValue": "DVITD", "synonyms": ["Dietary Vitamin D"]}, {"conceptId": "C184501", "definition": "A determination of the total vitamin K in a nutritional product or meal, or a portion thereof.", "preferredTerm": "Dietary Vitamin K Measurement", "submissionValue": "DVITK", "synonyms": ["Dietary Vitamin K"]}, {"conceptId": "C117883", "definition": "A description of the diagnostic criteria that the subject fulfilled in order to establish a medical diagnosis.", "preferredTerm": "Which Diagnostic Criteria Met", "submissionValue": "DXCRITMT", "synonyms": ["Diagnostic Criteria Met"]}, {"conceptId": "C184503", "definition": "A determination of the yogurt in a nutritional product or meal, or a portion thereof.", "preferredTerm": "Dietary Yogurt Measurement", "submissionValue": "DYOGURT", "synonyms": ["Dietary Yogurt"]}, {"conceptId": "C184460", "definition": "A determination of the total Zinc in a nutritional product or meal, or a portion thereof.", "preferredTerm": "Dietary Zinc Measurement", "submissionValue": "DZN", "synonyms": ["Dietary Zinc"]}, {"conceptId": "C119230", "definition": "An indication as to whether the event meets the criteria for being a clinical endpoint.", "preferredTerm": "Endpoint Event Indicator", "submissionValue": "ENDPTIND", "synonyms": ["Endpoint Event Indicator"]}, {"conceptId": "C124328", "definition": "The number of times an event, which is classified as mild, occurred.", "preferredTerm": "Number of Mild Episodes", "submissionValue": "EPMLDNUM", "synonyms": ["Number of Mild Episodes"]}, {"conceptId": "C124329", "definition": "The number of times an event, which is classified as moderate, occurred.", "preferredTerm": "Number of Moderate Episodes", "submissionValue": "EPMODNUM", "synonyms": ["Number of Moderate Episodes"]}, {"conceptId": "C124281", "definition": "The total number of episodes that have occurred for the condition.", "preferredTerm": "Number of Episodes", "submissionValue": "EPSDNUM", "synonyms": ["Number of Episodes"]}, {"conceptId": "C124330", "definition": "The number of times an event, which is classified as severe, occurred.", "preferredTerm": "Number of Severe Episodes", "submissionValue": "EPSEVNUM", "synonyms": ["Number of Severe Episodes"]}, {"conceptId": "C174282", "definition": "An approximate determination of the weight of the entity.", "preferredTerm": "Estimated Weight", "submissionValue": "ESTWT", "synonyms": ["Estimated Entity Weight", "Estimated Weight"]}, {"conceptId": "C25515", "definition": "The number of times an event occurs within a given time period.", "preferredTerm": "Temporal Frequency", "submissionValue": "EVENTFRQ", "synonyms": ["Event Frequency"]}, {"conceptId": "C130057", "definition": "The total number of events that have occurred.", "preferredTerm": "Number of Events", "submissionValue": "EVENTNUM", "synonyms": ["Number of Events"]}, {"conceptId": "C189431", "definition": "An indication as to whether the event of interest is related to increased physical activity.", "preferredTerm": "Event Related to Increased Physical Activity Indicator", "submissionValue": "EVRIPIND", "synonyms": ["Event Related to Incr Phys Activity Ind", "Event Related to Increased Physical Activity Indicator"]}, {"conceptId": "C172475", "definition": "The length of time an individual spends exercising.", "preferredTerm": "Exercise Duration", "submissionValue": "EXCDUR", "synonyms": ["Exercise Duration"]}, {"conceptId": "C172473", "definition": "A determination or assessment of the degree or magnitude of an individual's exertion during physical activity.", "preferredTerm": "Exercise Intensity", "submissionValue": "EXCINTSY", "synonyms": ["Exercise Intensity"]}, {"conceptId": "C172474", "definition": "A determination or assessment of the extent to which an individual adheres to a fitness program.", "preferredTerm": "Exercise Compliance", "submissionValue": "EXCMPLNC", "synonyms": ["Exercise Compliance"]}, {"conceptId": "C181310", "definition": "An indication as to whether the subject has been on a treatment regimen which, based on defined criteria, is expected to be efficacious.", "preferredTerm": "Expected Efficacious Treatment Regimen Indicator", "submissionValue": "EXETRIND", "synonyms": ["Expected Efficacious Treatment Reg Ind", "Expected Efficacious Treatment Regimen Indicator"]}, {"conceptId": "C157443", "definition": "A description of the relative amount of tissue, blood vessel, or organ that has been removed.", "preferredTerm": "Extent of Resection", "submissionValue": "EXTRSCT", "synonyms": ["Extent of Resection"]}, {"conceptId": "C181314", "definition": "A classification based on the anatomical location(s) of the fistula.", "preferredTerm": "Fistula Anatomical Site", "submissionValue": "FISTATYP", "synonyms": ["Fistula Anatomical Type"]}, {"conceptId": "C181312", "definition": "The number of fistulas observed.", "preferredTerm": "Number of Fistulas", "submissionValue": "FISTNUM", "synonyms": ["Number of Fistulas"]}, {"conceptId": "C112283", "definition": "The size of the area of redness that forms around the site of an antigenic challenge to the skin.", "preferredTerm": "Antigenic Skin Flare Size", "submissionValue": "FLARESZ", "synonyms": ["Flare Size"]}, {"conceptId": "C112281", "definition": "The longest diameter of the area of redness that forms around the site of an antigenic challenge to the skin.", "preferredTerm": "Antigenic Skin Flare Longest Diameter", "submissionValue": "FLRLDIAM", "synonyms": ["Flare Longest Diameter"]}, {"conceptId": "C112282", "definition": "The mean diameter of the area of redness that forms around the site of an antigenic challenge to the skin.", "preferredTerm": "Antigenic Skin Flare Mean Diameter", "submissionValue": "FLRMDIAM", "synonyms": ["Flare Mean Diameter"]}, {"conceptId": "C176280", "definition": "A determination of the final amount of a substance taken as a dose by a subject.", "preferredTerm": "Final Dose Amount", "submissionValue": "FNDOSAMT", "synonyms": ["Final Dose Amount"]}, {"conceptId": "C176281", "definition": "A determination of how often a subject takes a substance at the final dose amount.", "preferredTerm": "Frequency of Final Dose Amount", "submissionValue": "FNDOSFRQ", "synonyms": ["Frequency of Final Dose Amount"]}, {"conceptId": "C187676", "definition": "The circumferential measurement of an entity or object of interest at its widest point.", "preferredTerm": "Greatest Circumference at Point of Interest", "submissionValue": "GCIRCPI", "synonyms": ["Greatest Circ at Point of Interest", "Greatest Circumference at Point of Interest", "Largest Circumference at Point of Interest"]}, {"conceptId": "C119231", "definition": "Categorization of the type of healthcare encounter.", "preferredTerm": "Healthcare Encounter Type", "submissionValue": "HETYPE", "synonyms": ["Healthcare Encounter Type"]}, {"conceptId": "C119232", "definition": "Categorization of the type(s) of new and/or worsening laboratory findings of heart failure present at the time of patient presentation.", "preferredTerm": "Lab Findings of New or Worsening Heart Failure", "submissionValue": "HFLBFNW", "synonyms": ["Heart Failure New/Worsening Lab Findings"]}, {"conceptId": "C119233", "definition": "Categorization of the type(s) of new and/or worsening physical exam findings of heart failure present at the time of patient presentation.", "preferredTerm": "Physical Examination Findings of New or Worsening Heart Failure", "submissionValue": "HFPEFNW", "synonyms": ["Heart Failure New/Worsening PE Findings"]}, {"conceptId": "C119234", "definition": "Categorization of the type(s) of new and/or intensified treatment administered for heart failure management.", "preferredTerm": "Heart Failure Therapy Intensification Type", "submissionValue": "HFTHERIN", "synonyms": ["Heart Failure Therapy, Intensification"]}, {"conceptId": "C124443", "definition": "The total number of hospitalization events that have occurred for the condition.", "preferredTerm": "Number of Hospitalizations", "submissionValue": "HOSPNUM", "synonyms": ["Number Of Hospitalizations"]}, {"conceptId": "C174279", "definition": "An indication as to whether the ileocecal junction was removed.", "preferredTerm": "Ileocecal Junction Removed Indicator", "submissionValue": "ICJRIND", "synonyms": ["Ileocecal Junction Removed Indicator"]}, {"conceptId": "C122196", "definition": "The longest diameter of an area of hardness in the skin. (NCI)", "preferredTerm": "Induration Longest Diameter", "submissionValue": "IDRLDIAM", "synonyms": ["Induration Longest Diameter"]}, {"conceptId": "C41255", "definition": "An act or process of elucidation; explication, or explanation of the meaning of the event or thing via the assignment of objects from the domain to the constants of a formal language, truth-values to the proposition symbols, truth-functions to the connectives, other functions to the function symbols, and extensions to the predicates, if any. The assignments are result of human logic application and are not native to the symbols of the formal language.", "preferredTerm": "Interpretation", "submissionValue": "INTP", "synonyms": ["Interpretation"]}, {"conceptId": "C119235", "definition": "An indicator as to whether the subject has symptoms of ischemic discomfort.", "preferredTerm": "Ischemic Discomfort Indicator", "submissionValue": "ISCDIND", "synonyms": ["Ischemic Discomfort Indicator"]}, {"conceptId": "C119236", "definition": "Categorization of the type of objective evidence of new or worsening ischemia.", "preferredTerm": "Ischemic Evidence Type", "submissionValue": "ISCETYP", "synonyms": ["Ischemic Evidence Type"]}, {"conceptId": "C172478", "definition": "The number of laps completed around a course or circuit.", "preferredTerm": "Number of Laps Completed", "submissionValue": "LAPCOMPN", "synonyms": ["Number of Laps Completed"]}, {"conceptId": "C96684", "definition": "The longest possible length of a straight line passing through the center of a circular or spheroid object that connects two points on the circumference.", "preferredTerm": "Longest Diameter", "submissionValue": "LDIAM", "synonyms": ["Longest Diameter"]}, {"conceptId": "C174278", "definition": "A measurement of the total length of the removed tissue, blood vessel, or organ.", "preferredTerm": "Length of Resection", "submissionValue": "LENRSCT", "synonyms": ["Length of Resection"]}, {"conceptId": "C174277", "definition": "The number of lesions observed.", "preferredTerm": "Number of Lesions", "submissionValue": "LESNUM", "synonyms": ["Number of Lesions"]}, {"conceptId": "C117884", "definition": "The anatomical location of the beginning or early stages of a disease.", "preferredTerm": "Location of Disease Onset", "submissionValue": "LOCONSET", "synonyms": ["Localization of Onset"]}, {"conceptId": "C35461", "definition": "A description of the series of events, including signs and symptoms, that define the course of a chronic disease over time.", "preferredTerm": "Clinical Course of Disease", "submissionValue": "LONGCRSE", "synonyms": ["Longitudinal Course"]}, {"conceptId": "C119237", "definition": "An indication of whether a Type 1 and Type 2 myocardial infarction is excluded as a diagnosis.", "preferredTerm": "Exclusion of Type 1 and Type 2 Myocardial Infarction Diagnosis Indicator", "submissionValue": "MI12EXC", "synonyms": ["Exclusion of Type 1 and Type 2 MI"]}, {"conceptId": "C176278", "definition": "A determination of the maximum amount of a substance taken as a dose by a subject.", "preferredTerm": "Maximum Dose Amount", "submissionValue": "MXDOSAMT", "synonyms": ["Maximum Dose Amount"]}, {"conceptId": "C176279", "definition": "A determination of how often a subject takes a substance at the maximum dose amount.", "preferredTerm": "Frequency of Maximum Dose Amount", "submissionValue": "MXDOSFRQ", "synonyms": ["Frequency of Maximum Dose Amount"]}, {"conceptId": "C101687", "definition": "A number representing the outer diameter of a needle. (NCI)", "preferredTerm": "Needle Gauge", "submissionValue": "NDLGAUGE", "synonyms": ["Needle Gauge"]}, {"conceptId": "C187675", "definition": "The anatomical joint in closest proximity to the entity or object of interest.", "preferredTerm": "Nearest Joint", "submissionValue": "NEARJNT", "synonyms": ["Nearest Joint"]}, {"conceptId": "C123443", "definition": "A description of the clinical change to the subject after a non-invasive imaging procedure.", "preferredTerm": "Clinical Change by Non-Invasive Imaging Procedure", "submissionValue": "NINVIMGC", "synonyms": ["Non-Invasive Imaging Change"]}, {"conceptId": "C119238", "definition": "A description of the new or worsening symptoms related to a clinical event.", "preferredTerm": "New or Worsening Symptom", "submissionValue": "NWSYMP", "synonyms": ["New or Worsening Symptoms"]}, {"conceptId": "C174275", "definition": "The number of objects observed.", "preferredTerm": "Number of Objects", "submissionValue": "OBJNUM", "synonyms": ["Number of Objects"]}, {"conceptId": "C174276", "definition": "The type of object observed.", "preferredTerm": "Type of Object", "submissionValue": "OBJTYPE", "synonyms": ["Type of Object"]}, {"conceptId": "C127786", "definition": "An indication as to whether something has happened, such as an event or incident.", "preferredTerm": "Occurrence Indicator", "submissionValue": "OCCUR", "synonyms": ["Occurrence Indicator"]}, {"conceptId": "C154860", "definition": "An indication as to whether the primary site of cancer is known.", "preferredTerm": "Cancer Primary Site Known Indicator", "submissionValue": "ORCANIND", "synonyms": ["Origin of Cancer Known Ind", "Origin of Cancer Known Indicator"]}, {"conceptId": "C117885", "definition": "A categorization of the number of lesions present in the Central Nervous System at the time of diagnosis of a specific disease.", "preferredTerm": "Focality of Disease Onset", "submissionValue": "OUNIMULT", "synonyms": ["Onset Unifocal or Multifocal"]}, {"conceptId": "C119239", "definition": "Categorization of the type of acute PCI angiographic complication resulting in acute myocardial ischemia.", "preferredTerm": "Acute Myocardial Infarction From PCI Complication Type", "submissionValue": "PCIAAC", "synonyms": ["PCI Acute Angiographic Complication"]}, {"conceptId": "C184724", "definition": "An indication as to whether the event or intervention prevents or has prevented the performance of daily activities.", "preferredTerm": "Prevents Daily Activities Indicator", "submissionValue": "PDAIND", "synonyms": ["Prevents Daily Activities Indicator"]}, {"conceptId": "C181311", "definition": "The longest diameter of the lesion that has been determined to be the primary lesion.", "preferredTerm": "Longest Diameter of Primary Lesion", "submissionValue": "PLLDIAM", "synonyms": ["Largest Diameter of Primary Lesion", "Longest Diameter of Primary Lesion"]}, {"conceptId": "C181315", "definition": "The anatomical location of the lesion that has been determined to be the primary lesion.", "preferredTerm": "Anatomical Location of Primary Lesion", "submissionValue": "PLLOC", "synonyms": ["Anatomical Location of Primary Lesion"]}, {"conceptId": "C163413", "definition": "The factor that causes or triggers the onset of an occurrence.", "preferredTerm": "Precipitating Factor", "submissionValue": "PPTFCT", "synonyms": ["Precipitating Factor"]}, {"conceptId": "C170562", "definition": "The quantity of a product that has been made ready for use.", "preferredTerm": "Prepared Amount", "submissionValue": "PREPAMT", "synonyms": ["Prepared Amount"]}, {"conceptId": "C174228", "definition": "The number of procedures performed on or in an individual.", "preferredTerm": "Number of Procedures Performed", "submissionValue": "PROCPRFN", "synonyms": ["Number of Procedures Performed"]}, {"conceptId": "C119240", "definition": "An indication as to whether the procedure is considered successful.", "preferredTerm": "Procedure Success Indicator", "submissionValue": "PRSUCIND", "synonyms": ["Procedure Success Indicator"]}, {"conceptId": "C198213", "definition": "An indicator as to whether the subject has symptoms of itchiness.", "preferredTerm": "Pruritus Indicator", "submissionValue": "PRURIND", "synonyms": ["Pruritus Indicator"]}, {"conceptId": "C101230", "definition": "The degree of urgency in which a medical procedure must be performed.", "preferredTerm": "Triage Status", "submissionValue": "PRUSTAT", "synonyms": ["Procedure Urgency Status Type"]}, {"conceptId": "C179451", "definition": "The anatomical location of the primary tumor site of disease.", "preferredTerm": "Primary Tumor Site", "submissionValue": "PRYSTUOG", "synonyms": ["Primary Site of Tumor Origin"]}, {"conceptId": "C170617", "definition": "The effect or consequence of an event or condition on an individual's sense of well-being and ability to enjoy life.", "preferredTerm": "Quality of Life Impact", "submissionValue": "QOLIMP", "synonyms": ["QOL Impact", "Quality of Life Impact"]}, {"conceptId": "C179819", "definition": "The position on a scale to assess the degree of the response to a stimulus or intervention.", "preferredTerm": "Reaction Grade", "submissionValue": "REACTGR", "synonyms": ["Reaction Grade"]}, {"conceptId": "C170563", "definition": "The quantity of a product that remains after dosing, consumption, or use.", "preferredTerm": "Remaining Amount", "submissionValue": "REMAMT", "synonyms": ["Remaining Amount"]}, {"conceptId": "C154861", "definition": "An indication as to whether the tumor has been resected.", "preferredTerm": "Tumor Resected Indicator", "submissionValue": "RESCTIND", "synonyms": ["Resected Tumor Ind", "Resected Tumor Indicator"]}, {"conceptId": "C78722", "definition": "The quantity of a product that has been returned. (NCI)", "preferredTerm": "Returned Amount", "submissionValue": "RETAMT", "synonyms": ["Returned Amount"]}, {"conceptId": "C176283", "definition": "An indication as to whether an individual has had a relapse after discontinuation of a substance due to dependence.", "preferredTerm": "Relapse after Discontinuation Because of Dependence Indicator", "submissionValue": "RLDEPIND", "synonyms": ["Relapse after Discon Dependent Indicator", "Relapse after Discontinue Dependent Indicator"]}, {"conceptId": "C163414", "definition": "The relationship of an event to a device, which may or may not be a device under study.", "preferredTerm": "Relationship to Device", "submissionValue": "RLDEV", "synonyms": ["Relationship to Device"]}, {"conceptId": "C176285", "definition": "An indication as to whether an individual has become dependent on a substance.", "preferredTerm": "Substance Dependence Indicator", "submissionValue": "SBDEPIND", "synonyms": ["Substance Dependence Indicator"]}, {"conceptId": "C25676", "definition": "The degree of something undesirable.", "preferredTerm": "Severity", "submissionValue": "SEV", "synonyms": ["Severity/Intensity"]}, {"conceptId": "C41146", "definition": "A scalar measure of the rate of movement of the object expressed as the distance traveled divided by the elapsed time.", "preferredTerm": "Speed", "submissionValue": "SPEED", "synonyms": ["Speed"]}, {"conceptId": "C174281", "definition": "The signs and/or symptoms that result in the discontinuation of treatment or intervention.", "preferredTerm": "Sign or Symptom Leading to Discontinuation", "submissionValue": "SSDISC", "synonyms": ["Sign/Symptom Leading to Discontinuation"]}, {"conceptId": "C123424", "definition": "Categorization of the timing of coronary stent thrombosis occurrence per the classification schema described by the Academic Research Consortium (ARC).", "preferredTerm": "Academic Research Council Coronary Stent Thrombosis Timing", "submissionValue": "STCTIMNG", "synonyms": ["Stent Thrombosis, Coronary, ARC Timing"]}, {"conceptId": "C172479", "definition": "The number of footsteps taken by an individual.", "preferredTerm": "Number of Steps Taken", "submissionValue": "STEPSTN", "synonyms": ["Number of Steps Taken"]}, {"conceptId": "C174274", "definition": "The number of anatomical strictures observed.", "preferredTerm": "Number of Strictures", "submissionValue": "STRCTNUM", "synonyms": ["Number of Strictures"]}, {"conceptId": "C119579", "definition": "Categorization of the type of stroke.", "preferredTerm": "Stroke Type", "submissionValue": "STROKTYP", "synonyms": ["Stroke Type"]}, {"conceptId": "C119241", "definition": "An indication as to whether the subject had symptoms related to the clinical event.", "preferredTerm": "Symptom Indicator", "submissionValue": "SYMPINDC", "synonyms": ["Symptom Indicator"]}, {"conceptId": "C119242", "definition": "The date time of the onset of symptoms of the clinical event.", "preferredTerm": "Symptom Onset Date", "submissionValue": "SYMSTDTC", "synonyms": ["Symptom Onset Date"]}, {"conceptId": "C127787", "definition": "A measurement of the total number of entities.", "preferredTerm": "Total Number", "submissionValue": "TOTNUM", "synonyms": ["Total Number"]}, {"conceptId": "C82528", "definition": "A standardized categorical classification of the severity of an event or finding.", "preferredTerm": "Toxicity Grade", "submissionValue": "TOXGR", "synonyms": ["Toxicity Grade"]}, {"conceptId": "C176282", "definition": "An indication as to whether an individual is incapable of reducing or tapering the amount of a substance taken due to dependence.", "preferredTerm": "Unable to Taper Dependent Indicator", "submissionValue": "TPDEPIND", "synonyms": ["Unable to Taper Dependent Indicator"]}, {"conceptId": "C124444", "definition": "The surroundings or environment within which the subject receives therapeutic treatment for the condition.", "preferredTerm": "Treatment Environmental Setting", "submissionValue": "TRTSETT", "synonyms": ["Treatment Environmental Setting", "Treatment Setting"]}, {"conceptId": "C172477", "definition": "The total amount of time during which an event, operation or activity has been interrupted or stopped.", "preferredTerm": "Total Time Paused", "submissionValue": "TTIMPAUS", "synonyms": ["Total Time Paused"]}, {"conceptId": "C172480", "definition": "The total amount of time during which an individual was actively engaged in physical activity.", "preferredTerm": "Total Time Physically Active", "submissionValue": "TTIMPHAC", "synonyms": ["Total Time Physically Active"]}, {"conceptId": "C119243", "definition": "An indication as to whether vessel occlusion, in the native or bypass graft, occurred within 48 hours after the coronary artery bypass graft procedure.", "preferredTerm": "Vessel Occlusion 48 Hours after CABG Indicator", "submissionValue": "VOC48IND", "synonyms": ["Vessel Occlusion After CABG 48 Ind"]}, {"conceptId": "C74720", "definition": "A measurement of the amount of three dimensional space occupied by an object or the capacity of a space or container.", "preferredTerm": "Volume Measurement", "submissionValue": "VOL", "synonyms": ["Volume"]}, {"conceptId": "C112429", "definition": "A semi-quantitative size assessment of the flat, circular, slightly raised area that forms around the site of an antigenic challenge to the skin.", "preferredTerm": "Wheal Size", "submissionValue": "WHEALSZ", "synonyms": ["Wheal Size"]}, {"conceptId": "C130186", "definition": "The process of evaluating the wheal diameter in response to an allergen, based on a threshold size.", "preferredTerm": "Wheal Diameter Interpretation", "submissionValue": "WHLINT", "synonyms": ["Wheal Diameter Interpretation"]}, {"conceptId": "C112427", "definition": "The longest diameter of the flat, circular, slightly raised area that forms around the site of an antigenic challenge to the skin.", "preferredTerm": "Wheal Longest Diameter", "submissionValue": "WHLLDIAM", "synonyms": ["Wheal Longest Diameter"]}, {"conceptId": "C112428", "definition": "The mean diameter of the flat, circular, slightly raised area that forms around the site of an antigenic challenge to the skin.", "preferredTerm": "Wheal Mean Diameter", "submissionValue": "WHLMDIAM", "synonyms": ["Wheal Mean Diameter"]}]}