{"_links": {"parentPackage": {"href": "/mdr/ct/packages/sdtmct-2023-06-30", "title": "SDTM Controlled Terminology Package 54 Effective 2023-06-30", "type": "Terminology"}, "priorVersion": {"href": "/mdr/ct/packages/sdtmct-2023-03-31/codelists/C102584", "title": "CDISC SDTM Reason For Treatment Terminology", "type": "Code List"}, "rootItem": {"href": "/mdr/root/ct/sdtmct/codelists/C102584", "title": "Version-agnostic anchor resource for codelist C102584", "type": "Root Value Domain"}, "self": {"href": "/mdr/ct/packages/sdtmct-2023-06-30/codelists/C102584", "title": "CDISC SDTM Reason For Treatment Terminology", "type": "Code List"}}, "conceptId": "C102584", "definition": "Terminology relevant to the reason the treatment was administered.", "extensible": "true", "name": "Reason For Treatment", "preferredTerm": "CDISC SDTM Reason For Treatment Terminology", "submissionValue": "REASTRT", "synonyms": ["Reason For Treatment"], "terms": [{"conceptId": "C102635", "definition": "A lack of response to the first cycle of therapy.", "preferredTerm": "Failure After First Treatment", "submissionValue": "FAILURE AFTER FIRST TREATMENT"}, {"conceptId": "C102636", "definition": "A lack of response to more than one cycle of therapy.", "preferredTerm": "Failure After Multiple Treatments", "submissionValue": "FAILURE AFTER MULTIPLE TREATMENTS"}, {"conceptId": "C102698", "definition": "A previous episode of failure by a patient to follow medical advice, take medication as directed, or adhere to a prescribed course of treatment.", "preferredTerm": "Previous Patient Noncompliance", "submissionValue": "PREVIOUS PATIENT NONCOMPLIANCE"}, {"conceptId": "C38155", "definition": "The return of a disease after a period of remission.", "preferredTerm": "Recurrent Disease", "submissionValue": "RECURRENT DISEASE", "synonyms": ["Recurrent Disease"]}]}