{"_links": {"parentPackage": {"href": "/mdr/ct/packages/sdtmct-2023-06-30", "title": "SDTM Controlled Terminology Package 54 Effective 2023-06-30", "type": "Terminology"}, "priorVersion": {"href": "/mdr/ct/packages/sdtmct-2023-03-31/codelists/C102581", "title": "CDISC SDTM Microbial Identification Certainty Terminology", "type": "Code List"}, "rootItem": {"href": "/mdr/root/ct/sdtmct/codelists/C102581", "title": "Version-agnostic anchor resource for codelist C102581", "type": "Root Value Domain"}, "self": {"href": "/mdr/ct/packages/sdtmct-2023-06-30/codelists/C102581", "title": "CDISC SDTM Microbial Identification Certainty Terminology", "type": "Code List"}}, "conceptId": "C102581", "definition": "Terminology relevant to the degree of certainty of the correctness of a microbial identification test result.", "extensible": "false", "name": "Microbial Identification Certainty", "preferredTerm": "CDISC SDTM Microbial Identification Certainty Terminology", "submissionValue": "MCIDCERT", "synonyms": ["Microbial Identification Certainty"], "terms": [{"conceptId": "C62607", "definition": "Supplying or being a final or conclusive settlement or result.", "preferredTerm": "Definitive", "submissionValue": "DEFINITIVE"}, {"conceptId": "C102697", "definition": "Supplying or being a probable or reasonable settlement or result.", "preferredTerm": "Presumptive", "submissionValue": "PRESUMPTIVE"}]}