{"_links": {"parentPackage": {"href": "/mdr/ct/packages/sdtmct-2023-06-30", "title": "SDTM Controlled Terminology Package 54 Effective 2023-06-30", "type": "Terminology"}, "priorVersion": {"href": "/mdr/ct/packages/sdtmct-2023-03-31/codelists/C103485", "title": "CDISC Questionnaire SIQR Test Code Terminology", "type": "Code List"}, "rootItem": {"href": "/mdr/root/ct/sdtmct/codelists/C103485", "title": "Version-agnostic anchor resource for codelist C103485", "type": "Root Value Domain"}, "self": {"href": "/mdr/ct/packages/sdtmct-2023-06-30/codelists/C103485", "title": "CDISC Questionnaire SIQR Test Code Terminology", "type": "Code List"}}, "conceptId": "C103485", "definition": "Symptom Impact Questionnaire test code.", "extensible": "false", "name": "Symptom Impact Questionnaire Questionnaire Test Code", "preferredTerm": "CDISC Questionnaire SIQR Test Code Terminology", "submissionValue": "SIQR01TC", "synonyms": ["Symptom Impact Questionnaire Questionnaire Test Code"], "terms": [{"conceptId": "C103730", "definition": "Symptom Impact Questionnaire - Brush or comb your hair.", "preferredTerm": "SIQR - Brush or Comb Your Hair", "submissionValue": "SIQR0101", "synonyms": ["SIQR01-Brush or Comb Your Hair"]}, {"conceptId": "C103731", "definition": "Symptom Impact Questionnaire - Walk continuously for 20 minutes.", "preferredTerm": "SIQR - Walk Continuously for 20 Minutes", "submissionValue": "SIQR0102", "synonyms": ["SIQR01-Walk Continuously for 20 Minutes"]}, {"conceptId": "C103732", "definition": "Symptom Impact Questionnaire - Prepare a homemade meal.", "preferredTerm": "SIQR - Prepare a Homemade Meal", "submissionValue": "SIQR0103", "synonyms": ["SIQR01-Prepare a Homemade Meal"]}, {"conceptId": "C103733", "definition": "Symptom Impact Questionnaire - Vacuum, scrub or sweep floors.", "preferredTerm": "SIQR - Vacuum Scrub or Sweep Floors", "submissionValue": "SIQR0104", "synonyms": ["SIQR01-Vacuum Scrub or Sweep Floors"]}, {"conceptId": "C103734", "definition": "Symptom Impact Questionnaire - Lift and carry a bag full of groceries.", "preferredTerm": "SIQR - Lift and Carry a Bag Full of Groceries", "submissionValue": "SIQR0105", "synonyms": ["SIQR01-Lift/Carry Bag Full of Groceries"]}, {"conceptId": "C103735", "definition": "Symptom Impact Questionnaire - Climb one flight of stairs.", "preferredTerm": "SIQR - Climb One Flight of Stairs", "submissionValue": "SIQR0106", "synonyms": ["SIQR01-Climb One Flight of Stairs"]}, {"conceptId": "C103736", "definition": "Symptom Impact Questionnaire - Change bed sheets.", "preferredTerm": "SIQR - Change Bed Sheets", "submissionValue": "SIQR0107", "synonyms": ["SIQR01-Change Bed Sheets"]}, {"conceptId": "C103737", "definition": "Symptom Impact Questionnaire - Sit in a chair for 45 minutes.", "preferredTerm": "SIQR - Sit in a Chair for 45 Minutes", "submissionValue": "SIQR0108", "synonyms": ["SIQR01-Sit in a Chair for 45 Minutes"]}, {"conceptId": "C103738", "definition": "Symptom Impact Questionnaire - Go shopping for groceries.", "preferredTerm": "SIQR - Go Shopping for Groceries", "submissionValue": "SIQR0109", "synonyms": ["SIQR01-Go Shopping for Groceries"]}, {"conceptId": "C103739", "definition": "Symptom Impact Questionnaire - My medical problems prevented me from accomplishing goals for week.", "preferredTerm": "SIQR - My Medical Problem Prevented Me from Accomplishing Goals for the Week", "submissionValue": "SIQR0110", "synonyms": ["SIQR01-Prevent from Accomplishing Goals"]}, {"conceptId": "C103740", "definition": "Symptom Impact Questionnaire - I was completely overwhelmed by my medical problems.", "preferredTerm": "SIQR - I was Completely Overwhelmed by My Medical Problem", "submissionValue": "SIQR0111", "synonyms": ["SIQR01-Overwhelmed by Medical Problems"]}, {"conceptId": "C103741", "definition": "Symptom Impact Questionnaire - Please rate your level of pain.", "preferredTerm": "SIQR - Pain", "submissionValue": "SIQR0112", "synonyms": ["SIQR01-Pain"]}, {"conceptId": "C103742", "definition": "Symptom Impact Questionnaire - Please rate your level of energy.", "preferredTerm": "SIQR - Energy", "submissionValue": "SIQR0113", "synonyms": ["SIQR01-Energy"]}, {"conceptId": "C103743", "definition": "Symptom Impact Questionnaire - Please rate your level of stiffness.", "preferredTerm": "SIQR - Stiffness", "submissionValue": "SIQR0114", "synonyms": ["SIQR01-Stiffness"]}, {"conceptId": "C103744", "definition": "Symptom Impact Questionnaire - Please rate the quality of your sleep.", "preferredTerm": "SIQR - Your Sleep", "submissionValue": "SIQR0115", "synonyms": ["SIQR01-Your Sleep"]}, {"conceptId": "C103745", "definition": "Symptom Impact Questionnaire - Please rate your level of depression.", "preferredTerm": "SIQR - Depression", "submissionValue": "SIQR0116", "synonyms": ["SIQR01-Depression"]}, {"conceptId": "C103746", "definition": "Symptom Impact Questionnaire - Please rate your level of memory problems.", "preferredTerm": "SIQR - Memory Problems", "submissionValue": "SIQR0117", "synonyms": ["SIQR01-Memory Problems"]}, {"conceptId": "C103747", "definition": "Symptom Impact Questionnaire - Please rate your level of anxiety.", "preferredTerm": "SIQR - Anxiety", "submissionValue": "SIQR0118", "synonyms": ["SIQR01-Anxiety"]}, {"conceptId": "C103748", "definition": "Symptom Impact Questionnaire - Please rate your level of tenderness to touch.", "preferredTerm": "SIQR - Tenderness to Touch", "submissionValue": "SIQR0119", "synonyms": ["SIQR01-Tenderness to Touch"]}, {"conceptId": "C103749", "definition": "Symptom Impact Questionnaire - Please rate your level of balance problems.", "preferredTerm": "SIQR - Balance Problems", "submissionValue": "SIQR0120", "synonyms": ["SIQR01-Balance Problems"]}, {"conceptId": "C103750", "definition": "Symptom Impact Questionnaire - Please rate your level of sensitivity to loud noises, bright lights, odors and cold.", "preferredTerm": "SIQR - Sensitivity to Loud Noises, Bright Lights, Odors and Cold", "submissionValue": "SIQR0121", "synonyms": ["SIQR01-Sensitivity Noise/Light/Odor/Cold"]}]}