{"_links": {"parentPackage": {"href": "/mdr/ct/packages/sdtmct-2023-06-30", "title": "SDTM Controlled Terminology Package 54 Effective 2023-06-30", "type": "Terminology"}, "priorVersion": {"href": "/mdr/ct/packages/sdtmct-2023-03-31/codelists/C103475", "title": "CDISC Questionnaire OAB-q Test Code Terminology", "type": "Code List"}, "rootItem": {"href": "/mdr/root/ct/sdtmct/codelists/C103475", "title": "Version-agnostic anchor resource for codelist C103475", "type": "Root Value Domain"}, "self": {"href": "/mdr/ct/packages/sdtmct-2023-06-30/codelists/C103475", "title": "CDISC Questionnaire OAB-q Test Code Terminology", "type": "Code List"}}, "conceptId": "C103475", "definition": "The Overactive Bladder Questionnaire test code.", "extensible": "false", "name": "The Overactive Bladder Questionnaire Questionnaire Test Code", "preferredTerm": "CDISC Questionnaire OAB-q Test Code Terminology", "submissionValue": "OABQ01TC", "synonyms": ["The Overactive Bladder Questionnaire Questionnaire Test Code"], "terms": [{"conceptId": "C103653", "definition": "The Overactive Bladder Questionnaire - Frequent urination during the daytime hours?", "preferredTerm": "OAB-q - Frequent Urination During the Daytime", "submissionValue": "OABQ0101", "synonyms": ["OABQ01-Frequent Urination During Daytime"]}, {"conceptId": "C103654", "definition": "The Overactive Bladder Questionnaire - An uncomfortable urge to urinate?", "preferredTerm": "OAB-q - Uncomfortable Urge to Urinate", "submissionValue": "OABQ0102", "synonyms": ["OABQ01-Uncomfortable Urge to Urinate"]}, {"conceptId": "C103655", "definition": "The Overactive Bladder Questionnaire - A sudden urge to urinate with little or no warning?", "preferredTerm": "OAB-q - Sudden Urge to Urinate with Little or No Warning", "submissionValue": "OABQ0103", "synonyms": ["OABQ01-Sudden Urge to Urinate No Warning"]}, {"conceptId": "C103656", "definition": "The Overactive Bladder Questionnaire - Accidental loss of small amounts of urine?", "preferredTerm": "OAB-q - Accidental Loss of Urine", "submissionValue": "OABQ0104", "synonyms": ["OABQ01-Accidental Loss of Urine"]}, {"conceptId": "C103657", "definition": "The Overactive Bladder Questionnaire - Nighttime urination?", "preferredTerm": "OAB-q - Nighttime Urination", "submissionValue": "OABQ0105", "synonyms": ["OABQ01-Nighttime Urination"]}, {"conceptId": "C103658", "definition": "The Overactive Bladder Questionnaire - Waking up at night because you had to urinate?", "preferredTerm": "OAB-q - Waking Up at Night Because You had to Urinate", "submissionValue": "OABQ0106", "synonyms": ["OABQ01-Waking Up at Night had to Urinate"]}, {"conceptId": "C103659", "definition": "The Overactive Bladder Questionnaire - An uncontrollable urge to urinate?", "preferredTerm": "OAB-q - Uncontrollable Urge to Urinate", "submissionValue": "OABQ0107", "synonyms": ["OABQ01-Uncontrollable Urge to Urinate"]}, {"conceptId": "C103660", "definition": "The Overactive Bladder Questionnaire - Urine loss associated with a strong desire to urinate?", "preferredTerm": "OAB-q - Urine Loss Associated with a Strong Desire to Urinate", "submissionValue": "OABQ0108", "synonyms": ["OABQ01-Urine Loss Strong Desire Urinate"]}, {"conceptId": "C103661", "definition": "The Overactive Bladder Questionnaire - Made you carefully plan your commute?", "preferredTerm": "OAB-q - Carefully Plan Your Commute", "submissionValue": "OABQ0109", "synonyms": ["OABQ01-Carefully Plan Your Commute"]}, {"conceptId": "C103662", "definition": "The Overactive Bladder Questionnaire - Caused you to feel drowsy or sleepy during the day?", "preferredTerm": "OAB-q - Feel Drowsy or Sleepy During the Day", "submissionValue": "OABQ0110", "synonyms": ["OABQ01-Feel Drowsy or Sleepy During Day"]}, {"conceptId": "C103663", "definition": "The Overactive Bladder Questionnaire - Caused you to plan \"escape routes\" to restrooms in public places?", "preferredTerm": "OAB-q - Plan 'Escape Routes' to Restrooms", "submissionValue": "OABQ0111", "synonyms": ["OABQ01-Plan 'Escape Routes' to Restrooms"]}, {"conceptId": "C103664", "definition": "The Overactive Bladder Questionnaire - Caused you distress?", "preferredTerm": "OAB-q - Caused You Distress", "submissionValue": "OABQ0112", "synonyms": ["OABQ01-Caused You Distress"]}, {"conceptId": "C103665", "definition": "The Overactive Bladder Questionnaire - Frustrated you?", "preferredTerm": "OAB-q - Frustrated You", "submissionValue": "OABQ0113", "synonyms": ["OABQ01-Frustrated You"]}, {"conceptId": "C103666", "definition": "The Overactive Bladder Questionnaire - Made you feel like there is something wrong with you?", "preferredTerm": "OAB-q - Feel Like There is Something Wrong with You", "submissionValue": "OABQ0114", "synonyms": ["OABQ01-Feel Something Wrong with You"]}, {"conceptId": "C103667", "definition": "The Overactive Bladder Questionnaire - Interfered with your ability to get a good night's rest?", "preferredTerm": "OAB-q - Interfered with a Good Night's Rest", "submissionValue": "OABQ0115", "synonyms": ["OABQ01-Interfered with Good Night's Rest"]}, {"conceptId": "C103668", "definition": "The Overactive Bladder Questionnaire - Caused you to decrease your physical activities (exercising, sports, etc.)?", "preferredTerm": "OAB-q - Decrease Your Physical Activities", "submissionValue": "OABQ0116", "synonyms": ["OABQ01-Decrease Your Physical Activities"]}, {"conceptId": "C103669", "definition": "The Overactive Bladder Questionnaire - Prevented you from feeling rested upon waking in the morning?", "preferredTerm": "OAB-q - Prevented You From Feeling Rested Upon Waking", "submissionValue": "OABQ0117", "synonyms": ["OABQ01-Prevented From Feeling Rested"]}, {"conceptId": "C103670", "definition": "The Overactive Bladder Questionnaire - Frustrated your family and friends?", "preferredTerm": "OAB-q - Frustrated Your Family and Friends", "submissionValue": "OABQ0118", "synonyms": ["OABQ01-Frustrated Family and Friends"]}, {"conceptId": "C103671", "definition": "The Overactive Bladder Questionnaire - Caused you anxiety or worry?", "preferredTerm": "OAB-q - Caused You Anxiety or Worry", "submissionValue": "OABQ0119", "synonyms": ["OABQ01-Caused You Anxiety or Worry"]}, {"conceptId": "C103672", "definition": "The Overactive Bladder Questionnaire - Caused you to stay home more often than you would prefer?", "preferredTerm": "OAB-q - Stay Home More Often Than You Would Prefer", "submissionValue": "OABQ0120", "synonyms": ["OABQ01-Stay Home More Often Than Prefer"]}, {"conceptId": "C103673", "definition": "The Overactive Bladder Questionnaire - Caused you to adjust your travel plans so that you are always near a restroom?", "preferredTerm": "OAB-q - Adjust Your Travel Plans so That You are Always Near a Restroom", "submissionValue": "OABQ0121", "synonyms": ["OABQ01-Adjust Travel Plans Near Restroom"]}, {"conceptId": "C103674", "definition": "The Overactive Bladder Questionnaire - Made you avoid activities away from restrooms (i.e., walks, running, hiking)?", "preferredTerm": "OAB-q - Avoid Activities Away From Restrooms", "submissionValue": "OABQ0122", "synonyms": ["OABQ01-Avoid Act Away From Restroom"]}, {"conceptId": "C103675", "definition": "The Overactive Bladder Questionnaire - Made you frustrated or annoyed about the amount of time you spend in the restroom?", "preferredTerm": "OAB-q - Frustrated or Annoyed About the Amount of Time You Spend in the Restroom", "submissionValue": "OABQ0123", "synonyms": ["OABQ01-Amount of Time Spend in Restroom"]}, {"conceptId": "C103676", "definition": "The Overactive Bladder Questionnaire - Awakened you during sleep?", "preferredTerm": "OAB-q - Awakened You During Sleep", "submissionValue": "OABQ0124", "synonyms": ["OABQ01-Awakened You During Sleep"]}, {"conceptId": "C103677", "definition": "The Overactive Bladder Questionnaire - Made you worry about odor or hygiene?", "preferredTerm": "OAB-q - Made You Worry About Odor or Hygiene", "submissionValue": "OABQ0125", "synonyms": ["OABQ01-Worry About Odor or Hygiene"]}, {"conceptId": "C103678", "definition": "The Overactive Bladder Questionnaire - Made you uncomfortable while traveling with others because of needing to stop for a restroom?", "preferredTerm": "OAB-q - Uncomfortable While Traveling With Others", "submissionValue": "OABQ0126", "synonyms": ["OABQ01-Uncomfortable Travel with Others"]}, {"conceptId": "C103679", "definition": "The Overactive Bladder Questionnaire - Affected your relationships with family and friends?", "preferredTerm": "OAB-q - Affected Your Relationships with Family and Friends", "submissionValue": "OABQ0127", "synonyms": ["OABQ01-Affected Relationships"]}, {"conceptId": "C103680", "definition": "The Overactive Bladder Questionnaire - Caused you to decrease participating in social gatherings, such as parties or visits with family or friends?", "preferredTerm": "OAB-q - Decrease Participating in Social Gatherings", "submissionValue": "OABQ0128", "synonyms": ["OABQ01-Decrease Participating Gatherings"]}, {"conceptId": "C103681", "definition": "The Overactive Bladder Questionnaire - Caused you embarrassment?", "preferredTerm": "OAB-q - Caused You Embarrassment", "submissionValue": "OABQ0129", "synonyms": ["OABQ01-Caused You Embarrassment"]}, {"conceptId": "C103682", "definition": "The Overactive Bladder Questionnaire - Interfered with getting the amount of sleep you needed?", "preferredTerm": "OAB-q - Interfered with Getting Sleep", "submissionValue": "OABQ0130", "synonyms": ["OABQ01-Interfered with Getting Sleep"]}, {"conceptId": "C103683", "definition": "The Overactive Bladder Questionnaire - Caused you to have problems with your partner or spouse?", "preferredTerm": "OAB-q - Caused Problems with Your Partner or Spouse", "submissionValue": "OABQ0131", "synonyms": ["OABQ01-Caused Problems Partner/Spouse"]}, {"conceptId": "C103684", "definition": "The Overactive Bladder Questionnaire - Caused you to plan activities more carefully?", "preferredTerm": "OAB-q - Plan Activities More Carefully", "submissionValue": "OABQ0132", "synonyms": ["OABQ01-Plan Activities More Carefully"]}, {"conceptId": "C103685", "definition": "The Overactive Bladder Questionnaire - Caused you to locate the closest restroom as soon as you arrive at a place you have never been?", "preferredTerm": "OAB-q - Locate Closest Restroom as Soon as You Arrive", "submissionValue": "OABQ0133", "synonyms": ["OABQ01-Locate Closest Restroom"]}]}