{"_links": {"parentPackage": {"href": "/mdr/ct/packages/sdtmct-2023-06-30", "title": "SDTM Controlled Terminology Package 54 Effective 2023-06-30", "type": "Terminology"}, "priorVersion": {"href": "/mdr/ct/packages/sdtmct-2023-03-31/codelists/C106478", "title": "CDISC SDTM Reproductive System Findings Test Name Terminology", "type": "Code List"}, "rootItem": {"href": "/mdr/root/ct/sdtmct/codelists/C106478", "title": "Version-agnostic anchor resource for codelist C106478", "type": "Root Value Domain"}, "self": {"href": "/mdr/ct/packages/sdtmct-2023-06-30/codelists/C106478", "title": "CDISC SDTM Reproductive System Findings Test Name Terminology", "type": "Code List"}}, "conceptId": "C106478", "definition": "A terminology codelist for the physiological test names related to the male and female reproductive systems.", "extensible": "true", "name": "Reproductive System Findings Test Name", "preferredTerm": "CDISC SDTM Reproductive System Findings Test Name Terminology", "submissionValue": "RPTEST", "synonyms": ["Reproductive System Findings Test Name"], "terms": [{"conceptId": "C154889", "definition": "An indication as to whether there is the presence of abnormal bleeding.", "preferredTerm": "Abnormal Bleeding Indicator", "submissionValue": "Abnormal Bleeding Indicator", "synonyms": ["Abnormal Bleeding Indicator"]}, {"conceptId": "C178050", "definition": "The date on which the delivery event occurred.", "preferredTerm": "Actual Date of Delivery", "submissionValue": "Actual Date of Delivery", "synonyms": ["Actual Date of Delivery"]}, {"conceptId": "C189362", "definition": "The age at onset of adrenal androgen-mediated secondary sexual characteristics.", "preferredTerm": "Adrenarche Age", "submissionValue": "Adrenarche Age", "synonyms": ["Adrenarche Age"]}, {"conceptId": "C189354", "definition": "The average length of time of the menses cycle.", "preferredTerm": "Average Menstrual Cycle Duration", "submissionValue": "Average Menstrual Cycle Duration", "synonyms": ["Average Menstrual Cycle Duration", "Average Menstrual Cycle Length"]}, {"conceptId": "C154880", "definition": "An indication as to whether the Bartholin's gland is abnormal.", "preferredTerm": "Bartholin's Gland Abnormality Indicator", "submissionValue": "Bartholin's Gland Abnormality Indicator", "synonyms": ["Bartholin's Gland Abnormality Indicator"]}, {"conceptId": "C106501", "definition": "The method by which conception or impregnation is prevented.", "preferredTerm": "Birth Control Method", "submissionValue": "Birth Control Method", "synonyms": ["Birth Control Method"]}, {"conceptId": "C189352", "definition": "An indication as to whether the individual has experienced bleeding or spotting between menstrual periods.", "preferredTerm": "Bleeding or Spotting Between Menstrual Periods Indicator", "submissionValue": "Bleed/Spot Between Menstrual Periods Ind", "synonyms": ["Bleed/Spot Between Menstrual Periods Ind", "Bleeding or Spotting Between Menstrual Periods Indicator"]}, {"conceptId": "C122195", "definition": "An indication as to whether blistering occurred.", "preferredTerm": "Blistering Indicator", "submissionValue": "Blistering Indicator", "synonyms": ["Blistering Indicator"]}, {"conceptId": "C189364", "definition": "The date on which breastfeeding ended.", "preferredTerm": "Breastfeeding End Date", "submissionValue": "Breastfeeding End Date", "synonyms": ["Breastfeeding End Date"]}, {"conceptId": "C189363", "definition": "The date on which breastfeeding started.", "preferredTerm": "Breastfeeding Start Date", "submissionValue": "Breastfeeding Start Date", "synonyms": ["Breastfeeding Start Date"]}, {"conceptId": "C106508", "definition": "An indicator as to whether the female subject has the potential to become pregnant. (NCI)", "preferredTerm": "Childbearing Potential", "submissionValue": "Childbearing Potential", "synonyms": ["Childbearing Potential"]}, {"conceptId": "C181527", "definition": "A description of the regularity with which a condom is used during sexual activity.", "preferredTerm": "Condom Use Frequency", "submissionValue": "Condom Use Frequency Desc", "synonyms": ["Condom Use Frequency Desc", "Condom Use Frequency Description"]}, {"conceptId": "C181526", "definition": "An indication as to whether a condom was used during the most recent occurrence of sexual intercourse.", "preferredTerm": "Condom Use for Most Recent Sexual Intercourse Indicator", "submissionValue": "Condom Use Most Recent Sex Interc Ind", "synonyms": ["Condom Use for Most Recent Sexual Intercourse Indicator", "Condom Use Most Recent Sex Interc Ind"]}, {"conceptId": "C122187", "definition": "An indication as to whether any abnormality was present at birth or during the neonatal period.", "preferredTerm": "Congenital Abnormality Indicator", "submissionValue": "Congenital Abnormality Indicator", "synonyms": ["Congenital Abnormality Indicator"]}, {"conceptId": "C181524", "definition": "The date of the most recent occurrence of sexual intercourse.", "preferredTerm": "Date of Last Sexual Intercourse", "submissionValue": "Date of Most Recent Sexual Intercourse", "synonyms": ["Date of Most Recent Sexual Intercourse"]}, {"conceptId": "C163558", "definition": "The date on which the pregnancy ended.", "preferredTerm": "Pregnancy End Date", "submissionValue": "Date Pregnancy Ended", "synonyms": ["Date Pregnancy Ended"]}, {"conceptId": "C154888", "definition": "An indication as to whether there is the presence of discharge.", "preferredTerm": "Discharge Indicator", "submissionValue": "Discharge Indicator", "synonyms": ["Discharge Indicator"]}, {"conceptId": "C189357", "definition": "The length of time during which the individual abstained from sexual activity.", "preferredTerm": "Duration of Sexual Abstinence", "submissionValue": "Duration of Sexual Abstinence", "synonyms": ["Duration of Sexual Abstinence"]}, {"conceptId": "C154884", "definition": "An indication as to whether ecchymosis is present.", "preferredTerm": "Ecchymosis Indicator", "submissionValue": "Ecchymosis Indicator", "synonyms": ["Ecchymosis Indicator"]}, {"conceptId": "C154885", "definition": "An indication as to whether edema is present.", "preferredTerm": "Edema Indicator", "submissionValue": "Edema Indicator", "synonyms": ["Edema Indicator"]}, {"conceptId": "C191351", "definition": "The interval of time since the individual's last menstrual period.", "preferredTerm": "Elapsed Time Since Last Menstrual Period", "submissionValue": "Elapsed Time Since LMP", "synonyms": ["Elapsed Time Since LMP"]}, {"conceptId": "C154877", "definition": "An indication as to whether erythema is present.", "preferredTerm": "Erythema Indicator", "submissionValue": "Erythema Indicator", "synonyms": ["Erythema Indicator", "Redness Indicator"]}, {"conceptId": "C158276", "definition": "The approximate date of the first day of the next menstrual cycle.", "preferredTerm": "Estimated Next Menstrual Period Start Date", "submissionValue": "Est Next Menstrual Period Start Date", "synonyms": ["Est Next Menstrual Period Start Date", "Estimated Next Menstrual Period Start Date"]}, {"conceptId": "C120833", "definition": "An approximate calculated date at which the conception event took place.", "preferredTerm": "Estimated Date of Conception", "submissionValue": "Estimated Date of Conception", "synonyms": ["Estimated Date of Conception"]}, {"conceptId": "C81247", "definition": "An approximate calculation of the delivery date.", "preferredTerm": "Expected Date of Confinement", "submissionValue": "Estimated Date of Delivery", "synonyms": ["Estimated Date of Delivery"]}, {"conceptId": "C122188", "definition": "An approximate calculation of the gestational age of the fetus, neonate, or infant.", "preferredTerm": "Estimated Gestational Age", "submissionValue": "Estimated Gestational Age", "synonyms": ["Estimated Gestational Age"]}, {"conceptId": "C198357", "definition": "The date of the first day of the first menstrual cycle.", "preferredTerm": "First Menstrual Period Start Date", "submissionValue": "First Menstrual Period Start Date", "synonyms": ["First Menstrual Period Start Date"]}, {"conceptId": "C154876", "definition": "A measurement of the distance between the pubic symphysis and the top of the palpable uterus.", "preferredTerm": "Fundal Height", "submissionValue": "Fundal Height", "synonyms": ["Fundal Height"]}, {"conceptId": "C73435", "definition": "An indication as to whether the subject is or has ever been pregnant.", "preferredTerm": "Gravida", "submissionValue": "Gravida Indicator", "synonyms": ["Gravida", "Gravida Indicator"]}, {"conceptId": "C184708", "definition": "An indication as to whether the subject experiences menstrual cycles.", "preferredTerm": "Has Menstrual Periods Indicator", "submissionValue": "Has Menstrual Periods Indicator", "synonyms": ["Has Menstrual Periods Indicator"]}, {"conceptId": "C176360", "definition": "An indication as to whether the individual was hospitalized due to a pregnancy complication.", "preferredTerm": "Hospitalized Due to Pregnancy Complication Indicator", "submissionValue": "Hosp Due to Pregnancy Complication Ind", "synonyms": ["Hosp Due to Pregnancy Complication Ind", "Hospitalized Due to Pregnancy Complication Indicator"]}, {"conceptId": "C156588", "definition": "An indication as to whether the female subject has ever had an induced abortion procedure.", "preferredTerm": "Induced Abortion Indicator", "submissionValue": "Induced Abortion Indicator", "synonyms": ["Induced Abortion Indicator"]}, {"conceptId": "C189356", "definition": "An indication as to whether the individual has experienced infertility.", "preferredTerm": "Infertility Indicator", "submissionValue": "Infertility Indicator", "synonyms": ["Infertility Indicator"]}, {"conceptId": "C41255", "definition": "An act or process of elucidation; explication, or explanation of the meaning of the event or thing via the assignment of objects from the domain to the constants of a formal language, truth-values to the proposition symbols, truth-functions to the connectives, other functions to the function symbols, and extensions to the predicates, if any. The assignments are result of human logic application and are not native to the symbols of the formal language.", "preferredTerm": "Interpretation", "submissionValue": "Interpretation", "synonyms": ["Interpretation"]}, {"conceptId": "C189353", "definition": "An indication as to whether the individual has experienced irregular menstrual periods.", "preferredTerm": "Irregular Menstrual Periods Indicator", "submissionValue": "Irregular Menstrual Periods Indicator", "synonyms": ["Irregular Menstrual Periods Indicator"]}, {"conceptId": "C81257", "definition": "The date of the first day of the most recent menstrual cycle.", "preferredTerm": "Last Menstrual Period", "submissionValue": "Last Menstrual Period Start Date", "synonyms": ["Last Menstrual Period Start Date"]}, {"conceptId": "C156589", "definition": "An indication as to whether the subject has ever delivered live-born offspring.", "preferredTerm": "Live Birth Indicator", "submissionValue": "Live Birth Indicator", "synonyms": ["Live Birth Indicator"]}, {"conceptId": "C154886", "definition": "An indication as to whether a mass is present.", "preferredTerm": "Mass Indicator", "submissionValue": "Mass Indicator", "synonyms": ["Mass Indicator"]}, {"conceptId": "C19666", "definition": "The age at which the first menstruation event occurred. (NCI)", "preferredTerm": "Age at Menarche", "submissionValue": "Menarche Age", "synonyms": ["Menarche Age"]}, {"conceptId": "C106497", "definition": "The age at which permanent cessation of menses occurred. (NCI)", "preferredTerm": "Age at Menopause", "submissionValue": "Menopause Age", "synonyms": ["Menopause Age"]}, {"conceptId": "C106541", "definition": "The status of a female with respect to menopause.", "preferredTerm": "Menopause Status", "submissionValue": "Menopause Status", "synonyms": ["Menopause Status"]}, {"conceptId": "C156586", "definition": "The length of time during which menses is expelled from the uterus.", "preferredTerm": "Menses Duration", "submissionValue": "Menses Flow Duration", "synonyms": ["Menses Flow Duration"]}, {"conceptId": "C156585", "definition": "A subjective description of the menstrual flow rate during a menstrual cycle.", "preferredTerm": "Menses Flow Rate Description", "submissionValue": "Menses Flow Rate Description", "synonyms": ["Menses Flow Rate Description"]}, {"conceptId": "C119549", "definition": "The length of time of the menses cycle, measured from the beginning of one menstrual period to the beginning of the next.", "preferredTerm": "Menstrual Cycle Duration", "submissionValue": "Menstrual Cycle Duration", "synonyms": ["Menstrual Cycle Duration"]}, {"conceptId": "C156587", "definition": "A description of how an individual's menstrual cycle conforms to a consistent temporal pattern.", "preferredTerm": "Menstrual Cycle Regularity", "submissionValue": "Menstrual Cycle Regularity", "synonyms": ["Menstrual Cycle Regularity"]}, {"conceptId": "C122191", "definition": "An indication as to whether any pregnancies resulted in miscarriages.", "preferredTerm": "Miscarriage Indicator", "submissionValue": "Miscarriage Indicator", "synonyms": ["Miscarriage Indicator"]}, {"conceptId": "C81179", "definition": "Description of the method by which a fetus is delivered.", "preferredTerm": "Delivery Procedure", "submissionValue": "Mode of Delivery", "synonyms": ["Mode of Delivery"]}, {"conceptId": "C154887", "definition": "An indication as to whether there are symptoms of motion tenderness.", "preferredTerm": "Motion Tenderness Indicator", "submissionValue": "Motion Tenderness Indicator", "synonyms": ["Motion Tenderness Indicator"]}, {"conceptId": "C139265", "definition": "A measurement of the total number of live birth events at which the gestational age of the neonate is 39 weeks and 0 days through 40 weeks and 6 days.", "preferredTerm": "Number of Full Term Live Births", "submissionValue": "Number Full Term Live Births", "synonyms": ["Number Full Term Live Births"]}, {"conceptId": "C106550", "definition": "A measurement of the total number of instances in which there has been a spontaneous termination of pregnancy (miscarriage) or elective termination of pregnancy.", "preferredTerm": "Number of Abortions", "submissionValue": "Number of Abortions", "synonyms": ["Number of Abortions"]}, {"conceptId": "C158275", "definition": "A measurement of the total number of birth events experienced by a female.", "preferredTerm": "Number of Births", "submissionValue": "Number of Births", "synonyms": ["Number of Births"]}, {"conceptId": "C189358", "definition": "A measurement of the total number of cesarean section delivery events experienced by the individual.", "preferredTerm": "Number of Cesarean Sections", "submissionValue": "Number of Cesarean Sections", "synonyms": ["Number of C-Sections", "Number of Cesarean Sections"]}, {"conceptId": "C181528", "definition": "The number of days one has experienced continuous menstrual bleeding and/or spotting.", "preferredTerm": "Number of Continuous Days of Menstrual Bleeding and/or Spotting", "submissionValue": "Number of Continuous Days of Bleed/Spot", "synonyms": ["Number of Continuous Days of Bleed/Spot"]}, {"conceptId": "C122189", "definition": "A measurement of the total number of birth events at which the gestational age of the neonate is 37 weeks and 0 days through 38 weeks and 6 days.", "preferredTerm": "Number of Early Term Births", "submissionValue": "Number of Early Term Births", "synonyms": ["Number of Early Term Births"]}, {"conceptId": "C120832", "definition": "A measurement of the total number of ectopic pregnancies experienced by a female subject.", "preferredTerm": "Number of Ectopic Pregnancies", "submissionValue": "Number of Ectopic Pregnancies", "synonyms": ["Number of Ectopic Pregnancies"]}, {"conceptId": "C122190", "definition": "A measurement of the total number of birth events (both live and dead) at which the gestational age of the neonate is 39 weeks and 0 days through 40 weeks and 6 days.", "preferredTerm": "Number of Full Term Births", "submissionValue": "Number of Full Term Births", "synonyms": ["Number of Full Term Births"]}, {"conceptId": "C120835", "definition": "A measurement of the total number of induced abortions experienced by a female subject.", "preferredTerm": "Number of Induced Abortions", "submissionValue": "Number of Induced Abortions", "synonyms": ["Number of Induced Abortions"]}, {"conceptId": "C120834", "definition": "A measurement of the total number of fetal deaths (death of a fetus at 16 weeks, 0 days to 19 weeks, 6 days of gestation)  experienced by a female subject.", "preferredTerm": "Number of Late Fetal Deaths", "submissionValue": "Number of Late Fetal Deaths", "synonyms": ["Number of Late Fetal Deaths"]}, {"conceptId": "C178141", "definition": "A measurement of the total number of live-born offspring a female has delivered.", "preferredTerm": "Number of Live Births", "submissionValue": "Number of Live Births", "synonyms": ["Number of Live Births"]}, {"conceptId": "C106551", "definition": "A measurement of the total number of pregnancy events experienced by a female.", "preferredTerm": "Number of Pregnancies", "submissionValue": "Number of Pregnancies", "synonyms": ["Number of Pregnancies"]}, {"conceptId": "C122193", "definition": "A measurement of the total number of birth events (both live and dead) at which the gestational age of the neonate is less than 37 weeks and 0 days.", "preferredTerm": "Number of Premature Births", "submissionValue": "Number of Premature Births", "synonyms": ["Number of Premature Births"]}, {"conceptId": "C139266", "definition": "A measurement of the total number of live birth events at which the gestational age of the neonate is less than 37 weeks and 0 days.", "preferredTerm": "Number of Premature Live Births", "submissionValue": "Number of Premature Live Births", "synonyms": ["Number of Premature Live Births"]}, {"conceptId": "C120836", "definition": "A measurement of the total number of pregnancy events experienced by the female subject prior to the current pregnancy.", "preferredTerm": "Number of Previous Pregnancies", "submissionValue": "Number of Previous Pregnancies", "synonyms": ["Number of Previous Pregnancies"]}, {"conceptId": "C120837", "definition": "A measurement of the total number of spontaneous abortions (in which the fetus is less than 20 weeks gestational age) experienced by a female subject.", "preferredTerm": "Number of Spontaneous Abortions", "submissionValue": "Number of Spontaneous Abortions", "synonyms": ["Number of Spontaneous Abortions"]}, {"conceptId": "C139267", "definition": "A measurement of the total number of birth events at which the fetus is of at least 20 weeks gestation, or of a birth weight of at least 350 grams if the gestational age is unknown, which is born without signs of life at the time of delivery, and with an Apgar score of zero at both one and five minutes.", "preferredTerm": "Number of Stillbirths", "submissionValue": "Number of Stillbirths", "synonyms": ["Number of Stillbirths"]}, {"conceptId": "C189359", "definition": "A measurement of the total number of vaginal delivery events experienced by the individual.", "preferredTerm": "Number of Vaginal Deliveries", "submissionValue": "Number of Vaginal Deliveries", "synonyms": ["Number of Vaginal Deliveries"]}, {"conceptId": "C16955", "definition": "The number of pregnancies reaching 20 weeks and 0 days of gestation or beyond, regardless of the number of fetuses or outcomes. (NICHD)", "preferredTerm": "Parity", "submissionValue": "Parity", "synonyms": ["Parity"]}, {"conceptId": "C154883", "definition": "An indication as to whether there is the presence of peeling.", "preferredTerm": "Peeling Indicator", "submissionValue": "Peeling Indicator", "synonyms": ["Peeling Indicator"]}, {"conceptId": "C198358", "definition": "An indication as to whether the subject is in the stages of recovery post pregnancy and birth event.", "preferredTerm": "Post-Partum Indicator", "submissionValue": "Post-Partum Indicator", "synonyms": ["Post-Partum Indicator"]}, {"conceptId": "C122192", "definition": "An indication as to whether the subject's pregnancy has been confirmed.", "preferredTerm": "Pregnancy Confirmed Indicator", "submissionValue": "Pregnancy Confirmed Indicator", "synonyms": ["Pregnancy Confirmed Indicator"]}, {"conceptId": "C90491", "definition": "The end result of a pregnancy.", "preferredTerm": "Pregnancy Outcome", "submissionValue": "Pregnancy Outcome", "synonyms": ["Pregnancy Outcome"]}, {"conceptId": "C186213", "definition": "An indication as to whether the subject or associated person suspects that they are pregnant at the time the question is asked.", "preferredTerm": "Pregnancy Suspected Indicator", "submissionValue": "Pregnancy Suspected Indicator", "synonyms": ["Pregnancy Suspected Indicator"]}, {"conceptId": "C106561", "definition": "An indicator as to whether a female is pregnant during the study period. (NCI)", "preferredTerm": "Pregnant During the Study", "submissionValue": "Pregnant During the Study", "synonyms": ["Pregnant During the Study"]}, {"conceptId": "C139264", "definition": "An indication as to whether the subject or associated person is pregnant at the time the question is asked.", "preferredTerm": "Pregnancy Indicator", "submissionValue": "Pregnant Indicator", "synonyms": ["Pregnant Indicator"]}, {"conceptId": "C163557", "definition": "An indication as to whether the products of conception have been examined.", "preferredTerm": "Products of Conception Examined Indicator", "submissionValue": "Products of Conception Examined Ind", "synonyms": ["Products of Conception Examined Ind", "Products of Conception Examined Indicator"]}, {"conceptId": "C154882", "definition": "An indication as to whether a pustule is present.", "preferredTerm": "Pustule Indicator", "submissionValue": "Pustule Indicator", "synonyms": ["Pustule Indicator"]}, {"conceptId": "C154878", "definition": "An indication as to whether rash is present.", "preferredTerm": "Rash Indicator", "submissionValue": "Rash Indicator", "synonyms": ["Rash Indicator"]}, {"conceptId": "C198359", "definition": "An observation, assessment or examination of the reproductive system.", "preferredTerm": "Reproductive System Examination", "submissionValue": "Reproductive System Examination", "synonyms": ["Reproductive System Examination"]}, {"conceptId": "C154879", "definition": "An indication as to whether the Skene's gland is abnormal.", "preferredTerm": "Skene's Gland Abnormality Indicator", "submissionValue": "Skene's Gland Abnormality Indicator", "synonyms": ["Skene's Gland Abnormality Indicator"]}, {"conceptId": "C122194", "definition": "An indication as to whether any pregnancies resulted in stillbirths.", "preferredTerm": "Stillbirth Indicator", "submissionValue": "Stillbirth Indicator", "synonyms": ["Stillbirth Indicator"]}, {"conceptId": "C189360", "definition": "An indication as to whether the individual is currently breastfeeding a child.", "preferredTerm": "Subject Currently Breastfeeding a Child Indicator", "submissionValue": "Subj Currently Breastfeeding a Child Ind", "synonyms": ["Subj Currently Breastfeeding a Child Ind", "Subject Currently Breastfeeding a Child Indicator"]}, {"conceptId": "C189355", "definition": "An indication as to whether the individual has been surgically sterilized.", "preferredTerm": "Individual Surgically Sterile Indicator", "submissionValue": "Surgically Sterile Indicator", "synonyms": ["Surgically Sterile Indicator"]}, {"conceptId": "C127775", "definition": "An indication as to whether there are symptoms of tenderness.", "preferredTerm": "Tenderness Indicator", "submissionValue": "Tenderness Indicator", "synonyms": ["Tenderness Indicator"]}, {"conceptId": "C176361", "definition": "A classification of the gestation duration of the pregnancy at the time of delivery.", "preferredTerm": "Term Pregnancy Category", "submissionValue": "Term Pregnancy Category", "synonyms": ["Term Pregnancy Category"]}, {"conceptId": "C189361", "definition": "The age at onset of breast development.", "preferredTerm": "Thelarche Age", "submissionValue": "Thelarche Age", "synonyms": ["Thelarche Age"]}, {"conceptId": "C41145", "definition": "The dimension between two surfaces of an object, usually the smallest dimension as opposed to the width or the length.", "preferredTerm": "Thickness", "submissionValue": "Thickness", "synonyms": ["Thickness"]}, {"conceptId": "C181525", "definition": "The total number of individuals with whom one has engaged in sexual activity.", "preferredTerm": "Total Number of Sexual Partners", "submissionValue": "Total Number of Sexual Partners", "synonyms": ["Total Number of Sexual Partners"]}, {"conceptId": "C154881", "definition": "An indication as to whether an ulcer is present.", "preferredTerm": "Ulcer Indicator", "submissionValue": "Ulcer Indicator", "synonyms": ["Ulcer Indicator"]}, {"conceptId": "C176359", "definition": "A description of the frequency at which vaginal bleeding and/or spotting has occurred.", "preferredTerm": "Vaginal Bleeding and/or Spotting Frequency Description", "submissionValue": "Vaginal Bleeding/Spotting Freq Desc", "synonyms": ["Vaginal Bleeding/Spotting Freq Desc", "Vaginal Bleeding/Spotting Frequency Description"]}]}