{"_links": {"parentPackage": {"href": "/mdr/ct/packages/sdtmct-2023-06-30", "title": "SDTM Controlled Terminology Package 54 Effective 2023-06-30", "type": "Terminology"}, "priorVersion": {"href": "/mdr/ct/packages/sdtmct-2023-03-31/codelists/C113845", "title": "CDISC Questionnaire Borg CR10 Test Name Terminology", "type": "Code List"}, "rootItem": {"href": "/mdr/root/ct/sdtmct/codelists/C113845", "title": "Version-agnostic anchor resource for codelist C113845", "type": "Root Value Domain"}, "self": {"href": "/mdr/ct/packages/sdtmct-2023-06-30/codelists/C113845", "title": "CDISC Questionnaire Borg CR10 Test Name Terminology", "type": "Code List"}}, "conceptId": "C113845", "definition": "Borg CR10 scale test name.", "extensible": "false", "name": "Borg CR10 Scale Questionnaire Test Name", "preferredTerm": "CDISC Questionnaire Borg CR10 Test Name Terminology", "submissionValue": "BCR101TN", "synonyms": ["Borg CR10 Scale Questionnaire Test Name"], "terms": [{"conceptId": "C113888", "definition": "Borg CR10 Scale - Rating.", "preferredTerm": "Borg CR10 - Rating", "submissionValue": "BCR101-Rating", "synonyms": ["BCR101-Rating"]}]}