{"_links": {"parentPackage": {"href": "/mdr/ct/packages/sdtmct-2023-06-30", "title": "SDTM Controlled Terminology Package 54 Effective 2023-06-30", "type": "Terminology"}, "priorVersion": {"href": "/mdr/ct/packages/sdtmct-2023-03-31/codelists/C115392", "title": "CDISC Functional Test NHPT Test Code Terminology", "type": "Code List"}, "rootItem": {"href": "/mdr/root/ct/sdtmct/codelists/C115392", "title": "Version-agnostic anchor resource for codelist C115392", "type": "Root Value Domain"}, "self": {"href": "/mdr/ct/packages/sdtmct-2023-06-30/codelists/C115392", "title": "CDISC Functional Test NHPT Test Code Terminology", "type": "Code List"}}, "conceptId": "C115392", "definition": "Nine-Hole Peg Test test code.", "extensible": "false", "name": "Nine-Hole Peg Test Functional Test Test Code", "preferredTerm": "CDISC Functional Test NHPT Test Code Terminology", "submissionValue": "NHPT01TC", "synonyms": ["Nine-Hole Peg Test Functional Test Test Code"], "terms": [{"conceptId": "C115807", "definition": "Nine-Hole Peg Test - Time in seconds to complete 9-Hole Peg Test.", "preferredTerm": "NHPT - Time to Complete 9-Hole Peg Test", "submissionValue": "NHPT0101", "synonyms": ["NHPT01-Time to Complete 9-Hole Peg Test"]}, {"conceptId": "C115808", "definition": "Nine-Hole Peg Test - Did it take more than two attempts to get two successful trials?", "preferredTerm": "NHPT - More Than Two Attempts", "submissionValue": "NHPT0102", "synonyms": ["NHPT01-More Than Two Attempts"]}]}