{"_links": {"parentPackage": {"href": "/mdr/ct/packages/sdtmct-2023-06-30", "title": "SDTM Controlled Terminology Package 54 Effective 2023-06-30", "type": "Terminology"}, "priorVersion": {"href": "/mdr/ct/packages/sdtmct-2023-03-31/codelists/C116107", "title": "CDISC SDTM Death Diagnosis Test Name Terminology", "type": "Code List"}, "rootItem": {"href": "/mdr/root/ct/sdtmct/codelists/C116107", "title": "Version-agnostic anchor resource for codelist C116107", "type": "Root Value Domain"}, "self": {"href": "/mdr/ct/packages/sdtmct-2023-06-30/codelists/C116107", "title": "CDISC SDTM Death Diagnosis Test Name Terminology", "type": "Code List"}}, "conceptId": "C116107", "definition": "Terminology relevant to the test codes that describe the death diagnosis and related details.", "extensible": "true", "name": "SDTM Death Diagnosis and Details Test Name", "preferredTerm": "CDISC SDTM Death Diagnosis Test Name Terminology", "submissionValue": "DTHDX", "synonyms": ["SDTM Death Diagnosis and Details Test Name"], "terms": [{"conceptId": "C135383", "definition": "The age at which death occurred. (NCI)", "preferredTerm": "Age at Death", "submissionValue": "Age at Death", "synonyms": ["Age at Death"]}, {"conceptId": "C135384", "definition": "An indication as to whether an autopsy was performed. (NCI)", "preferredTerm": "Autopsy Indicator", "submissionValue": "Autopsy Indicator", "synonyms": ["Autopsy Indicator"]}, {"conceptId": "C199843", "definition": "An indication as to whether the condition under study contributed to the cause of death.", "preferredTerm": "Disease Indication Under Study Contributed to Death Indicator", "submissionValue": "Cond Under Study Contrib to Death Ind", "synonyms": ["Cond Under Study Contrib to Death Ind", "Condition Under Study Contributed to Death Indicator"]}, {"conceptId": "C135385", "definition": "An indication as to whether a death certificate was obtained. (NCI)", "preferredTerm": "Death Certification Indicator", "submissionValue": "Death Certificate Obtained Indicator", "synonyms": ["Death Certificate Obtained Indicator"]}, {"conceptId": "C184505", "definition": "An indication as to whether the death was expected.", "preferredTerm": "Death Expected Indicator", "submissionValue": "Death Expected Indicator", "synonyms": ["Death Expected Indicator"]}, {"conceptId": "C170571", "definition": "An indication as to whether the death event was witnessed by another individual.", "preferredTerm": "Death Witnessed Indicator", "submissionValue": "Death Witnessed Indicator", "synonyms": ["Death Witnessed Indicator"]}, {"conceptId": "C135386", "definition": "An indication as to whether a hospital medical record was obtained.", "preferredTerm": "Hospital Medical Record Indicator", "submissionValue": "Hospital Medical Record Obtained Ind", "synonyms": ["Hospital Medical Record Obtained Ind", "Hospital Medical Record Obtained Indicator"]}, {"conceptId": "C198258", "definition": "An indication as to whether the subject was hospitalized at the time of death.", "preferredTerm": "Hospitalized at Time of Death Indicator", "submissionValue": "Hospitalized at Time of Death Indicator", "synonyms": ["Hospitalized at Time of Death Indicator"]}, {"conceptId": "C176287", "definition": "The person or authoritative source that provided the cause of death.", "preferredTerm": "Information Source for Cause of Death", "submissionValue": "Information Source for Cause of Death", "synonyms": ["Information Source for Cause of Death"]}, {"conceptId": "C124331", "definition": "The physical location at which the subject ceased to live.", "preferredTerm": "Location of Death", "submissionValue": "Location of Death", "synonyms": ["Location of Death"]}, {"conceptId": "C99531", "definition": "The primary significant event which ultimately led to death.", "preferredTerm": "Primary Cause of Death", "submissionValue": "Primary Cause of Death", "synonyms": ["Primary Cause of Death"]}, {"conceptId": "C116142", "definition": "The secondary significant event which ultimately led to death.", "preferredTerm": "Secondary Cause of Death", "submissionValue": "Secondary Cause of Death", "synonyms": ["Secondary Cause of Death"]}, {"conceptId": "C174284", "definition": "An indication as to whether death was unexpected or occurred without warning.", "preferredTerm": "Sudden Death Indicator", "submissionValue": "Sudden Death Indicator", "synonyms": ["Sudden Death Indicator"]}]}