{"_links": {"parentPackage": {"href": "/mdr/ct/packages/sdtmct-2023-06-30", "title": "SDTM Controlled Terminology Package 54 Effective 2023-06-30", "type": "Terminology"}, "priorVersion": {"href": "/mdr/ct/packages/sdtmct-2023-03-31/codelists/C123652", "title": "CDISC Questionnaire EXACT Test Name Terminology", "type": "Code List"}, "rootItem": {"href": "/mdr/root/ct/sdtmct/codelists/C123652", "title": "Version-agnostic anchor resource for codelist C123652", "type": "Root Value Domain"}, "self": {"href": "/mdr/ct/packages/sdtmct-2023-06-30/codelists/C123652", "title": "CDISC Questionnaire EXACT Test Name Terminology", "type": "Code List"}}, "conceptId": "C123652", "definition": "Exacerbations of Chronic Pulmonary Disease Tool Patient-Reported Outcome test name.", "extensible": "false", "name": "Exacerbations of Chronic Pulmonary Disease Tool Patient-Reported Outcome Questionnaire Test Name", "preferredTerm": "CDISC Questionnaire EXACT Test Name Terminology", "submissionValue": "EXACT1TN", "synonyms": ["Exacerbations of Chronic Pulmonary Disease Tool Patient-Reported Outcome Questionnaire Test Name"], "terms": [{"conceptId": "C123675", "definition": "Exacerbations of Chronic Pulmonary Disease Tool Patient-Reported Outcome - Were you breathless today?", "preferredTerm": "EXACT - Were You Breathless", "submissionValue": "EXACT1-Breathless", "synonyms": ["EXACT1-Breathless"]}, {"conceptId": "C177807", "definition": "Exacerbations of Chronic Pulmonary Disease Tool Patient-Reported Outcome - Breathlessness domain score.", "preferredTerm": "EXACT - Breathlessness Domain Score", "submissionValue": "EXACT1-Breathlessness Domain Score", "synonyms": ["EXACT1-Breathlessness Domain Score"]}, {"conceptId": "C177803", "definition": "Exacerbations of Chronic Pulmonary Disease Tool Patient-Reported Outcome - Breathlessness raw score.", "preferredTerm": "EXACT - Breathlessness Raw Score", "submissionValue": "EXACT1-Breathlessness Raw Score", "synonyms": ["EXACT1-Breathlessness Raw Score"]}, {"conceptId": "C123671", "definition": "Exacerbations of Chronic Pulmonary Disease Tool Patient-Reported Outcome - How much mucus (phlegm) did you bring up when coughing today?", "preferredTerm": "EXACT - Bring Up Mucus When Coughing", "submissionValue": "EXACT1-Bring Up Mucus When Coughing", "synonyms": ["EXACT1-Bring Up Mucus When Coughing"]}, {"conceptId": "C123673", "definition": "Exacerbations of Chronic Pulmonary Disease Tool Patient-Reported Outcome - Did you have chest discomfort today?", "preferredTerm": "EXACT - Have Chest Discomfort", "submissionValue": "EXACT1-Chest Discomfort", "synonyms": ["EXACT1-Chest Discomfort"]}, {"conceptId": "C123669", "definition": "Exacerbations of Chronic Pulmonary Disease Tool Patient-Reported Outcome - Did your chest feel congested today?", "preferredTerm": "EXACT - Chest Feel Congested", "submissionValue": "EXACT1-Chest Feel Congested", "synonyms": ["EXACT1-Chest Feel Congested"]}, {"conceptId": "C123674", "definition": "Exacerbations of Chronic Pulmonary Disease Tool Patient-Reported Outcome - Did your chest feel tight today?", "preferredTerm": "EXACT - Chest Feel Tight", "submissionValue": "EXACT1-Chest Feel Tight", "synonyms": ["EXACT1-Chest Feel Tight"]}, {"conceptId": "C177809", "definition": "Exacerbations of Chronic Pulmonary Disease Tool Patient-Reported Outcome - Chest symptoms domain score.", "preferredTerm": "EXACT - Chest Symptoms Domain Score", "submissionValue": "EXACT1-Chest Symptoms Domain Score", "synonyms": ["EXACT1-Chest Symptoms Domain Score"]}, {"conceptId": "C177805", "definition": "Exacerbations of Chronic Pulmonary Disease Tool Patient-Reported Outcome - Chest symptoms raw score.", "preferredTerm": "EXACT - Chest Symptoms Raw Score", "submissionValue": "EXACT1-Chest Symptoms Raw Score", "synonyms": ["EXACT1-Chest Symptoms Raw Score"]}, {"conceptId": "C177808", "definition": "Exacerbations of Chronic Pulmonary Disease Tool Patient-Reported Outcome - Cough & sputum domain score.", "preferredTerm": "EXACT - Cough & Sputum Domain Score", "submissionValue": "EXACT1-Cough & Sputum Domain Score", "synonyms": ["EXACT1-Cough & Sputum Domain Score"]}, {"conceptId": "C177804", "definition": "Exacerbations of Chronic Pulmonary Disease Tool Patient-Reported Outcome - Cough & sputum raw score.", "preferredTerm": "EXACT - Cough & Sputum Raw Score", "submissionValue": "EXACT1-Cough & Sputum Raw Score", "synonyms": ["EXACT1-Cough & Sputum Raw Score"]}, {"conceptId": "C123676", "definition": "Exacerbations of Chronic Pulmonary Disease Tool Patient-Reported Outcome - Describe how breathless you were today.", "preferredTerm": "EXACT - Describe How Breathless", "submissionValue": "EXACT1-Describe How Breathless", "synonyms": ["EXACT1-Describe How Breathless"]}, {"conceptId": "C123672", "definition": "Exacerbations of Chronic Pulmonary Disease Tool Patient-Reported Outcome - How difficult was it to bring up mucus (phlegm) today?", "preferredTerm": "EXACT - Difficult to Bring Up Mucus", "submissionValue": "EXACT1-Difficult to Bring Up Mucus", "synonyms": ["EXACT1-Difficult to Bring Up Mucus"]}, {"conceptId": "C177806", "definition": "Exacerbations of Chronic Pulmonary Disease Tool Patient-Reported Outcome - Exact total raw score.", "preferredTerm": "EXACT - EXACT Total Raw Score", "submissionValue": "EXACT1-EXACT Total Raw Score", "synonyms": ["EXACT1-EXACT Total Raw Score"]}, {"conceptId": "C177810", "definition": "Exacerbations of Chronic Pulmonary Disease Tool Patient-Reported Outcome - Exact total domain score.", "preferredTerm": "EXACT - EXACT Total Score", "submissionValue": "EXACT1-EXACT Total Score", "synonyms": ["EXACT1-EXACT Total Score"]}, {"conceptId": "C123670", "definition": "Exacerbations of Chronic Pulmonary Disease Tool Patient-Reported Outcome - How often did you cough today?", "preferredTerm": "EXACT - How Often Cough Today", "submissionValue": "EXACT1-How Often Cough", "synonyms": ["EXACT1-How Often Cough"]}, {"conceptId": "C123681", "definition": "Exacerbations of Chronic Pulmonary Disease Tool Patient-Reported Outcome - Last night, was your sleep disturbed?", "preferredTerm": "EXACT - Night Sleep Disturbed", "submissionValue": "EXACT1-Night Sleep Disturbed", "synonyms": ["EXACT1-Night Sleep Disturbed"]}, {"conceptId": "C123678", "definition": "Exacerbations of Chronic Pulmonary Disease Tool Patient-Reported Outcome - Were you short of breath today when performing your usual indoor activities like cleaning or household work?", "preferredTerm": "EXACT - Short of Breath When Performing Usual Indoor Activities", "submissionValue": "EXACT1-Short Breath Indoor Activities", "synonyms": ["EXACT1-Short Breath Indoor Activities"]}, {"conceptId": "C123679", "definition": "Exacerbations of Chronic Pulmonary Disease Tool Patient-Reported Outcome - Were you short of breath today when performing your usual activities outside the home such as yard work or errands?", "preferredTerm": "EXACT - Short of Breath When Performing Usual Activities Outside", "submissionValue": "EXACT1-Short Breath Outside Activities", "synonyms": ["EXACT1-Short Breath Outside Activities"]}, {"conceptId": "C123677", "definition": "Exacerbations of Chronic Pulmonary Disease Tool Patient-Reported Outcome - Were you short of breath today when performing your usual personal care activities like washing or dressing?", "preferredTerm": "EXACT - Short of Breath When Performing Usual Personal Care", "submissionValue": "EXACT1-Short Breath Personal Care", "synonyms": ["EXACT1-Short Breath Personal Care"]}, {"conceptId": "C123680", "definition": "Exacerbations of Chronic Pulmonary Disease Tool Patient-Reported Outcome - Were you tired or weak today?", "preferredTerm": "EXACT - Tired or Weak", "submissionValue": "EXACT1-Tired or Weak", "synonyms": ["EXACT1-Tired or Weak"]}, {"conceptId": "C123682", "definition": "Exacerbations of Chronic Pulmonary Disease Tool Patient-Reported Outcome - How scared or worried were you about your lung problems today?", "preferredTerm": "EXACT - Worried About Lung Problems", "submissionValue": "EXACT1-Worried About Lung Problems", "synonyms": ["EXACT1-Worried About Lung Problems"]}]}