{"_links": {"parentPackage": {"href": "/mdr/ct/packages/sdtmct-2023-06-30", "title": "SDTM Controlled Terminology Package 54 Effective 2023-06-30", "type": "Terminology"}, "priorVersion": {"href": "/mdr/ct/packages/sdtmct-2023-03-31/codelists/C124675", "title": "CDISC Clinical Classification WHO Clinical Staging of HIV/AIDS for Children Test Name Terminology", "type": "Code List"}, "rootItem": {"href": "/mdr/root/ct/sdtmct/codelists/C124675", "title": "Version-agnostic anchor resource for codelist C124675", "type": "Root Value Domain"}, "self": {"href": "/mdr/ct/packages/sdtmct-2023-06-30/codelists/C124675", "title": "CDISC Clinical Classification WHO Clinical Staging of HIV/AIDS for Children Test Name Terminology", "type": "Code List"}}, "conceptId": "C124675", "definition": "WHO Clinical Staging of HIV/AIDS for Children test name.", "extensible": "false", "name": "WHO Clinical Staging of HIV/AIDS for Children Clinical Classification Test Name", "preferredTerm": "CDISC Clinical Classification WHO Clinical Staging of HIV/AIDS for Children Test Name Terminology", "submissionValue": "WHIVS2TN", "synonyms": ["WHO Clinical Staging of HIV/AIDS for Children Clinical Classification Test Name"], "terms": [{"conceptId": "C124778", "definition": "WHO Clinical Staging of HIV/AIDS for Children - WHO clinical stage of HIV/AIDS.", "preferredTerm": "WHO Clinical Staging of HIV/AIDS for Children - WHO Clinical Stage of HIV/AIDS", "submissionValue": "WHIVS2-WHO Clinical Stage of HIV/AIDS", "synonyms": ["WHIVS2-WHO Clinical Stage of HIV/AIDS"]}]}