{"_links": {"parentPackage": {"href": "/mdr/ct/packages/sdtmct-2023-06-30", "title": "SDTM Controlled Terminology Package 54 Effective 2023-06-30", "type": "Terminology"}, "priorVersion": {"href": "/mdr/ct/packages/sdtmct-2023-03-31/codelists/C127266", "title": "CDISC SDTM Tuberculosis Findings About Test Code Terminology", "type": "Code List"}, "rootItem": {"href": "/mdr/root/ct/sdtmct/codelists/C127266", "title": "Version-agnostic anchor resource for codelist C127266", "type": "Root Value Domain"}, "self": {"href": "/mdr/ct/packages/sdtmct-2023-06-30/codelists/C127266", "title": "CDISC SDTM Tuberculosis Findings About Test Code Terminology", "type": "Code List"}}, "conceptId": "C127266", "definition": "Terminology relevant to the test codes that describe findings about a tuberculosis event or intervention.", "extensible": "true", "name": "Tuberculosis Findings About Test Code", "preferredTerm": "CDISC SDTM Tuberculosis Findings About Test Code Terminology", "submissionValue": "TBFATSCD", "synonyms": ["Tuberculosis Findings About Test Code"], "terms": [{"conceptId": "C102626", "definition": "The state or condition of not responding to a pharmacological agent.", "preferredTerm": "Drug Resistance Status", "submissionValue": "DRSTAT", "synonyms": ["Drug Resistance Status"]}, {"conceptId": "C96684", "definition": "The longest possible length of a straight line passing through the center of a circular or spheroid object that connects two points on the circumference.", "preferredTerm": "Longest Diameter", "submissionValue": "LDIAM", "synonyms": ["Longest Diameter"]}, {"conceptId": "C127786", "definition": "An indication as to whether something has happened, such as an event or incident.", "preferredTerm": "Occurrence Indicator", "submissionValue": "OCCUR", "synonyms": ["Occurrence Indicator"]}, {"conceptId": "C127787", "definition": "A measurement of the total number of entities.", "preferredTerm": "Total Number", "submissionValue": "TOTNUM", "synonyms": ["Total Number"]}]}