{"_links": {"parentPackage": {"href": "/mdr/ct/packages/sdtmct-2023-06-30", "title": "SDTM Controlled Terminology Package 54 Effective 2023-06-30", "type": "Terminology"}, "priorVersion": {"href": "/mdr/ct/packages/sdtmct-2023-03-31/codelists/C130256", "title": "CDISC Questionnaire FACT-LYM Version 4 Test Name Terminology", "type": "Code List"}, "rootItem": {"href": "/mdr/root/ct/sdtmct/codelists/C130256", "title": "Version-agnostic anchor resource for codelist C130256", "type": "Root Value Domain"}, "self": {"href": "/mdr/ct/packages/sdtmct-2023-06-30/codelists/C130256", "title": "CDISC Questionnaire FACT-LYM Version 4 Test Name Terminology", "type": "Code List"}}, "conceptId": "C130256", "definition": "Functional Assessment of Cancer Therapy-Lymphoma Version 4 test name.", "extensible": "false", "name": "Functional Assessment of Cancer Therapy-Lymphoma Version 4 Questionnaire Test Name", "preferredTerm": "CDISC Questionnaire FACT-LYM Version 4 Test Name Terminology", "submissionValue": "FAC018TN", "synonyms": ["Functional Assessment of Cancer Therapy-Lymphoma Version 4 Questionnaire Test Name"], "terms": [{"conceptId": "C130531", "definition": "Functional Assessment of Cancer Therapy-Lymphoma Version 4 - Additional Concerns: I am bothered by lumps or swelling in certain parts of my body (e.g., neck, armpits, or groin).", "preferredTerm": "FACT-LYM Version 4 - Bothered by Lumps or Swelling", "submissionValue": "FAC018-Bothered by Lumps or Swelling", "synonyms": ["FAC018-Bothered by Lumps or Swelling"]}, {"conceptId": "C130507", "definition": "Functional Assessment of Cancer Therapy-Lymphoma Version 4 - Physical Well-Being: I am bothered by side effects of treatment.", "preferredTerm": "FACT-LYM Version 4 - Bothered by Treatment Side Effect", "submissionValue": "FAC018-Bothered by Treatment Side Effect", "synonyms": ["FAC018-Bothered by Treatment Side Effect"]}, {"conceptId": "C130530", "definition": "Functional Assessment of Cancer Therapy-Lymphoma Version 4 - Additional Concerns: I have certain parts of my body where I experience pain.", "preferredTerm": "FACT-LYM Version 4 - Certain Parts of Body Have Pain", "submissionValue": "FAC018-Certain Parts of Body Have Pain", "synonyms": ["FAC018-Certain Parts of Body Have Pain"]}, {"conceptId": "C130529", "definition": "Functional Assessment of Cancer Therapy-Lymphoma Version 4 - Functional Well-Being: I am content with the quality of my life right now.", "preferredTerm": "FACT-LYM Version 4 - Content With Quality of My Life", "submissionValue": "FAC018-Content With Quality of My Life", "synonyms": ["FAC018-Content With Quality of My Life"]}, {"conceptId": "C130544", "definition": "Functional Assessment of Cancer Therapy-Lymphoma Version 4 - Additional Concerns: Because of my illness, I have difficulty planning for the future.", "preferredTerm": "FACT-LYM Version 4 - Difficulty Planning for Future", "submissionValue": "FAC018-Difficulty Planning for Future", "synonyms": ["FAC018-Difficulty Planning for Future"]}, {"conceptId": "C130528", "definition": "Functional Assessment of Cancer Therapy-Lymphoma Version 4 - Functional Well-Being: I am enjoying the things I usually do for fun.", "preferredTerm": "FACT-LYM Version 4 - Enjoy Things I Usually Do for Fun", "submissionValue": "FAC018-Enjoy Things I Usually Do for Fun", "synonyms": ["FAC018-Enjoy Things I Usually Do for Fun"]}, {"conceptId": "C130542", "definition": "Functional Assessment of Cancer Therapy-Lymphoma Version 4 - Additional Concerns: I feel isolated from others because of my illness or treatment.", "preferredTerm": "FACT-LYM Version 4 - Feel Isolated Because of Illness", "submissionValue": "FAC018-Feel Isolated Because of Illness", "synonyms": ["FAC018-Feel Isolated Because of Illness"]}, {"conceptId": "C130511", "definition": "Functional Assessment of Cancer Therapy-Lymphoma Version 4 - Social/Family Well-Being: I get emotional support from my family.", "preferredTerm": "FACT-LYM Version 4 - Get Emotional Support From Family", "submissionValue": "FAC018-Get Emotional Support From Family", "synonyms": ["FAC018-Get Emotional Support From Family"]}, {"conceptId": "C130525", "definition": "Functional Assessment of Cancer Therapy-Lymphoma Version 4 - Functional Well-Being: I am able to enjoy life.", "preferredTerm": "FACT-LYM Version 4 - I Am Able to Enjoy Life", "submissionValue": "FAC018-I Am Able to Enjoy Life", "synonyms": ["FAC018-I Am Able to Enjoy Life"]}, {"conceptId": "C130523", "definition": "Functional Assessment of Cancer Therapy-Lymphoma Version 4 - Functional Well-Being: I am able to work (include work at home).", "preferredTerm": "FACT-LYM Version 4 - I Am Able to Work", "submissionValue": "FAC018-I Am Able to Work", "synonyms": ["FAC018-I Am Able to Work"]}, {"conceptId": "C130532", "definition": "Functional Assessment of Cancer Therapy-Lymphoma Version 4 - Additional Concerns: I am bothered by fevers (episodes of high body temperature).", "preferredTerm": "FACT-LYM Version 4 - I Am Bothered by Fevers", "submissionValue": "FAC018-I Am Bothered by Fevers", "synonyms": ["FAC018-I Am Bothered by Fevers"]}, {"conceptId": "C130534", "definition": "Functional Assessment of Cancer Therapy-Lymphoma Version 4 - Additional Concerns: I am bothered by itching.", "preferredTerm": "FACT-LYM Version 4 - I Am Bothered by Itching", "submissionValue": "FAC018-I Am Bothered by Itching", "synonyms": ["FAC018-I Am Bothered by Itching"]}, {"conceptId": "C130509", "definition": "Functional Assessment of Cancer Therapy-Lymphoma Version 4 - Physical Well-Being: I am forced to spend time in bed.", "preferredTerm": "FACT-LYM Version 4 - I Am Forced to Spend Time in Bed", "submissionValue": "FAC018-I Am Forced to Spend Time in Bed", "synonyms": ["FAC018-I Am Forced to Spend Time in Bed"]}, {"conceptId": "C130537", "definition": "Functional Assessment of Cancer Therapy-Lymphoma Version 4 - Additional Concerns: I am losing weight.", "preferredTerm": "FACT-LYM Version 4 - I Am Losing Weight", "submissionValue": "FAC018-I Am Losing Weight", "synonyms": ["FAC018-I Am Losing Weight"]}, {"conceptId": "C130516", "definition": "Functional Assessment of Cancer Therapy-Lymphoma Version 4 - Social/Family Well-Being: I am satisfied with my sex life.", "preferredTerm": "FACT-LYM Version 4 - I Am Satisfied With My Sex Life", "submissionValue": "FAC018-I Am Satisfied With My Sex Life", "synonyms": ["FAC018-I Am Satisfied With My Sex Life"]}, {"conceptId": "C130527", "definition": "Functional Assessment of Cancer Therapy-Lymphoma Version 4 - Functional Well-Being: I am sleeping well.", "preferredTerm": "FACT-LYM Version 4 - I Am Sleeping Well", "submissionValue": "FAC018-I Am Sleeping Well", "synonyms": ["FAC018-I Am Sleeping Well"]}, {"conceptId": "C130510", "definition": "Functional Assessment of Cancer Therapy-Lymphoma Version 4 - Social/Family Well-Being: I feel close to my friends.", "preferredTerm": "FACT-LYM Version 4 - I Feel Close to My Friends", "submissionValue": "FAC018-I Feel Close to My Friends", "synonyms": ["FAC018-I Feel Close to My Friends"]}, {"conceptId": "C130515", "definition": "Functional Assessment of Cancer Therapy-Lymphoma Version 4 - Social/Family Well-Being: I feel close to my partner (or the person who is my main support).", "preferredTerm": "FACT-LYM Version 4 - I Feel Close to My Partner", "submissionValue": "FAC018-I Feel Close to My Partner", "synonyms": ["FAC018-I Feel Close to My Partner"]}, {"conceptId": "C130508", "definition": "Functional Assessment of Cancer Therapy-Lymphoma Version 4 - Physical Well-Being: I feel ill.", "preferredTerm": "FACT-LYM Version 4 - I Feel Ill", "submissionValue": "FAC018-I Feel Ill", "synonyms": ["FAC018-I Feel Ill"]}, {"conceptId": "C130520", "definition": "Functional Assessment of Cancer Therapy-Lymphoma Version 4 - Emotional Well-Being: I feel nervous.", "preferredTerm": "FACT-LYM Version 4 - I Feel Nervous", "submissionValue": "FAC018-I Feel Nervous", "synonyms": ["FAC018-I Feel Nervous"]}, {"conceptId": "C130517", "definition": "Functional Assessment of Cancer Therapy-Lymphoma Version 4 - Emotional Well-Being: I feel sad.", "preferredTerm": "FACT-LYM Version 4 - I Feel Sad", "submissionValue": "FAC018-I Feel Sad", "synonyms": ["FAC018-I Feel Sad"]}, {"conceptId": "C130512", "definition": "Functional Assessment of Cancer Therapy-Lymphoma Version 4 - Social/Family Well-Being: I get support from my friends.", "preferredTerm": "FACT-LYM Version 4 - I Get Support From My Friends", "submissionValue": "FAC018-I Get Support From My Friends", "synonyms": ["FAC018-I Get Support From My Friends"]}, {"conceptId": "C130536", "definition": "Functional Assessment of Cancer Therapy-Lymphoma Version 4 - Additional Concerns: I get tired easily.", "preferredTerm": "FACT-LYM Version 4 - I Get Tired Easily", "submissionValue": "FAC018-I Get Tired Easily", "synonyms": ["FAC018-I Get Tired Easily"]}, {"conceptId": "C130503", "definition": "Functional Assessment of Cancer Therapy-Lymphoma Version 4 - Physical Well-Being: I have a lack of energy.", "preferredTerm": "FACT-LYM Version 4 - I Have a Lack of Energy", "submissionValue": "FAC018-I Have a Lack of Energy", "synonyms": ["FAC018-I Have a Lack of Energy"]}, {"conceptId": "C130538", "definition": "Functional Assessment of Cancer Therapy-Lymphoma Version 4 - Additional Concerns: I have a loss of appetite.", "preferredTerm": "FACT-LYM Version 4 - I Have a Loss of Appetite", "submissionValue": "FAC018-I Have a Loss of Appetite", "synonyms": ["FAC018-I Have a Loss of Appetite"]}, {"conceptId": "C130526", "definition": "Functional Assessment of Cancer Therapy-Lymphoma Version 4 - Functional Well-Being: I have accepted my illness.", "preferredTerm": "FACT-LYM Version 4 - I Have Accepted My Illness", "submissionValue": "FAC018-I Have Accepted My Illness", "synonyms": ["FAC018-I Have Accepted My Illness"]}, {"conceptId": "C130543", "definition": "Functional Assessment of Cancer Therapy-Lymphoma Version 4 - Additional Concerns: I have emotional ups and downs.", "preferredTerm": "FACT-LYM Version 4 - I Have Emotional Ups and Downs", "submissionValue": "FAC018-I Have Emotional Ups and Downs", "synonyms": ["FAC018-I Have Emotional Ups and Downs"]}, {"conceptId": "C130504", "definition": "Functional Assessment of Cancer Therapy-Lymphoma Version 4 - Physical Well-Being: I have nausea.", "preferredTerm": "FACT-LYM Version 4 - I Have Nausea", "submissionValue": "FAC018-I Have Nausea", "synonyms": ["FAC018-I Have Nausea"]}, {"conceptId": "C130533", "definition": "Functional Assessment of Cancer Therapy-Lymphoma Version 4 - Additional Concerns: I have night sweats.", "preferredTerm": "FACT-LYM Version 4 - I Have Night Sweats", "submissionValue": "FAC018-I Have Night Sweats", "synonyms": ["FAC018-I Have Night Sweats"]}, {"conceptId": "C130506", "definition": "Functional Assessment of Cancer Therapy-Lymphoma Version 4 - Physical Well-Being: I have pain.", "preferredTerm": "FACT-LYM Version 4 - I Have Pain", "submissionValue": "FAC018-I Have Pain", "synonyms": ["FAC018-I Have Pain"]}, {"conceptId": "C130539", "definition": "Functional Assessment of Cancer Therapy-Lymphoma Version 4 - Additional Concerns: I have trouble concentrating.", "preferredTerm": "FACT-LYM Version 4 - I Have Trouble Concentrating", "submissionValue": "FAC018-I Have Trouble Concentrating", "synonyms": ["FAC018-I Have Trouble Concentrating"]}, {"conceptId": "C130535", "definition": "Functional Assessment of Cancer Therapy-Lymphoma Version 4 - Additional Concerns: I have trouble sleeping at night.", "preferredTerm": "FACT-LYM Version 4 - I Have Trouble Sleeping at Night", "submissionValue": "FAC018-I Have Trouble Sleeping at Night", "synonyms": ["FAC018-I Have Trouble Sleeping at Night"]}, {"conceptId": "C130521", "definition": "Functional Assessment of Cancer Therapy-Lymphoma Version 4 - Emotional Well-Being: I worry about dying.", "preferredTerm": "FACT-LYM Version 4 - I Worry About Dying", "submissionValue": "FAC018-I Worry About Dying", "synonyms": ["FAC018-I Worry About Dying"]}, {"conceptId": "C130540", "definition": "Functional Assessment of Cancer Therapy-Lymphoma Version 4 - Additional Concerns: I worry about getting infections.", "preferredTerm": "FACT-LYM Version 4 - I Worry About Getting Infections", "submissionValue": "FAC018-I Worry About Getting Infections", "synonyms": ["FAC018-I Worry About Getting Infections"]}, {"conceptId": "C130519", "definition": "Functional Assessment of Cancer Therapy-Lymphoma Version 4 - Emotional Well-Being: I am losing hope in the fight against my illness.", "preferredTerm": "FACT-LYM Version 4 - Losing Hope Against Illness", "submissionValue": "FAC018-Losing Hope Against Illness", "synonyms": ["FAC018-Losing Hope Against Illness"]}, {"conceptId": "C130513", "definition": "Functional Assessment of Cancer Therapy-Lymphoma Version 4 - Social/Family Well-Being: My family has accepted my illness.", "preferredTerm": "FACT-LYM Version 4 - My Family Has Accepted My Illness", "submissionValue": "FAC018-My Family Has Accepted My Illness", "synonyms": ["FAC018-My Family Has Accepted My Illness"]}, {"conceptId": "C130524", "definition": "Functional Assessment of Cancer Therapy-Lymphoma Version 4 - Functional Well-Being: My work (include work at home) is fulfilling.", "preferredTerm": "FACT-LYM Version 4 - My Work Is Fulfilling", "submissionValue": "FAC018-My Work Is Fulfilling", "synonyms": ["FAC018-My Work Is Fulfilling"]}, {"conceptId": "C130514", "definition": "Functional Assessment of Cancer Therapy-Lymphoma Version 4 - Social/Family Well-Being: I am satisfied with family communication about my illness.", "preferredTerm": "FACT-LYM Version 4 - Satisfied With Communication About Illness", "submissionValue": "FAC018-Satisfied Communication Illness", "synonyms": ["FAC018-Satisfied Communication Illness"]}, {"conceptId": "C130518", "definition": "Functional Assessment of Cancer Therapy-Lymphoma Version 4 - Emotional Well-Being: I am satisfied with how I am coping with my illness.", "preferredTerm": "FACT-LYM Version 4 - Satisfied With How I Am Coping", "submissionValue": "FAC018-Satisfied With How I Am Coping", "synonyms": ["FAC018-Satisfied With How I Am Coping"]}, {"conceptId": "C130505", "definition": "Functional Assessment of Cancer Therapy-Lymphoma Version 4 - Physical Well-Being: Because of my physical condition, I have trouble meeting the needs of my family.", "preferredTerm": "FACT-LYM Version 4 - Trouble Meeting Needs of Family", "submissionValue": "FAC018-Trouble Meeting Needs of Family", "synonyms": ["FAC018-Trouble Meeting Needs of Family"]}, {"conceptId": "C130541", "definition": "Functional Assessment of Cancer Therapy-Lymphoma Version 4 - Additional Concerns: I worry that I might get new symptoms of my illness.", "preferredTerm": "FACT-LYM Version 4 - Worry I Might Get New Symptoms", "submissionValue": "FAC018-Worry I Might Get New Symptoms", "synonyms": ["FAC018-Worry I Might Get New Symptoms"]}, {"conceptId": "C130522", "definition": "Functional Assessment of Cancer Therapy-Lymphoma Version 4 - Emotional Well-Being: I worry that my condition will get worse.", "preferredTerm": "FACT-LYM Version 4 - Worry My Condition Will Get Worse", "submissionValue": "FAC018-Worry My Condition Will Get Worse", "synonyms": ["FAC018-Worry My Condition Will Get Worse"]}]}