{"_links": {"parentPackage": {"href": "/mdr/ct/packages/sdtmct-2023-06-30", "title": "SDTM Controlled Terminology Package 54 Effective 2023-06-30", "type": "Terminology"}, "priorVersion": {"href": "/mdr/ct/packages/sdtmct-2023-03-31/codelists/C130242", "title": "CDISC Clinical Classification HAM-D6 Clinician Version Test Name Terminology", "type": "Code List"}, "rootItem": {"href": "/mdr/root/ct/sdtmct/codelists/C130242", "title": "Version-agnostic anchor resource for codelist C130242", "type": "Root Value Domain"}, "self": {"href": "/mdr/ct/packages/sdtmct-2023-06-30/codelists/C130242", "title": "CDISC Clinical Classification HAM-D6 Clinician Version Test Name Terminology", "type": "Code List"}}, "conceptId": "C130242", "definition": "Hamilton Depression Rating Scale - 6 Clinician Version test name.", "extensible": "false", "name": "Hamilton Depression Rating Scale - 6 Clinician Version Clinical Classification Test Name", "preferredTerm": "CDISC Clinical Classification HAM-D6 Clinician Version Test Name Terminology", "submissionValue": "HAMD4TN", "synonyms": ["Hamilton Depression Rating Scale - 6 Clinician Version Clinical Classification Test Name"], "terms": [{"conceptId": "C130328", "definition": "The Hamilton Depression Rating Scale 6 - Clinician Version - Depressed mood.", "preferredTerm": "HAM-D6 - Clinician Version - Depressed Mood", "submissionValue": "HAMD4-Depressed Mood", "synonyms": ["HAMD4-Depressed Mood"]}, {"conceptId": "C130329", "definition": "The Hamilton Depression Rating Scale 6 - Clinician Version - Low self-esteem and guilt.", "preferredTerm": "HAM-D6 - Clinician Version - Low Self-esteem and Guilt", "submissionValue": "HAMD4-Low Self-esteem and Guilt", "synonyms": ["HAMD4-Low Self-esteem and Guilt"]}, {"conceptId": "C130332", "definition": "The Hamilton Depression Rating Scale 6 - Clinician Version - Psychic anxiety.", "preferredTerm": "HAM-D6 - Clinician Version - Psychic Anxiety", "submissionValue": "HAMD4-Psychic Anxiety", "synonyms": ["HAMD4-Psychic Anxiety"]}, {"conceptId": "C130331", "definition": "The Hamilton Depression Rating Scale 6 - Clinician Version - Psychomotor retardation, general.", "preferredTerm": "HAM-D6 - Clinician Version - Psychomotor Retardation, General", "submissionValue": "HAMD4-Psychomotor Retardation, General", "synonyms": ["HAMD4-Psychomotor Retardation, General"]}, {"conceptId": "C130330", "definition": "The Hamilton Depression Rating Scale 6 - Clinician Version - Social life activities and interests.", "preferredTerm": "HAM-D6 - Clinician Version - Social Life Activities or Interests", "submissionValue": "HAMD4-Social Life Activities/Interests", "synonyms": ["HAMD4-Social Life Activities/Interests"]}, {"conceptId": "C130333", "definition": "The Hamilton Depression Rating Scale 6 - Clinician Version - Tiredness and pains.", "preferredTerm": "HAM-D6 - Clinician Version - Tiredness and Pains", "submissionValue": "HAMD4-Tiredness and Pains", "synonyms": ["HAMD4-Tiredness and Pains"]}, {"conceptId": "C130334", "definition": "The Hamilton Depression Rating Scale 6 - Clinician Version - Total score.", "preferredTerm": "HAM-D6 - Clinician Version - Total Score", "submissionValue": "HAMD4-Total Score", "synonyms": ["HAMD4-Total Score"]}]}