{"_links": {"parentPackage": {"href": "/mdr/ct/packages/sdtmct-2023-06-30", "title": "SDTM Controlled Terminology Package 54 Effective 2023-06-30", "type": "Terminology"}, "priorVersion": {"href": "/mdr/ct/packages/sdtmct-2023-03-31/codelists/C135686", "title": "CDISC Questionnaire CGI Generic Modification Version Test Code Terminology", "type": "Code List"}, "rootItem": {"href": "/mdr/root/ct/sdtmct/codelists/C135686", "title": "Version-agnostic anchor resource for codelist C135686", "type": "Root Value Domain"}, "self": {"href": "/mdr/ct/packages/sdtmct-2023-06-30/codelists/C135686", "title": "CDISC Questionnaire CGI Generic Modification Version Test Code Terminology", "type": "Code List"}}, "conceptId": "C135686", "definition": "Clinical Global Impression Generic Modification Version test code.", "extensible": "false", "name": "Clinical Global Impression Generic Modification Version Questionnaire Test Code", "preferredTerm": "CDISC Questionnaire CGI Generic Modification Version Test Code Terminology", "submissionValue": "CGI02TC", "synonyms": ["Clinical Global Impression Generic Modification Version Questionnaire Test Code"], "terms": [{"conceptId": "C135814", "definition": "Clinical Global Impression - Considering your total clinical experience with this particular population, how severe is the subject's condition at this time?", "preferredTerm": "CGI Generic Modification Version - Severity", "submissionValue": "CGI0201", "synonyms": ["CGI02-Severity"]}, {"conceptId": "C135815", "definition": "Clinical Global Impression - Rate total change whether or not, in your judgement, it is due entirely to drug treatment. Compared to the subject's condition <at previously assessed protocol specified time point>, how much has the subject changed?", "preferredTerm": "CGI Generic Modification Version - Change", "submissionValue": "CGI0202", "synonyms": ["CGI02-Change"]}, {"conceptId": "C135816", "definition": "Clinical Global Impression - Rate total improvement whether or not, in your judgement, it is due entirely to drug treatment. Compared to the subject's condition <at previously assessed protocol specified time point>, how much has the subject improved?", "preferredTerm": "CGI Generic Modification Version - Improvement", "submissionValue": "CGI0203", "synonyms": ["CGI02-Improvement"]}]}