{"_links": {"parentPackage": {"href": "/mdr/ct/packages/sdtmct-2023-06-30", "title": "SDTM Controlled Terminology Package 54 Effective 2023-06-30", "type": "Terminology"}, "priorVersion": {"href": "/mdr/ct/packages/sdtmct-2023-03-31/codelists/C141666", "title": "CDISC Questionnaire IPAQ Long Last 7 Days Self-Administered Format Version Test Name Terminology", "type": "Code List"}, "rootItem": {"href": "/mdr/root/ct/sdtmct/codelists/C141666", "title": "Version-agnostic anchor resource for codelist C141666", "type": "Root Value Domain"}, "self": {"href": "/mdr/ct/packages/sdtmct-2023-06-30/codelists/C141666", "title": "CDISC Questionnaire IPAQ Long Last 7 Days Self-Administered Format Version Test Name Terminology", "type": "Code List"}}, "conceptId": "C141666", "definition": "International Physical Activity Questionnaire (October 2002) Long Last 7 Days Self-Administered Format test name.", "extensible": "false", "name": "International Physical Activity Questionnaire (October 2002) Long Last 7 Days Self-Administered Format Questionnaire Test Name", "preferredTerm": "CDISC Questionnaire IPAQ Long Last 7 Days Self-Administered Format Version Test Name Terminology", "submissionValue": "IPAQ03TN", "synonyms": ["International Physical Activity Questionnaire (October 2002) Long Last 7 Days Self-Administered Format Questionnaire Test Name"], "terms": [{"conceptId": "C141745", "definition": "International Physical Activity Questionnaire (October 2002) - Long Last 7 Days Self-Administered Format - How much time did you usually spend on one of those days to bicycle from place to place?: hours and minutes per day.", "preferredTerm": "IPAQ Long Last 7 Days Self-Administered Format Version - Bicycle Hr and Min per Day", "submissionValue": "IPA03-Bicycle Hr & Min per Day", "synonyms": ["IPA03-Bicycle Hr & Min per Day"]}, {"conceptId": "C141726", "definition": "International Physical Activity Questionnaire (October 2002) - Long Last 7 Days Self-Administered Format - Do you currently have a job or do any unpaid work outside your home?", "preferredTerm": "IPAQ Long Last 7 Days Self-Administered Format Version - Currently Have Job or Unpaid Work", "submissionValue": "IPA03-Currently Have Job or Unpaid Work", "synonyms": ["IPA03-Currently Have Job or Unpaid Work"]}, {"conceptId": "C141743", "definition": "International Physical Activity Questionnaire (October 2002) - Long Last 7 Days Self-Administered Format - During the last 7 days, on how many days did you bicycle for at least 10 minutes at a time to go from place to place?: days per week.", "preferredTerm": "IPAQ Long Last 7 Days Self-Administered Format Version - Days Bicycle Place to Place", "submissionValue": "IPA03-Days Bicycle Place to Place", "synonyms": ["IPA03-Days Bicycle Place to Place"]}, {"conceptId": "C141731", "definition": "International Physical Activity Questionnaire (October 2002) - Long Last 7 Days Self-Administered Format - During the last 7 days, on how many days did you do moderate physical activities like carrying light loads as part of your work?: days per week.", "preferredTerm": "IPAQ Long Last 7 Days Self-Administered Format Version - Days Moderate as Part of Work", "submissionValue": "IPA03-Days Moderate as Part of Work", "synonyms": ["IPA03-Days Moderate as Part of Work"]}, {"conceptId": "C141771", "definition": "International Physical Activity Questionnaire (October 2002) - Long Last 7 Days Self-Administered Format - During the last 7 days, on how many days did you do moderate physical activities like bicycling at a regular pace, swimming at a regular pace, and doubles tennis in your leisure time?: days per week.", "preferredTerm": "IPAQ Long Last 7 Days Self-Administered Format Version - Days Moderate in Leisure Time", "submissionValue": "IPA03-Days Moderate in Leisure Time", "synonyms": ["IPA03-Days Moderate in Leisure Time"]}, {"conceptId": "C141755", "definition": "International Physical Activity Questionnaire (October 2002) - Long Last 7 Days Self-Administered Format - During the last 7 days, on how many days did you do moderate activities like carrying light loads, sweeping, washing windows, and raking in the garden or yard?: days per week.", "preferredTerm": "IPAQ Long Last 7 Days Self-Administered Format Version - Days Moderate in the Garden/Yard", "submissionValue": "IPA03-Days Moderate in the Garden/Yard", "synonyms": ["IPA03-Days Moderate in the Garden/Yard"]}, {"conceptId": "C141759", "definition": "International Physical Activity Questionnaire (October 2002) - Long Last 7 Days Self-Administered Format - During the last 7 days, on how many days did you do moderate activities like carrying light loads, washing windows, scrubbing floors and sweeping inside your home?: days per week.", "preferredTerm": "IPAQ Long Last 7 Days Self-Administered Format Version - Days Moderate Inside Home", "submissionValue": "IPA03-Days Moderate Inside Home", "synonyms": ["IPA03-Days Moderate Inside Home"]}, {"conceptId": "C141739", "definition": "International Physical Activity Questionnaire (October 2002) - Long Last 7 Days Self-Administered Format - During the last 7 days, on how many days did you travel in a motor vehicle like a train, bus, car or tram?: days per week.", "preferredTerm": "IPAQ Long Last 7 Days Self-Administered Format Version - Days Travel in a Motor Vehicle", "submissionValue": "IPA03-Days Travel in a Motor Vehicle", "synonyms": ["IPA03-Days Travel in a Motor Vehicle"]}, {"conceptId": "C141727", "definition": "International Physical Activity Questionnaire (October 2002) - Long Last 7 Days Self-Administered Format - During the last 7 days, on how many days did you do vigorous physical activities like heavy lifting, digging, heavy construction, or climbing up stairs as part of your work?: days per week.", "preferredTerm": "IPAQ Long Last 7 Days Self-Administered Format Version - Days Vigorous as Part of Work", "submissionValue": "IPA03-Days Vigorous as Part of Work", "synonyms": ["IPA03-Days Vigorous as Part of Work"]}, {"conceptId": "C141767", "definition": "International Physical Activity Questionnaire (October 2002) - Long Last 7 Days Self-Administered Format - During the last 7 days, on how many days did you do vigorous physical activities like aerobics, running, fast bicycling, or fast swimming in your leisure time?: days per week.", "preferredTerm": "IPAQ Long Last 7 Days Self-Administered Format Version - Days Vigorous in Leisure Time", "submissionValue": "IPA03-Days Vigorous in Leisure Time", "synonyms": ["IPA03-Days Vigorous in Leisure Time"]}, {"conceptId": "C141751", "definition": "International Physical Activity Questionnaire (October 2002) - Long Last 7 Days Self-Administered Format - During the last 7 days, on how many days did you do vigorous physical activities like heavy lifting, chopping wood, shoveling snow, or digging in the garden or yard?: days per week.", "preferredTerm": "IPAQ Long Last 7 Days Self-Administered Format Version - Days Vigorous in the Garden/Yard", "submissionValue": "IPA03-Days Vigorous in the Garden/Yard", "synonyms": ["IPA03-Days Vigorous in the Garden/Yard"]}, {"conceptId": "C141735", "definition": "International Physical Activity Questionnaire (October 2002) - Long Last 7 Days Self-Administered Format - During the last 7 days, on how many days did you walk for at least 10 minutes at a time as part of your work?: days per week.", "preferredTerm": "IPAQ Long Last 7 Days Self-Administered Format Version - Days Walk as Part of Your Work", "submissionValue": "IPA03-Days Walk as Part of Your Work", "synonyms": ["IPA03-Days Walk as Part of Your Work"]}, {"conceptId": "C141763", "definition": "International Physical Activity Questionnaire (October 2002) - Long Last 7 Days Self-Administered Format - During the last 7 days, on how many days did you walk for at least 10 minutes at a time in your leisure time?: days per week.", "preferredTerm": "IPAQ Long Last 7 Days Self-Administered Format Version - Days Walk in Leisure Time", "submissionValue": "IPA03-Days Walk in Leisure Time", "synonyms": ["IPA03-Days Walk in Leisure Time"]}, {"conceptId": "C141747", "definition": "International Physical Activity Questionnaire (October 2002) - Long Last 7 Days Self-Administered Format - During the last 7 days, on how many days did you walk for at least 10 minutes at a time to go from place to place?: days per week.", "preferredTerm": "IPAQ Long Last 7 Days Self-Administered Format Version - Days Walk Place to Place", "submissionValue": "IPA03-Days Walk Place to Place", "synonyms": ["IPA03-Days Walk Place to Place"]}, {"conceptId": "C141757", "definition": "International Physical Activity Questionnaire (October 2002) - Long Last 7 Days Self-Administered Format - How much time did you usually spend on one of those days doing moderate physical activities in the garden or yard?: hours and minutes per day.", "preferredTerm": "IPAQ Long Last 7 Days Self-Administered Format Version - Moderate Garden Hr and Min per Day", "submissionValue": "IPA03-Moderate Garden Hr & Min per Day", "synonyms": ["IPA03-Moderate Garden Hr & Min per Day"]}, {"conceptId": "C141761", "definition": "International Physical Activity Questionnaire (October 2002) - Long Last 7 Days Self-Administered Format - How much time did you usually spend on one of those days doing moderate physical activities inside your home?: hours and minutes per day.", "preferredTerm": "IPAQ Long Last 7 Days Self-Administered Format Version - Moderate Home Hr and Min per Day", "submissionValue": "IPA03-Moderate Home Hr & Min per Day", "synonyms": ["IPA03-Moderate Home Hr & Min per Day"]}, {"conceptId": "C141773", "definition": "International Physical Activity Questionnaire (October 2002) - Long Last 7 Days Self-Administered Format - How much time did you usually spend on one of those days doing moderate physical activities in your leisure time?: hours and minutes per day.", "preferredTerm": "IPAQ Long Last 7 Days Self-Administered Format Version - Moderate Leisure Hr and Min per Day", "submissionValue": "IPA03-Moderate Leisure Hr & Min per Day", "synonyms": ["IPA03-Moderate Leisure Hr & Min per Day"]}, {"conceptId": "C141733", "definition": "International Physical Activity Questionnaire (October 2002) - Long Last 7 Days Self-Administered Format - How much time did you usually spend on one of those days doing moderate physical activities as part of your work?: hours and minutes per day.", "preferredTerm": "IPAQ Long Last 7 Days Self-Administered Format Version - Moderate Work Hr and Min per Day", "submissionValue": "IPA03-Moderate Work Hr & Min per Day", "synonyms": ["IPA03-Moderate Work Hr & Min per Day"]}, {"conceptId": "C141775", "definition": "International Physical Activity Questionnaire (October 2002) - Long Last 7 Days Self-Administered Format - During the last 7 days, how much time did you usually spend sitting on a weekday?: hours and minutes per day.", "preferredTerm": "IPAQ Long Last 7 Days Self-Administered Format Version - Sitting Weekday Hr and Min per Day", "submissionValue": "IPA03-Sitting Weekday Hr & Min per Day", "synonyms": ["IPA03-Sitting Weekday Hr & Min per Day"]}, {"conceptId": "C141777", "definition": "International Physical Activity Questionnaire (October 2002) - Long Last 7 Days Self-Administered Format - During the last 7 days, how much time did you usually spend sitting on a weekend day?: hours and minutes per day.", "preferredTerm": "IPAQ Long Last 7 Days Self-Administered Format Version - Sitting Weekend Hr and Min per Day", "submissionValue": "IPA03-Sitting Weekend Hr & Min per Day", "synonyms": ["IPA03-Sitting Weekend Hr & Min per Day"]}, {"conceptId": "C141741", "definition": "International Physical Activity Questionnaire (October 2002) - Long Last 7 Days Self-Administered Format - How much time did you usually spend on one of those days traveling in a train, bus, car, tram, or other kind of motor vehicle?: hours and minutes per day.", "preferredTerm": "IPAQ Long Last 7 Days Self-Administered Format Version - Traveling Hr and Min per Day", "submissionValue": "IPA03-Traveling Hr & Min per Day", "synonyms": ["IPA03-Traveling Hr & Min per Day"]}, {"conceptId": "C141753", "definition": "International Physical Activity Questionnaire (October 2002) - Long Last 7 Days Self-Administered Format - How much time did you usually spend on one of those days doing vigorous physical activities in the garden or yard?: hours and minutes per day.", "preferredTerm": "IPAQ Long Last 7 Days Self-Administered Format Version - Vigorous Garden Hr and Min per Day", "submissionValue": "IPA03-Vigorous Garden Hr & Min per Day", "synonyms": ["IPA03-Vigorous Garden Hr & Min per Day"]}, {"conceptId": "C141769", "definition": "International Physical Activity Questionnaire (October 2002) - Long Last 7 Days Self-Administered Format - How much time did you usually spend on one of those days doing vigorous physical activities in your leisure time?: hours and minutes per day.", "preferredTerm": "IPAQ Long Last 7 Days Self-Administered Format Version - Vigorous Leisure Hr and Min per Day", "submissionValue": "IPA03-Vigorous Leisure Hr & Min per Day", "synonyms": ["IPA03-Vigorous Leisure Hr & Min per Day"]}, {"conceptId": "C141729", "definition": "International Physical Activity Questionnaire (October 2002) - Long Last 7 Days Self-Administered Format - How much time did you usually spend on one of those days doing vigorous physical activities as part of your work?: hours and minutes per day.", "preferredTerm": "IPAQ Long Last 7 Days Self-Administered Format Version - Vigorous Work Hr and Min per Day", "submissionValue": "IPA03-Vigorous Work Hr & Min per Day", "synonyms": ["IPA03-Vigorous Work Hr & Min per Day"]}, {"conceptId": "C141765", "definition": "International Physical Activity Questionnaire (October 2002) - Long Last 7 Days Self-Administered Format - How much time did you usually spend on one of those days walking in your leisure time?: hours and minutes per day.", "preferredTerm": "IPAQ Long Last 7 Days Self-Administered Format Version - Walking Leisure Hr and Min per Day", "submissionValue": "IPA03-Walking Leisure Hr & Min per Day", "synonyms": ["IPA03-Walking Leisure Hr & Min per Day"]}, {"conceptId": "C141749", "definition": "International Physical Activity Questionnaire (October 2002) - Long Last 7 Days Self-Administered Format - How much time did you usually spend on one of those days walking from place to place?: hours and minutes per day.", "preferredTerm": "IPAQ Long Last 7 Days Self-Administered Format Version - Walking Place Hr and Min per Day", "submissionValue": "IPA03-Walking Place Hr & Min per Day", "synonyms": ["IPA03-Walking Place Hr & Min per Day"]}, {"conceptId": "C141737", "definition": "International Physical Activity Questionnaire (October 2002) - Long Last 7 Days Self-Administered Format - How much time did you usually spend on one of those days walking as part of your work?: hours and minutes per day.", "preferredTerm": "IPAQ Long Last 7 Days Self-Administered Format Version - Walking Work Hr and Min per Day", "submissionValue": "IPA03-Walking Work Hr & Min per Day", "synonyms": ["IPA03-Walking Work Hr & Min per Day"]}]}