{"_links": {"parentPackage": {"href": "/mdr/ct/packages/sdtmct-2023-06-30", "title": "SDTM Controlled Terminology Package 54 Effective 2023-06-30", "type": "Terminology"}, "priorVersion": {"href": "/mdr/ct/packages/sdtmct-2023-03-31/codelists/C142189", "title": "CDISC SDTM Vaccines Findings About Test Name Terminology", "type": "Code List"}, "rootItem": {"href": "/mdr/root/ct/sdtmct/codelists/C142189", "title": "Version-agnostic anchor resource for codelist C142189", "type": "Root Value Domain"}, "self": {"href": "/mdr/ct/packages/sdtmct-2023-06-30/codelists/C142189", "title": "CDISC SDTM Vaccines Findings About Test Name Terminology", "type": "Code List"}}, "conceptId": "C142189", "definition": "Terminology relevant to the test names that describe findings about a vaccines event or intervention.", "extensible": "true", "name": "Vaccines Findings About Test Name", "preferredTerm": "CDISC SDTM Vaccines Findings About Test Name Terminology", "submissionValue": "VNFATS", "synonyms": ["Vaccines Findings About Test Name"], "terms": [{"conceptId": "C88069", "definition": "An indication as to whether an adverse event improves or disappears after stopping a study treatment.", "preferredTerm": "Positive Dechallenge Reaction Indicator", "submissionValue": "AE Improve/Resolve with Dechallenge Ind", "synonyms": ["AE Improve/Resolve with Dechallenge Ind", "AE Improve/Resolve with Dechallenge Indicator"]}, {"conceptId": "C88070", "definition": "An indication as to whether an adverse event reappears or worsens after restarting a study treatment.", "preferredTerm": "Positive Rechallenge Indicator", "submissionValue": "AE Reappear/Worsen with Rechallenge Ind", "synonyms": ["AE Reappear/Worsen with Rechallenge Ind", "AE Reappear/Worsen with Rechallenge Indicator"]}, {"conceptId": "C25377", "definition": "The outward or visible aspect of an entity.", "preferredTerm": "Appearance", "submissionValue": "Appearance", "synonyms": ["Aper"]}, {"conceptId": "C198212", "definition": "Description of the distribution pattern of a finding within the examined area.", "preferredTerm": "Distribution Pattern Finding Description", "submissionValue": "Distribution", "synonyms": ["Distribution"]}, {"conceptId": "C187676", "definition": "The circumferential measurement of an entity or object of interest at its widest point.", "preferredTerm": "Greatest Circumference at Point of Interest", "submissionValue": "Greatest Circ at Point of Interest", "synonyms": ["Greatest Circ at Point of Interest", "Greatest Circumference at Point of Interest", "Largest Circumference at Point of Interest"]}, {"conceptId": "C96684", "definition": "The longest possible length of a straight line passing through the center of a circular or spheroid object that connects two points on the circumference.", "preferredTerm": "Longest Diameter", "submissionValue": "Longest Diameter", "synonyms": ["Longest Diameter"]}, {"conceptId": "C187675", "definition": "The anatomical joint in closest proximity to the entity or object of interest.", "preferredTerm": "Nearest Joint", "submissionValue": "Nearest Joint", "synonyms": ["Nearest Joint"]}, {"conceptId": "C101687", "definition": "A number representing the outer diameter of a needle. (NCI)", "preferredTerm": "Needle Gauge", "submissionValue": "Needle Gauge", "synonyms": ["Needle Gauge"]}, {"conceptId": "C124281", "definition": "The total number of episodes that have occurred for the condition.", "preferredTerm": "Number of Episodes", "submissionValue": "Number of Episodes", "synonyms": ["Number of Episodes"]}, {"conceptId": "C174277", "definition": "The number of lesions observed.", "preferredTerm": "Number of Lesions", "submissionValue": "Number of Lesions", "synonyms": ["Number of Lesions"]}, {"conceptId": "C127786", "definition": "An indication as to whether something has happened, such as an event or incident.", "preferredTerm": "Occurrence Indicator", "submissionValue": "Occurrence Indicator", "synonyms": ["Occurrence Indicator"]}, {"conceptId": "C184724", "definition": "An indication as to whether the event or intervention prevents or has prevented the performance of daily activities.", "preferredTerm": "Prevents Daily Activities Indicator", "submissionValue": "Prevents Daily Activities Indicator", "synonyms": ["Prevents Daily Activities Indicator"]}, {"conceptId": "C198213", "definition": "An indicator as to whether the subject has symptoms of itchiness.", "preferredTerm": "Pruritus Indicator", "submissionValue": "Pruritus Indicator", "synonyms": ["Pruritus Indicator"]}, {"conceptId": "C25676", "definition": "The degree of something undesirable.", "preferredTerm": "Severity", "submissionValue": "Severity/Intensity", "synonyms": ["Severity/Intensity"]}, {"conceptId": "C82528", "definition": "A standardized categorical classification of the severity of an event or finding.", "preferredTerm": "Toxicity Grade", "submissionValue": "Toxicity Grade", "synonyms": ["Toxicity Grade"]}]}