{"_links": {"parentPackage": {"href": "/mdr/ct/packages/sdtmct-2023-06-30", "title": "SDTM Controlled Terminology Package 54 Effective 2023-06-30", "type": "Terminology"}, "priorVersion": {"href": "/mdr/ct/packages/sdtmct-2023-03-31/codelists/C150792", "title": "CDISC Questionnaire SIQ-JR Test Code Terminology", "type": "Code List"}, "rootItem": {"href": "/mdr/root/ct/sdtmct/codelists/C150792", "title": "Version-agnostic anchor resource for codelist C150792", "type": "Root Value Domain"}, "self": {"href": "/mdr/ct/packages/sdtmct-2023-06-30/codelists/C150792", "title": "CDISC Questionnaire SIQ-JR Test Code Terminology", "type": "Code List"}}, "conceptId": "C150792", "definition": "Suicidal Ideation Questionnaire-JR test code.", "extensible": "false", "name": "Suicidal Ideation Questionnaire-JR Questionnaire Test Code", "preferredTerm": "CDISC Questionnaire SIQ-JR Test Code Terminology", "submissionValue": "SIQ02TC", "synonyms": ["Suicidal Ideation Questionnaire-JR Questionnaire Test Code"], "terms": [{"conceptId": "C151369", "definition": "Suicidal Ideation Questionnaire-JR - I thought it would be better if I was not live.", "preferredTerm": "SIQ-JR - Would Be Better If I Was Not Alive", "submissionValue": "SIQ0201", "synonyms": ["SIQ02-Would Be Better If I Was Not Alive"]}, {"conceptId": "C151370", "definition": "Suicidal Ideation Questionnaire-JR - I thought about killing myself.", "preferredTerm": "SIQ-JR - I Thought About Killing Myself", "submissionValue": "SIQ0202", "synonyms": ["SIQ02-I Thought About Killing Myself"]}, {"conceptId": "C151371", "definition": "Suicidal Ideation Questionnaire-JR - I thought about how I would kill myself.", "preferredTerm": "SIQ-JR - I Thought How I Would Kill Myself", "submissionValue": "SIQ0203", "synonyms": ["SIQ02-I Thought How I Would Kill Myself"]}, {"conceptId": "C151372", "definition": "Suicidal Ideation Questionnaire-JR - I thought about when I would kill myself.", "preferredTerm": "SIQ-JR - I Thought When I Would Kill Myself", "submissionValue": "SIQ0204", "synonyms": ["SIQ02-I Thought When I Would Kill Myself"]}, {"conceptId": "C151373", "definition": "Suicidal Ideation Questionnaire-JR - I thought about people dying.", "preferredTerm": "SIQ-JR - I Thought About People Dying", "submissionValue": "SIQ0205", "synonyms": ["SIQ02-I Thought About People Dying"]}, {"conceptId": "C151374", "definition": "Suicidal Ideation Questionnaire-JR - I thought about death.", "preferredTerm": "SIQ-JR - I Thought About Death", "submissionValue": "SIQ0206", "synonyms": ["SIQ02-I Thought About Death"]}, {"conceptId": "C151375", "definition": "Suicidal Ideation Questionnaire-JR - I thought about what to write in a suicide note.", "preferredTerm": "SIQ-JR - What to Write in a Suicide Note", "submissionValue": "SIQ0207", "synonyms": ["SIQ02-What to Write in a Suicide Note"]}, {"conceptId": "C151376", "definition": "Suicidal Ideation Questionnaire-JR - I thought about writing a will.", "preferredTerm": "SIQ-JR - I Thought About Writing a Will", "submissionValue": "SIQ0208", "synonyms": ["SIQ02-I Thought About Writing a Will"]}, {"conceptId": "C151377", "definition": "Suicidal Ideation Questionnaire-JR - I thought about telling people I plan to kill myself.", "preferredTerm": "SIQ-JR - Tell People I Plan to Kill Myself", "submissionValue": "SIQ0209", "synonyms": ["SIQ02-Tell People I Plan to Kill Myself"]}, {"conceptId": "C151378", "definition": "Suicidal Ideation Questionnaire-JR - I thought about how people would feel if I killed myself.", "preferredTerm": "SIQ-JR - How People Feel If I Killed Myself", "submissionValue": "SIQ0210", "synonyms": ["SIQ02-How People Feel If I Killed Myself"]}, {"conceptId": "C151379", "definition": "Suicidal Ideation Questionnaire-JR - I wished I were dead.", "preferredTerm": "SIQ-JR - I Wished I Were Dead", "submissionValue": "SIQ0211", "synonyms": ["SIQ02-I Wished I Were Dead"]}, {"conceptId": "C151380", "definition": "Suicidal Ideation Questionnaire-JR - I thought that killing myself would solve my problems.", "preferredTerm": "SIQ-JR - Killing Myself Would Solve Problem", "submissionValue": "SIQ0212", "synonyms": ["SIQ02-Killing Myself Would Solve Problem"]}, {"conceptId": "C151381", "definition": "Suicidal Ideation Questionnaire-JR - I thought that others would be happier if I was dead.", "preferredTerm": "SIQ-JR - Others Be Happier If I Was Dead", "submissionValue": "SIQ0213", "synonyms": ["SIQ02-Others Be Happier If I Was Dead"]}, {"conceptId": "C151382", "definition": "Suicidal Ideation Questionnaire-JR - I wished that I had never been born.", "preferredTerm": "SIQ-JR - Wished I Had Never Been Born", "submissionValue": "SIQ0214", "synonyms": ["SIQ02-Wished I Had Never Been Born"]}, {"conceptId": "C151383", "definition": "Suicidal Ideation Questionnaire-JR - I thought that no one cared if I lived or died.", "preferredTerm": "SIQ-JR - No One Cared If I Lived or Died", "submissionValue": "SIQ0215", "synonyms": ["SIQ02-No One Cared If I Lived or Died"]}, {"conceptId": "C151384", "definition": "Suicidal Ideation Questionnaire-JR - TS (total raw score).", "preferredTerm": "SIQ-JR - TS", "submissionValue": "SIQ0216", "synonyms": ["SIQ02-TS"]}, {"conceptId": "C151385", "definition": "Suicidal Ideation Questionnaire-JR - Total standardization sample %.", "preferredTerm": "SIQ-JR - Total %", "submissionValue": "SIQ0217", "synonyms": ["SIQ02-Total %"]}, {"conceptId": "C151386", "definition": "Suicidal Ideation Questionnaire-JR - Specific standardization %: Sample 1.", "preferredTerm": "SIQ-JR - Specific %: Standard Sample 1", "submissionValue": "SIQ0218", "synonyms": ["SIQ02-Specific %: Standard Sample 1"]}, {"conceptId": "C151387", "definition": "Suicidal Ideation Questionnaire-JR - Specific standardization %: Sample 2.", "preferredTerm": "SIQ-JR - Specific %: Standard Sample 2", "submissionValue": "SIQ0219", "synonyms": ["SIQ02-Specific %: Standard Sample 2"]}, {"conceptId": "C151388", "definition": "Suicidal Ideation Questionnaire-JR - Specific standardization %: Sample 3.", "preferredTerm": "SIQ-JR - Specific %: Standard Sample 3", "submissionValue": "SIQ0220", "synonyms": ["SIQ02-Specific %: Standard Sample 3"]}, {"conceptId": "C151389", "definition": "Suicidal Ideation Questionnaire-JR - Critical item 1.", "preferredTerm": "SIQ-JR - Critical Item 1", "submissionValue": "SIQ0221", "synonyms": ["SIQ02-Critical Item 1"]}, {"conceptId": "C151390", "definition": "Suicidal Ideation Questionnaire-JR - Critical item 2.", "preferredTerm": "SIQ-JR - Critical Item 2", "submissionValue": "SIQ0222", "synonyms": ["SIQ02-Critical Item 2"]}, {"conceptId": "C151391", "definition": "Suicidal Ideation Questionnaire-JR - Critical item 3.", "preferredTerm": "SIQ-JR - Critical Item 3", "submissionValue": "SIQ0223", "synonyms": ["SIQ02-Critical Item 3"]}, {"conceptId": "C151392", "definition": "Suicidal Ideation Questionnaire-JR - Critical item 4.", "preferredTerm": "SIQ-JR - Critical Item 4", "submissionValue": "SIQ0224", "synonyms": ["SIQ02-Critical Item 4"]}, {"conceptId": "C151393", "definition": "Suicidal Ideation Questionnaire-JR - Critical item 5.", "preferredTerm": "SIQ-JR - Critical Item 5", "submissionValue": "SIQ0225", "synonyms": ["SIQ02-Critical Item 5"]}, {"conceptId": "C151394", "definition": "Suicidal Ideation Questionnaire-JR - Critical item 6.", "preferredTerm": "SIQ-JR - Critical Item 6", "submissionValue": "SIQ0226", "synonyms": ["SIQ02-Critical Item 6"]}]}