{"_links": {"parentPackage": {"href": "/mdr/ct/packages/sdtmct-2023-06-30", "title": "SDTM Controlled Terminology Package 54 Effective 2023-06-30", "type": "Terminology"}, "priorVersion": {"href": "/mdr/ct/packages/sdtmct-2023-03-31/codelists/C157726", "title": "CDISC Questionnaire PHQ-2 Test Name Terminology", "type": "Code List"}, "rootItem": {"href": "/mdr/root/ct/sdtmct/codelists/C157726", "title": "Version-agnostic anchor resource for codelist C157726", "type": "Root Value Domain"}, "self": {"href": "/mdr/ct/packages/sdtmct-2023-06-30/codelists/C157726", "title": "CDISC Questionnaire PHQ-2 Test Name Terminology", "type": "Code List"}}, "conceptId": "C157726", "definition": "Patient Health Questionnaire - 2 test name.", "extensible": "false", "name": "Patient Health Questionnaire - 2 Item Questionnaire Test Name", "preferredTerm": "CDISC Questionnaire PHQ-2 Test Name Terminology", "submissionValue": "PHQ04TN", "synonyms": ["Patient Health Questionnaire - 2 Item Questionnaire Test Name"], "terms": [{"conceptId": "C157730", "definition": "The Patient Health Questionnaire-2 - Over the past 2 weeks, how often have you been bothered by any of the following problems? Feeling down, depressed or hopeless.", "preferredTerm": "PHQ-2 - Feeling Down, Depressed or Hopeless", "submissionValue": "PHQ04-Feeling Down Depressed or Hopeless", "synonyms": ["PHQ04-Feeling Down Depressed or Hopeless"]}, {"conceptId": "C157729", "definition": "The Patient Health Questionnaire-2 - Over the past 2 weeks, how often have you been bothered by any of the following problems? Little interest or pleasure in doing things.", "preferredTerm": "PHQ-2 - Little Interest or Pleasure in Doing Things", "submissionValue": "PHQ04-Little Interest/Pleasure in Things", "synonyms": ["PHQ04-Little Interest/Pleasure in Things"]}]}