{"_links": {"parentPackage": {"href": "/mdr/ct/packages/sdtmct-2023-06-30", "title": "SDTM Controlled Terminology Package 54 Effective 2023-06-30", "type": "Terminology"}, "priorVersion": {"href": "/mdr/ct/packages/sdtmct-2023-03-31/codelists/C161624", "title": "CDISC Clinical Classification BPRS 1988 Version Test Name Terminology", "type": "Code List"}, "rootItem": {"href": "/mdr/root/ct/sdtmct/codelists/C161624", "title": "Version-agnostic anchor resource for codelist C161624", "type": "Root Value Domain"}, "self": {"href": "/mdr/ct/packages/sdtmct-2023-06-30/codelists/C161624", "title": "CDISC Clinical Classification BPRS 1988 Version Test Name Terminology", "type": "Code List"}}, "conceptId": "C161624", "definition": "Brief Psychiatric Rating Scale 1988 Version test name.", "extensible": "false", "name": "Brief Psychiatric Rating Scale 1988 Version Clinical Classification Test Name", "preferredTerm": "CDISC Clinical Classification BPRS 1988 Version Test Name Terminology", "submissionValue": "BPRS01TN", "synonyms": ["Brief Psychiatric Rating Scale 1988 Version Clinical Classification Test Name"], "terms": [{"conceptId": "C161742", "definition": "Brief Psychiatric Rating Scale 1988 Version - Anxiety.", "preferredTerm": "BPRS 1988 Version - Anxiety", "submissionValue": "BPRS01-Anxiety", "synonyms": ["BPRS01-Anxiety"]}, {"conceptId": "C161756", "definition": "Brief Psychiatric Rating Scale 1988 Version - Blunted affect.", "preferredTerm": "BPRS 1988 Version - Blunted Affect", "submissionValue": "BPRS01-Blunted Affect", "synonyms": ["BPRS01-Blunted Affect"]}, {"conceptId": "C161744", "definition": "Brief Psychiatric Rating Scale 1988 Version - Conceptual disorganization.", "preferredTerm": "BPRS 1988 Version - Conceptual Disorganization", "submissionValue": "BPRS01-Conceptual Disorganization", "synonyms": ["BPRS01-Conceptual Disorganization"]}, {"conceptId": "C161749", "definition": "Brief Psychiatric Rating Scale 1988 Version - Depressive mood.", "preferredTerm": "BPRS 1988 Version - Depressive Mood", "submissionValue": "BPRS01-Depressive Mood", "synonyms": ["BPRS01-Depressive Mood"]}, {"conceptId": "C161758", "definition": "Brief Psychiatric Rating Scale 1988 Version - Disorientation.", "preferredTerm": "BPRS 1988 Version - Disorientation", "submissionValue": "BPRS01-Disorientation", "synonyms": ["BPRS01-Disorientation"]}, {"conceptId": "C161743", "definition": "Brief Psychiatric Rating Scale 1988 Version - Emotional withdrawal.", "preferredTerm": "BPRS 1988 Version - Emotional Withdrawal", "submissionValue": "BPRS01-Emotional Withdrawal", "synonyms": ["BPRS01-Emotional Withdrawal"]}, {"conceptId": "C161757", "definition": "Brief Psychiatric Rating Scale 1988 Version - Excitement.", "preferredTerm": "BPRS 1988 Version - Excitement", "submissionValue": "BPRS01-Excitement", "synonyms": ["BPRS01-Excitement"]}, {"conceptId": "C161748", "definition": "Brief Psychiatric Rating Scale 1988 Version - Grandiosity.", "preferredTerm": "BPRS 1988 Version - Grandiosity", "submissionValue": "BPRS01-Grandiosity", "synonyms": ["BPRS01-Grandiosity"]}, {"conceptId": "C161745", "definition": "Brief Psychiatric Rating Scale 1988 Version - Guilt feelings.", "preferredTerm": "BPRS 1988 Version - Guilt Feelings", "submissionValue": "BPRS01-Guilt Feelings", "synonyms": ["BPRS01-Guilt Feelings"]}, {"conceptId": "C161752", "definition": "Brief Psychiatric Rating Scale 1988 Version - Hallucinatory behavior.", "preferredTerm": "BPRS 1988 Version - Hallucinatory Behavior", "submissionValue": "BPRS01-Hallucinatory Behavior", "synonyms": ["BPRS01-Hallucinatory Behavior"]}, {"conceptId": "C161750", "definition": "Brief Psychiatric Rating Scale 1988 Version - Hostility.", "preferredTerm": "BPRS 1988 Version - Hostility", "submissionValue": "BPRS01-Hostility", "synonyms": ["BPRS01-Hostility"]}, {"conceptId": "C161747", "definition": "Brief Psychiatric Rating Scale 1988 Version - Mannerisms and posturing.", "preferredTerm": "BPRS 1988 Version - Mannerisms and Posturing", "submissionValue": "BPRS01-Mannerisms and Posturing", "synonyms": ["BPRS01-Mannerisms and Posturing"]}, {"conceptId": "C161753", "definition": "Brief Psychiatric Rating Scale 1988 Version - Motor retardation.", "preferredTerm": "BPRS 1988 Version - Motor Retardation", "submissionValue": "BPRS01-Motor Retardation", "synonyms": ["BPRS01-Motor Retardation"]}, {"conceptId": "C161741", "definition": "Brief Psychiatric Rating Scale 1988 Version - Somatic concern.", "preferredTerm": "BPRS 1988 Version - Somatic Concern", "submissionValue": "BPRS01-Somatic Concern", "synonyms": ["BPRS01-Somatic Concern"]}, {"conceptId": "C161751", "definition": "Brief Psychiatric Rating Scale 1988 Version - Suspiciousness.", "preferredTerm": "BPRS 1988 Version - Suspiciousness", "submissionValue": "BPRS01-Suspiciousness", "synonyms": ["BPRS01-Suspiciousness"]}, {"conceptId": "C161746", "definition": "Brief Psychiatric Rating Scale 1988 Version - Tension.", "preferredTerm": "BPRS 1988 Version - Tension", "submissionValue": "BPRS01-Tension", "synonyms": ["BPRS01-Tension"]}, {"conceptId": "C161759", "definition": "Brief Psychiatric Rating Scale 1988 Version - Total score.", "preferredTerm": "BPRS 1988 Version - Total Score", "submissionValue": "BPRS01-Total Score", "synonyms": ["BPRS01-Total Score"]}, {"conceptId": "C161754", "definition": "Brief Psychiatric Rating Scale 1988 Version - Uncooperativeness.", "preferredTerm": "BPRS 1988 Version - Uncooperativeness", "submissionValue": "BPRS01-Uncooperativeness", "synonyms": ["BPRS01-Uncooperativeness"]}, {"conceptId": "C161755", "definition": "Brief Psychiatric Rating Scale 1988 Version - Unusual thought content.", "preferredTerm": "BPRS 1988 Version - Unusual Thought Content", "submissionValue": "BPRS01-Unusual Thought Content", "synonyms": ["BPRS01-Unusual Thought Content"]}]}