{"_links": {"parentPackage": {"href": "/mdr/ct/packages/sdtmct-2023-06-30", "title": "SDTM Controlled Terminology Package 54 Effective 2023-06-30", "type": "Terminology"}, "priorVersion": {"href": "/mdr/ct/packages/sdtmct-2023-03-31/codelists/C165643", "title": "CDISC SDTM Severity Response Terminology", "type": "Code List"}, "rootItem": {"href": "/mdr/root/ct/sdtmct/codelists/C165643", "title": "Version-agnostic anchor resource for codelist C165643", "type": "Root Value Domain"}, "self": {"href": "/mdr/ct/packages/sdtmct-2023-06-30/codelists/C165643", "title": "CDISC SDTM Severity Response Terminology", "type": "Code List"}}, "conceptId": "C165643", "definition": "Terminology relevant to a severity scale that describes the degree or intensity of a notable event or finding.", "extensible": "true", "name": "Severity Response", "preferredTerm": "CDISC SDTM Severity Response Terminology", "submissionValue": "SEVRS", "synonyms": ["Severity Response"], "terms": [{"conceptId": "C45368", "definition": "Greater or bigger in degree, quality, significance, or extent.", "preferredTerm": "Major", "submissionValue": "MAJOR"}, {"conceptId": "C70666", "definition": "Slight in degree, quality, or extent.", "preferredTerm": "Mild", "submissionValue": "MILD"}, {"conceptId": "C25570", "definition": "The smallest value in quantity or degree in a set of values.", "preferredTerm": "Minimum", "submissionValue": "MINIMAL"}, {"conceptId": "C45367", "definition": "Lesser or smaller in degree, quality, significance, or extent.", "preferredTerm": "Minor", "submissionValue": "MINOR"}, {"conceptId": "C61376", "definition": "Middling or intermediate in degree, quality or extent.", "preferredTerm": "Moderate", "submissionValue": "MODERATE"}, {"conceptId": "C70667", "definition": "Intensely bad in degree, quality, or extent.", "preferredTerm": "Severe", "submissionValue": "SEVERE"}, {"conceptId": "C17998", "definition": "Not known, not observed, not recorded, or refused. (NCI)", "preferredTerm": "Unknown", "submissionValue": "U", "synonyms": ["U", "UNK", "Unknown"]}]}