{"_links": {"parentPackage": {"href": "/mdr/ct/packages/sdtmct-2023-06-30", "title": "SDTM Controlled Terminology Package 54 Effective 2023-06-30", "type": "Terminology"}, "priorVersion": {"href": "/mdr/ct/packages/sdtmct-2023-03-31/codelists/C171442", "title": "CDISC SDTM COVID-19 Findings About Test Name Terminology", "type": "Code List"}, "rootItem": {"href": "/mdr/root/ct/sdtmct/codelists/C171442", "title": "Version-agnostic anchor resource for codelist C171442", "type": "Root Value Domain"}, "self": {"href": "/mdr/ct/packages/sdtmct-2023-06-30/codelists/C171442", "title": "CDISC SDTM COVID-19 Findings About Test Name Terminology", "type": "Code List"}}, "conceptId": "C171442", "definition": "Terminology relevant to the test names that describe findings about COVID-19 related events or interventions.", "extensible": "true", "name": "COVID-19 Findings About Test Name", "preferredTerm": "CDISC SDTM COVID-19 Findings About Test Name Terminology", "submissionValue": "C19FAT", "synonyms": ["COVID-19 Findings About Test Name"], "terms": [{"conceptId": "C199692", "definition": "The phase of the contrast agent distribution within the body after its administration.", "preferredTerm": "Contrast Agent Enhancement Phase", "submissionValue": "Contrast Enhancement Phase", "synonyms": ["Contrast Enhancement Phase"]}, {"conceptId": "C124281", "definition": "The total number of episodes that have occurred for the condition.", "preferredTerm": "Number of Episodes", "submissionValue": "Number of Episodes", "synonyms": ["Number of Episodes"]}, {"conceptId": "C127786", "definition": "An indication as to whether something has happened, such as an event or incident.", "preferredTerm": "Occurrence Indicator", "submissionValue": "Occurrence Indicator", "synonyms": ["Occurrence Indicator"]}, {"conceptId": "C25676", "definition": "The degree of something undesirable.", "preferredTerm": "Severity", "submissionValue": "Severity/Intensity", "synonyms": ["Severity/Intensity"]}]}