{"_links": {"parentPackage": {"href": "/mdr/ct/packages/sdtmct-2023-06-30", "title": "SDTM Controlled Terminology Package 54 Effective 2023-06-30", "type": "Terminology"}, "priorVersion": {"href": "/mdr/ct/packages/sdtmct-2023-03-31/codelists/C174225", "title": "CDISC SDTM Microbiology Findings Test Details Terminology", "type": "Code List"}, "rootItem": {"href": "/mdr/root/ct/sdtmct/codelists/C174225", "title": "Version-agnostic anchor resource for codelist C174225", "type": "Root Value Domain"}, "self": {"href": "/mdr/ct/packages/sdtmct-2023-06-30/codelists/C174225", "title": "CDISC SDTM Microbiology Findings Test Details Terminology", "type": "Code List"}}, "conceptId": "C174225", "definition": "Terminology relevant to the additional descriptions of the test being performed to produce the microbiology finding.", "extensible": "true", "name": "Microbiology Findings Test Details", "preferredTerm": "CDISC SDTM Microbiology Findings Test Details Terminology", "submissionValue": "MBFTSDTL", "synonyms": ["Microbiology Findings Test Details"], "terms": [{"conceptId": "C174332", "definition": "A measurement of the total cells of a pre-specified type in a specimen.", "preferredTerm": "Specified Cell Count Test", "submissionValue": "CELL COUNT"}, {"conceptId": "C174333", "definition": "A measurement of the total number of microbial colonies of a pre-specified microorganism in a specimen.", "preferredTerm": "Specified Colony Count Test", "submissionValue": "COLONY COUNT"}, {"conceptId": "C174330", "definition": "The determination of presence or absence of an entity in a specimen.", "preferredTerm": "Biological Detection Test", "submissionValue": "DETECTION"}, {"conceptId": "C164374", "definition": "The further determination and/or classification of the identity of a pre-specified entity or group of entities in a specimen. In the context of microbiology, this is likely the identification of (but is not limited to) genus, species, strains, variants, serotypes, serogroups, genotypes, etc., of a known microorganism(s).", "preferredTerm": "Biologic Entity Classification", "submissionValue": "IDENTIFICATION"}, {"conceptId": "C41255", "definition": "An act or process of elucidation; explication, or explanation of the meaning of the event or thing via the assignment of objects from the domain to the constants of a formal language, truth-values to the proposition symbols, truth-functions to the connectives, other functions to the function symbols, and extensions to the predicates, if any. The assignments are result of human logic application and are not native to the symbols of the formal language.", "preferredTerm": "Interpretation", "submissionValue": "INTERPRETATION", "synonyms": ["Interpretation"]}, {"conceptId": "C161328", "definition": "The cycle number where the fluorescence of the target is detected above the background signal or a pre-set threshold. This value may be used for the computation of the concentration of a target in a polymerase chain reaction (PCR).", "preferredTerm": "Threshold Cycle", "submissionValue": "QUANTIFICATION CYCLE NUMBER", "synonyms": ["Cp Number", "Crossing point Number", "Ct", "Ct Number", "Cycle Threshold", "Cycle Threshold #", "Cycle Threshold Number", "Elbow Value", "Take-off Point Number", "Threshold Cycle", "Threshold Cycle Number", "TOP Number"]}, {"conceptId": "C48937", "definition": "The determination of the quantity of a pre-specified analyte in a specimen.", "preferredTerm": "Quantitation", "submissionValue": "QUANTIFICATION"}, {"conceptId": "C174331", "definition": "A measurement of the total number of viral particles of a pre-specified virus in a specimen.", "preferredTerm": "Specified Viral Load Test", "submissionValue": "VIRAL LOAD"}]}