{"_links": {"parentPackage": {"href": "/mdr/ct/packages/sdtmct-2023-06-30", "title": "SDTM Controlled Terminology Package 54 Effective 2023-06-30", "type": "Terminology"}, "priorVersion": {"href": "/mdr/ct/packages/sdtmct-2023-03-31/codelists/C174223", "title": "CDISC SDTM Crohn's Disease Findings About Test Code Terminology", "type": "Code List"}, "rootItem": {"href": "/mdr/root/ct/sdtmct/codelists/C174223", "title": "Version-agnostic anchor resource for codelist C174223", "type": "Root Value Domain"}, "self": {"href": "/mdr/ct/packages/sdtmct-2023-06-30/codelists/C174223", "title": "CDISC SDTM Crohn's Disease Findings About Test Code Terminology", "type": "Code List"}}, "conceptId": "C174223", "definition": "Terminology relevant to the test codes that describe findings about Crohn's Disease event or intervention.", "extensible": "true", "name": "Crohn's Disease Findings About Test Code", "preferredTerm": "CDISC SDTM Crohn's Disease Findings About Test Code Terminology", "submissionValue": "CRFATSCD", "synonyms": ["Crohn's Disease Findings About Test Code"], "terms": [{"conceptId": "C181313", "definition": "The number of abscesses observed.", "preferredTerm": "Number of Abscesses", "submissionValue": "ABSCNUM", "synonyms": ["Number of Abscesses"]}, {"conceptId": "C174273", "definition": "The age at which illness-specific symptoms first began.", "preferredTerm": "Age Symptom Started", "submissionValue": "AGESYMST", "synonyms": ["Age Symptoms Started"]}, {"conceptId": "C181316", "definition": "An indication as to whether a biopsy specimen was collected.", "preferredTerm": "Biopsy Specimen Taken Indicator", "submissionValue": "BIOPSIND", "synonyms": ["Biopsy Specimen Taken Indicator"]}, {"conceptId": "C181317", "definition": "The total number of biopsy specimens collected.", "preferredTerm": "Number of Biopsy Specimens Taken", "submissionValue": "BIOPSNUM", "synonyms": ["Number of Biopsy Specimens Taken"]}, {"conceptId": "C181318", "definition": "A description of the appearance of the anatomical site from which a biopsy specimen has been collected.", "preferredTerm": "Pathologic Appearance of Biopsy Site", "submissionValue": "BPSPTHAP", "synonyms": ["Pathologic Appearance of Biopsy Site"]}, {"conceptId": "C176284", "definition": "An indication as to whether an individual is unable to discontinue the use of a substance due to dependence.", "preferredTerm": "Unable to Discontinue Use Due to Dependence Indicator", "submissionValue": "DCDEPIND", "synonyms": ["Unable to Discon Dependent Indicator", "Unable to Discontinue Dependent Indicator"]}, {"conceptId": "C176277", "definition": "A determination of the number of devices within a subject.", "preferredTerm": "Number of Devices Present", "submissionValue": "DEVPNUM", "synonyms": ["Number of Devices Present"]}, {"conceptId": "C174280", "definition": "The number of devices inserted into an individual.", "preferredTerm": "Number of Devices Inserted", "submissionValue": "DVCINSN", "synonyms": ["Number of Devices Inserted"]}, {"conceptId": "C181310", "definition": "An indication as to whether the subject has been on a treatment regimen which, based on defined criteria, is expected to be efficacious.", "preferredTerm": "Expected Efficacious Treatment Regimen Indicator", "submissionValue": "EXETRIND", "synonyms": ["Expected Efficacious Treatment Reg Ind", "Expected Efficacious Treatment Regimen Indicator"]}, {"conceptId": "C157443", "definition": "A description of the relative amount of tissue, blood vessel, or organ that has been removed.", "preferredTerm": "Extent of Resection", "submissionValue": "EXTRSCT", "synonyms": ["Extent of Resection"]}, {"conceptId": "C181314", "definition": "A classification based on the anatomical location(s) of the fistula.", "preferredTerm": "Fistula Anatomical Site", "submissionValue": "FISTATYP", "synonyms": ["Fistula Anatomical Type"]}, {"conceptId": "C181312", "definition": "The number of fistulas observed.", "preferredTerm": "Number of Fistulas", "submissionValue": "FISTNUM", "synonyms": ["Number of Fistulas"]}, {"conceptId": "C176280", "definition": "A determination of the final amount of a substance taken as a dose by a subject.", "preferredTerm": "Final Dose Amount", "submissionValue": "FNDOSAMT", "synonyms": ["Final Dose Amount"]}, {"conceptId": "C176281", "definition": "A determination of how often a subject takes a substance at the final dose amount.", "preferredTerm": "Frequency of Final Dose Amount", "submissionValue": "FNDOSFRQ", "synonyms": ["Frequency of Final Dose Amount"]}, {"conceptId": "C174279", "definition": "An indication as to whether the ileocecal junction was removed.", "preferredTerm": "Ileocecal Junction Removed Indicator", "submissionValue": "ICJRIND", "synonyms": ["Ileocecal Junction Removed Indicator"]}, {"conceptId": "C174278", "definition": "A measurement of the total length of the removed tissue, blood vessel, or organ.", "preferredTerm": "Length of Resection", "submissionValue": "LENRSCT", "synonyms": ["Length of Resection"]}, {"conceptId": "C174277", "definition": "The number of lesions observed.", "preferredTerm": "Number of Lesions", "submissionValue": "LESNUM", "synonyms": ["Number of Lesions"]}, {"conceptId": "C176278", "definition": "A determination of the maximum amount of a substance taken as a dose by a subject.", "preferredTerm": "Maximum Dose Amount", "submissionValue": "MXDOSAMT", "synonyms": ["Maximum Dose Amount"]}, {"conceptId": "C176279", "definition": "A determination of how often a subject takes a substance at the maximum dose amount.", "preferredTerm": "Frequency of Maximum Dose Amount", "submissionValue": "MXDOSFRQ", "synonyms": ["Frequency of Maximum Dose Amount"]}, {"conceptId": "C181311", "definition": "The longest diameter of the lesion that has been determined to be the primary lesion.", "preferredTerm": "Longest Diameter of Primary Lesion", "submissionValue": "PLLDIAM", "synonyms": ["Largest Diameter of Primary Lesion", "Longest Diameter of Primary Lesion"]}, {"conceptId": "C181315", "definition": "The anatomical location of the lesion that has been determined to be the primary lesion.", "preferredTerm": "Anatomical Location of Primary Lesion", "submissionValue": "PLLOC", "synonyms": ["Anatomical Location of Primary Lesion"]}, {"conceptId": "C174228", "definition": "The number of procedures performed on or in an individual.", "preferredTerm": "Number of Procedures Performed", "submissionValue": "PROCPRFN", "synonyms": ["Number of Procedures Performed"]}, {"conceptId": "C176283", "definition": "An indication as to whether an individual has had a relapse after discontinuation of a substance due to dependence.", "preferredTerm": "Relapse after Discontinuation Because of Dependence Indicator", "submissionValue": "RLDEPIND", "synonyms": ["Relapse after Discon Dependent Indicator", "Relapse after Discontinue Dependent Indicator"]}, {"conceptId": "C176285", "definition": "An indication as to whether an individual has become dependent on a substance.", "preferredTerm": "Substance Dependence Indicator", "submissionValue": "SBDEPIND", "synonyms": ["Substance Dependence Indicator"]}, {"conceptId": "C25676", "definition": "The degree of something undesirable.", "preferredTerm": "Severity", "submissionValue": "SEV", "synonyms": ["Severity/Intensity"]}, {"conceptId": "C174281", "definition": "The signs and/or symptoms that result in the discontinuation of treatment or intervention.", "preferredTerm": "Sign or Symptom Leading to Discontinuation", "submissionValue": "SSDISC", "synonyms": ["Sign/Symptom Leading to Discontinuation"]}, {"conceptId": "C174274", "definition": "The number of anatomical strictures observed.", "preferredTerm": "Number of Strictures", "submissionValue": "STRCTNUM", "synonyms": ["Number of Strictures"]}, {"conceptId": "C176282", "definition": "An indication as to whether an individual is incapable of reducing or tapering the amount of a substance taken due to dependence.", "preferredTerm": "Unable to Taper Dependent Indicator", "submissionValue": "TPDEPIND", "synonyms": ["Unable to Taper Dependent Indicator"]}]}