{"_links": {"parentPackage": {"href": "/mdr/ct/packages/sdtmct-2023-06-30", "title": "SDTM Controlled Terminology Package 54 Effective 2023-06-30", "type": "Terminology"}, "priorVersion": {"href": "/mdr/ct/packages/sdtmct-2023-03-31/codelists/C181179", "title": "CDISC SDTM Genomic Findings Test Name Terminology", "type": "Code List"}, "rootItem": {"href": "/mdr/root/ct/sdtmct/codelists/C181179", "title": "Version-agnostic anchor resource for codelist C181179", "type": "Root Value Domain"}, "self": {"href": "/mdr/ct/packages/sdtmct-2023-06-30/codelists/C181179", "title": "CDISC SDTM Genomic Findings Test Name Terminology", "type": "Code List"}}, "conceptId": "C181179", "definition": "Terminology relevant to the test names that describe genomic findings.", "extensible": "true", "name": "Genomic Findings Test Name", "preferredTerm": "CDISC SDTM Genomic Findings Test Name Terminology", "submissionValue": "GFTEST", "synonyms": ["Genomic Findings Test Name"], "terms": [{"conceptId": "C181330", "definition": "An assessment of the variability in the number of replicas of a gene within a genome.", "preferredTerm": "Copy Number Variation Assessment", "submissionValue": "Copy Number Variation", "synonyms": ["Copy Number Variation", "Gene Copy Number Variation"]}, {"conceptId": "C181333", "definition": "An assessment of the unique pattern of gene expression of one to many genes associated with a normal or abnormal biological process.", "preferredTerm": "Gene Signature Assessment", "submissionValue": "Gene Signature", "synonyms": ["Gene Expression Signature", "Gene Signature"]}, {"conceptId": "C181332", "definition": "An assessment of the variability in length of microsatellite sequences.", "preferredTerm": "Microsatellite Instability Length Assessment", "submissionValue": "Microsatellite Instability", "synonyms": ["Microsatellite Instability"]}, {"conceptId": "C189439", "definition": "Any product of a process affecting a nucleic acid sequence that results in the gain, loss, inversion, or translocation of nucleic acid.", "preferredTerm": "Sequence Rearrangement", "submissionValue": "Sequence Rearrangement", "synonyms": ["Sequence Rearrangement"]}, {"conceptId": "C181334", "definition": "An assessment of the variability in a short sequence of nucleotides (generally defined as 50 base pairs or less), when compared to a reference sequence.", "preferredTerm": "Short Variation Assessment", "submissionValue": "Short Variation", "synonyms": ["Short Variation"]}, {"conceptId": "C181331", "definition": "An assessment of the variability in a nucleotide found within a specified position of the genome, when compared to a reference nucleotide.", "preferredTerm": "Single Nucleotide Variation Assessment", "submissionValue": "Single Nucleotide Variation", "synonyms": ["Single Nucleotide Variation"]}, {"conceptId": "C17208", "definition": "An assessment of transcribed RNA molecules in a biological specimen.", "preferredTerm": "Transcription", "submissionValue": "Transcription", "synonyms": ["Transcription"]}, {"conceptId": "C181335", "definition": "A quantitative or qualitative assessment of the number of genomic alterations found in genetic material from tumor cells, when compared to a reference sequence.", "preferredTerm": "Tumor Mutation Burden Assessment", "submissionValue": "Tumor Mutation Burden", "synonyms": ["Tumor Mutation Burden", "Tumor Mutational Burden"]}, {"conceptId": "C189440", "definition": "An assessment of the variations in the number of tandem repeat nucleotide sequences, which are end-to-end adjacent copies of a short (2 to 60 nucleotides) DNA sequence.", "preferredTerm": "Variable Number Tandem Repeats Assessment", "submissionValue": "Variable Number Tandem Repeats", "synonyms": ["Tandem Repeat Variation", "Variable Nucleotide Tandem Repeats", "Variable Number Tandem Repeats"]}, {"conceptId": "C189441", "definition": "An assessment of the unique pattern of sequence variation of one to many loci associated with a normal or abnormal biological process.", "preferredTerm": "Variant Profile Assessment", "submissionValue": "Variant Profile", "synonyms": ["Variant Profile"]}]}