{"_links": {"parentPackage": {"href": "/mdr/ct/packages/sdtmct-2023-06-30", "title": "SDTM Controlled Terminology Package 54 Effective 2023-06-30", "type": "Terminology"}, "priorVersion": {"href": "/mdr/ct/packages/sdtmct-2023-03-31/codelists/C181165", "title": "CDISC SDTM Mode of Delivery Terminology", "type": "Code List"}, "rootItem": {"href": "/mdr/root/ct/sdtmct/codelists/C181165", "title": "Version-agnostic anchor resource for codelist C181165", "type": "Root Value Domain"}, "self": {"href": "/mdr/ct/packages/sdtmct-2023-06-30/codelists/C181165", "title": "CDISC SDTM Mode of Delivery Terminology", "type": "Code List"}}, "conceptId": "C181165", "definition": "A terminology codelist relevant to the mode of delivery of a fetus or neonate.", "extensible": "true", "name": "Mode of Delivery", "preferredTerm": "CDISC SDTM Mode of Delivery Terminology", "submissionValue": "MODDLV", "synonyms": ["Mode of Delivery"], "terms": [{"conceptId": "C114136", "definition": "The delivery of a breech-presenting fetus, which is manually pulled through the birth canal.", "preferredTerm": "Breech Extraction", "submissionValue": "BREECH EXTRACTION"}, {"conceptId": "C46088", "definition": "Surgical delivery of one or more intrauterine fetuses though an abdominal incision.", "preferredTerm": "Cesarean Section", "submissionValue": "CESAREAN SECTION", "synonyms": ["C-Section", "Cesarean Delivery"]}, {"conceptId": "C114143", "definition": "Extraction of a fetus through the cervix using destructive surgical techniques.", "preferredTerm": "Delivery by Destructive Operation", "submissionValue": "DELIVERY BY DESTRUCTIVE OPERATION"}, {"conceptId": "C81301", "definition": "Birth of the fetus through the vagina with the application of vacuum or forceps or any other instrument.", "preferredTerm": "Vaginal Assisted Delivery", "submissionValue": "VAGINAL ASSISTED DELIVERY", "synonyms": ["Operative Vaginal Delivery"]}, {"conceptId": "C81302", "definition": "A vaginal birth in a woman with one or more previous cesarean births. (reVITALize)", "preferredTerm": "Vaginal Birth after Cesarean Delivery", "submissionValue": "VAGINAL BIRTH AFTER CESAREAN DELIVERY"}, {"conceptId": "C81303", "definition": "Birth of the fetus through the vagina.", "preferredTerm": "Vaginal Delivery", "submissionValue": "VAGINAL DELIVERY"}]}