{"_links": {"parentPackage": {"href": "/mdr/ct/packages/sdtmct-2023-06-30", "title": "SDTM Controlled Terminology Package 54 Effective 2023-06-30", "type": "Terminology"}, "priorVersion": {"href": "/mdr/ct/packages/sdtmct-2023-03-31/codelists/C181171", "title": "CDISC SDTM Category for Cell Phenotyping Terminology", "type": "Code List"}, "rootItem": {"href": "/mdr/root/ct/sdtmct/codelists/C181171", "title": "Version-agnostic anchor resource for codelist C181171", "type": "Root Value Domain"}, "self": {"href": "/mdr/ct/packages/sdtmct-2023-06-30/codelists/C181171", "title": "CDISC SDTM Category for Cell Phenotyping Terminology", "type": "Code List"}}, "conceptId": "C181171", "definition": "Terminology relevant to the category of cell phenotyping tests.", "extensible": "true", "name": "Category for Cell Phenotyping", "preferredTerm": "CDISC SDTM Category for Cell Phenotyping Terminology", "submissionValue": "CPCAT", "synonyms": ["Category for Cell Phenotyping"], "terms": [{"conceptId": "C181251", "definition": "An assay type that examines a cellular pathway or biological process.", "preferredTerm": "Cell Function Assay", "submissionValue": "CELL FUNCTION"}, {"conceptId": "C181250", "definition": "An assay type that examines the types of markers or antigens associated with the cell surface, nucleus, or cytoplasm.", "preferredTerm": "Immunophenotyping Assay", "submissionValue": "IMMUNOPHENOTYPING"}, {"conceptId": "C181182", "definition": "An assay type that examines the interaction of ligands with their target biomolecules.", "preferredTerm": "Target Engagement Assay", "submissionValue": "TARGET ENGAGEMENT"}]}