{"_links": {"parentPackage": {"href": "/mdr/ct/packages/sdtmct-2023-06-30", "title": "SDTM Controlled Terminology Package 54 Effective 2023-06-30", "type": "Terminology"}, "priorVersion": {"href": "/mdr/ct/packages/sdtmct-2023-03-31/codelists/C182495", "title": "CDISC Clinical Classification Acute Physiology and Chronic Health Evaluation II APCH110 Original Response Terminology", "type": "Code List"}, "rootItem": {"href": "/mdr/root/ct/sdtmct/codelists/C182495", "title": "Version-agnostic anchor resource for codelist C182495", "type": "Root Value Domain"}, "self": {"href": "/mdr/ct/packages/sdtmct-2023-06-30/codelists/C182495", "title": "CDISC Clinical Classification Acute Physiology and Chronic Health Evaluation II APCH110 Original Response Terminology", "type": "Code List"}}, "conceptId": "C182495", "definition": "Acute Physiology and Chronic Health Evaluation II original result for APCH110 test and test code.", "extensible": "false", "name": "Acute Physiology and Chronic Health Evaluation II Clinical Classification ORRES for APCH110 TN/TC", "preferredTerm": "CDISC Clinical Classification Acute Physiology and Chronic Health Evaluation II APCH110 Original Response Terminology", "submissionValue": "APCH110OR", "synonyms": ["Acute Physiology and Chronic Health Evaluation II Clinical Classification ORRES for APCH110 TN/TC"], "terms": [{"conceptId": "C183011", "definition": "Acute Physiology and Chronic Health Evaluation II original result for APCH110-20-29.9.", "preferredTerm": "Acute Physiology and Chronic Health Evaluation II APCH110 Original Result - 20-29.9", "submissionValue": "20-29.9", "synonyms": ["APCH110-20-29.9"]}, {"conceptId": "C183010", "definition": "Acute Physiology and Chronic Health Evaluation II original result for APCH110-30-45.9.", "preferredTerm": "Acute Physiology and Chronic Health Evaluation II APCH110 Original Result - 30-45.9", "submissionValue": "30-45.9", "synonyms": ["APCH110-30-45.9"]}, {"conceptId": "C183009", "definition": "Acute Physiology and Chronic Health Evaluation II original result for APCH110-46-49.9.", "preferredTerm": "Acute Physiology and Chronic Health Evaluation II APCH110 Original Result - 46-49.9", "submissionValue": "46-49.9", "synonyms": ["APCH110-46-49.9"]}, {"conceptId": "C183008", "definition": "Acute Physiology and Chronic Health Evaluation II original result for APCH110-50-59.9.", "preferredTerm": "Acute Physiology and Chronic Health Evaluation II APCH110 Original Result - 50-59.9", "submissionValue": "50-59.9", "synonyms": ["APCH110-50-59.9"]}, {"conceptId": "C183012", "definition": "Acute Physiology and Chronic Health Evaluation II original result for APCH110-Less than 20.", "preferredTerm": "Acute Physiology and Chronic Health Evaluation II APCH110 Original Result - <20", "submissionValue": "<20", "synonyms": ["APCH110-<20"]}, {"conceptId": "C183007", "definition": "Acute Physiology and Chronic Health Evaluation II original result for APCH110-Greater than or equal to 60.", "preferredTerm": "Acute Physiology and Chronic Health Evaluation II APCH110 Original Result - >=60", "submissionValue": ">=60", "synonyms": ["APCH110->=60"]}]}