{"_links": {"parentPackage": {"href": "/mdr/ct/packages/sdtmct-2023-06-30", "title": "SDTM Controlled Terminology Package 54 Effective 2023-06-30", "type": "Terminology"}, "priorVersion": {"href": "/mdr/ct/packages/sdtmct-2023-03-31/codelists/C182522", "title": "CDISC Clinical Classification Acute Physiology and Chronic Health Evaluation II APCH101 Standardized Character Response Terminology", "type": "Code List"}, "rootItem": {"href": "/mdr/root/ct/sdtmct/codelists/C182522", "title": "Version-agnostic anchor resource for codelist C182522", "type": "Root Value Domain"}, "self": {"href": "/mdr/ct/packages/sdtmct-2023-06-30/codelists/C182522", "title": "CDISC Clinical Classification Acute Physiology and Chronic Health Evaluation II APCH101 Standardized Character Response Terminology", "type": "Code List"}}, "conceptId": "C182522", "definition": "Acute Physiology and Chronic Health Evaluation II standardized character result for APCH101 test and test code.", "extensible": "false", "name": "Acute Physiology and Chronic Health Evaluation II Clinical Classification STRESC for APCH101 TN/TC", "preferredTerm": "CDISC Clinical Classification Acute Physiology and Chronic Health Evaluation II APCH101 Standardized Character Response Terminology", "submissionValue": "APCH101STR", "synonyms": ["Acute Physiology and Chronic Health Evaluation II Clinical Classification STRESC for APCH101 TN/TC"], "terms": [{"conceptId": "C182894", "definition": "Acute Physiology and Chronic Health Evaluation II standardized character result for APCH101-36-38.4.", "preferredTerm": "Acute Physiology and Chronic Health Evaluation II APCH101 Standardized Character Result 0", "submissionValue": "0", "synonyms": ["APCH101-0"]}, {"conceptId": "C182893", "definition": "Acute Physiology and Chronic Health Evaluation II standardized character result for APCH101-38.5-38.9; 34-35.9.", "preferredTerm": "Acute Physiology and Chronic Health Evaluation II APCH101 Standardized Character Result 1", "submissionValue": "1", "synonyms": ["APCH101-1"]}, {"conceptId": "C182892", "definition": "Acute Physiology and Chronic Health Evaluation II standardized character result for APCH101-32-33.9.", "preferredTerm": "Acute Physiology and Chronic Health Evaluation II APCH101 Standardized Character Result 2", "submissionValue": "2", "synonyms": ["APCH101-2"]}, {"conceptId": "C182891", "definition": "Acute Physiology and Chronic Health Evaluation II standardized character result for APCH101-39-40.9; 30-31.9.", "preferredTerm": "Acute Physiology and Chronic Health Evaluation II APCH101 Standardized Character Result 3", "submissionValue": "3", "synonyms": ["APCH101-3"]}, {"conceptId": "C182890", "definition": "Acute Physiology and Chronic Health Evaluation II standardized character result for APCH101-Greater than or equal to 41; Less than or equal to 29.9.", "preferredTerm": "Acute Physiology and Chronic Health Evaluation II APCH101 Standardized Character Result 4", "submissionValue": "4", "synonyms": ["APCH101-4"]}]}