{"_links": {"parentPackage": {"href": "/mdr/ct/packages/sdtmct-2023-06-30", "title": "SDTM Controlled Terminology Package 54 Effective 2023-06-30", "type": "Terminology"}, "priorVersion": {"href": "/mdr/ct/packages/sdtmct-2023-03-31/codelists/C182486", "title": "CDISC Clinical Classification Acute Physiology and Chronic Health Evaluation II APCH103 Original Response Terminology", "type": "Code List"}, "rootItem": {"href": "/mdr/root/ct/sdtmct/codelists/C182486", "title": "Version-agnostic anchor resource for codelist C182486", "type": "Root Value Domain"}, "self": {"href": "/mdr/ct/packages/sdtmct-2023-06-30/codelists/C182486", "title": "CDISC Clinical Classification Acute Physiology and Chronic Health Evaluation II APCH103 Original Response Terminology", "type": "Code List"}}, "conceptId": "C182486", "definition": "Acute Physiology and Chronic Health Evaluation II original result for APCH103 test and test code.", "extensible": "false", "name": "Acute Physiology and Chronic Health Evaluation II Clinical Classification ORRES for APCH103 TN/TC", "preferredTerm": "CDISC Clinical Classification Acute Physiology and Chronic Health Evaluation II APCH103 Original Response Terminology", "submissionValue": "APCH103OR", "synonyms": ["Acute Physiology and Chronic Health Evaluation II Clinical Classification ORRES for APCH103 TN/TC"], "terms": [{"conceptId": "C182907", "definition": "Acute Physiology and Chronic Health Evaluation II original result for APCH103-110-139.", "preferredTerm": "Acute Physiology and Chronic Health Evaluation II APCH103 Original Result - 110-139", "submissionValue": "110-139", "synonyms": ["APCH103-110-139"]}, {"conceptId": "C182906", "definition": "Acute Physiology and Chronic Health Evaluation II original result for APCH103-140-179.", "preferredTerm": "Acute Physiology and Chronic Health Evaluation II APCH103 Original Result - 140-179", "submissionValue": "140-179", "synonyms": ["APCH103-140-179"]}, {"conceptId": "C182910", "definition": "Acute Physiology and Chronic Health Evaluation II original result for APCH103-40-54.", "preferredTerm": "Acute Physiology and Chronic Health Evaluation II APCH103 Original Result - 40-54", "submissionValue": "40-54", "synonyms": ["APCH103-40-54"]}, {"conceptId": "C182909", "definition": "Acute Physiology and Chronic Health Evaluation II original result for APCH103-55-69.", "preferredTerm": "Acute Physiology and Chronic Health Evaluation II APCH103 Original Result - 55-69", "submissionValue": "55-69", "synonyms": ["APCH103-55-69"]}, {"conceptId": "C182908", "definition": "Acute Physiology and Chronic Health Evaluation II original result for APCH103-70-109.", "preferredTerm": "Acute Physiology and Chronic Health Evaluation II APCH103 Original Result - 70-109", "submissionValue": "70-109", "synonyms": ["APCH103-70-109"]}, {"conceptId": "C182911", "definition": "Acute Physiology and Chronic Health Evaluation II original result for APCH103-Less than or equal to 39.", "preferredTerm": "Acute Physiology and Chronic Health Evaluation II APCH103 Original Result - <=39", "submissionValue": "<=39", "synonyms": ["APCH103-<=39"]}, {"conceptId": "C182905", "definition": "Acute Physiology and Chronic Health Evaluation II original result for APCH103-Greater than or equal to 180.", "preferredTerm": "Acute Physiology and Chronic Health Evaluation II APCH103 Original Result - >=180", "submissionValue": ">=180", "synonyms": ["APCH103->=180"]}]}