{"_links": {"parentPackage": {"href": "/mdr/ct/packages/sdtmct-2023-06-30", "title": "SDTM Controlled Terminology Package 54 Effective 2023-06-30", "type": "Terminology"}, "priorVersion": {"href": "/mdr/ct/packages/sdtmct-2023-03-31/codelists/C182466", "title": "CDISC Clinical Classification Abnormal Involuntary Movement Scale AIMS0110 Original Response Terminology", "type": "Code List"}, "rootItem": {"href": "/mdr/root/ct/sdtmct/codelists/C182466", "title": "Version-agnostic anchor resource for codelist C182466", "type": "Root Value Domain"}, "self": {"href": "/mdr/ct/packages/sdtmct-2023-06-30/codelists/C182466", "title": "CDISC Clinical Classification Abnormal Involuntary Movement Scale AIMS0110 Original Response Terminology", "type": "Code List"}}, "conceptId": "C182466", "definition": "Abnormal Involuntary Movement Scale original result for AIMS0110 test and test code.", "extensible": "false", "name": "Abnormal Involuntary Movement Scale Clinical Classification ORRES for AIMS0110 TN/TC", "preferredTerm": "CDISC Clinical Classification Abnormal Involuntary Movement Scale AIMS0110 Original Response Terminology", "submissionValue": "AIMS0110OR", "synonyms": ["Abnormal Involuntary Movement Scale Clinical Classification ORRES for AIMS0110 TN/TC"], "terms": [{"conceptId": "C182694", "definition": "Abnormal Involuntary Movement Scale original result for AIMS0110-Aware, mild distress.", "preferredTerm": "Abnormal Involuntary Movement Scale AIMS0110 Original Result - Aware, mild distress", "submissionValue": "Aware, mild distress", "synonyms": ["AIMS0110-Aware, mild distress"]}, {"conceptId": "C182695", "definition": "Abnormal Involuntary Movement Scale original result for AIMS0110-Aware, moderate distress.", "preferredTerm": "Abnormal Involuntary Movement Scale AIMS0110 Original Result - Aware, moderate distress", "submissionValue": "Aware, moderate distress", "synonyms": ["AIMS0110-Aware, moderate distress"]}, {"conceptId": "C182693", "definition": "Abnormal Involuntary Movement Scale original result for AIMS0110-Aware, no distress.", "preferredTerm": "Abnormal Involuntary Movement Scale AIMS0110 Original Result - Aware, no distress", "submissionValue": "Aware, no distress", "synonyms": ["AIMS0110-Aware, no distress"]}, {"conceptId": "C182696", "definition": "Abnormal Involuntary Movement Scale original result for AIMS0110-Aware, severe distress.", "preferredTerm": "Abnormal Involuntary Movement Scale AIMS0110 Original Result - Aware, severe distress", "submissionValue": "Aware, severe distress", "synonyms": ["AIMS0110-Aware, severe distress"]}, {"conceptId": "C182692", "definition": "Abnormal Involuntary Movement Scale original result for AIMS0110-No awareness.", "preferredTerm": "Abnormal Involuntary Movement Scale AIMS0110 Original Result - No awareness", "submissionValue": "No awareness", "synonyms": ["AIMS0110-No awareness"]}]}