{"_links": {"parentPackage": {"href": "/mdr/ct/packages/sdtmct-2023-06-30", "title": "SDTM Controlled Terminology Package 54 Effective 2023-06-30", "type": "Terminology"}, "priorVersion": {"href": "/mdr/ct/packages/sdtmct-2023-03-31/codelists/C182469", "title": "CDISC Clinical Classification Karnofsky Performance Status Scale KPSS0101 Original Response Terminology", "type": "Code List"}, "rootItem": {"href": "/mdr/root/ct/sdtmct/codelists/C182469", "title": "Version-agnostic anchor resource for codelist C182469", "type": "Root Value Domain"}, "self": {"href": "/mdr/ct/packages/sdtmct-2023-06-30/codelists/C182469", "title": "CDISC Clinical Classification Karnofsky Performance Status Scale KPSS0101 Original Response Terminology", "type": "Code List"}}, "conceptId": "C182469", "definition": "Karnofsky Performance Status Scale original result for KPSS0101 test and test code.", "extensible": "false", "name": "Karnofsky Performance Status Scale Clinical Classification ORRES for KPSS0101 TN/TC", "preferredTerm": "CDISC Clinical Classification Karnofsky Performance Status Scale KPSS0101 Original Response Terminology", "submissionValue": "KPSS0101OR", "synonyms": ["Karnofsky Performance Status Scale Clinical Classification ORRES for KPSS0101 TN/TC"], "terms": [{"conceptId": "C182717", "definition": "Karnofsky Performance Status Scale original result for KPSS0101-Able to carry on normal activity; minor signs or symptoms of disease.", "preferredTerm": "Karnofsky Performance Status Scale KPSS0101 Original Result - Able to carry on normal activity; minor signs or symptoms of disease", "submissionValue": "Able to carry on normal activity; minor signs or symptoms of disease.", "synonyms": ["KPSS0101-Able to carry on normal activity", "minor signs or symptoms of disease"]}, {"conceptId": "C182719", "definition": "Karnofsky Performance Status Scale original result for KPSS0101-Cares for self; unable to carry on normal activity or to do active work.", "preferredTerm": "Karnofsky Performance Status Scale KPSS0101 Original Result - Cares for self; unable to carry on normal activity or to do active work", "submissionValue": "Cares for self; unable to carry on normal activity or to do active work.", "synonyms": ["KPSS0101-Cares for self", "unable to carry on normal activity or to do active work"]}, {"conceptId": "C182726", "definition": "Karnofsky Performance Status Scale original result for KPSS0101-Dead.", "preferredTerm": "Karnofsky Performance Status Scale KPSS0101 Original Result - Dead", "submissionValue": "Dead", "synonyms": ["KPSS0101-Dead"]}, {"conceptId": "C182722", "definition": "Karnofsky Performance Status Scale original result for KPSS0101-Disabled; requires special care and assistance.", "preferredTerm": "Karnofsky Performance Status Scale KPSS0101 Original Result - Disabled; requires special care and assistance", "submissionValue": "Disabled; requires special care and assistance.", "synonyms": ["KPSS0101-Disabled", "requires special care and assistance"]}, {"conceptId": "C182725", "definition": "Karnofsky Performance Status Scale original result for KPSS0101-Moribund; fatal processes progressing rapidly.", "preferredTerm": "Karnofsky Performance Status Scale KPSS0101 Original Result - Moribund; fatal processes progressing rapidly", "submissionValue": "Moribund; fatal processes progressing rapidly.", "synonyms": ["KPSS0101-Moribund", "fatal processes progressing rapidly"]}, {"conceptId": "C182718", "definition": "Karnofsky Performance Status Scale original result for KPSS0101-Normal activity with effort; some signs or symptoms of disease.", "preferredTerm": "Karnofsky Performance Status Scale KPSS0101 Original Result - Normal activity with effort; some signs or symptoms of disease", "submissionValue": "Normal activity with effort; some signs or symptoms of disease.", "synonyms": ["KPSS0101-Normal activity with effort", "some signs or symptoms of disease"]}, {"conceptId": "C182716", "definition": "Karnofsky Performance Status Scale original result for KPSS0101-Normal no complaints; no evidence of disease.", "preferredTerm": "Karnofsky Performance Status Scale KPSS0101 Original Result - Normal no complaints; no evidence of disease", "submissionValue": "Normal no complaints; no evidence of disease.", "synonyms": ["KPSS0101-Normal no complaints", "no evidence of disease"]}, {"conceptId": "C182721", "definition": "Karnofsky Performance Status Scale original result for KPSS0101-Requires considerable assistance and frequent medical care.", "preferredTerm": "Karnofsky Performance Status Scale KPSS0101 Original Result - Requires considerable assistance and frequent medical care", "submissionValue": "Requires considerable assistance and frequent medical care.", "synonyms": ["KPSS0101-Requires considerable assistance and frequent medical care"]}, {"conceptId": "C182720", "definition": "Karnofsky Performance Status Scale original result for KPSS0101-Requires occasional assistance, but is able to care for most of his personal needs.", "preferredTerm": "Karnofsky Performance Status Scale KPSS0101 Original Result - Requires occasional assistance, but is able to care for most of his personal needs", "submissionValue": "Requires occasional assistance, but is able to care for most of his personal needs.", "synonyms": ["KPSS0101-Requires occasional assistance, but is able to care for most of his personal needs"]}, {"conceptId": "C182723", "definition": "Karnofsky Performance Status Scale original result for KPSS0101-Severely disabled; hospital admission is indicated although death not imminent.", "preferredTerm": "Karnofsky Performance Status Scale KPSS0101 Original Result - Severely disabled; hospital admission is indicated although death not imminent", "submissionValue": "Severely disabled; hospital admission is indicated although death not imminent.", "synonyms": ["KPSS0101-Severely disabled", "hospital admission is indicated although death not imminent"]}, {"conceptId": "C182724", "definition": "Karnofsky Performance Status Scale original result for KPSS0101-Very sick; hospital admission necessary; active supportive treatment necessary.", "preferredTerm": "Karnofsky Performance Status Scale KPSS0101 Original Result - Very sick; hospital admission necessary; active supportive treatment necessary", "submissionValue": "Very sick; hospital admission necessary; active supportive treatment necessary.", "synonyms": ["KPSS0101-Very sick", "hospital admission necessary", "active supportive treatment necessary"]}]}