{"_links": {"parentPackage": {"href": "/mdr/ct/packages/sdtmct-2023-06-30", "title": "SDTM Controlled Terminology Package 54 Effective 2023-06-30", "type": "Terminology"}, "priorVersion": {"href": "/mdr/ct/packages/sdtmct-2023-03-31/codelists/C182501", "title": "CDISC Questionnaire International Prostate Symptom Score IPS0109 Standardized Character Response Terminology", "type": "Code List"}, "rootItem": {"href": "/mdr/root/ct/sdtmct/codelists/C182501", "title": "Version-agnostic anchor resource for codelist C182501", "type": "Root Value Domain"}, "self": {"href": "/mdr/ct/packages/sdtmct-2023-06-30/codelists/C182501", "title": "CDISC Questionnaire International Prostate Symptom Score IPS0109 Standardized Character Response Terminology", "type": "Code List"}}, "conceptId": "C182501", "definition": "International Prostate Symptom Score standardized character result for IPS0109 test and test code.", "extensible": "false", "name": "International Prostate Symptom Score Questionnaire STRESC for IPS0109 TN/TC", "preferredTerm": "CDISC Questionnaire International Prostate Symptom Score IPS0109 Standardized Character Response Terminology", "submissionValue": "IPS0109STR", "synonyms": ["International Prostate Symptom Score Questionnaire STRESC for IPS0109 TN/TC"], "terms": [{"conceptId": "C182665", "definition": "International Prostate Symptom Score standardized character result for IPS0109-Delighted.", "preferredTerm": "International Prostate Symptom Score IPS0109 Standardized Character Result 0", "submissionValue": "0", "synonyms": ["IPS0109-0"]}, {"conceptId": "C182666", "definition": "International Prostate Symptom Score standardized character result for IPS0109-Pleased.", "preferredTerm": "International Prostate Symptom Score IPS0109 Standardized Character Result 1", "submissionValue": "1", "synonyms": ["IPS0109-1"]}, {"conceptId": "C182667", "definition": "International Prostate Symptom Score standardized character result for IPS0109-Mostly satisfied.", "preferredTerm": "International Prostate Symptom Score IPS0109 Standardized Character Result 2", "submissionValue": "2", "synonyms": ["IPS0109-2"]}, {"conceptId": "C182668", "definition": "International Prostate Symptom Score standardized character result for IPS0109-Mixed (about equally satisfied and dissatisfied).", "preferredTerm": "International Prostate Symptom Score IPS0109 Standardized Character Result 3", "submissionValue": "3", "synonyms": ["IPS0109-3"]}, {"conceptId": "C182669", "definition": "International Prostate Symptom Score standardized character result for IPS0109-Mostly dissatisfied.", "preferredTerm": "International Prostate Symptom Score IPS0109 Standardized Character Result 4", "submissionValue": "4", "synonyms": ["IPS0109-4"]}, {"conceptId": "C182670", "definition": "International Prostate Symptom Score standardized character result for IPS0109-Unhappy.", "preferredTerm": "International Prostate Symptom Score IPS0109 Standardized Character Result 5", "submissionValue": "5", "synonyms": ["IPS0109-5"]}, {"conceptId": "C182671", "definition": "International Prostate Symptom Score standardized character result for IPS0109-Terrible.", "preferredTerm": "International Prostate Symptom Score IPS0109 Standardized Character Result 6", "submissionValue": "6", "synonyms": ["IPS0109-6"]}]}