{"_links": {"parentPackage": {"href": "/mdr/ct/packages/sdtmct-2023-06-30", "title": "SDTM Controlled Terminology Package 54 Effective 2023-06-30", "type": "Terminology"}, "priorVersion": {"href": "/mdr/ct/packages/sdtmct-2023-03-31/codelists/C182482", "title": "CDISC Clinical Classification Kurtzke Functional System Scores KFSS107 Original Response Terminology", "type": "Code List"}, "rootItem": {"href": "/mdr/root/ct/sdtmct/codelists/C182482", "title": "Version-agnostic anchor resource for codelist C182482", "type": "Root Value Domain"}, "self": {"href": "/mdr/ct/packages/sdtmct-2023-06-30/codelists/C182482", "title": "CDISC Clinical Classification Kurtzke Functional System Scores KFSS107 Original Response Terminology", "type": "Code List"}}, "conceptId": "C182482", "definition": "Kurtzke Functional System Scores original result for KFSS107 test and test code.", "extensible": "false", "name": "Kurtzke Functional System Scores Clinical Classification ORRES for KFSS107 TN/TC", "preferredTerm": "CDISC Clinical Classification Kurtzke Functional System Scores KFSS107 Original Response Terminology", "submissionValue": "KFSS107OR", "synonyms": ["Kurtzke Functional System Scores Clinical Classification ORRES for KFSS107 TN/TC"], "terms": [{"conceptId": "C182867", "definition": "Kurtzke Functional System Scores original result for KFSS107-Dementia or chronic brain syndrome - severe or incompetent.", "preferredTerm": "Kurtzke Functional System Scores KFSS107 Original Result - Dementia or chronic brain syndrome - severe or incompetent", "submissionValue": "Dementia or chronic brain syndrome - severe or incompetent", "synonyms": ["KFSS107-Dementia or chronic brain syndrome - severe or incompetent"]}, {"conceptId": "C182866", "definition": "Kurtzke Functional System Scores original result for KFSS107-Marked decrease in mentation (chronic brain syndrome - moderate).", "preferredTerm": "Kurtzke Functional System Scores KFSS107 Original Result - Marked decrease in mentation (chronic brain syndrome - moderate)", "submissionValue": "Marked decrease in mentation (chronic brain syndrome - moderate)", "synonyms": ["KFSS107-Marked decrease in mentation (chronic brain syndrome - moderate)"]}, {"conceptId": "C182864", "definition": "Kurtzke Functional System Scores original result for KFSS107-Mild decrease in mentation.", "preferredTerm": "Kurtzke Functional System Scores KFSS107 Original Result - Mild decrease in mentation", "submissionValue": "Mild decrease in mentation", "synonyms": ["KFSS107-Mild decrease in mentation"]}, {"conceptId": "C182865", "definition": "Kurtzke Functional System Scores original result for KFSS107-Moderate decrease in mentation.", "preferredTerm": "Kurtzke Functional System Scores KFSS107 Original Result - Moderate decrease in mentation", "submissionValue": "Moderate decrease in mentation", "synonyms": ["KFSS107-Moderate decrease in mentation"]}, {"conceptId": "C182863", "definition": "Kurtzke Functional System Scores original result for KFSS107-Mood alteration only (does not affect DSS score).", "preferredTerm": "Kurtzke Functional System Scores KFSS107 Original Result - Mood alteration only (does not affect DSS score)", "submissionValue": "Mood alteration only (does not affect DSS score)", "synonyms": ["KFSS107-Mood alteration only (does not affect DSS score)"]}, {"conceptId": "C182862", "definition": "Kurtzke Functional System Scores original result for KFSS107-Normal.", "preferredTerm": "Kurtzke Functional System Scores KFSS107 Original Result - Normal", "submissionValue": "Normal", "synonyms": ["KFSS107-Normal"]}, {"conceptId": "C182868", "definition": "Kurtzke Functional System Scores original result for KFSS107-Unknown.", "preferredTerm": "Kurtzke Functional System Scores KFSS107 Original Result - Unknown", "submissionValue": "Unknown", "synonyms": ["KFSS107-Unknown"]}]}