{"_links": {"parentPackage": {"href": "/mdr/ct/packages/sdtmct-2023-06-30", "title": "SDTM Controlled Terminology Package 54 Effective 2023-06-30", "type": "Terminology"}, "priorVersion": {"href": "/mdr/ct/packages/sdtmct-2023-03-31/codelists/C182526", "title": "CDISC Clinical Classification Acute Physiology and Chronic Health Evaluation II APCH105A Standardized Character Response Terminology", "type": "Code List"}, "rootItem": {"href": "/mdr/root/ct/sdtmct/codelists/C182526", "title": "Version-agnostic anchor resource for codelist C182526", "type": "Root Value Domain"}, "self": {"href": "/mdr/ct/packages/sdtmct-2023-06-30/codelists/C182526", "title": "CDISC Clinical Classification Acute Physiology and Chronic Health Evaluation II APCH105A Standardized Character Response Terminology", "type": "Code List"}}, "conceptId": "C182526", "definition": "Acute Physiology and Chronic Health Evaluation II standardized character result for APCH105A test and test code.", "extensible": "false", "name": "Acute Physiology and Chronic Health Evaluation II Clinical Classification STRESC for APCH105A TN/TC", "preferredTerm": "CDISC Clinical Classification Acute Physiology and Chronic Health Evaluation II APCH105A Standardized Character Response Terminology", "submissionValue": "APCH105ASTR", "synonyms": ["Acute Physiology and Chronic Health Evaluation II Clinical Classification STRESC for APCH105A TN/TC"], "terms": [{"conceptId": "C182935", "definition": "Acute Physiology and Chronic Health Evaluation II standardized character result for APCH105A-Less than 200.", "preferredTerm": "Acute Physiology and Chronic Health Evaluation II APCH105A Standardized Character Result 0", "submissionValue": "0", "synonyms": ["APCH105A-0"]}, {"conceptId": "C182934", "definition": "Acute Physiology and Chronic Health Evaluation II standardized character result for APCH105A-200-349.", "preferredTerm": "Acute Physiology and Chronic Health Evaluation II APCH105A Standardized Character Result 2", "submissionValue": "2", "synonyms": ["APCH105A-2"]}, {"conceptId": "C182933", "definition": "Acute Physiology and Chronic Health Evaluation II standardized character result for APCH105A-350-499.", "preferredTerm": "Acute Physiology and Chronic Health Evaluation II APCH105A Standardized Character Result 3", "submissionValue": "3", "synonyms": ["APCH105A-3"]}, {"conceptId": "C182932", "definition": "Acute Physiology and Chronic Health Evaluation II standardized character result for APCH105A-Greater than or equal to 500.", "preferredTerm": "Acute Physiology and Chronic Health Evaluation II APCH105A Standardized Character Result 4", "submissionValue": "4", "synonyms": ["APCH105A-4"]}]}