{"_links": {"parentPackage": {"href": "/mdr/ct/packages/sdtmct-2023-06-30", "title": "SDTM Controlled Terminology Package 54 Effective 2023-06-30", "type": "Terminology"}, "priorVersion": {"href": "/mdr/ct/packages/sdtmct-2023-03-31/codelists/C182523", "title": "CDISC Clinical Classification Acute Physiology and Chronic Health Evaluation II APCH102 Standardized Character Response Terminology", "type": "Code List"}, "rootItem": {"href": "/mdr/root/ct/sdtmct/codelists/C182523", "title": "Version-agnostic anchor resource for codelist C182523", "type": "Root Value Domain"}, "self": {"href": "/mdr/ct/packages/sdtmct-2023-06-30/codelists/C182523", "title": "CDISC Clinical Classification Acute Physiology and Chronic Health Evaluation II APCH102 Standardized Character Response Terminology", "type": "Code List"}}, "conceptId": "C182523", "definition": "Acute Physiology and Chronic Health Evaluation II standardized character result for APCH102 test and test code.", "extensible": "false", "name": "Acute Physiology and Chronic Health Evaluation II Clinical Classification STRESC for APCH102 TN/TC", "preferredTerm": "CDISC Clinical Classification Acute Physiology and Chronic Health Evaluation II APCH102 Standardized Character Response Terminology", "submissionValue": "APCH102STR", "synonyms": ["Acute Physiology and Chronic Health Evaluation II Clinical Classification STRESC for APCH102 TN/TC"], "terms": [{"conceptId": "C182904", "definition": "Acute Physiology and Chronic Health Evaluation II standardized character result for APCH102-70-109.", "preferredTerm": "Acute Physiology and Chronic Health Evaluation II APCH102 Standardized Character Result 0", "submissionValue": "0", "synonyms": ["APCH102-0"]}, {"conceptId": "C182903", "definition": "Acute Physiology and Chronic Health Evaluation II standardized character result for APCH102-110-129; 50-69.", "preferredTerm": "Acute Physiology and Chronic Health Evaluation II APCH102 Standardized Character Result 2", "submissionValue": "2", "synonyms": ["APCH102-2"]}, {"conceptId": "C182902", "definition": "Acute Physiology and Chronic Health Evaluation II standardized character result for APCH102-130-159.", "preferredTerm": "Acute Physiology and Chronic Health Evaluation II APCH102 Standardized Character Result 3", "submissionValue": "3", "synonyms": ["APCH102-3"]}, {"conceptId": "C182901", "definition": "Acute Physiology and Chronic Health Evaluation II standardized character result for APCH102-Greater than or equal to 160; less than or equal to 49.", "preferredTerm": "Acute Physiology and Chronic Health Evaluation II APCH102 Standardized Character Result 4", "submissionValue": "4", "synonyms": ["APCH102-4"]}]}