{"_links": {"parentPackage": {"href": "/mdr/ct/packages/sdtmct-2023-06-30", "title": "SDTM Controlled Terminology Package 54 Effective 2023-06-30", "type": "Terminology"}, "priorVersion": {"href": "/mdr/ct/packages/sdtmct-2023-03-31/codelists/C182467", "title": "CDISC Clinical Classification Abnormal Involuntary Movement Scale AIMS0111 Through AIMS0112 Original Response Terminology", "type": "Code List"}, "rootItem": {"href": "/mdr/root/ct/sdtmct/codelists/C182467", "title": "Version-agnostic anchor resource for codelist C182467", "type": "Root Value Domain"}, "self": {"href": "/mdr/ct/packages/sdtmct-2023-06-30/codelists/C182467", "title": "CDISC Clinical Classification Abnormal Involuntary Movement Scale AIMS0111 Through AIMS0112 Original Response Terminology", "type": "Code List"}}, "conceptId": "C182467", "definition": "Abnormal Involuntary Movement Scale original result for AIMS0111 through AIMS0112 test and test code.", "extensible": "false", "name": "Abnormal Involuntary Movement Scale Clinical Classification ORRES for AIMS0111 Through AIMS0112 TN/TC", "preferredTerm": "CDISC Clinical Classification Abnormal Involuntary Movement Scale AIMS0111 Through AIMS0112 Original Response Terminology", "submissionValue": "AIMS0111T12OR", "synonyms": ["Abnormal Involuntary Movement Scale Clinical Classification ORRES for AIMS0111 Through AIMS0112 TN/TC"], "terms": [{"conceptId": "C182702", "definition": "Abnormal Involuntary Movement Scale original result for AIMS0111 through AIMS0112-No.", "preferredTerm": "Abnormal Involuntary Movement Scale AIMS0111 Through AIMS0112 Original Result - No", "submissionValue": "No", "synonyms": ["AIMS0111 through AIMS0112-No"]}, {"conceptId": "C182703", "definition": "Abnormal Involuntary Movement Scale original result for AIMS0111 through AIMS0112-Yes.", "preferredTerm": "Abnormal Involuntary Movement Scale AIMS0111 Through AIMS0112 Original Result - Yes", "submissionValue": "Yes", "synonyms": ["AIMS0111 through AIMS0112-Yes"]}]}