{"_links": {"parentPackage": {"href": "/mdr/ct/packages/sdtmct-2023-06-30", "title": "SDTM Controlled Terminology Package 54 Effective 2023-06-30", "type": "Terminology"}, "priorVersion": {"href": "/mdr/ct/packages/sdtmct-2023-03-31/codelists/C183548", "title": "CDISC Questionnaire DIBSS-C Version 1.0 Test Name Terminology", "type": "Code List"}, "rootItem": {"href": "/mdr/root/ct/sdtmct/codelists/C183548", "title": "Version-agnostic anchor resource for codelist C183548", "type": "Root Value Domain"}, "self": {"href": "/mdr/ct/packages/sdtmct-2023-06-30/codelists/C183548", "title": "CDISC Questionnaire DIBSS-C Version 1.0 Test Name Terminology", "type": "Code List"}}, "conceptId": "C183548", "definition": "Diary for Irritable Bowel Syndrome Symptoms-Constipation v1.0 test name.", "extensible": "false", "name": "Diary for Irritable Bowel Syndrome Symptoms-Constipation v1.0 Questionnaire Test Name", "preferredTerm": "CDISC Questionnaire DIBSS-C Version 1.0 Test Name Terminology", "submissionValue": "DIBC01TN", "synonyms": ["Diary for Irritable Bowel Syndrome Symptoms-Constipation v1.0 Questionnaire Test Name"], "terms": [{"conceptId": "C183617", "definition": "Diary for Irritable Bowel Syndrome Symptoms-Constipation v1.0 - Abdominal symptom subscale.", "preferredTerm": "DIBSS-C Version 1.0 - Abdominal Symptom Subscale", "submissionValue": "DIBC01-Abdominal Symptom Subscale", "synonyms": ["DIBC01-Abdominal Symptom Subscale"]}, {"conceptId": "C183612", "definition": "Diary for Irritable Bowel Syndrome Symptoms-Constipation v1.0 - Did you feel like you completely emptied your bowels after your bowel movement?", "preferredTerm": "DIBSS-C Version 1.0 - Completely Emptied Bowels", "submissionValue": "DIBC01-Completely Emptied Bowels", "synonyms": ["DIBC01-Completely Emptied Bowels"]}, {"conceptId": "C183614", "definition": "Diary for Irritable Bowel Syndrome Symptoms-Constipation v1.0 - How would you describe the consistency of your stool?", "preferredTerm": "DIBSS-C Version 1.0 - Describe Consistency of Stool", "submissionValue": "DIBC01-Describe Consistency of Stool", "synonyms": ["DIBC01-Describe Consistency of Stool"]}, {"conceptId": "C183613", "definition": "Diary for Irritable Bowel Syndrome Symptoms-Constipation v1.0 - How much did you strain during your bowel movement?", "preferredTerm": "DIBSS-C Version 1.0 - How Much Did You Strain", "submissionValue": "DIBC01-How Much Did You Strain", "synonyms": ["DIBC01-How Much Did You Strain"]}, {"conceptId": "C183611", "definition": "Diary for Irritable Bowel Syndrome Symptoms-Constipation v1.0 - Do you have any other bowel movements to report?", "preferredTerm": "DIBSS-C Version 1.0 - Other Bowel Movements to Report", "submissionValue": "DIBC01-Other Bowel Movements to Report", "synonyms": ["DIBC01-Other Bowel Movements to Report"]}, {"conceptId": "C183610", "definition": "Diary for Irritable Bowel Syndrome Symptoms-Constipation v1.0 - How would you rate your worst abdominal bloating in the past 24 hours?", "preferredTerm": "DIBSS-C Version 1.0 - Rate Worst Abdominal Bloating", "submissionValue": "DIBC01-Rate Worst Abdominal Bloating", "synonyms": ["DIBC01-Rate Worst Abdominal Bloating"]}, {"conceptId": "C183609", "definition": "Diary for Irritable Bowel Syndrome Symptoms-Constipation v1.0 - How would you rate your worst abdominal discomfort in the past 24 hours?", "preferredTerm": "DIBSS-C Version 1.0 - Rate Worst Abdominal Discomfort", "submissionValue": "DIBC01-Rate Worst Abdominal Discomfort", "synonyms": ["DIBC01-Rate Worst Abdominal Discomfort"]}, {"conceptId": "C183608", "definition": "Diary for Irritable Bowel Syndrome Symptoms-Constipation v1.0 - How would you rate your worst abdominal pain in the past 24 hours?", "preferredTerm": "DIBSS-C Version 1.0 - Rate Worst Abdominal Pain", "submissionValue": "DIBC01-Rate Worst Abdominal Pain", "synonyms": ["DIBC01-Rate Worst Abdominal Pain"]}, {"conceptId": "C183616", "definition": "Diary for Irritable Bowel Syndrome Symptoms-Constipation v1.0 - Stool frequency: weekly score, the weekly total score minus any BMs reported as not complete.", "preferredTerm": "DIBSS-C Version 1.0 - Stool Frequency Weekly Complete", "submissionValue": "DIBC01-Stool Frequency Weekly Complete", "synonyms": ["DIBC01-Stool Frequency Weekly Complete"]}, {"conceptId": "C183615", "definition": "Diary for Irritable Bowel Syndrome Symptoms-Constipation v1.0 - Stool frequency: weekly score, total number of BMs across days on which no laxative, enema, or suppository use was reported.", "preferredTerm": "DIBSS-C Version 1.0 - Stool Frequency Weekly Total", "submissionValue": "DIBC01-Stool Frequency Weekly Total", "synonyms": ["DIBC01-Stool Frequency Weekly Total"]}]}