{"_links": {"parentPackage": {"href": "/mdr/ct/packages/sdtmct-2023-06-30", "title": "SDTM Controlled Terminology Package 54 Effective 2023-06-30", "type": "Terminology"}, "priorVersion": {"href": "/mdr/ct/packages/sdtmct-2023-03-31/codelists/C183551", "title": "CDISC Questionnaire FACIT-Searchable Item Library Adult Version Test Code Terminology", "type": "Code List"}, "rootItem": {"href": "/mdr/root/ct/sdtmct/codelists/C183551", "title": "Version-agnostic anchor resource for codelist C183551", "type": "Root Value Domain"}, "self": {"href": "/mdr/ct/packages/sdtmct-2023-06-30/codelists/C183551", "title": "CDISC Questionnaire FACIT-Searchable Item Library Adult Version Test Code Terminology", "type": "Code List"}}, "conceptId": "C183551", "definition": "Functional Assessment of Chronic Illness Therapy-Searchable Item Library Adult test code.", "extensible": "false", "name": "Functional Assessment of Chronic Illness Therapy-Searchable Item Library Adult Questionnaire Test Code", "preferredTerm": "CDISC Questionnaire FACIT-Searchable Item Library Adult Version Test Code Terminology", "submissionValue": "FSILTC", "synonyms": ["Functional Assessment of Chronic Illness Therapy-Searchable Item Library Adult Questionnaire Test Code"], "terms": [{"conceptId": "C183618", "definition": "Functional Assessment of Chronic Illness Therapy-Searchable Item Library Adult: My fatigue keeps me from doing the things I want to do.", "preferredTerm": "FACIT-Searchable Item Library Adult Version - Fatigue Keeps Me From Doing Things", "submissionValue": "FSIL0001", "synonyms": ["FSIL-Fatigue Keeps Me From Doing Things"]}, {"conceptId": "C183619", "definition": "Functional Assessment of Chronic Illness Therapy-Searchable Item Library Adult: I am bothered by swelling in certain areas of my body.", "preferredTerm": "FACIT-Searchable Item Library Adult Version - Bothered by Swelling Certain Areas", "submissionValue": "FSIL0002", "synonyms": ["FSIL-Bothered by Swelling Certain Areas"]}, {"conceptId": "C183620", "definition": "Functional Assessment of Chronic Illness Therapy-Searchable Item Library Adult: I am bothered by mouth sores or tenderness.", "preferredTerm": "FACIT-Searchable Item Library Adult Version - Bothered by Mouth Sores/Tenderness", "submissionValue": "FSIL0003", "synonyms": ["FSIL-Bothered by Mouth Sores/Tenderness"]}, {"conceptId": "C183621", "definition": "Functional Assessment of Chronic Illness Therapy-Searchable Item Library Adult: Because of my mouth sores, eating is difficult.", "preferredTerm": "FACIT-Searchable Item Library Adult Version - Because of Sores Eating Difficult", "submissionValue": "FSIL0004", "synonyms": ["FSIL-Because of Sores Eating Difficult"]}, {"conceptId": "C183622", "definition": "Functional Assessment of Chronic Illness Therapy-Searchable Item Library Adult: The skin on my hands hurts.", "preferredTerm": "FACIT-Searchable Item Library Adult Version - The Skin on My Hands Hurts", "submissionValue": "FSIL0005", "synonyms": ["FSIL-The Skin on My Hands Hurts"]}, {"conceptId": "C183623", "definition": "Functional Assessment of Chronic Illness Therapy-Searchable Item Library Adult: Hand pain or tenderness interferes with my daily activities.", "preferredTerm": "FACIT-Searchable Item Library Adult Version - Hand Pain Interferes Daily Activ", "submissionValue": "FSIL0006", "synonyms": ["FSIL-Hand Pain Interferes Daily Activ"]}, {"conceptId": "C183624", "definition": "Functional Assessment of Chronic Illness Therapy-Searchable Item Library Adult: The skin on my feet hurts.", "preferredTerm": "FACIT-Searchable Item Library Adult Version - The Skin on My Feet Hurts", "submissionValue": "FSIL0007", "synonyms": ["FSIL-The Skin on My Feet Hurts"]}, {"conceptId": "C183625", "definition": "Functional Assessment of Chronic Illness Therapy-Searchable Item Library Adult: Pain on the bottom of my feet interferes with my walking.", "preferredTerm": "FACIT-Searchable Item Library Adult Version - Pain on My Feet Interferes Walking", "submissionValue": "FSIL0008", "synonyms": ["FSIL-Pain on My Feet Interferes Walking"]}, {"conceptId": "C183626", "definition": "Functional Assessment of Chronic Illness Therapy-Searchable Item Library Adult: I have to limit my activities because of diarrhea (diarrhoea).", "preferredTerm": "FACIT-Searchable Item Library Adult Version - Limit Activities Because Diarrhea", "submissionValue": "FSIL0009", "synonyms": ["FSIL-Limit Activities Because Diarrhea"]}, {"conceptId": "C183627", "definition": "Functional Assessment of Chronic Illness Therapy-Searchable Item Library Adult: I am bothered by a skin rash.", "preferredTerm": "FACIT-Searchable Item Library Adult Version - Bothered by a Skin Rash", "submissionValue": "FSIL0010", "synonyms": ["FSIL-Bothered by a Skin Rash"]}, {"conceptId": "C183628", "definition": "Functional Assessment of Chronic Illness Therapy-Searchable Item Library Adult: The amount I eat is sufficient to meet my needs.", "preferredTerm": "FACIT-Searchable Item Library Adult Version - Amount I Eat Is Sufficient", "submissionValue": "FSIL0011", "synonyms": ["FSIL-Amount I Eat Is Sufficient"]}, {"conceptId": "C183629", "definition": "Functional Assessment of Chronic Illness Therapy-Searchable Item Library Adult: When I eat, I seem to get full quickly.", "preferredTerm": "FACIT-Searchable Item Library Adult Version - I Seem to Get Full Quickly", "submissionValue": "FSIL0012", "synonyms": ["FSIL-I Seem to Get Full Quickly"]}, {"conceptId": "C183630", "definition": "Functional Assessment of Chronic Illness Therapy-Searchable Item Library Adult: I have pain in my stomach area.", "preferredTerm": "FACIT-Searchable Item Library Adult Version - I Have Pain in My Stomach Area", "submissionValue": "FSIL0013", "synonyms": ["FSIL-I Have Pain in My Stomach Area"]}, {"conceptId": "C183631", "definition": "Functional Assessment of Chronic Illness Therapy-Searchable Item Library Adult: My general health is improving.", "preferredTerm": "FACIT-Searchable Item Library Adult Version - My General Health Is Improving", "submissionValue": "FSIL0014", "synonyms": ["FSIL-My General Health Is Improving"]}, {"conceptId": "C183632", "definition": "Functional Assessment of Chronic Illness Therapy-Searchable Item Library Adult: I am worried about my weight.", "preferredTerm": "FACIT-Searchable Item Library Adult Version - Worried About My Weight", "submissionValue": "FSIL0015", "synonyms": ["FSIL-Worried About My Weight"]}, {"conceptId": "C183633", "definition": "Functional Assessment of Chronic Illness Therapy-Searchable Item Library Adult: Most food tastes unpleasant to me.", "preferredTerm": "FACIT-Searchable Item Library Adult Version - Most Food Tastes Unpleasant to Me", "submissionValue": "FSIL0016", "synonyms": ["FSIL-Most Food Tastes Unpleasant to Me"]}, {"conceptId": "C183634", "definition": "Functional Assessment of Chronic Illness Therapy-Searchable Item Library Adult: I am concerned about how thin I look.", "preferredTerm": "FACIT-Searchable Item Library Adult Version - Concerned About How Thin I Look", "submissionValue": "FSIL0017", "synonyms": ["FSIL-Concerned About How Thin I Look"]}, {"conceptId": "C183635", "definition": "Functional Assessment of Chronic Illness Therapy-Searchable Item Library Adult: My interest in food drops as soon as I try to eat.", "preferredTerm": "FACIT-Searchable Item Library Adult Version - Interest in Food Drops Try to Eat", "submissionValue": "FSIL0018", "synonyms": ["FSIL-Interest in Food Drops Try to Eat"]}, {"conceptId": "C183636", "definition": "Functional Assessment of Chronic Illness Therapy-Searchable Item Library Adult: I have difficulty eating rich or \"heavy\" foods.", "preferredTerm": "FACIT-Searchable Item Library Adult Version - Have Difficulty Eating Rich Foods", "submissionValue": "FSIL0019", "synonyms": ["FSIL-Have Difficulty Eating Rich Foods"]}, {"conceptId": "C183637", "definition": "Functional Assessment of Chronic Illness Therapy-Searchable Item Library Adult: My family or friends are pressuring me to eat.", "preferredTerm": "FACIT-Searchable Item Library Adult Version - My Family Pressuring Me to Eat", "submissionValue": "FSIL0020", "synonyms": ["FSIL-My Family Pressuring Me to Eat"]}, {"conceptId": "C183638", "definition": "Functional Assessment of Chronic Illness Therapy-Searchable Item Library Adult: Stomach pain interferes with my daily functioning.", "preferredTerm": "FACIT-Searchable Item Library Adult Version - Stomach Pain Interferes Functioning", "submissionValue": "FSIL0021", "synonyms": ["FSIL-Stomach Pain Interferes Functioning"]}, {"conceptId": "C183639", "definition": "Functional Assessment of Chronic Illness Therapy-Searchable Item Library Adult: I have been emotionally distressed.", "preferredTerm": "FACIT-Searchable Item Library Adult Version - I Have Been Emotionally Distressed", "submissionValue": "FSIL0022", "synonyms": ["FSIL-I Have Been Emotionally Distressed"]}, {"conceptId": "C183640", "definition": "Functional Assessment of Chronic Illness Therapy-Searchable Item Library Adult: I feel listless (\"washed out\").", "preferredTerm": "FACIT-Searchable Item Library Adult Version - I Feel Listless", "submissionValue": "FSIL0023", "synonyms": ["FSIL-I Feel Listless"]}, {"conceptId": "C183641", "definition": "Functional Assessment of Chronic Illness Therapy-Searchable Item Library Adult: I get headaches.", "preferredTerm": "FACIT-Searchable Item Library Adult Version - I Get Headaches", "submissionValue": "FSIL0024", "synonyms": ["FSIL-I Get Headaches"]}, {"conceptId": "C183642", "definition": "Functional Assessment of Chronic Illness Therapy-Searchable Item Library Adult: I have pain in my chest.", "preferredTerm": "FACIT-Searchable Item Library Adult Version - I Have Pain in My Chest", "submissionValue": "FSIL0025", "synonyms": ["FSIL-I Have Pain in My Chest"]}, {"conceptId": "C183643", "definition": "Functional Assessment of Chronic Illness Therapy-Searchable Item Library Adult: I am too tired to eat.", "preferredTerm": "FACIT-Searchable Item Library Adult Version - Too Tired to Eat", "submissionValue": "FSIL0026", "synonyms": ["FSIL-Too Tired to Eat"]}, {"conceptId": "C183644", "definition": "Functional Assessment of Chronic Illness Therapy-Searchable Item Library Adult: I am motivated to do my usual activities.", "preferredTerm": "FACIT-Searchable Item Library Adult Version - Motivated to Do Activities", "submissionValue": "FSIL0027", "synonyms": ["FSIL-Motivated to Do Activities"]}, {"conceptId": "C183645", "definition": "Functional Assessment of Chronic Illness Therapy-Searchable Item Library Adult: I need help doing my usual activities.", "preferredTerm": "FACIT-Searchable Item Library Adult Version - Need Help Doing Usual Activities", "submissionValue": "FSIL0028", "synonyms": ["FSIL-Need Help Doing Usual Activities"]}, {"conceptId": "C183646", "definition": "Functional Assessment of Chronic Illness Therapy-Searchable Item Library Adult: I am frustrated by being too tired to do the things I want to do.", "preferredTerm": "FACIT-Searchable Item Library Adult Version - Frustrated by Being Too Tired", "submissionValue": "FSIL0029", "synonyms": ["FSIL-Frustrated by Being Too Tired"]}, {"conceptId": "C183647", "definition": "Functional Assessment of Chronic Illness Therapy-Searchable Item Library Adult: I have to limit my social activity because I am tired.", "preferredTerm": "FACIT-Searchable Item Library Adult Version - Limit Social Activity B/c Tired", "submissionValue": "FSIL0030", "synonyms": ["FSIL-Limit Social Activity B/c Tired"]}, {"conceptId": "C183648", "definition": "Functional Assessment of Chronic Illness Therapy-Searchable Item Library Adult: I feel tired.", "preferredTerm": "FACIT-Searchable Item Library Adult Version - I Feel Tired", "submissionValue": "FSIL0031", "synonyms": ["FSIL-I Feel Tired"]}, {"conceptId": "C183649", "definition": "Functional Assessment of Chronic Illness Therapy-Searchable Item Library Adult: I have trouble starting things because I am tired.", "preferredTerm": "FACIT-Searchable Item Library Adult Version - Trouble Starting Things", "submissionValue": "FSIL0032", "synonyms": ["FSIL-Trouble Starting Things"]}, {"conceptId": "C183650", "definition": "Functional Assessment of Chronic Illness Therapy-Searchable Item Library Adult: I have trouble finishing things because I am tired.", "preferredTerm": "FACIT-Searchable Item Library Adult Version - Trouble Finishing Things", "submissionValue": "FSIL0033", "synonyms": ["FSIL-Trouble Finishing Things"]}, {"conceptId": "C183651", "definition": "Functional Assessment of Chronic Illness Therapy-Searchable Item Library Adult: I have energy.", "preferredTerm": "FACIT-Searchable Item Library Adult Version - I Have Energy", "submissionValue": "FSIL0034", "synonyms": ["FSIL-I Have Energy"]}, {"conceptId": "C183652", "definition": "Functional Assessment of Chronic Illness Therapy-Searchable Item Library Adult: I have trouble walking.", "preferredTerm": "FACIT-Searchable Item Library Adult Version - I Have Trouble Walking", "submissionValue": "FSIL0035", "synonyms": ["FSIL-I Have Trouble Walking"]}, {"conceptId": "C183653", "definition": "Functional Assessment of Chronic Illness Therapy-Searchable Item Library Adult: I am able to do my usual activities.", "preferredTerm": "FACIT-Searchable Item Library Adult Version - Able to Do My Usual Activities", "submissionValue": "FSIL0036", "synonyms": ["FSIL-Able to Do My Usual Activities"]}, {"conceptId": "C183654", "definition": "Functional Assessment of Chronic Illness Therapy-Searchable Item Library Adult: I need to sleep during the day.", "preferredTerm": "FACIT-Searchable Item Library Adult Version - I Need to Sleep During the Day", "submissionValue": "FSIL0037", "synonyms": ["FSIL-I Need to Sleep During the Day"]}, {"conceptId": "C183655", "definition": "Functional Assessment of Chronic Illness Therapy-Searchable Item Library Adult: I feel lightheaded (dizzy).", "preferredTerm": "FACIT-Searchable Item Library Adult Version - I Feel Lightheaded", "submissionValue": "FSIL0038", "synonyms": ["FSIL-I Feel Lightheaded"]}, {"conceptId": "C183656", "definition": "Functional Assessment of Chronic Illness Therapy-Searchable Item Library Adult: I have been short of breath.", "preferredTerm": "FACIT-Searchable Item Library Adult Version - I Have Been Short of Breath", "submissionValue": "FSIL0039", "synonyms": ["FSIL-I Have Been Short of Breath"]}, {"conceptId": "C183657", "definition": "Functional Assessment of Chronic Illness Therapy-Searchable Item Library Adult: Movement of my arm on this side is painful.", "preferredTerm": "FACIT-Searchable Item Library Adult Version - Movement of Arm This Side Painful", "submissionValue": "FSIL0040", "synonyms": ["FSIL-Movement of Arm This Side Painful"]}, {"conceptId": "C183658", "definition": "Functional Assessment of Chronic Illness Therapy-Searchable Item Library Adult: I have a poor range of arm movements on this side.", "preferredTerm": "FACIT-Searchable Item Library Adult Version - Poor Range Arm Movements This Side", "submissionValue": "FSIL0041", "synonyms": ["FSIL-Poor Range Arm Movements This Side"]}, {"conceptId": "C183659", "definition": "Functional Assessment of Chronic Illness Therapy-Searchable Item Library Adult: My arm on this side feels numb.", "preferredTerm": "FACIT-Searchable Item Library Adult Version - My Arm on This Side Feels Numb", "submissionValue": "FSIL0042", "synonyms": ["FSIL-My Arm on This Side Feels Numb"]}, {"conceptId": "C183660", "definition": "Functional Assessment of Chronic Illness Therapy-Searchable Item Library Adult: I have stiffness of my arm on this side.", "preferredTerm": "FACIT-Searchable Item Library Adult Version - Have Stiffness of Arm on This Side", "submissionValue": "FSIL0043", "synonyms": ["FSIL-Have Stiffness of Arm on This Side"]}, {"conceptId": "C183661", "definition": "Functional Assessment of Chronic Illness Therapy-Searchable Item Library Adult: I am self-conscious about the way I dress.", "preferredTerm": "FACIT-Searchable Item Library Adult Version - Self-conscious About Way I Dress", "submissionValue": "FSIL0044", "synonyms": ["FSIL-Self-conscious About Way I Dress"]}, {"conceptId": "C183662", "definition": "Functional Assessment of Chronic Illness Therapy-Searchable Item Library Adult: One or both of my arms are swollen or tender.", "preferredTerm": "FACIT-Searchable Item Library Adult Version - One/Both Arms Are Swollen/Tender", "submissionValue": "FSIL0045", "synonyms": ["FSIL-One/Both Arms Are Swollen/Tender"]}, {"conceptId": "C183663", "definition": "Functional Assessment of Chronic Illness Therapy-Searchable Item Library Adult: I feel sexually attractive.", "preferredTerm": "FACIT-Searchable Item Library Adult Version - I Feel Sexually Attractive", "submissionValue": "FSIL0046", "synonyms": ["FSIL-I Feel Sexually Attractive"]}, {"conceptId": "C183664", "definition": "Functional Assessment of Chronic Illness Therapy-Searchable Item Library Adult: I am bothered by hair loss.", "preferredTerm": "FACIT-Searchable Item Library Adult Version - Bothered by Hair Loss", "submissionValue": "FSIL0047", "synonyms": ["FSIL-Bothered by Hair Loss"]}, {"conceptId": "C183665", "definition": "Functional Assessment of Chronic Illness Therapy-Searchable Item Library Adult: I worry that other members of my family might someday get the same illness I have.", "preferredTerm": "FACIT-Searchable Item Library Adult Version - Worry Family Will Get Illness", "submissionValue": "FSIL0048", "synonyms": ["FSIL-Worry Family Will Get Illness"]}, {"conceptId": "C183666", "definition": "Functional Assessment of Chronic Illness Therapy-Searchable Item Library Adult: I worry about the effect of stress on my illness.", "preferredTerm": "FACIT-Searchable Item Library Adult Version - Worry About the Effect of Stress", "submissionValue": "FSIL0049", "synonyms": ["FSIL-Worry About the Effect of Stress"]}, {"conceptId": "C183667", "definition": "Functional Assessment of Chronic Illness Therapy-Searchable Item Library Adult: I am bothered by a change in weight.", "preferredTerm": "FACIT-Searchable Item Library Adult Version - Bothered by Change in Weight", "submissionValue": "FSIL0050", "synonyms": ["FSIL-Bothered by Change in Weight"]}, {"conceptId": "C183668", "definition": "Functional Assessment of Chronic Illness Therapy-Searchable Item Library Adult: I am able to feel like a woman.", "preferredTerm": "FACIT-Searchable Item Library Adult Version - Able to Feel Like a Woman", "submissionValue": "FSIL0051", "synonyms": ["FSIL-Able to Feel Like a Woman"]}, {"conceptId": "C183669", "definition": "Functional Assessment of Chronic Illness Therapy-Searchable Item Library Adult: I have trouble controlling my urine.", "preferredTerm": "FACIT-Searchable Item Library Adult Version - Have Trouble Controlling My Urine", "submissionValue": "FSIL0052", "synonyms": ["FSIL-Have Trouble Controlling My Urine"]}, {"conceptId": "C183670", "definition": "Functional Assessment of Chronic Illness Therapy-Searchable Item Library Adult: I urinate more frequently than usual.", "preferredTerm": "FACIT-Searchable Item Library Adult Version - I Urinate More Frequently", "submissionValue": "FSIL0053", "synonyms": ["FSIL-I Urinate More Frequently"]}, {"conceptId": "C183671", "definition": "Functional Assessment of Chronic Illness Therapy-Searchable Item Library Adult: It burns when I urinate.", "preferredTerm": "FACIT-Searchable Item Library Adult Version - It Burns When I Urinate", "submissionValue": "FSIL0054", "synonyms": ["FSIL-It Burns When I Urinate"]}, {"conceptId": "C183672", "definition": "Functional Assessment of Chronic Illness Therapy-Searchable Item Library Adult: I am interested in sex.", "preferredTerm": "FACIT-Searchable Item Library Adult Version - Interested in Sex", "submissionValue": "FSIL0055", "synonyms": ["FSIL-Interested in Sex"]}, {"conceptId": "C183673", "definition": "Functional Assessment of Chronic Illness Therapy-Searchable Item Library Adult: I am able to have and maintain an erection. (For men only)", "preferredTerm": "FACIT-Searchable Item Library Adult Version - Able to Have/Maintain Erection", "submissionValue": "FSIL0056", "synonyms": ["FSIL-Able to Have/Maintain Erection"]}, {"conceptId": "C183674", "definition": "Functional Assessment of Chronic Illness Therapy-Searchable Item Library Adult: I am concerned about keeping my job (include work at home).", "preferredTerm": "FACIT-Searchable Item Library Adult Version - Concerned About Keeping My Job", "submissionValue": "FSIL0057", "synonyms": ["FSIL-Concerned About Keeping My Job"]}, {"conceptId": "C183675", "definition": "Functional Assessment of Chronic Illness Therapy-Searchable Item Library Adult: I can remember things.", "preferredTerm": "FACIT-Searchable Item Library Adult Version - I Can Remember Things", "submissionValue": "FSIL0058", "synonyms": ["FSIL-I Can Remember Things"]}, {"conceptId": "C183676", "definition": "Functional Assessment of Chronic Illness Therapy-Searchable Item Library Adult: I have frequent colds/infections.", "preferredTerm": "FACIT-Searchable Item Library Adult Version - I Have Frequent Colds/Infections", "submissionValue": "FSIL0059", "synonyms": ["FSIL-I Have Frequent Colds/Infections"]}, {"conceptId": "C183677", "definition": "Functional Assessment of Chronic Illness Therapy-Searchable Item Library Adult: My eyesight is blurry.", "preferredTerm": "FACIT-Searchable Item Library Adult Version - My Eyesight Is Blurry", "submissionValue": "FSIL0060", "synonyms": ["FSIL-My Eyesight Is Blurry"]}, {"conceptId": "C183678", "definition": "Functional Assessment of Chronic Illness Therapy-Searchable Item Library Adult: I am bothered by a change in the way food tastes.", "preferredTerm": "FACIT-Searchable Item Library Adult Version - Bothered by Change in Food Tastes", "submissionValue": "FSIL0061", "synonyms": ["FSIL-Bothered by Change in Food Tastes"]}, {"conceptId": "C183679", "definition": "Functional Assessment of Chronic Illness Therapy-Searchable Item Library Adult: I have tremors.", "preferredTerm": "FACIT-Searchable Item Library Adult Version - I Have Tremors", "submissionValue": "FSIL0062", "synonyms": ["FSIL-I Have Tremors"]}, {"conceptId": "C183680", "definition": "Functional Assessment of Chronic Illness Therapy-Searchable Item Library Adult: I am bothered by skin problems.", "preferredTerm": "FACIT-Searchable Item Library Adult Version - Bothered by Skin Problems", "submissionValue": "FSIL0063", "synonyms": ["FSIL-Bothered by Skin Problems"]}, {"conceptId": "C183681", "definition": "Functional Assessment of Chronic Illness Therapy-Searchable Item Library Adult: I have trouble with my bowels.", "preferredTerm": "FACIT-Searchable Item Library Adult Version - I Have Trouble With My Bowels", "submissionValue": "FSIL0064", "synonyms": ["FSIL-I Have Trouble With My Bowels"]}, {"conceptId": "C183682", "definition": "Functional Assessment of Chronic Illness Therapy-Searchable Item Library Adult: My illness is a personal hardship for my close family members.", "preferredTerm": "FACIT-Searchable Item Library Adult Version - Illness Is Hardship for My Family", "submissionValue": "FSIL0065", "synonyms": ["FSIL-Illness Is Hardship for My Family"]}, {"conceptId": "C183683", "definition": "Functional Assessment of Chronic Illness Therapy-Searchable Item Library Adult: The cost of my treatment is a burden on me or my family.", "preferredTerm": "FACIT-Searchable Item Library Adult Version - Cost of Treatment Is Burden on Me", "submissionValue": "FSIL0066", "synonyms": ["FSIL-Cost of Treatment Is Burden on Me"]}, {"conceptId": "C183684", "definition": "Functional Assessment of Chronic Illness Therapy-Searchable Item Library Adult: I feel distant from other people.", "preferredTerm": "FACIT-Searchable Item Library Adult Version - I Feel Distant From Other People", "submissionValue": "FSIL0067", "synonyms": ["FSIL-I Feel Distant From Other People"]}, {"conceptId": "C183685", "definition": "Functional Assessment of Chronic Illness Therapy-Searchable Item Library Adult: I worry that the transplant will not work.", "preferredTerm": "FACIT-Searchable Item Library Adult Version - I Worry Transplant Will Not Work", "submissionValue": "FSIL0068", "synonyms": ["FSIL-I Worry Transplant Will Not Work"]}, {"conceptId": "C183686", "definition": "Functional Assessment of Chronic Illness Therapy-Searchable Item Library Adult: The side effects of treatment are worse than I had imagined.", "preferredTerm": "FACIT-Searchable Item Library Adult Version - Side Effects of Treatment Worse", "submissionValue": "FSIL0069", "synonyms": ["FSIL-Side Effects of Treatment Worse"]}, {"conceptId": "C183687", "definition": "Functional Assessment of Chronic Illness Therapy-Searchable Item Library Adult: I am able to get around by myself.", "preferredTerm": "FACIT-Searchable Item Library Adult Version - Able to Get Around by Myself", "submissionValue": "FSIL0070", "synonyms": ["FSIL-Able to Get Around by Myself"]}, {"conceptId": "C183688", "definition": "Functional Assessment of Chronic Illness Therapy-Searchable Item Library Adult: I get tired easily.", "preferredTerm": "FACIT-Searchable Item Library Adult Version - I Get Tired Easily", "submissionValue": "FSIL0071", "synonyms": ["FSIL-I Get Tired Easily"]}, {"conceptId": "C183689", "definition": "Functional Assessment of Chronic Illness Therapy-Searchable Item Library Adult: I have concerns about my ability to have children.", "preferredTerm": "FACIT-Searchable Item Library Adult Version - Concerns Ability to Have Children", "submissionValue": "FSIL0072", "synonyms": ["FSIL-Concerns Ability to Have Children"]}, {"conceptId": "C183690", "definition": "Functional Assessment of Chronic Illness Therapy-Searchable Item Library Adult: I have confidence in my nurse(s).", "preferredTerm": "FACIT-Searchable Item Library Adult Version - Confidence in My Nurse(s)", "submissionValue": "FSIL0073", "synonyms": ["FSIL-Confidence in My Nurse(s)"]}, {"conceptId": "C183691", "definition": "Functional Assessment of Chronic Illness Therapy-Searchable Item Library Adult: I regret having the bone marrow transplant.", "preferredTerm": "FACIT-Searchable Item Library Adult Version - I Regret Bone Marrow Transplant", "submissionValue": "FSIL0074", "synonyms": ["FSIL-I Regret Bone Marrow Transplant"]}, {"conceptId": "C183692", "definition": "Functional Assessment of Chronic Illness Therapy-Searchable Item Library Adult: I have bone pain.", "preferredTerm": "FACIT-Searchable Item Library Adult Version - I Have Bone Pain", "submissionValue": "FSIL0075", "synonyms": ["FSIL-I Have Bone Pain"]}, {"conceptId": "C183693", "definition": "Functional Assessment of Chronic Illness Therapy-Searchable Item Library Adult: I am frustrated by my bone pain.", "preferredTerm": "FACIT-Searchable Item Library Adult Version - Frustrated by My Bone Pain", "submissionValue": "FSIL0076", "synonyms": ["FSIL-Frustrated by My Bone Pain"]}, {"conceptId": "C183694", "definition": "Functional Assessment of Chronic Illness Therapy-Searchable Item Library Adult: I feel depressed about my bone pain.", "preferredTerm": "FACIT-Searchable Item Library Adult Version - I Feel Depressed about Bone Pain", "submissionValue": "FSIL0077", "synonyms": ["FSIL-I Feel Depressed about Bone Pain"]}, {"conceptId": "C183695", "definition": "Functional Assessment of Chronic Illness Therapy-Searchable Item Library Adult: I worry that my bone pain will get worse.", "preferredTerm": "FACIT-Searchable Item Library Adult Version - I Worry Bone Pain Will Get Worse", "submissionValue": "FSIL0078", "synonyms": ["FSIL-I Worry Bone Pain Will Get Worse"]}, {"conceptId": "C183696", "definition": "Functional Assessment of Chronic Illness Therapy-Searchable Item Library Adult: My family has trouble understanding when my bone pain interferes with my activity.", "preferredTerm": "FACIT-Searchable Item Library Adult Version - Family Trouble Understand Bone Pain", "submissionValue": "FSIL0079", "synonyms": ["FSIL-Family Trouble Understand Bone Pain"]}, {"conceptId": "C183697", "definition": "Functional Assessment of Chronic Illness Therapy-Searchable Item Library Adult: It hurts when I put weight or pressure on the place where I have bone pain.", "preferredTerm": "FACIT-Searchable Item Library Adult Version - Hurts When Put Weight/Pressure on", "submissionValue": "FSIL0080", "synonyms": ["FSIL-Hurts When Put Weight/Pressure on"]}, {"conceptId": "C183698", "definition": "Functional Assessment of Chronic Illness Therapy-Searchable Item Library Adult: I have bone pain even when I sit or lie still.", "preferredTerm": "FACIT-Searchable Item Library Adult Version - Bone Pain Even When I Sit/Lie Still", "submissionValue": "FSIL0081", "synonyms": ["FSIL-Bone Pain Even When I Sit/Lie Still"]}, {"conceptId": "C183699", "definition": "Functional Assessment of Chronic Illness Therapy-Searchable Item Library Adult: I need help doing my usual activities because of bone pain.", "preferredTerm": "FACIT-Searchable Item Library Adult Version - Need Help Doing Activ B/c Bone Pain", "submissionValue": "FSIL0082", "synonyms": ["FSIL-Need Help Doing Activ B/c Bone Pain"]}, {"conceptId": "C183700", "definition": "Functional Assessment of Chronic Illness Therapy-Searchable Item Library Adult: I am forced to rest during the day because of bone pain.", "preferredTerm": "FACIT-Searchable Item Library Adult Version - Rest During Day B/c of Bone Pain", "submissionValue": "FSIL0083", "synonyms": ["FSIL-Rest During Day B/c of Bone Pain"]}, {"conceptId": "C183701", "definition": "Functional Assessment of Chronic Illness Therapy-Searchable Item Library Adult: I have trouble walking because of bone pain.", "preferredTerm": "FACIT-Searchable Item Library Adult Version - Trouble Walking Because Bone Pain", "submissionValue": "FSIL0084", "synonyms": ["FSIL-Trouble Walking Because Bone Pain"]}, {"conceptId": "C183702", "definition": "Functional Assessment of Chronic Illness Therapy-Searchable Item Library Adult: Bone pain interferes with my ability to care for myself (bathing, dressing, eating, etc.).", "preferredTerm": "FACIT-Searchable Item Library Adult Version - Bone Pain Interferes Care Myself", "submissionValue": "FSIL0085", "synonyms": ["FSIL-Bone Pain Interferes Care Myself"]}, {"conceptId": "C183703", "definition": "Functional Assessment of Chronic Illness Therapy-Searchable Item Library Adult: Bone pain interferes with my social activities.", "preferredTerm": "FACIT-Searchable Item Library Adult Version - Bone Pain Interferes w/Social", "submissionValue": "FSIL0086", "synonyms": ["FSIL-Bone Pain Interferes w/Social"]}, {"conceptId": "C183704", "definition": "Functional Assessment of Chronic Illness Therapy-Searchable Item Library Adult: Bone pain wakes me up at night.", "preferredTerm": "FACIT-Searchable Item Library Adult Version - Bone Pain Wakes Me Up at Night", "submissionValue": "FSIL0087", "synonyms": ["FSIL-Bone Pain Wakes Me Up at Night"]}, {"conceptId": "C183705", "definition": "Functional Assessment of Chronic Illness Therapy-Searchable Item Library Adult: I am able to concentrate.", "preferredTerm": "FACIT-Searchable Item Library Adult Version - Able to Concentrate", "submissionValue": "FSIL0088", "synonyms": ["FSIL-Able to Concentrate"]}, {"conceptId": "C183706", "definition": "Functional Assessment of Chronic Illness Therapy-Searchable Item Library Adult: I am bothered by a change in my personality.", "preferredTerm": "FACIT-Searchable Item Library Adult Version - Bothered by Change in Personality", "submissionValue": "FSIL0089", "synonyms": ["FSIL-Bothered by Change in Personality"]}, {"conceptId": "C183707", "definition": "Functional Assessment of Chronic Illness Therapy-Searchable Item Library Adult: I am able to make decisions and take responsibility.", "preferredTerm": "FACIT-Searchable Item Library Adult Version - Make Decisions Take Responsibility", "submissionValue": "FSIL0090", "synonyms": ["FSIL-Make Decisions Take Responsibility"]}, {"conceptId": "C183708", "definition": "Functional Assessment of Chronic Illness Therapy-Searchable Item Library Adult: I am bothered by the drop in my contribution to the family.", "preferredTerm": "FACIT-Searchable Item Library Adult Version - Bothered by Drop in My Contribution", "submissionValue": "FSIL0091", "synonyms": ["FSIL-Bothered by Drop in My Contribution"]}, {"conceptId": "C183709", "definition": "Functional Assessment of Chronic Illness Therapy-Searchable Item Library Adult: I am able to put my thoughts together.", "preferredTerm": "FACIT-Searchable Item Library Adult Version - Able to Put My Thoughts Together", "submissionValue": "FSIL0092", "synonyms": ["FSIL-Able to Put My Thoughts Together"]}, {"conceptId": "C183710", "definition": "Functional Assessment of Chronic Illness Therapy-Searchable Item Library Adult: I need help in caring for myself (bathing, dressing, eating, etc.).", "preferredTerm": "FACIT-Searchable Item Library Adult Version - I Need Help in Caring for Myself", "submissionValue": "FSIL0093", "synonyms": ["FSIL-I Need Help in Caring for Myself"]}, {"conceptId": "C183711", "definition": "Functional Assessment of Chronic Illness Therapy-Searchable Item Library Adult: I am able to put my thoughts into action.", "preferredTerm": "FACIT-Searchable Item Library Adult Version - Able to Put My thoughts Into Action", "submissionValue": "FSIL0094", "synonyms": ["FSIL-Able to Put My thoughts Into Action"]}, {"conceptId": "C183712", "definition": "Functional Assessment of Chronic Illness Therapy-Searchable Item Library Adult: I am able to read like I used to.", "preferredTerm": "FACIT-Searchable Item Library Adult Version - Able to Read Like I Used to", "submissionValue": "FSIL0095", "synonyms": ["FSIL-Able to Read Like I Used to"]}, {"conceptId": "C183713", "definition": "Functional Assessment of Chronic Illness Therapy-Searchable Item Library Adult: I am able to write like I used to.", "preferredTerm": "FACIT-Searchable Item Library Adult Version - Able to Write Like I Used to", "submissionValue": "FSIL0096", "synonyms": ["FSIL-Able to Write Like I Used to"]}, {"conceptId": "C183714", "definition": "Functional Assessment of Chronic Illness Therapy-Searchable Item Library Adult: I am able to drive a vehicle (my car, truck, etc.).", "preferredTerm": "FACIT-Searchable Item Library Adult Version - Able to Drive a Vehicle", "submissionValue": "FSIL0097", "synonyms": ["FSIL-Able to Drive a Vehicle"]}, {"conceptId": "C183715", "definition": "Functional Assessment of Chronic Illness Therapy-Searchable Item Library Adult: I have trouble feeling sensations in my arm, hands or legs.", "preferredTerm": "FACIT-Searchable Item Library Adult Version - Trouble Feeling Arm/Hands/Legs", "submissionValue": "FSIL0098", "synonyms": ["FSIL-Trouble Feeling Arm/Hands/Legs"]}, {"conceptId": "C183716", "definition": "Functional Assessment of Chronic Illness Therapy-Searchable Item Library Adult: I have had seizures (convulsions).", "preferredTerm": "FACIT-Searchable Item Library Adult Version - I Have Had Seizures", "submissionValue": "FSIL0099", "synonyms": ["FSIL-I Have Had Seizures"]}, {"conceptId": "C183717", "definition": "Functional Assessment of Chronic Illness Therapy-Searchable Item Library Adult: I have weakness in my arms or legs.", "preferredTerm": "FACIT-Searchable Item Library Adult Version - Have Weakness in My Arms or Legs", "submissionValue": "FSIL0100", "synonyms": ["FSIL-Have Weakness in My Arms or Legs"]}, {"conceptId": "C183718", "definition": "Functional Assessment of Chronic Illness Therapy-Searchable Item Library Adult: I have trouble with coordination.", "preferredTerm": "FACIT-Searchable Item Library Adult Version - I Have Trouble With Coordination", "submissionValue": "FSIL0101", "synonyms": ["FSIL-I Have Trouble With Coordination"]}, {"conceptId": "C183719", "definition": "Functional Assessment of Chronic Illness Therapy-Searchable Item Library Adult: I can remember new things.", "preferredTerm": "FACIT-Searchable Item Library Adult Version - I Can Remember New Things", "submissionValue": "FSIL0102", "synonyms": ["FSIL-I Can Remember New Things"]}, {"conceptId": "C183720", "definition": "Functional Assessment of Chronic Illness Therapy-Searchable Item Library Adult: I get frustrated that I cannot do things I used to.", "preferredTerm": "FACIT-Searchable Item Library Adult Version - Frustrated I Cannot Do Things", "submissionValue": "FSIL0103", "synonyms": ["FSIL-Frustrated I Cannot Do Things"]}, {"conceptId": "C183721", "definition": "Functional Assessment of Chronic Illness Therapy-Searchable Item Library Adult: I am afraid of having a seizure (convulsion).", "preferredTerm": "FACIT-Searchable Item Library Adult Version - Afraid of Having a Seizure", "submissionValue": "FSIL0104", "synonyms": ["FSIL-Afraid of Having a Seizure"]}, {"conceptId": "C183722", "definition": "Functional Assessment of Chronic Illness Therapy-Searchable Item Library Adult: I have trouble with my eyesight.", "preferredTerm": "FACIT-Searchable Item Library Adult Version - I Have Trouble With My Eyesight", "submissionValue": "FSIL0105", "synonyms": ["FSIL-I Have Trouble With My Eyesight"]}, {"conceptId": "C183723", "definition": "Functional Assessment of Chronic Illness Therapy-Searchable Item Library Adult: I feel independent.", "preferredTerm": "FACIT-Searchable Item Library Adult Version - I Feel Independent", "submissionValue": "FSIL0106", "synonyms": ["FSIL-I Feel Independent"]}, {"conceptId": "C183724", "definition": "Functional Assessment of Chronic Illness Therapy-Searchable Item Library Adult: I am able to find the right word(s) to say what I mean.", "preferredTerm": "FACIT-Searchable Item Library Adult Version - Able to Find the Right Words", "submissionValue": "FSIL0107", "synonyms": ["FSIL-Able to Find the Right Words"]}, {"conceptId": "C183725", "definition": "Functional Assessment of Chronic Illness Therapy-Searchable Item Library Adult: I have difficulty expressing my thoughts.", "preferredTerm": "FACIT-Searchable Item Library Adult Version - Difficulty Expressing My Thoughts", "submissionValue": "FSIL0108", "synonyms": ["FSIL-Difficulty Expressing My Thoughts"]}, {"conceptId": "C183726", "definition": "Functional Assessment of Chronic Illness Therapy-Searchable Item Library Adult: I have pain in my joints.", "preferredTerm": "FACIT-Searchable Item Library Adult Version - I Have Pain in My Joints", "submissionValue": "FSIL0109", "synonyms": ["FSIL-I Have Pain in My Joints"]}, {"conceptId": "C183727", "definition": "Functional Assessment of Chronic Illness Therapy-Searchable Item Library Adult: I am bothered by sweating.", "preferredTerm": "FACIT-Searchable Item Library Adult Version - Bothered by Sweating", "submissionValue": "FSIL0110", "synonyms": ["FSIL-Bothered by Sweating"]}, {"conceptId": "C183728", "definition": "Functional Assessment of Chronic Illness Therapy-Searchable Item Library Adult: I am bothered by the chills.", "preferredTerm": "FACIT-Searchable Item Library Adult Version - Bothered by the Chills", "submissionValue": "FSIL0111", "synonyms": ["FSIL-Bothered by the Chills"]}, {"conceptId": "C183729", "definition": "Functional Assessment of Chronic Illness Therapy-Searchable Item Library Adult: I am bothered by fevers (episodes of high body temperature).", "preferredTerm": "FACIT-Searchable Item Library Adult Version - Bothered by Fevers", "submissionValue": "FSIL0112", "synonyms": ["FSIL-Bothered by Fevers"]}, {"conceptId": "C183730", "definition": "Functional Assessment of Chronic Illness Therapy-Searchable Item Library Adult: I am bothered by dry mouth.", "preferredTerm": "FACIT-Searchable Item Library Adult Version - Bothered by Dry Mouth", "submissionValue": "FSIL0113", "synonyms": ["FSIL-Bothered by Dry Mouth"]}, {"conceptId": "C183731", "definition": "Functional Assessment of Chronic Illness Therapy-Searchable Item Library Adult: I get depressed easily.", "preferredTerm": "FACIT-Searchable Item Library Adult Version - I Get Depressed Easily", "submissionValue": "FSIL0114", "synonyms": ["FSIL-I Get Depressed Easily"]}, {"conceptId": "C183732", "definition": "Functional Assessment of Chronic Illness Therapy-Searchable Item Library Adult: I get annoyed easily.", "preferredTerm": "FACIT-Searchable Item Library Adult Version - I Get Annoyed Easily", "submissionValue": "FSIL0115", "synonyms": ["FSIL-I Get Annoyed Easily"]}, {"conceptId": "C183733", "definition": "Functional Assessment of Chronic Illness Therapy-Searchable Item Library Adult: I have emotional ups and downs.", "preferredTerm": "FACIT-Searchable Item Library Adult Version - I Have Emotional Ups and Downs", "submissionValue": "FSIL0116", "synonyms": ["FSIL-I Have Emotional Ups and Downs"]}, {"conceptId": "C183734", "definition": "Functional Assessment of Chronic Illness Therapy-Searchable Item Library Adult: Treatment for bone disease takes up my time.", "preferredTerm": "FACIT-Searchable Item Library Adult Version - Treatment Bone Disease Takes Time", "submissionValue": "FSIL0117", "synonyms": ["FSIL-Treatment Bone Disease Takes Time"]}, {"conceptId": "C183735", "definition": "Functional Assessment of Chronic Illness Therapy-Searchable Item Library Adult: I am bothered by side effects of treatment for bone disease.", "preferredTerm": "FACIT-Searchable Item Library Adult Version - Bothered by Effects Treatment Bone", "submissionValue": "FSIL0118", "synonyms": ["FSIL-Bothered by Effects Treatment Bone"]}, {"conceptId": "C183736", "definition": "Functional Assessment of Chronic Illness Therapy-Searchable Item Library Adult: Are you satisfied with the results of the treatment for your bone disease so far?", "preferredTerm": "FACIT-Searchable Item Library Adult Version - Satisfied With Results of Treatment", "submissionValue": "FSIL0119", "synonyms": ["FSIL-Satisfied With Results of Treatment"]}, {"conceptId": "C183737", "definition": "Functional Assessment of Chronic Illness Therapy-Searchable Item Library Adult: Would you recommend this treatment for bone disease to others with your illness?", "preferredTerm": "FACIT-Searchable Item Library Adult Version - Treatment Bone Disease to Others", "submissionValue": "FSIL0120", "synonyms": ["FSIL-Treatment Bone Disease to Others"]}, {"conceptId": "C183738", "definition": "Functional Assessment of Chronic Illness Therapy-Searchable Item Library Adult: Would you choose this treatment for bone disease again?", "preferredTerm": "FACIT-Searchable Item Library Adult Version - Choose This Treatment Bone Again", "submissionValue": "FSIL0121", "synonyms": ["FSIL-Choose This Treatment Bone Again"]}, {"conceptId": "C183739", "definition": "Functional Assessment of Chronic Illness Therapy-Searchable Item Library Adult: My treatment for bone disease takes up my family's time.", "preferredTerm": "FACIT-Searchable Item Library Adult Version - Treatment Takes Up My Family's Time", "submissionValue": "FSIL0122", "synonyms": ["FSIL-Treatment Takes Up My Family's Time"]}, {"conceptId": "C183740", "definition": "Functional Assessment of Chronic Illness Therapy-Searchable Item Library Adult: I worry about side effects from treatment for bone disease.", "preferredTerm": "FACIT-Searchable Item Library Adult Version - Worry About Side Effects Treatment", "submissionValue": "FSIL0123", "synonyms": ["FSIL-Worry About Side Effects Treatment"]}, {"conceptId": "C183741", "definition": "Functional Assessment of Chronic Illness Therapy-Searchable Item Library Adult: Taking the drug by infusion is inconvenient.", "preferredTerm": "FACIT-Searchable Item Library Adult Version - Taking Drug Infusion Inconvenient", "submissionValue": "FSIL0124", "synonyms": ["FSIL-Taking Drug Infusion Inconvenient"]}, {"conceptId": "C183742", "definition": "Functional Assessment of Chronic Illness Therapy-Searchable Item Library Adult: The infusion for my bone treatment causes me physical pain.", "preferredTerm": "FACIT-Searchable Item Library Adult Version - Infusion Causes Me Physical Pain", "submissionValue": "FSIL0125", "synonyms": ["FSIL-Infusion Causes Me Physical Pain"]}, {"conceptId": "C183743", "definition": "Functional Assessment of Chronic Illness Therapy-Searchable Item Library Adult: My treatment for bone disease causes me physical pain.", "preferredTerm": "FACIT-Searchable Item Library Adult Version - Treatment Causes Me Physical Pain", "submissionValue": "FSIL0126", "synonyms": ["FSIL-Treatment Causes Me Physical Pain"]}, {"conceptId": "C183744", "definition": "Functional Assessment of Chronic Illness Therapy-Searchable Item Library Adult: Receiving treatment for bone disease is inconvenient.", "preferredTerm": "FACIT-Searchable Item Library Adult Version - Receiving Treatment Is Inconvenient", "submissionValue": "FSIL0127", "synonyms": ["FSIL-Receiving Treatment Is Inconvenient"]}, {"conceptId": "C183745", "definition": "Functional Assessment of Chronic Illness Therapy-Searchable Item Library Adult: Waiting up to 60 minutes before eating breakfast in the morning is inconvenient.", "preferredTerm": "FACIT-Searchable Item Library Adult Version - Waiting Breakfast Is Inconvenient", "submissionValue": "FSIL0128", "synonyms": ["FSIL-Waiting Breakfast Is Inconvenient"]}, {"conceptId": "C183746", "definition": "Functional Assessment of Chronic Illness Therapy-Searchable Item Library Adult: Having my blood drawn is inconvenient.", "preferredTerm": "FACIT-Searchable Item Library Adult Version - Having Blood Drawn Is Inconvenient", "submissionValue": "FSIL0129", "synonyms": ["FSIL-Having Blood Drawn Is Inconvenient"]}, {"conceptId": "C183747", "definition": "Functional Assessment of Chronic Illness Therapy-Searchable Item Library Adult: I worry that my treatment for bone disease will not be effective.", "preferredTerm": "FACIT-Searchable Item Library Adult Version - Worry Treatment Not Effective", "submissionValue": "FSIL0130", "synonyms": ["FSIL-Worry Treatment Not Effective"]}, {"conceptId": "C183748", "definition": "Functional Assessment of Chronic Illness Therapy-Searchable Item Library Adult: Treatment for bone disease seems harmful to me.", "preferredTerm": "FACIT-Searchable Item Library Adult Version - Treatment Seems Harmful to Me", "submissionValue": "FSIL0131", "synonyms": ["FSIL-Treatment Seems Harmful to Me"]}, {"conceptId": "C183749", "definition": "Functional Assessment of Chronic Illness Therapy-Searchable Item Library Adult: My treatment schedule for bone disease is stressful to me.", "preferredTerm": "FACIT-Searchable Item Library Adult Version - Treatment Schedule Stressful to Me", "submissionValue": "FSIL0132", "synonyms": ["FSIL-Treatment Schedule Stressful to Me"]}, {"conceptId": "C183750", "definition": "Functional Assessment of Chronic Illness Therapy-Searchable Item Library Adult: My treatment schedule for bone disease is stressful to my family.", "preferredTerm": "FACIT-Searchable Item Library Adult Version - Treatment Schedule Stressful Family", "submissionValue": "FSIL0133", "synonyms": ["FSIL-Treatment Schedule Stressful Family"]}, {"conceptId": "C183751", "definition": "Functional Assessment of Chronic Illness Therapy-Searchable Item Library Adult: I believe that treatment for bone disease will take up my time.", "preferredTerm": "FACIT-Searchable Item Library Adult Version - Believe Treatment Will Take Up Time", "submissionValue": "FSIL0134", "synonyms": ["FSIL-Believe Treatment Will Take Up Time"]}, {"conceptId": "C183752", "definition": "Functional Assessment of Chronic Illness Therapy-Searchable Item Library Adult: I believe that I will be bothered by side effects of treatment for bone disease.", "preferredTerm": "FACIT-Searchable Item Library Adult Version - Believe Will Be Bothered by Effects", "submissionValue": "FSIL0135", "synonyms": ["FSIL-Believe Will Be Bothered by Effects"]}, {"conceptId": "C183753", "definition": "Functional Assessment of Chronic Illness Therapy-Searchable Item Library Adult: I believe that waiting up to 60 minutes before eating breakfast in the morning will be inconvenient.", "preferredTerm": "FACIT-Searchable Item Library Adult Version - Believe Eating Will Be Inconvenient", "submissionValue": "FSIL0136", "synonyms": ["FSIL-Believe Eating Will Be Inconvenient"]}, {"conceptId": "C183754", "definition": "Functional Assessment of Chronic Illness Therapy-Searchable Item Library Adult: I believe that an infusion for my bone treatment will cause me physical pain.", "preferredTerm": "FACIT-Searchable Item Library Adult Version - Believe Infusion Will Cause Pain", "submissionValue": "FSIL0137", "synonyms": ["FSIL-Believe Infusion Will Cause Pain"]}, {"conceptId": "C183755", "definition": "Functional Assessment of Chronic Illness Therapy-Searchable Item Library Adult: I believe that having my blood drawn will be inconvenient.", "preferredTerm": "FACIT-Searchable Item Library Adult Version - Believe Blood Will Be Inconvenient", "submissionValue": "FSIL0138", "synonyms": ["FSIL-Believe Blood Will Be Inconvenient"]}, {"conceptId": "C183756", "definition": "Functional Assessment of Chronic Illness Therapy-Searchable Item Library Adult: I believe that my treatment for bone disease will take up my family's time.", "preferredTerm": "FACIT-Searchable Item Library Adult Version - Believe Treatment Take Family Time", "submissionValue": "FSIL0139", "synonyms": ["FSIL-Believe Treatment Take Family Time"]}, {"conceptId": "C183757", "definition": "Functional Assessment of Chronic Illness Therapy-Searchable Item Library Adult: I believe that my treatment for bone disease will cause me physical pain.", "preferredTerm": "FACIT-Searchable Item Library Adult Version - Believe Treatment Will Cause Pain", "submissionValue": "FSIL0140", "synonyms": ["FSIL-Believe Treatment Will Cause Pain"]}, {"conceptId": "C183758", "definition": "Functional Assessment of Chronic Illness Therapy-Searchable Item Library Adult: I believe that receiving treatment for bone disease will be inconvenient.", "preferredTerm": "FACIT-Searchable Item Library Adult Version - Believe Treatment Inconvenient", "submissionValue": "FSIL0141", "synonyms": ["FSIL-Believe Treatment Inconvenient"]}, {"conceptId": "C183759", "definition": "Functional Assessment of Chronic Illness Therapy-Searchable Item Library Adult: I believe that treatment for bone disease will be harmful to me.", "preferredTerm": "FACIT-Searchable Item Library Adult Version - Believe Treatment Will Be Harmful", "submissionValue": "FSIL0142", "synonyms": ["FSIL-Believe Treatment Will Be Harmful"]}, {"conceptId": "C183760", "definition": "Functional Assessment of Chronic Illness Therapy-Searchable Item Library Adult: I believe that my treatment schedule for bone disease will be stressful to me.", "preferredTerm": "FACIT-Searchable Item Library Adult Version - Believe Schedule Stressful to Me", "submissionValue": "FSIL0143", "synonyms": ["FSIL-Believe Schedule Stressful to Me"]}, {"conceptId": "C183761", "definition": "Functional Assessment of Chronic Illness Therapy-Searchable Item Library Adult: I believe that my treatment schedule for bone disease will be stressful to my family.", "preferredTerm": "FACIT-Searchable Item Library Adult Version - Believe Schedule Stressful Family", "submissionValue": "FSIL0144", "synonyms": ["FSIL-Believe Schedule Stressful Family"]}, {"conceptId": "C183762", "definition": "Functional Assessment of Chronic Illness Therapy-Searchable Item Library Adult: I have swelling or cramps in my stomach area.", "preferredTerm": "FACIT-Searchable Item Library Adult Version - Swelling/Cramps in Stomach Area", "submissionValue": "FSIL0145", "synonyms": ["FSIL-Swelling/Cramps in Stomach Area"]}, {"conceptId": "C183763", "definition": "Functional Assessment of Chronic Illness Therapy-Searchable Item Library Adult: I am losing weight.", "preferredTerm": "FACIT-Searchable Item Library Adult Version - Losing Weight", "submissionValue": "FSIL0146", "synonyms": ["FSIL-Losing Weight"]}, {"conceptId": "C183764", "definition": "Functional Assessment of Chronic Illness Therapy-Searchable Item Library Adult: I have control of my bowels.", "preferredTerm": "FACIT-Searchable Item Library Adult Version - I Have Control of My Bowels", "submissionValue": "FSIL0147", "synonyms": ["FSIL-I Have Control of My Bowels"]}, {"conceptId": "C183765", "definition": "Functional Assessment of Chronic Illness Therapy-Searchable Item Library Adult: I can digest my food well.", "preferredTerm": "FACIT-Searchable Item Library Adult Version - I Can Digest My Food Well", "submissionValue": "FSIL0148", "synonyms": ["FSIL-I Can Digest My Food Well"]}, {"conceptId": "C183766", "definition": "Functional Assessment of Chronic Illness Therapy-Searchable Item Library Adult: I have diarrhea (diarrhoea).", "preferredTerm": "FACIT-Searchable Item Library Adult Version - I Have Diarrhea", "submissionValue": "FSIL0149", "synonyms": ["FSIL-I Have Diarrhea"]}, {"conceptId": "C183767", "definition": "Functional Assessment of Chronic Illness Therapy-Searchable Item Library Adult: I have a good appetite.", "preferredTerm": "FACIT-Searchable Item Library Adult Version - I Have a Good Appetite", "submissionValue": "FSIL0150", "synonyms": ["FSIL-I Have a Good Appetite"]}, {"conceptId": "C183768", "definition": "Functional Assessment of Chronic Illness Therapy-Searchable Item Library Adult: I like the appearance of my body.", "preferredTerm": "FACIT-Searchable Item Library Adult Version - I Like the Appearance of My Body", "submissionValue": "FSIL0151", "synonyms": ["FSIL-I Like the Appearance of My Body"]}, {"conceptId": "C183769", "definition": "Functional Assessment of Chronic Illness Therapy-Searchable Item Library Adult: I am embarrassed by my ostomy appliance.", "preferredTerm": "FACIT-Searchable Item Library Adult Version - Embarrassed by Ostomy Appliance", "submissionValue": "FSIL0152", "synonyms": ["FSIL-Embarrassed by Ostomy Appliance"]}, {"conceptId": "C183770", "definition": "Functional Assessment of Chronic Illness Therapy-Searchable Item Library Adult: Caring for my ostomy appliance is difficult.", "preferredTerm": "FACIT-Searchable Item Library Adult Version - Caring for Ostomy Is Difficult", "submissionValue": "FSIL0153", "synonyms": ["FSIL-Caring for Ostomy Is Difficult"]}, {"conceptId": "C183771", "definition": "Functional Assessment of Chronic Illness Therapy-Searchable Item Library Adult: I am bothered by hot flashes.", "preferredTerm": "FACIT-Searchable Item Library Adult Version - Bothered by Hot Flashes", "submissionValue": "FSIL0154", "synonyms": ["FSIL-Bothered by Hot Flashes"]}, {"conceptId": "C183772", "definition": "Functional Assessment of Chronic Illness Therapy-Searchable Item Library Adult: My breasts are swollen.", "preferredTerm": "FACIT-Searchable Item Library Adult Version - My Breasts Are Swollen", "submissionValue": "FSIL0155", "synonyms": ["FSIL-My Breasts Are Swollen"]}, {"conceptId": "C183773", "definition": "Functional Assessment of Chronic Illness Therapy-Searchable Item Library Adult: My breasts are painful.", "preferredTerm": "FACIT-Searchable Item Library Adult Version - My Breasts Are Painful", "submissionValue": "FSIL0156", "synonyms": ["FSIL-My Breasts Are Painful"]}, {"conceptId": "C183774", "definition": "Functional Assessment of Chronic Illness Therapy-Searchable Item Library Adult: I have discomfort in my pelvic area.", "preferredTerm": "FACIT-Searchable Item Library Adult Version - Discomfort in My Pelvic Area", "submissionValue": "FSIL0157", "synonyms": ["FSIL-Discomfort in My Pelvic Area"]}, {"conceptId": "C183775", "definition": "Functional Assessment of Chronic Illness Therapy-Searchable Item Library Adult: I have accepted that I have this infection.", "preferredTerm": "FACIT-Searchable Item Library Adult Version - Accepted I Have This Infection", "submissionValue": "FSIL0158", "synonyms": ["FSIL-Accepted I Have This Infection"]}, {"conceptId": "C183776", "definition": "Functional Assessment of Chronic Illness Therapy-Searchable Item Library Adult: I worry that the infection will get worse.", "preferredTerm": "FACIT-Searchable Item Library Adult Version - Worry Infection Will Get Worse", "submissionValue": "FSIL0159", "synonyms": ["FSIL-Worry Infection Will Get Worse"]}, {"conceptId": "C183777", "definition": "Functional Assessment of Chronic Illness Therapy-Searchable Item Library Adult: I have hidden this problem so others will not notice.", "preferredTerm": "FACIT-Searchable Item Library Adult Version - Hidden Problem Others Not Notice", "submissionValue": "FSIL0160", "synonyms": ["FSIL-Hidden Problem Others Not Notice"]}, {"conceptId": "C183778", "definition": "Functional Assessment of Chronic Illness Therapy-Searchable Item Library Adult: I have concerns about my ability to become pregnant.", "preferredTerm": "FACIT-Searchable Item Library Adult Version - Concerns Ability Become Pregnant", "submissionValue": "FSIL0161", "synonyms": ["FSIL-Concerns Ability Become Pregnant"]}, {"conceptId": "C183779", "definition": "Functional Assessment of Chronic Illness Therapy-Searchable Item Library Adult: I worry about other people's attitudes towards me.", "preferredTerm": "FACIT-Searchable Item Library Adult Version - Worry About Attitudes Towards Me", "submissionValue": "FSIL0162", "synonyms": ["FSIL-Worry About Attitudes Towards Me"]}, {"conceptId": "C183780", "definition": "Functional Assessment of Chronic Illness Therapy-Searchable Item Library Adult: I feel embarrassed about the infection.", "preferredTerm": "FACIT-Searchable Item Library Adult Version - Embarrassed About the Infection", "submissionValue": "FSIL0163", "synonyms": ["FSIL-Embarrassed About the Infection"]}, {"conceptId": "C183781", "definition": "Functional Assessment of Chronic Illness Therapy-Searchable Item Library Adult: I tend to blame myself for the infection.", "preferredTerm": "FACIT-Searchable Item Library Adult Version - Blame Myself for the Infection", "submissionValue": "FSIL0164", "synonyms": ["FSIL-Blame Myself for the Infection"]}, {"conceptId": "C183782", "definition": "Functional Assessment of Chronic Illness Therapy-Searchable Item Library Adult: I was careful who I told about the infection.", "preferredTerm": "FACIT-Searchable Item Library Adult Version - Careful Who I told About Infection", "submissionValue": "FSIL0165", "synonyms": ["FSIL-Careful Who I told About Infection"]}, {"conceptId": "C183783", "definition": "Functional Assessment of Chronic Illness Therapy-Searchable Item Library Adult: I have had difficulty telling my partner/spouse about the infection.", "preferredTerm": "FACIT-Searchable Item Library Adult Version - Difficulty Telling Partner/Spouse", "submissionValue": "FSIL0166", "synonyms": ["FSIL-Difficulty Telling Partner/Spouse"]}, {"conceptId": "C183784", "definition": "Functional Assessment of Chronic Illness Therapy-Searchable Item Library Adult: I am frustrated by the infection.", "preferredTerm": "FACIT-Searchable Item Library Adult Version - Frustrated by the Infection", "submissionValue": "FSIL0167", "synonyms": ["FSIL-Frustrated by the Infection"]}, {"conceptId": "C183785", "definition": "Functional Assessment of Chronic Illness Therapy-Searchable Item Library Adult: I have pain in my pelvic area.", "preferredTerm": "FACIT-Searchable Item Library Adult Version - I Have Pain in My Pelvic Area", "submissionValue": "FSIL0168", "synonyms": ["FSIL-I Have Pain in My Pelvic Area"]}, {"conceptId": "C183786", "definition": "Functional Assessment of Chronic Illness Therapy-Searchable Item Library Adult: I am depressed about the infection.", "preferredTerm": "FACIT-Searchable Item Library Adult Version - Depressed About the Infection", "submissionValue": "FSIL0169", "synonyms": ["FSIL-Depressed About the Infection"]}, {"conceptId": "C183787", "definition": "Functional Assessment of Chronic Illness Therapy-Searchable Item Library Adult: I get emotional support from my partner/spouse.", "preferredTerm": "FACIT-Searchable Item Library Adult Version - Get Emotional Support Partner", "submissionValue": "FSIL0170", "synonyms": ["FSIL-Get Emotional Support Partner"]}, {"conceptId": "C183788", "definition": "Functional Assessment of Chronic Illness Therapy-Searchable Item Library Adult: I get emotional support from family members.", "preferredTerm": "FACIT-Searchable Item Library Adult Version - Emotional Support Family Members", "submissionValue": "FSIL0171", "synonyms": ["FSIL-Emotional Support Family Members"]}, {"conceptId": "C183789", "definition": "Functional Assessment of Chronic Illness Therapy-Searchable Item Library Adult: I have cramping in my pelvic area.", "preferredTerm": "FACIT-Searchable Item Library Adult Version - I Have Cramping in My Pelvic Area", "submissionValue": "FSIL0172", "synonyms": ["FSIL-I Have Cramping in My Pelvic Area"]}, {"conceptId": "C183790", "definition": "Functional Assessment of Chronic Illness Therapy-Searchable Item Library Adult: I have to limit my sexual activity because of the infection.", "preferredTerm": "FACIT-Searchable Item Library Adult Version - Limit My Sexual Activity Infection", "submissionValue": "FSIL0173", "synonyms": ["FSIL-Limit My Sexual Activity Infection"]}, {"conceptId": "C183791", "definition": "Functional Assessment of Chronic Illness Therapy-Searchable Item Library Adult: I worry about spreading the infection.", "preferredTerm": "FACIT-Searchable Item Library Adult Version - Worry About Spreading the Infection", "submissionValue": "FSIL0174", "synonyms": ["FSIL-Worry About Spreading the Infection"]}, {"conceptId": "C183792", "definition": "Functional Assessment of Chronic Illness Therapy-Searchable Item Library Adult: I feel that I received the treatment that was right for me.", "preferredTerm": "FACIT-Searchable Item Library Adult Version - Received Treatment That Was Right", "submissionValue": "FSIL0175", "synonyms": ["FSIL-Received Treatment That Was Right"]}, {"conceptId": "C183793", "definition": "Functional Assessment of Chronic Illness Therapy-Searchable Item Library Adult: My doctor gave me explanations that I could understand.", "preferredTerm": "FACIT-Searchable Item Library Adult Version - Doctor Gave Explanations Understand", "submissionValue": "FSIL0176", "synonyms": ["FSIL-Doctor Gave Explanations Understand"]}, {"conceptId": "C183794", "definition": "Functional Assessment of Chronic Illness Therapy-Searchable Item Library Adult: My doctor explained the possible benefits of my treatment.", "preferredTerm": "FACIT-Searchable Item Library Adult Version - Doctor Explained Possible Benefits", "submissionValue": "FSIL0177", "synonyms": ["FSIL-Doctor Explained Possible Benefits"]}, {"conceptId": "C183795", "definition": "Functional Assessment of Chronic Illness Therapy-Searchable Item Library Adult: I feel that I can manage things that come up around this infection.", "preferredTerm": "FACIT-Searchable Item Library Adult Version - Can Manage Things Around Infection", "submissionValue": "FSIL0178", "synonyms": ["FSIL-Can Manage Things Around Infection"]}, {"conceptId": "C183796", "definition": "Functional Assessment of Chronic Illness Therapy-Searchable Item Library Adult: I am able to maintain my balance.", "preferredTerm": "FACIT-Searchable Item Library Adult Version - Able to Maintain My Balance", "submissionValue": "FSIL0179", "synonyms": ["FSIL-Able to Maintain My Balance"]}, {"conceptId": "C183797", "definition": "Functional Assessment of Chronic Illness Therapy-Searchable Item Library Adult: I am able to walk.", "preferredTerm": "FACIT-Searchable Item Library Adult Version - Able to Walk", "submissionValue": "FSIL0180", "synonyms": ["FSIL-Able to Walk"]}, {"conceptId": "C183798", "definition": "Functional Assessment of Chronic Illness Therapy-Searchable Item Library Adult: I have strength in my arm(s).", "preferredTerm": "FACIT-Searchable Item Library Adult Version - I Have Strength in My Arm(s)", "submissionValue": "FSIL0181", "synonyms": ["FSIL-I Have Strength in My Arm(s)"]}, {"conceptId": "C183799", "definition": "Functional Assessment of Chronic Illness Therapy-Searchable Item Library Adult: I have strength in my legs.", "preferredTerm": "FACIT-Searchable Item Library Adult Version - I Have Strength in My Legs", "submissionValue": "FSIL0182", "synonyms": ["FSIL-I Have Strength in My Legs"]}, {"conceptId": "C183800", "definition": "Functional Assessment of Chronic Illness Therapy-Searchable Item Library Adult: I have numbness in my legs.", "preferredTerm": "FACIT-Searchable Item Library Adult Version - I Have Numbness in My Legs", "submissionValue": "FSIL0183", "synonyms": ["FSIL-I Have Numbness in My Legs"]}, {"conceptId": "C183801", "definition": "Functional Assessment of Chronic Illness Therapy-Searchable Item Library Adult: I have pain in my back.", "preferredTerm": "FACIT-Searchable Item Library Adult Version - I Have Pain in My Back", "submissionValue": "FSIL0184", "synonyms": ["FSIL-I Have Pain in My Back"]}, {"conceptId": "C183802", "definition": "Functional Assessment of Chronic Illness Therapy-Searchable Item Library Adult: I have had trouble forming thoughts.", "preferredTerm": "FACIT-Searchable Item Library Adult Version - I Have Trouble Forming Thoughts", "submissionValue": "FSIL0185", "synonyms": ["FSIL-I Have Trouble Forming Thoughts"]}, {"conceptId": "C183803", "definition": "Functional Assessment of Chronic Illness Therapy-Searchable Item Library Adult: My thinking has been slow.", "preferredTerm": "FACIT-Searchable Item Library Adult Version - My Thinking Has Been Slow", "submissionValue": "FSIL0186", "synonyms": ["FSIL-My Thinking Has Been Slow"]}, {"conceptId": "C183804", "definition": "Functional Assessment of Chronic Illness Therapy-Searchable Item Library Adult: I have had to work harder than usual to keep track of what I was doing.", "preferredTerm": "FACIT-Searchable Item Library Adult Version - Work Harder Than Usual to Track", "submissionValue": "FSIL0187", "synonyms": ["FSIL-Work Harder Than Usual to Track"]}, {"conceptId": "C183805", "definition": "Functional Assessment of Chronic Illness Therapy-Searchable Item Library Adult: My thinking has been slower than usual.", "preferredTerm": "FACIT-Searchable Item Library Adult Version - My Thinking Slower Than Usual", "submissionValue": "FSIL0188", "synonyms": ["FSIL-My Thinking Slower Than Usual"]}, {"conceptId": "C183806", "definition": "Functional Assessment of Chronic Illness Therapy-Searchable Item Library Adult: I have had to work harder than usual to express myself clearly.", "preferredTerm": "FACIT-Searchable Item Library Adult Version - Work Harder Than Usual to Express", "submissionValue": "FSIL0189", "synonyms": ["FSIL-Work Harder Than Usual to Express"]}, {"conceptId": "C183807", "definition": "Functional Assessment of Chronic Illness Therapy-Searchable Item Library Adult: I have had to use written lists more often than usual so I would not forget things.", "preferredTerm": "FACIT-Searchable Item Library Adult Version - Use Written Lists More Often", "submissionValue": "FSIL0190", "synonyms": ["FSIL-Use Written Lists More Often"]}, {"conceptId": "C183808", "definition": "Functional Assessment of Chronic Illness Therapy-Searchable Item Library Adult: I have had trouble concentrating.", "preferredTerm": "FACIT-Searchable Item Library Adult Version - I Have Had Trouble Concentrating", "submissionValue": "FSIL0191", "synonyms": ["FSIL-I Have Had Trouble Concentrating"]}, {"conceptId": "C183809", "definition": "Functional Assessment of Chronic Illness Therapy-Searchable Item Library Adult: I have walked into a room and forgotten what I meant to get or do there.", "preferredTerm": "FACIT-Searchable Item Library Adult Version - Walked Into a Room and Forgotten", "submissionValue": "FSIL0192", "synonyms": ["FSIL-Walked Into a Room and Forgotten"]}, {"conceptId": "C183810", "definition": "Functional Assessment of Chronic Illness Therapy-Searchable Item Library Adult: I have had to work really hard to pay attention or I would make a mistake.", "preferredTerm": "FACIT-Searchable Item Library Adult Version - Work Hard to Pay Attention", "submissionValue": "FSIL0193", "synonyms": ["FSIL-Work Hard to Pay Attention"]}, {"conceptId": "C183811", "definition": "Functional Assessment of Chronic Illness Therapy-Searchable Item Library Adult: I have forgotten names of people soon after being introduced.", "preferredTerm": "FACIT-Searchable Item Library Adult Version - Forgotten Names After Introduced", "submissionValue": "FSIL0194", "synonyms": ["FSIL-Forgotten Names After Introduced"]}, {"conceptId": "C183812", "definition": "Functional Assessment of Chronic Illness Therapy-Searchable Item Library Adult: My reactions in everyday situations have been slow.", "preferredTerm": "FACIT-Searchable Item Library Adult Version - Reaction Everyday Situations Slow", "submissionValue": "FSIL0195", "synonyms": ["FSIL-Reaction Everyday Situations Slow"]}, {"conceptId": "C183813", "definition": "Functional Assessment of Chronic Illness Therapy-Searchable Item Library Adult: I have had trouble remembering where I put things, like my keys or my wallet.", "preferredTerm": "FACIT-Searchable Item Library Adult Version - Trouble Remember Where Put Things", "submissionValue": "FSIL0196", "synonyms": ["FSIL-Trouble Remember Where Put Things"]}, {"conceptId": "C183814", "definition": "Functional Assessment of Chronic Illness Therapy-Searchable Item Library Adult: I have had trouble remembering new information, like phone numbers or simple instructions.", "preferredTerm": "FACIT-Searchable Item Library Adult Version - Trouble Remembering New Info", "submissionValue": "FSIL0197", "synonyms": ["FSIL-Trouble Remembering New Info"]}, {"conceptId": "C183815", "definition": "Functional Assessment of Chronic Illness Therapy-Searchable Item Library Adult: I have had trouble finding my way to a familiar place.", "preferredTerm": "FACIT-Searchable Item Library Adult Version - Trouble Finding Familiar Place", "submissionValue": "FSIL0198", "synonyms": ["FSIL-Trouble Finding Familiar Place"]}, {"conceptId": "C183816", "definition": "Functional Assessment of Chronic Illness Therapy-Searchable Item Library Adult: I have trouble keeping track of what I am doing if I am interrupted.", "preferredTerm": "FACIT-Searchable Item Library Adult Version - Trouble Keeping Track Interrupted", "submissionValue": "FSIL0199", "synonyms": ["FSIL-Trouble Keeping Track Interrupted"]}, {"conceptId": "C183817", "definition": "Functional Assessment of Chronic Illness Therapy-Searchable Item Library Adult: I have trouble shifting back and forth between different activities that require thinking.", "preferredTerm": "FACIT-Searchable Item Library Adult Version - Trouble Shifting Back and Forth", "submissionValue": "FSIL0200", "synonyms": ["FSIL-Trouble Shifting Back and Forth"]}, {"conceptId": "C183818", "definition": "Functional Assessment of Chronic Illness Therapy-Searchable Item Library Adult: Other people have told me I seemed to have trouble remembering information.", "preferredTerm": "FACIT-Searchable Item Library Adult Version - Told Me Trouble Remembering Info", "submissionValue": "FSIL0201", "synonyms": ["FSIL-Told Me Trouble Remembering Info"]}, {"conceptId": "C183819", "definition": "Functional Assessment of Chronic Illness Therapy-Searchable Item Library Adult: Other people have told me I seemed to have trouble speaking clearly.", "preferredTerm": "FACIT-Searchable Item Library Adult Version - Told Me Trouble Speaking Clearly", "submissionValue": "FSIL0202", "synonyms": ["FSIL-Told Me Trouble Speaking Clearly"]}, {"conceptId": "C183820", "definition": "Functional Assessment of Chronic Illness Therapy-Searchable Item Library Adult: Other people have told me I seemed to have trouble thinking clearly.", "preferredTerm": "FACIT-Searchable Item Library Adult Version - Told Me Trouble Thinking Clearly", "submissionValue": "FSIL0203", "synonyms": ["FSIL-Told Me Trouble Thinking Clearly"]}, {"conceptId": "C183821", "definition": "Functional Assessment of Chronic Illness Therapy-Searchable Item Library Adult: Other people have told me I seemed confused.", "preferredTerm": "FACIT-Searchable Item Library Adult Version - People Told Me I Seemed Confused", "submissionValue": "FSIL0204", "synonyms": ["FSIL-People Told Me I Seemed Confused"]}, {"conceptId": "C183822", "definition": "Functional Assessment of Chronic Illness Therapy-Searchable Item Library Adult: I have been able to concentrate.", "preferredTerm": "FACIT-Searchable Item Library Adult Version - I Have Been Able to Concentrate", "submissionValue": "FSIL0205", "synonyms": ["FSIL-I Have Been Able to Concentrate"]}, {"conceptId": "C183823", "definition": "Functional Assessment of Chronic Illness Therapy-Searchable Item Library Adult: My mind is as sharp as it has always been.", "preferredTerm": "FACIT-Searchable Item Library Adult Version - Mind Is as Sharp as Always Been", "submissionValue": "FSIL0206", "synonyms": ["FSIL-Mind Is as Sharp as Always Been"]}, {"conceptId": "C183824", "definition": "Functional Assessment of Chronic Illness Therapy-Searchable Item Library Adult: My memory is as good as it has always been.", "preferredTerm": "FACIT-Searchable Item Library Adult Version - Memory Is as Good as Always Been", "submissionValue": "FSIL0207", "synonyms": ["FSIL-Memory Is as Good as Always Been"]}, {"conceptId": "C183825", "definition": "Functional Assessment of Chronic Illness Therapy-Searchable Item Library Adult: I am able to pay attention and keep track of what I am doing without extra effort.", "preferredTerm": "FACIT-Searchable Item Library Adult Version - Able to Pay Attention w/o Effort", "submissionValue": "FSIL0208", "synonyms": ["FSIL-Able to Pay Attention w/o Effort"]}, {"conceptId": "C183826", "definition": "Functional Assessment of Chronic Illness Therapy-Searchable Item Library Adult: I have been able to remember things, like where I left my keys or wallet.", "preferredTerm": "FACIT-Searchable Item Library Adult Version - Able Remember Things Where Left", "submissionValue": "FSIL0209", "synonyms": ["FSIL-Able Remember Things Where Left"]}, {"conceptId": "C183827", "definition": "Functional Assessment of Chronic Illness Therapy-Searchable Item Library Adult: I have been able to remember to do things, like take medicine or buy something I needed.", "preferredTerm": "FACIT-Searchable Item Library Adult Version - Able Remember to Do Things", "submissionValue": "FSIL0210", "synonyms": ["FSIL-Able Remember to Do Things"]}, {"conceptId": "C183828", "definition": "Functional Assessment of Chronic Illness Therapy-Searchable Item Library Adult: I am able to shift back and forth between two activities that require thinking.", "preferredTerm": "FACIT-Searchable Item Library Adult Version - Able to Shift Between Activities", "submissionValue": "FSIL0211", "synonyms": ["FSIL-Able to Shift Between Activities"]}, {"conceptId": "C183829", "definition": "Functional Assessment of Chronic Illness Therapy-Searchable Item Library Adult: I am able to keep track of what I am doing, even if I am interrupted.", "preferredTerm": "FACIT-Searchable Item Library Adult Version - Able to Track What I Am Doing", "submissionValue": "FSIL0212", "synonyms": ["FSIL-Able to Track What I Am Doing"]}, {"conceptId": "C183830", "definition": "Functional Assessment of Chronic Illness Therapy-Searchable Item Library Adult: I have been able to bring to mind words that I wanted to use while talking to someone.", "preferredTerm": "FACIT-Searchable Item Library Adult Version - Able to Bring to Mind Words", "submissionValue": "FSIL0213", "synonyms": ["FSIL-Able to Bring to Mind Words"]}, {"conceptId": "C183831", "definition": "Functional Assessment of Chronic Illness Therapy-Searchable Item Library Adult: I have been upset about these problems.", "preferredTerm": "FACIT-Searchable Item Library Adult Version - I Have Been Upset About Problems", "submissionValue": "FSIL0214", "synonyms": ["FSIL-I Have Been Upset About Problems"]}, {"conceptId": "C183832", "definition": "Functional Assessment of Chronic Illness Therapy-Searchable Item Library Adult: These problems have interfered with my ability to work.", "preferredTerm": "FACIT-Searchable Item Library Adult Version - Problems Interfered Ability Work", "submissionValue": "FSIL0215", "synonyms": ["FSIL-Problems Interfered Ability Work"]}, {"conceptId": "C183833", "definition": "Functional Assessment of Chronic Illness Therapy-Searchable Item Library Adult: These problems have interfered with my ability to do things I enjoy.", "preferredTerm": "FACIT-Searchable Item Library Adult Version - Problems Interfered Ability Enjoy", "submissionValue": "FSIL0216", "synonyms": ["FSIL-Problems Interfered Ability Enjoy"]}, {"conceptId": "C183834", "definition": "Functional Assessment of Chronic Illness Therapy-Searchable Item Library Adult: These problems have interfered with the quality of my life.", "preferredTerm": "FACIT-Searchable Item Library Adult Version - Problems Interfered Quality Life", "submissionValue": "FSIL0217", "synonyms": ["FSIL-Problems Interfered Quality Life"]}, {"conceptId": "C183835", "definition": "Functional Assessment of Chronic Illness Therapy-Searchable Item Library Adult: I have had trouble recalling the name of an object while talking to someone.", "preferredTerm": "FACIT-Searchable Item Library Adult Version - Trouble Recalling Name of Object", "submissionValue": "FSIL0218", "synonyms": ["FSIL-Trouble Recalling Name of Object"]}, {"conceptId": "C183836", "definition": "Functional Assessment of Chronic Illness Therapy-Searchable Item Library Adult: I have had trouble finding the right word(s) to express myself.", "preferredTerm": "FACIT-Searchable Item Library Adult Version - Trouble Finding Right Words", "submissionValue": "FSIL0219", "synonyms": ["FSIL-Trouble Finding Right Words"]}, {"conceptId": "C183837", "definition": "Functional Assessment of Chronic Illness Therapy-Searchable Item Library Adult: I have used the wrong word when I referred to an object.", "preferredTerm": "FACIT-Searchable Item Library Adult Version - Used Wrong Word When Refer Object", "submissionValue": "FSIL0220", "synonyms": ["FSIL-Used Wrong Word When Refer Object"]}, {"conceptId": "C183838", "definition": "Functional Assessment of Chronic Illness Therapy-Searchable Item Library Adult: I have had trouble saying what I mean in conversations with others.", "preferredTerm": "FACIT-Searchable Item Library Adult Version - Trouble Saying What I Mean", "submissionValue": "FSIL0221", "synonyms": ["FSIL-Trouble Saying What I Mean"]}, {"conceptId": "C183839", "definition": "Functional Assessment of Chronic Illness Therapy-Searchable Item Library Adult: Chemotherapy treatment takes up my time.", "preferredTerm": "FACIT-Searchable Item Library Adult Version - Chemo Treatment Takes Up My Time", "submissionValue": "FSIL0222", "synonyms": ["FSIL-Chemo Treatment Takes Up My Time"]}, {"conceptId": "C183840", "definition": "Functional Assessment of Chronic Illness Therapy-Searchable Item Library Adult: Are you satisfied with the current results of your chemotherapy?", "preferredTerm": "FACIT-Searchable Item Library Adult Version - Satisfied With Results Chemo", "submissionValue": "FSIL0223", "synonyms": ["FSIL-Satisfied With Results Chemo"]}, {"conceptId": "C183841", "definition": "Functional Assessment of Chronic Illness Therapy-Searchable Item Library Adult: Would you recommend this chemotherapy to others with your illness?", "preferredTerm": "FACIT-Searchable Item Library Adult Version - Recommend Chemo to Others", "submissionValue": "FSIL0224", "synonyms": ["FSIL-Recommend Chemo to Others"]}, {"conceptId": "C183842", "definition": "Functional Assessment of Chronic Illness Therapy-Searchable Item Library Adult: Would you choose this chemotherapy again?", "preferredTerm": "FACIT-Searchable Item Library Adult Version - Choose This Chemo Again", "submissionValue": "FSIL0225", "synonyms": ["FSIL-Choose This Chemo Again"]}, {"conceptId": "C183843", "definition": "Functional Assessment of Chronic Illness Therapy-Searchable Item Library Adult: How would you rate this chemotherapy?", "preferredTerm": "FACIT-Searchable Item Library Adult Version - Rate This Chemo", "submissionValue": "FSIL0226", "synonyms": ["FSIL-Rate This Chemo"]}, {"conceptId": "C183844", "definition": "Functional Assessment of Chronic Illness Therapy-Searchable Item Library Adult: My chemotherapy treatment takes up my family's time.", "preferredTerm": "FACIT-Searchable Item Library Adult Version - Chemo Takes Family Time", "submissionValue": "FSIL0227", "synonyms": ["FSIL-Chemo Takes Family Time"]}, {"conceptId": "C183845", "definition": "Functional Assessment of Chronic Illness Therapy-Searchable Item Library Adult: I worry about side effects from chemotherapy treatment.", "preferredTerm": "FACIT-Searchable Item Library Adult Version - Worry Side Effects From Chemo", "submissionValue": "FSIL0228", "synonyms": ["FSIL-Worry Side Effects From Chemo"]}, {"conceptId": "C183846", "definition": "Functional Assessment of Chronic Illness Therapy-Searchable Item Library Adult: My chemotherapy treatment causes me physical pain.", "preferredTerm": "FACIT-Searchable Item Library Adult Version - Chemo Causes Physical Pain", "submissionValue": "FSIL0229", "synonyms": ["FSIL-Chemo Causes Physical Pain"]}, {"conceptId": "C183847", "definition": "Functional Assessment of Chronic Illness Therapy-Searchable Item Library Adult: Receiving chemotherapy is inconvenient.", "preferredTerm": "FACIT-Searchable Item Library Adult Version - Receiving Chemo Inconvenient", "submissionValue": "FSIL0230", "synonyms": ["FSIL-Receiving Chemo Inconvenient"]}, {"conceptId": "C183848", "definition": "Functional Assessment of Chronic Illness Therapy-Searchable Item Library Adult: I worry that my chemotherapy will not be effective.", "preferredTerm": "FACIT-Searchable Item Library Adult Version - Worry Chemo Not Effective", "submissionValue": "FSIL0231", "synonyms": ["FSIL-Worry Chemo Not Effective"]}, {"conceptId": "C183849", "definition": "Functional Assessment of Chronic Illness Therapy-Searchable Item Library Adult: Chemotherapy treatment seems harmful to me.", "preferredTerm": "FACIT-Searchable Item Library Adult Version - Chemo Seems Harmful", "submissionValue": "FSIL0232", "synonyms": ["FSIL-Chemo Seems Harmful"]}, {"conceptId": "C183850", "definition": "Functional Assessment of Chronic Illness Therapy-Searchable Item Library Adult: My chemotherapy schedule is stressful to me.", "preferredTerm": "FACIT-Searchable Item Library Adult Version - Chemo Schedule Is Stressful Me", "submissionValue": "FSIL0233", "synonyms": ["FSIL-Chemo Schedule Is Stressful Me"]}, {"conceptId": "C183851", "definition": "Functional Assessment of Chronic Illness Therapy-Searchable Item Library Adult: My chemotherapy schedule is stressful to my family.", "preferredTerm": "FACIT-Searchable Item Library Adult Version - Chemo Schedule Is Stressful Family", "submissionValue": "FSIL0234", "synonyms": ["FSIL-Chemo Schedule Is Stressful Family"]}, {"conceptId": "C183852", "definition": "Functional Assessment of Chronic Illness Therapy-Searchable Item Library Adult: I believe chemotherapy treatment will take up my time.", "preferredTerm": "FACIT-Searchable Item Library Adult Version - Believe Chemo Take Up My Time", "submissionValue": "FSIL0235", "synonyms": ["FSIL-Believe Chemo Take Up My Time"]}, {"conceptId": "C183853", "definition": "Functional Assessment of Chronic Illness Therapy-Searchable Item Library Adult: I believe my chemotherapy treatment will cause me physical pain.", "preferredTerm": "FACIT-Searchable Item Library Adult Version - Believe Chemo Cause Physical Pain", "submissionValue": "FSIL0236", "synonyms": ["FSIL-Believe Chemo Cause Physical Pain"]}, {"conceptId": "C183854", "definition": "Functional Assessment of Chronic Illness Therapy-Searchable Item Library Adult: I believe receiving chemotherapy will be inconvenient.", "preferredTerm": "FACIT-Searchable Item Library Adult Version - Believe Chemo Inconvenient", "submissionValue": "FSIL0237", "synonyms": ["FSIL-Believe Chemo Inconvenient"]}, {"conceptId": "C183855", "definition": "Functional Assessment of Chronic Illness Therapy-Searchable Item Library Adult: I believe chemotherapy treatment will be harmful to me.", "preferredTerm": "FACIT-Searchable Item Library Adult Version - Believe Chemo Harmful to Me", "submissionValue": "FSIL0238", "synonyms": ["FSIL-Believe Chemo Harmful to Me"]}, {"conceptId": "C183856", "definition": "Functional Assessment of Chronic Illness Therapy-Searchable Item Library Adult: I believe my chemotherapy schedule will be stressful to me.", "preferredTerm": "FACIT-Searchable Item Library Adult Version - Believe Chemo Schedule Stressful Me", "submissionValue": "FSIL0239", "synonyms": ["FSIL-Believe Chemo Schedule Stressful Me"]}, {"conceptId": "C183857", "definition": "Functional Assessment of Chronic Illness Therapy-Searchable Item Library Adult: I believe my chemotherapy schedule will be stressful to my family.", "preferredTerm": "FACIT-Searchable Item Library Adult Version - Believe Chemo Sched Stress Family", "submissionValue": "FSIL0240", "synonyms": ["FSIL-Believe Chemo Sched Stress Family"]}, {"conceptId": "C183858", "definition": "Functional Assessment of Chronic Illness Therapy-Searchable Item Library Adult: My skin itches.", "preferredTerm": "FACIT-Searchable Item Library Adult Version - My Skin Itches", "submissionValue": "FSIL0241", "synonyms": ["FSIL-My Skin Itches"]}, {"conceptId": "C183859", "definition": "Functional Assessment of Chronic Illness Therapy-Searchable Item Library Adult: I have trouble sleeping because of my skin condition.", "preferredTerm": "FACIT-Searchable Item Library Adult Version - Trouble Sleeping B/c Skin Condition", "submissionValue": "FSIL0242", "synonyms": ["FSIL-Trouble Sleeping B/c Skin Condition"]}, {"conceptId": "C183860", "definition": "Functional Assessment of Chronic Illness Therapy-Searchable Item Library Adult: My family is bothered by my skin condition.", "preferredTerm": "FACIT-Searchable Item Library Adult Version - Family Bothered by Skin Condition", "submissionValue": "FSIL0243", "synonyms": ["FSIL-Family Bothered by Skin Condition"]}, {"conceptId": "C183861", "definition": "Functional Assessment of Chronic Illness Therapy-Searchable Item Library Adult: I have difficulty doing things with my hands because of the condition of my skin.", "preferredTerm": "FACIT-Searchable Item Library Adult Version - Difficulty Doing Things B/c of Skin", "submissionValue": "FSIL0244", "synonyms": ["FSIL-Difficulty Doing Things B/c of Skin"]}, {"conceptId": "C183862", "definition": "Functional Assessment of Chronic Illness Therapy-Searchable Item Library Adult: I have difficulty walking because of my skin condition.", "preferredTerm": "FACIT-Searchable Item Library Adult Version - Difficulty Walking B/c of Skin", "submissionValue": "FSIL0245", "synonyms": ["FSIL-Difficulty Walking B/c of Skin"]}, {"conceptId": "C183863", "definition": "Functional Assessment of Chronic Illness Therapy-Searchable Item Library Adult: I am bothered by the red or pink appearance of my skin.", "preferredTerm": "FACIT-Searchable Item Library Adult Version - Bothered Red/Pink Appearance Skin", "submissionValue": "FSIL0246", "synonyms": ["FSIL-Bothered Red/Pink Appearance Skin"]}, {"conceptId": "C183864", "definition": "Functional Assessment of Chronic Illness Therapy-Searchable Item Library Adult: I am bothered by uncertainty about my prognosis.", "preferredTerm": "FACIT-Searchable Item Library Adult Version - Bothered by Uncertainty Prognosis", "submissionValue": "FSIL0247", "synonyms": ["FSIL-Bothered by Uncertainty Prognosis"]}, {"conceptId": "C183865", "definition": "Functional Assessment of Chronic Illness Therapy-Searchable Item Library Adult: I am tired of dealing with my skin condition.", "preferredTerm": "FACIT-Searchable Item Library Adult Version - Tired Dealing With Skin Condition", "submissionValue": "FSIL0248", "synonyms": ["FSIL-Tired Dealing With Skin Condition"]}, {"conceptId": "C183866", "definition": "Functional Assessment of Chronic Illness Therapy-Searchable Item Library Adult: I have painful lesions or tumors on my skin.", "preferredTerm": "FACIT-Searchable Item Library Adult Version - Painful Lesions/Tumors on My Skin", "submissionValue": "FSIL0249", "synonyms": ["FSIL-Painful Lesions/Tumors on My Skin"]}, {"conceptId": "C183867", "definition": "Functional Assessment of Chronic Illness Therapy-Searchable Item Library Adult: I am bothered by the inconvenience of treatment for my skin condition.", "preferredTerm": "FACIT-Searchable Item Library Adult Version - Bothered Inconvenience Treat Skin", "submissionValue": "FSIL0250", "synonyms": ["FSIL-Bothered Inconvenience Treat Skin"]}, {"conceptId": "C183868", "definition": "Functional Assessment of Chronic Illness Therapy-Searchable Item Library Adult: My skin feels sensitive or \"raw\".", "preferredTerm": "FACIT-Searchable Item Library Adult Version - Skin Feels Sensitive or Raw", "submissionValue": "FSIL0251", "synonyms": ["FSIL-Skin Feels Sensitive or Raw"]}, {"conceptId": "C183869", "definition": "Functional Assessment of Chronic Illness Therapy-Searchable Item Library Adult: I have painful cracks in the skin on my hands or feet.", "preferredTerm": "FACIT-Searchable Item Library Adult Version - Painful Cracks Skin on Hands/Feet", "submissionValue": "FSIL0252", "synonyms": ["FSIL-Painful Cracks Skin on Hands/Feet"]}, {"conceptId": "C183870", "definition": "Functional Assessment of Chronic Illness Therapy-Searchable Item Library Adult: My skin feels irritated.", "preferredTerm": "FACIT-Searchable Item Library Adult Version - My Skin Feels Irritated", "submissionValue": "FSIL0253", "synonyms": ["FSIL-My Skin Feels Irritated"]}, {"conceptId": "C183871", "definition": "Functional Assessment of Chronic Illness Therapy-Searchable Item Library Adult: I worry that my skin condition may get worse.", "preferredTerm": "FACIT-Searchable Item Library Adult Version - Worry Skin condition Get Worse", "submissionValue": "FSIL0254", "synonyms": ["FSIL-Worry Skin condition Get Worse"]}, {"conceptId": "C183872", "definition": "Functional Assessment of Chronic Illness Therapy-Searchable Item Library Adult: I am embarrassed by the appearance of my skin.", "preferredTerm": "FACIT-Searchable Item Library Adult Version - Embarrassed by Appearance of Skin", "submissionValue": "FSIL0255", "synonyms": ["FSIL-Embarrassed by Appearance of Skin"]}, {"conceptId": "C183873", "definition": "Functional Assessment of Chronic Illness Therapy-Searchable Item Library Adult: I am frustrated by my skin condition.", "preferredTerm": "FACIT-Searchable Item Library Adult Version - Frustrated by My Skin Condition", "submissionValue": "FSIL0256", "synonyms": ["FSIL-Frustrated by My Skin Condition"]}, {"conceptId": "C183874", "definition": "Functional Assessment of Chronic Illness Therapy-Searchable Item Library Adult: My skin is dry or \"flaky\".", "preferredTerm": "FACIT-Searchable Item Library Adult Version - Skin Is Dry or Flaky", "submissionValue": "FSIL0257", "synonyms": ["FSIL-Skin Is Dry or Flaky"]}, {"conceptId": "C183875", "definition": "Functional Assessment of Chronic Illness Therapy-Searchable Item Library Adult: I am bothered by discharge or bleeding from my vagina.", "preferredTerm": "FACIT-Searchable Item Library Adult Version - Bothered Discharge/Bleeding Vagina", "submissionValue": "FSIL0258", "synonyms": ["FSIL-Bothered Discharge/Bleeding Vagina"]}, {"conceptId": "C183876", "definition": "Functional Assessment of Chronic Illness Therapy-Searchable Item Library Adult: I am bothered by odor coming from my vagina.", "preferredTerm": "FACIT-Searchable Item Library Adult Version - Bothered by Odor From Vagina", "submissionValue": "FSIL0259", "synonyms": ["FSIL-Bothered by Odor From Vagina"]}, {"conceptId": "C183877", "definition": "Functional Assessment of Chronic Illness Therapy-Searchable Item Library Adult: I am afraid to have sex.", "preferredTerm": "FACIT-Searchable Item Library Adult Version - Afraid to Have Sex", "submissionValue": "FSIL0260", "synonyms": ["FSIL-Afraid to Have Sex"]}, {"conceptId": "C183878", "definition": "Functional Assessment of Chronic Illness Therapy-Searchable Item Library Adult: My vagina feels too narrow or short.", "preferredTerm": "FACIT-Searchable Item Library Adult Version - Vagina Feels Too Narrow/Short", "submissionValue": "FSIL0261", "synonyms": ["FSIL-Vagina Feels Too Narrow/Short"]}, {"conceptId": "C183879", "definition": "Functional Assessment of Chronic Illness Therapy-Searchable Item Library Adult: I am afraid the treatment may harm my body.", "preferredTerm": "FACIT-Searchable Item Library Adult Version - Afraid Treatment May Harm Body", "submissionValue": "FSIL0262", "synonyms": ["FSIL-Afraid Treatment May Harm Body"]}, {"conceptId": "C183880", "definition": "Functional Assessment of Chronic Illness Therapy-Searchable Item Library Adult: I am bothered by constipation.", "preferredTerm": "FACIT-Searchable Item Library Adult Version - Bothered by Constipation", "submissionValue": "FSIL0263", "synonyms": ["FSIL-Bothered by Constipation"]}, {"conceptId": "C183881", "definition": "Functional Assessment of Chronic Illness Therapy-Searchable Item Library Adult: I have discomfort when I urinate.", "preferredTerm": "FACIT-Searchable Item Library Adult Version - I Have Discomfort When I Urinate", "submissionValue": "FSIL0264", "synonyms": ["FSIL-I Have Discomfort When I Urinate"]}, {"conceptId": "C183882", "definition": "Functional Assessment of Chronic Illness Therapy-Searchable Item Library Adult: I have to limit my social activity because of diarrhea (diarrhoea).", "preferredTerm": "FACIT-Searchable Item Library Adult Version - Limit Social Activity B/c Diarrhea", "submissionValue": "FSIL0265", "synonyms": ["FSIL-Limit Social Activity B/c Diarrhea"]}, {"conceptId": "C183883", "definition": "Functional Assessment of Chronic Illness Therapy-Searchable Item Library Adult: I have to limit my physical activity because of diarrhea (diarrhoea).", "preferredTerm": "FACIT-Searchable Item Library Adult Version - Limit Physical Activ B/c Diarrhea", "submissionValue": "FSIL0266", "synonyms": ["FSIL-Limit Physical Activ B/c Diarrhea"]}, {"conceptId": "C183884", "definition": "Functional Assessment of Chronic Illness Therapy-Searchable Item Library Adult: I have to limit my sexual activity because of diarrhea (diarrhoea).", "preferredTerm": "FACIT-Searchable Item Library Adult Version - Limit Sexual Activity B/c Diarrhea", "submissionValue": "FSIL0267", "synonyms": ["FSIL-Limit Sexual Activity B/c Diarrhea"]}, {"conceptId": "C183885", "definition": "Functional Assessment of Chronic Illness Therapy-Searchable Item Library Adult: I am embarrassed by having diarrhea (diarrhoea).", "preferredTerm": "FACIT-Searchable Item Library Adult Version - Embarrassed by Having Diarrhea", "submissionValue": "FSIL0268", "synonyms": ["FSIL-Embarrassed by Having Diarrhea"]}, {"conceptId": "C183886", "definition": "Functional Assessment of Chronic Illness Therapy-Searchable Item Library Adult: I have abdominal cramps or discomfort due to my diarrhea (diarrhoea).", "preferredTerm": "FACIT-Searchable Item Library Adult Version - Abdominal Cramps Diarrhea", "submissionValue": "FSIL0269", "synonyms": ["FSIL-Abdominal Cramps Diarrhea"]}, {"conceptId": "C183887", "definition": "Functional Assessment of Chronic Illness Therapy-Searchable Item Library Adult: My problem with diarrhea (diarrhoea) keeps/wakes me up at night.", "preferredTerm": "FACIT-Searchable Item Library Adult Version - Diarrhea Keeps/Wakes Me Up at Night", "submissionValue": "FSIL0270", "synonyms": ["FSIL-Diarrhea Keeps/Wakes Me Up at Night"]}, {"conceptId": "C183888", "definition": "Functional Assessment of Chronic Illness Therapy-Searchable Item Library Adult: Dressing yourself without help.", "preferredTerm": "FACIT-Searchable Item Library Adult Version - Dressing Yourself Without Help", "submissionValue": "FSIL0271", "synonyms": ["FSIL-Dressing Yourself Without Help"]}, {"conceptId": "C183889", "definition": "Functional Assessment of Chronic Illness Therapy-Searchable Item Library Adult: Walking 50 steps/paces on flat ground at a normal speed without stopping.", "preferredTerm": "FACIT-Searchable Item Library Adult Version - Walking 50 Steps Flat Normal Speed", "submissionValue": "FSIL0272", "synonyms": ["FSIL-Walking 50 Steps Flat Normal Speed"]}, {"conceptId": "C183890", "definition": "Functional Assessment of Chronic Illness Therapy-Searchable Item Library Adult: Walking up 20 stairs (2 flights) without stopping.", "preferredTerm": "FACIT-Searchable Item Library Adult Version - Walking Up 20 Stairs w/o Stopping", "submissionValue": "FSIL0273", "synonyms": ["FSIL-Walking Up 20 Stairs w/o Stopping"]}, {"conceptId": "C183891", "definition": "Functional Assessment of Chronic Illness Therapy-Searchable Item Library Adult: Preparing meals.", "preferredTerm": "FACIT-Searchable Item Library Adult Version - Preparing Meals", "submissionValue": "FSIL0274", "synonyms": ["FSIL-Preparing Meals"]}, {"conceptId": "C183892", "definition": "Functional Assessment of Chronic Illness Therapy-Searchable Item Library Adult: Washing dishes.", "preferredTerm": "FACIT-Searchable Item Library Adult Version - Washing Dishes", "submissionValue": "FSIL0275", "synonyms": ["FSIL-Washing Dishes"]}, {"conceptId": "C183893", "definition": "Functional Assessment of Chronic Illness Therapy-Searchable Item Library Adult: Sweeping or mopping.", "preferredTerm": "FACIT-Searchable Item Library Adult Version - Sweeping/Mopping", "submissionValue": "FSIL0276", "synonyms": ["FSIL-Sweeping/Mopping"]}, {"conceptId": "C183894", "definition": "Functional Assessment of Chronic Illness Therapy-Searchable Item Library Adult: Making a bed.", "preferredTerm": "FACIT-Searchable Item Library Adult Version - Making a Bed", "submissionValue": "FSIL0277", "synonyms": ["FSIL-Making a Bed"]}, {"conceptId": "C183895", "definition": "Functional Assessment of Chronic Illness Therapy-Searchable Item Library Adult: Lifting something weighing 10-20 lbs (about 4.5-9kg, like a large bag of groceries).", "preferredTerm": "FACIT-Searchable Item Library Adult Version - Lifting 10-20 Lbs", "submissionValue": "FSIL0278", "synonyms": ["FSIL-Lifting 10-20 Lbs"]}, {"conceptId": "C183896", "definition": "Functional Assessment of Chronic Illness Therapy-Searchable Item Library Adult: Carrying something weighing 10-20 lbs (about 4.5-9kg, like a large bag of groceries) from one room to another.", "preferredTerm": "FACIT-Searchable Item Library Adult Version - Carrying 10-20 Lbs", "submissionValue": "FSIL0279", "synonyms": ["FSIL-Carrying 10-20 Lbs"]}, {"conceptId": "C183897", "definition": "Functional Assessment of Chronic Illness Therapy-Searchable Item Library Adult: Walking (faster than your usual speed) for 1/2 mile (almost 1 km) without stopping.", "preferredTerm": "FACIT-Searchable Item Library Adult Version - Walking for 1/2 Mile w/o Stopping", "submissionValue": "FSIL0280", "synonyms": ["FSIL-Walking for 1/2 Mile w/o Stopping"]}, {"conceptId": "C183898", "definition": "Functional Assessment of Chronic Illness Therapy-Searchable Item Library Adult: I have difficulty swallowing solid foods.", "preferredTerm": "FACIT-Searchable Item Library Adult Version - Difficulty Swallowing Solid Foods", "submissionValue": "FSIL0281", "synonyms": ["FSIL-Difficulty Swallowing Solid Foods"]}, {"conceptId": "C183899", "definition": "Functional Assessment of Chronic Illness Therapy-Searchable Item Library Adult: I have difficulty swallowing soft or mashed foods.", "preferredTerm": "FACIT-Searchable Item Library Adult Version - Difficulty Swallowing Soft Foods", "submissionValue": "FSIL0282", "synonyms": ["FSIL-Difficulty Swallowing Soft Foods"]}, {"conceptId": "C183900", "definition": "Functional Assessment of Chronic Illness Therapy-Searchable Item Library Adult: I have difficulty swallowing liquids.", "preferredTerm": "FACIT-Searchable Item Library Adult Version - Difficulty Swallowing Liquids", "submissionValue": "FSIL0283", "synonyms": ["FSIL-Difficulty Swallowing Liquids"]}, {"conceptId": "C183901", "definition": "Functional Assessment of Chronic Illness Therapy-Searchable Item Library Adult: I have pain in my chest when I swallow.", "preferredTerm": "FACIT-Searchable Item Library Adult Version - Pain in My Chest When I Swallow", "submissionValue": "FSIL0284", "synonyms": ["FSIL-Pain in My Chest When I Swallow"]}, {"conceptId": "C183902", "definition": "Functional Assessment of Chronic Illness Therapy-Searchable Item Library Adult: I choke when I swallow.", "preferredTerm": "FACIT-Searchable Item Library Adult Version - I Choke When I Swallow", "submissionValue": "FSIL0285", "synonyms": ["FSIL-I Choke When I Swallow"]}, {"conceptId": "C183903", "definition": "Functional Assessment of Chronic Illness Therapy-Searchable Item Library Adult: I am able to enjoy meals with family or friends.", "preferredTerm": "FACIT-Searchable Item Library Adult Version - Enjoy Meals With Family/Friends", "submissionValue": "FSIL0286", "synonyms": ["FSIL-Enjoy Meals With Family/Friends"]}, {"conceptId": "C183904", "definition": "Functional Assessment of Chronic Illness Therapy-Searchable Item Library Adult: I wake at night because of coughing.", "preferredTerm": "FACIT-Searchable Item Library Adult Version - Wake at Night Because of Coughing", "submissionValue": "FSIL0287", "synonyms": ["FSIL-Wake at Night Because of Coughing"]}, {"conceptId": "C183905", "definition": "Functional Assessment of Chronic Illness Therapy-Searchable Item Library Adult: I experience a pleasant feeling of fullness during or after my tube feeding.", "preferredTerm": "FACIT-Searchable Item Library Adult Version - Pleasant Feel Fullness Tube Feeding", "submissionValue": "FSIL0288", "synonyms": ["FSIL-Pleasant Feel Fullness Tube Feeding"]}, {"conceptId": "C183906", "definition": "Functional Assessment of Chronic Illness Therapy-Searchable Item Library Adult: I have the desire to eat.", "preferredTerm": "FACIT-Searchable Item Library Adult Version - I Have the Desire to Eat", "submissionValue": "FSIL0289", "synonyms": ["FSIL-I Have the Desire to Eat"]}, {"conceptId": "C183907", "definition": "Functional Assessment of Chronic Illness Therapy-Searchable Item Library Adult: I worry that having a feeding tube means my health is worse.", "preferredTerm": "FACIT-Searchable Item Library Adult Version - Worry Feeding Tube Health Is Worse", "submissionValue": "FSIL0290", "synonyms": ["FSIL-Worry Feeding Tube Health Is Worse"]}, {"conceptId": "C183908", "definition": "Functional Assessment of Chronic Illness Therapy-Searchable Item Library Adult: I worry about the tube coming out by accident.", "preferredTerm": "FACIT-Searchable Item Library Adult Version - Worry Tube Coming Out by Accident", "submissionValue": "FSIL0291", "synonyms": ["FSIL-Worry Tube Coming Out by Accident"]}, {"conceptId": "C183909", "definition": "Functional Assessment of Chronic Illness Therapy-Searchable Item Library Adult: I worry about the tube getting plugged or blocked.", "preferredTerm": "FACIT-Searchable Item Library Adult Version - Worry Tube Getting Plugged/Blocked", "submissionValue": "FSIL0292", "synonyms": ["FSIL-Worry Tube Getting Plugged/Blocked"]}, {"conceptId": "C183910", "definition": "Functional Assessment of Chronic Illness Therapy-Searchable Item Library Adult: I worry about getting an infection from the feeding tube.", "preferredTerm": "FACIT-Searchable Item Library Adult Version - Worry Infection From Feeding Tube", "submissionValue": "FSIL0293", "synonyms": ["FSIL-Worry Infection From Feeding Tube"]}, {"conceptId": "C183911", "definition": "Functional Assessment of Chronic Illness Therapy-Searchable Item Library Adult: I worry about losing weight because I have a feeding tube.", "preferredTerm": "FACIT-Searchable Item Library Adult Version - Worry Losing Weight Feeding Tube", "submissionValue": "FSIL0294", "synonyms": ["FSIL-Worry Losing Weight Feeding Tube"]}, {"conceptId": "C183912", "definition": "Functional Assessment of Chronic Illness Therapy-Searchable Item Library Adult: I feel that I have lost control of my food choices because I have a feeding tube.", "preferredTerm": "FACIT-Searchable Item Library Adult Version - Lost Food Choices Feeding Tube", "submissionValue": "FSIL0295", "synonyms": ["FSIL-Lost Food Choices Feeding Tube"]}, {"conceptId": "C183913", "definition": "Functional Assessment of Chronic Illness Therapy-Searchable Item Library Adult: I feel dependent on others because I have a feeding tube.", "preferredTerm": "FACIT-Searchable Item Library Adult Version - Dependent on Others Feeding Tube", "submissionValue": "FSIL0296", "synonyms": ["FSIL-Dependent on Others Feeding Tube"]}, {"conceptId": "C183914", "definition": "Functional Assessment of Chronic Illness Therapy-Searchable Item Library Adult: I feel left out when others are eating.", "preferredTerm": "FACIT-Searchable Item Library Adult Version - Left Out When Others Are Eating", "submissionValue": "FSIL0297", "synonyms": ["FSIL-Left Out When Others Are Eating"]}, {"conceptId": "C183915", "definition": "Functional Assessment of Chronic Illness Therapy-Searchable Item Library Adult: I am more confident about my nutrition because of my feeding tube.", "preferredTerm": "FACIT-Searchable Item Library Adult Version - Confident Nutrition Feeding Tube", "submissionValue": "FSIL0298", "synonyms": ["FSIL-Confident Nutrition Feeding Tube"]}, {"conceptId": "C183916", "definition": "Functional Assessment of Chronic Illness Therapy-Searchable Item Library Adult: I feel uncomfortably full during or after my tube feeding.", "preferredTerm": "FACIT-Searchable Item Library Adult Version - Uncomfortably Full Tube Feeding", "submissionValue": "FSIL0299", "synonyms": ["FSIL-Uncomfortably Full Tube Feeding"]}, {"conceptId": "C183917", "definition": "Functional Assessment of Chronic Illness Therapy-Searchable Item Library Adult: Getting a feeding tube was the right decision for me.", "preferredTerm": "FACIT-Searchable Item Library Adult Version - Feeding Tube Was Right Decision", "submissionValue": "FSIL0300", "synonyms": ["FSIL-Feeding Tube Was Right Decision"]}, {"conceptId": "C183918", "definition": "Functional Assessment of Chronic Illness Therapy-Searchable Item Library Adult: I have constipation during or after my tube feeding.", "preferredTerm": "FACIT-Searchable Item Library Adult Version - Constipation Dur/After Tube Feeding", "submissionValue": "FSIL0301", "synonyms": ["FSIL-Constipation Dur/After Tube Feeding"]}, {"conceptId": "C183919", "definition": "Functional Assessment of Chronic Illness Therapy-Searchable Item Library Adult: I experience vomiting during or after my tube feeding.", "preferredTerm": "FACIT-Searchable Item Library Adult Version - Vomiting Dur/After Tube Feeding", "submissionValue": "FSIL0302", "synonyms": ["FSIL-Vomiting Dur/After Tube Feeding"]}, {"conceptId": "C183920", "definition": "Functional Assessment of Chronic Illness Therapy-Searchable Item Library Adult: Tube feeding limits what I can do inside the house (for example housework, watching TV or reading).", "preferredTerm": "FACIT-Searchable Item Library Adult Version - Tube Feed Limits Do Inside House", "submissionValue": "FSIL0303", "synonyms": ["FSIL-Tube Feed Limits Do Inside House"]}, {"conceptId": "C183921", "definition": "Functional Assessment of Chronic Illness Therapy-Searchable Item Library Adult: Tube feeding limits what I can do outside of the house (for example shopping, driving or yard work).", "preferredTerm": "FACIT-Searchable Item Library Adult Version - Tube Feeding Limits Do Outside", "submissionValue": "FSIL0304", "synonyms": ["FSIL-Tube Feeding Limits Do Outside"]}, {"conceptId": "C183922", "definition": "Functional Assessment of Chronic Illness Therapy-Searchable Item Library Adult: Tube feeding limits my activities with my friends.", "preferredTerm": "FACIT-Searchable Item Library Adult Version - Tube Feeding Limits Activities", "submissionValue": "FSIL0305", "synonyms": ["FSIL-Tube Feeding Limits Activities"]}, {"conceptId": "C183923", "definition": "Functional Assessment of Chronic Illness Therapy-Searchable Item Library Adult: During the use of tube feeding, I can eat and drink by mouth.", "preferredTerm": "FACIT-Searchable Item Library Adult Version - Dur Tube Feeding Eat/Drink by Mouth", "submissionValue": "FSIL0306", "synonyms": ["FSIL-Dur Tube Feeding Eat/Drink by Mouth"]}, {"conceptId": "C183924", "definition": "Functional Assessment of Chronic Illness Therapy-Searchable Item Library Adult: I miss being able to take more food or drink by mouth now that I have a feeding tube.", "preferredTerm": "FACIT-Searchable Item Library Adult Version - Miss Food/Drink Mouth Feeding Tube", "submissionValue": "FSIL0307", "synonyms": ["FSIL-Miss Food/Drink Mouth Feeding Tube"]}, {"conceptId": "C183925", "definition": "Functional Assessment of Chronic Illness Therapy-Searchable Item Library Adult: I have trouble digesting food.", "preferredTerm": "FACIT-Searchable Item Library Adult Version - Trouble Digesting Food", "submissionValue": "FSIL0308", "synonyms": ["FSIL-Trouble Digesting Food"]}, {"conceptId": "C183926", "definition": "Functional Assessment of Chronic Illness Therapy-Searchable Item Library Adult: I have discomfort or pain in my pelvic area.", "preferredTerm": "FACIT-Searchable Item Library Adult Version - Discomfort/Pain in My Pelvic Area", "submissionValue": "FSIL0309", "synonyms": ["FSIL-Discomfort/Pain in My Pelvic Area"]}, {"conceptId": "C183927", "definition": "Functional Assessment of Chronic Illness Therapy-Searchable Item Library Adult: I have hot flashes/hot flushes.", "preferredTerm": "FACIT-Searchable Item Library Adult Version - I Have Hot Flashes/Hot Flushes", "submissionValue": "FSIL0310", "synonyms": ["FSIL-I Have Hot Flashes/Hot Flushes"]}, {"conceptId": "C183928", "definition": "Functional Assessment of Chronic Illness Therapy-Searchable Item Library Adult: I have gained weight.", "preferredTerm": "FACIT-Searchable Item Library Adult Version - I Have Gained Weight", "submissionValue": "FSIL0311", "synonyms": ["FSIL-I Have Gained Weight"]}, {"conceptId": "C183929", "definition": "Functional Assessment of Chronic Illness Therapy-Searchable Item Library Adult: I have breast sensitivity/tenderness.", "preferredTerm": "FACIT-Searchable Item Library Adult Version - Have Breast Sensitivity/Tenderness", "submissionValue": "FSIL0312", "synonyms": ["FSIL-Have Breast Sensitivity/Tenderness"]}, {"conceptId": "C183930", "definition": "Functional Assessment of Chronic Illness Therapy-Searchable Item Library Adult: I have mood swings.", "preferredTerm": "FACIT-Searchable Item Library Adult Version - I Have Mood Swings", "submissionValue": "FSIL0313", "synonyms": ["FSIL-I Have Mood Swings"]}, {"conceptId": "C183931", "definition": "Functional Assessment of Chronic Illness Therapy-Searchable Item Library Adult: I am irritable.", "preferredTerm": "FACIT-Searchable Item Library Adult Version - Irritable", "submissionValue": "FSIL0314", "synonyms": ["FSIL-Irritable"]}, {"conceptId": "C183932", "definition": "Functional Assessment of Chronic Illness Therapy-Searchable Item Library Adult: I have cold sweats.", "preferredTerm": "FACIT-Searchable Item Library Adult Version - I Have Cold Sweats", "submissionValue": "FSIL0315", "synonyms": ["FSIL-I Have Cold Sweats"]}, {"conceptId": "C183933", "definition": "Functional Assessment of Chronic Illness Therapy-Searchable Item Library Adult: I have night sweats.", "preferredTerm": "FACIT-Searchable Item Library Adult Version - I Have Night Sweats", "submissionValue": "FSIL0316", "synonyms": ["FSIL-I Have Night Sweats"]}, {"conceptId": "C183934", "definition": "Functional Assessment of Chronic Illness Therapy-Searchable Item Library Adult: I have vaginal discharge.", "preferredTerm": "FACIT-Searchable Item Library Adult Version - I Have Vaginal Discharge", "submissionValue": "FSIL0317", "synonyms": ["FSIL-I Have Vaginal Discharge"]}, {"conceptId": "C183935", "definition": "Functional Assessment of Chronic Illness Therapy-Searchable Item Library Adult: I have vaginal itching/irritation.", "preferredTerm": "FACIT-Searchable Item Library Adult Version - I Have Vaginal Itching/Irritation", "submissionValue": "FSIL0318", "synonyms": ["FSIL-I Have Vaginal Itching/Irritation"]}, {"conceptId": "C183936", "definition": "Functional Assessment of Chronic Illness Therapy-Searchable Item Library Adult: I have vaginal bleeding or spotting.", "preferredTerm": "FACIT-Searchable Item Library Adult Version - I Have Vaginal Bleeding or Spotting", "submissionValue": "FSIL0319", "synonyms": ["FSIL-I Have Vaginal Bleeding or Spotting"]}, {"conceptId": "C183937", "definition": "Functional Assessment of Chronic Illness Therapy-Searchable Item Library Adult: I have vaginal dryness.", "preferredTerm": "FACIT-Searchable Item Library Adult Version - I Have Vaginal Dryness", "submissionValue": "FSIL0320", "synonyms": ["FSIL-I Have Vaginal Dryness"]}, {"conceptId": "C183938", "definition": "Functional Assessment of Chronic Illness Therapy-Searchable Item Library Adult: I have pain or discomfort with intercourse.", "preferredTerm": "FACIT-Searchable Item Library Adult Version - Have Pain/Discomfort w/Intercourse", "submissionValue": "FSIL0321", "synonyms": ["FSIL-Have Pain/Discomfort w/Intercourse"]}, {"conceptId": "C183939", "definition": "Functional Assessment of Chronic Illness Therapy-Searchable Item Library Adult: I have lost interest in sex.", "preferredTerm": "FACIT-Searchable Item Library Adult Version - I Have Lost Interest in Sex", "submissionValue": "FSIL0322", "synonyms": ["FSIL-I Have Lost Interest in Sex"]}, {"conceptId": "C183940", "definition": "Functional Assessment of Chronic Illness Therapy-Searchable Item Library Adult: I know that I have enough money in savings, retirement, or assets to cover the costs of my treatment.", "preferredTerm": "FACIT-Searchable Item Library Adult Version - Enough Money to Cover Treatment", "submissionValue": "FSIL0323", "synonyms": ["FSIL-Enough Money to Cover Treatment"]}, {"conceptId": "C183941", "definition": "Functional Assessment of Chronic Illness Therapy-Searchable Item Library Adult: My cancer or treatment has reduced my satisfaction with my present financial situation.", "preferredTerm": "FACIT-Searchable Item Library Adult Version - Reduced Satisfaction Financial", "submissionValue": "FSIL0324", "synonyms": ["FSIL-Reduced Satisfaction Financial"]}, {"conceptId": "C183942", "definition": "Functional Assessment of Chronic Illness Therapy-Searchable Item Library Adult: I feel in control of my financial situation.", "preferredTerm": "FACIT-Searchable Item Library Adult Version - In control of Financial Situation", "submissionValue": "FSIL0325", "synonyms": ["FSIL-In control of Financial Situation"]}, {"conceptId": "C183943", "definition": "Functional Assessment of Chronic Illness Therapy-Searchable Item Library Adult: My illness has been a financial hardship to my family and me.", "preferredTerm": "FACIT-Searchable Item Library Adult Version - Illness a Financial Hardship", "submissionValue": "FSIL0326", "synonyms": ["FSIL-Illness a Financial Hardship"]}, {"conceptId": "C183944", "definition": "Functional Assessment of Chronic Illness Therapy-Searchable Item Library Adult: My out-of-pocket medical expenses are more than I thought they would be.", "preferredTerm": "FACIT-Searchable Item Library Adult Version - Medical Expense More Than I Thought", "submissionValue": "FSIL0327", "synonyms": ["FSIL-Medical Expense More Than I Thought"]}, {"conceptId": "C183945", "definition": "Functional Assessment of Chronic Illness Therapy-Searchable Item Library Adult: I worry about the financial problems I will have in the future as a result of my illness or treatment.", "preferredTerm": "FACIT-Searchable Item Library Adult Version - Worry Financial Problems in Future", "submissionValue": "FSIL0328", "synonyms": ["FSIL-Worry Financial Problems in Future"]}, {"conceptId": "C183946", "definition": "Functional Assessment of Chronic Illness Therapy-Searchable Item Library Adult: I feel I have no choice about the amount of money I spend on care.", "preferredTerm": "FACIT-Searchable Item Library Adult Version - No Choice Money Spend on Care", "submissionValue": "FSIL0329", "synonyms": ["FSIL-No Choice Money Spend on Care"]}, {"conceptId": "C183947", "definition": "Functional Assessment of Chronic Illness Therapy-Searchable Item Library Adult: I am frustrated that I cannot work or contribute as much as I usually do.", "preferredTerm": "FACIT-Searchable Item Library Adult Version - Frustrated Cannot Work as Usual", "submissionValue": "FSIL0330", "synonyms": ["FSIL-Frustrated Cannot Work as Usual"]}, {"conceptId": "C183948", "definition": "Functional Assessment of Chronic Illness Therapy-Searchable Item Library Adult: I am satisfied with my current financial situation.", "preferredTerm": "FACIT-Searchable Item Library Adult Version - Satisfied With Financial Situation", "submissionValue": "FSIL0331", "synonyms": ["FSIL-Satisfied With Financial Situation"]}, {"conceptId": "C183949", "definition": "Functional Assessment of Chronic Illness Therapy-Searchable Item Library Adult: I am able to meet my monthly expenses.", "preferredTerm": "FACIT-Searchable Item Library Adult Version - Able to Meet My Monthly Expenses", "submissionValue": "FSIL0332", "synonyms": ["FSIL-Able to Meet My Monthly Expenses"]}, {"conceptId": "C183950", "definition": "Functional Assessment of Chronic Illness Therapy-Searchable Item Library Adult: I feel financially stressed.", "preferredTerm": "FACIT-Searchable Item Library Adult Version - Feel Financially Stressed", "submissionValue": "FSIL0333", "synonyms": ["FSIL-Feel Financially Stressed"]}, {"conceptId": "C183951", "definition": "Functional Assessment of Chronic Illness Therapy-Searchable Item Library Adult: I am concerned about keeping my job and income, including work at home.", "preferredTerm": "FACIT-Searchable Item Library Adult Version - Concerned Keeping My Job and Income", "submissionValue": "FSIL0334", "synonyms": ["FSIL-Concerned Keeping My Job and Income"]}, {"conceptId": "C183952", "definition": "Functional Assessment of Chronic Illness Therapy-Searchable Item Library Adult: I have a loss of appetite.", "preferredTerm": "FACIT-Searchable Item Library Adult Version - I Have a Loss of Appetite", "submissionValue": "FSIL0335", "synonyms": ["FSIL-I Have a Loss of Appetite"]}, {"conceptId": "C183953", "definition": "Functional Assessment of Chronic Illness Therapy-Searchable Item Library Adult: My digestive problems interfere with my usual activities.", "preferredTerm": "FACIT-Searchable Item Library Adult Version - Digestive Problems Interfere Activ", "submissionValue": "FSIL0336", "synonyms": ["FSIL-Digestive Problems Interfere Activ"]}, {"conceptId": "C183954", "definition": "Functional Assessment of Chronic Illness Therapy-Searchable Item Library Adult: I have trouble swallowing food.", "preferredTerm": "FACIT-Searchable Item Library Adult Version - Have Trouble Swallowing Food", "submissionValue": "FSIL0337", "synonyms": ["FSIL-Have Trouble Swallowing Food"]}, {"conceptId": "C183955", "definition": "Functional Assessment of Chronic Illness Therapy-Searchable Item Library Adult: I am bothered by gas (flatulence).", "preferredTerm": "FACIT-Searchable Item Library Adult Version - Bothered by Gas", "submissionValue": "FSIL0338", "synonyms": ["FSIL-Bothered by Gas"]}, {"conceptId": "C183956", "definition": "Functional Assessment of Chronic Illness Therapy-Searchable Item Library Adult: I am bothered by reflux or heartburn.", "preferredTerm": "FACIT-Searchable Item Library Adult Version - Bothered by Reflux or Heartburn", "submissionValue": "FSIL0339", "synonyms": ["FSIL-Bothered by Reflux or Heartburn"]}, {"conceptId": "C183957", "definition": "Functional Assessment of Chronic Illness Therapy-Searchable Item Library Adult: I am bothered by a change in my eating habits.", "preferredTerm": "FACIT-Searchable Item Library Adult Version - Bothered by Change in Eating Habits", "submissionValue": "FSIL0340", "synonyms": ["FSIL-Bothered by Change in Eating Habits"]}, {"conceptId": "C183958", "definition": "Functional Assessment of Chronic Illness Therapy-Searchable Item Library Adult: I have a feeling of fullness or heaviness in my stomach area.", "preferredTerm": "FACIT-Searchable Item Library Adult Version - Fullness/Heaviness in Stomach Area", "submissionValue": "FSIL0341", "synonyms": ["FSIL-Fullness/Heaviness in Stomach Area"]}, {"conceptId": "C183959", "definition": "Functional Assessment of Chronic Illness Therapy-Searchable Item Library Adult: I have discomfort or pain when I eat.", "preferredTerm": "FACIT-Searchable Item Library Adult Version - Discomfort or Pain When I Eat", "submissionValue": "FSIL0342", "synonyms": ["FSIL-Discomfort or Pain When I Eat"]}, {"conceptId": "C183960", "definition": "Functional Assessment of Chronic Illness Therapy-Searchable Item Library Adult: I have stomach problems that worry me.", "preferredTerm": "FACIT-Searchable Item Library Adult Version - Stomach Problems That Worry Me", "submissionValue": "FSIL0343", "synonyms": ["FSIL-Stomach Problems That Worry Me"]}, {"conceptId": "C183961", "definition": "Functional Assessment of Chronic Illness Therapy-Searchable Item Library Adult: I avoid going out to eat because of my illness.", "preferredTerm": "FACIT-Searchable Item Library Adult Version - Avoid Going Out to Eat B/c Illness", "submissionValue": "FSIL0344", "synonyms": ["FSIL-Avoid Going Out to Eat B/c Illness"]}, {"conceptId": "C183962", "definition": "Functional Assessment of Chronic Illness Therapy-Searchable Item Library Adult: I feel sad.", "preferredTerm": "FACIT-Searchable Item Library Adult Version - I Feel Sad", "submissionValue": "FSIL0345", "synonyms": ["FSIL-I Feel Sad"]}, {"conceptId": "C183963", "definition": "Functional Assessment of Chronic Illness Therapy-Searchable Item Library Adult: I am satisfied with how I am coping with my illness.", "preferredTerm": "FACIT-Searchable Item Library Adult Version - Satisfied With How I Am Coping", "submissionValue": "FSIL0346", "synonyms": ["FSIL-Satisfied With How I Am Coping"]}, {"conceptId": "C183964", "definition": "Functional Assessment of Chronic Illness Therapy-Searchable Item Library Adult: I am losing hope in the fight against my illness.", "preferredTerm": "FACIT-Searchable Item Library Adult Version - Losing Hope Fight Against Illness", "submissionValue": "FSIL0347", "synonyms": ["FSIL-Losing Hope Fight Against Illness"]}, {"conceptId": "C183965", "definition": "Functional Assessment of Chronic Illness Therapy-Searchable Item Library Adult: I feel nervous.", "preferredTerm": "FACIT-Searchable Item Library Adult Version - I Feel Nervous", "submissionValue": "FSIL0348", "synonyms": ["FSIL-I Feel Nervous"]}, {"conceptId": "C183966", "definition": "Functional Assessment of Chronic Illness Therapy-Searchable Item Library Adult: I worry about dying.", "preferredTerm": "FACIT-Searchable Item Library Adult Version - I Worry About Dying", "submissionValue": "FSIL0349", "synonyms": ["FSIL-I Worry About Dying"]}, {"conceptId": "C183967", "definition": "Functional Assessment of Chronic Illness Therapy-Searchable Item Library Adult: I worry that my condition will get worse.", "preferredTerm": "FACIT-Searchable Item Library Adult Version - Worry My Condition Will Get Worse", "submissionValue": "FSIL0350", "synonyms": ["FSIL-Worry My Condition Will Get Worse"]}, {"conceptId": "C183968", "definition": "Functional Assessment of Chronic Illness Therapy-Searchable Item Library Adult: I am able to work (include work at home).", "preferredTerm": "FACIT-Searchable Item Library Adult Version - Able to Work", "submissionValue": "FSIL0351", "synonyms": ["FSIL-Able to Work"]}, {"conceptId": "C183969", "definition": "Functional Assessment of Chronic Illness Therapy-Searchable Item Library Adult: My work (include work at home) is fulfilling.", "preferredTerm": "FACIT-Searchable Item Library Adult Version - My Work Is Fulfilling", "submissionValue": "FSIL0352", "synonyms": ["FSIL-My Work Is Fulfilling"]}, {"conceptId": "C183970", "definition": "Functional Assessment of Chronic Illness Therapy-Searchable Item Library Adult: I am able to enjoy life.", "preferredTerm": "FACIT-Searchable Item Library Adult Version - Able to Enjoy Life", "submissionValue": "FSIL0353", "synonyms": ["FSIL-Able to Enjoy Life"]}, {"conceptId": "C183971", "definition": "Functional Assessment of Chronic Illness Therapy-Searchable Item Library Adult: I have accepted my illness.", "preferredTerm": "FACIT-Searchable Item Library Adult Version - I Have Accepted My Illness", "submissionValue": "FSIL0354", "synonyms": ["FSIL-I Have Accepted My Illness"]}, {"conceptId": "C183972", "definition": "Functional Assessment of Chronic Illness Therapy-Searchable Item Library Adult: I am sleeping well.", "preferredTerm": "FACIT-Searchable Item Library Adult Version - Sleeping Well", "submissionValue": "FSIL0355", "synonyms": ["FSIL-Sleeping Well"]}, {"conceptId": "C183973", "definition": "Functional Assessment of Chronic Illness Therapy-Searchable Item Library Adult: I am enjoying the things I usually do for fun.", "preferredTerm": "FACIT-Searchable Item Library Adult Version - Enjoy Things I Usually Do for Fun", "submissionValue": "FSIL0356", "synonyms": ["FSIL-Enjoy Things I Usually Do for Fun"]}, {"conceptId": "C183974", "definition": "Functional Assessment of Chronic Illness Therapy-Searchable Item Library Adult: I am content with the quality of my life right now.", "preferredTerm": "FACIT-Searchable Item Library Adult Version - Content With Quality of My Life Now", "submissionValue": "FSIL0357", "synonyms": ["FSIL-Content With Quality of My Life Now"]}, {"conceptId": "C183975", "definition": "Functional Assessment of Chronic Illness Therapy-Searchable Item Library Adult: I have a lack of energy.", "preferredTerm": "FACIT-Searchable Item Library Adult Version - I Have a Lack of Energy", "submissionValue": "FSIL0358", "synonyms": ["FSIL-I Have a Lack of Energy"]}, {"conceptId": "C183976", "definition": "Functional Assessment of Chronic Illness Therapy-Searchable Item Library Adult: I have nausea.", "preferredTerm": "FACIT-Searchable Item Library Adult Version - I Have Nausea", "submissionValue": "FSIL0359", "synonyms": ["FSIL-I Have Nausea"]}, {"conceptId": "C183977", "definition": "Functional Assessment of Chronic Illness Therapy-Searchable Item Library Adult: Because of my physical condition, I have trouble meeting the needs of my family.", "preferredTerm": "FACIT-Searchable Item Library Adult Version - Trouble Meeting Needs of Family", "submissionValue": "FSIL0360", "synonyms": ["FSIL-Trouble Meeting Needs of Family"]}, {"conceptId": "C183978", "definition": "Functional Assessment of Chronic Illness Therapy-Searchable Item Library Adult: I have pain.", "preferredTerm": "FACIT-Searchable Item Library Adult Version - I Have Pain", "submissionValue": "FSIL0361", "synonyms": ["FSIL-I Have Pain"]}, {"conceptId": "C183979", "definition": "Functional Assessment of Chronic Illness Therapy-Searchable Item Library Adult: I am bothered by side effects of treatment.", "preferredTerm": "FACIT-Searchable Item Library Adult Version - Bothered by Side Effects Treatment", "submissionValue": "FSIL0362", "synonyms": ["FSIL-Bothered by Side Effects Treatment"]}, {"conceptId": "C183980", "definition": "Functional Assessment of Chronic Illness Therapy-Searchable Item Library Adult: I feel ill.", "preferredTerm": "FACIT-Searchable Item Library Adult Version - I Feel Ill", "submissionValue": "FSIL0363", "synonyms": ["FSIL-I Feel Ill"]}, {"conceptId": "C183981", "definition": "Functional Assessment of Chronic Illness Therapy-Searchable Item Library Adult: I am forced to spend time in bed.", "preferredTerm": "FACIT-Searchable Item Library Adult Version - Forced to Spend Time in Bed", "submissionValue": "FSIL0364", "synonyms": ["FSIL-Forced to Spend Time in Bed"]}, {"conceptId": "C183982", "definition": "Functional Assessment of Chronic Illness Therapy-Searchable Item Library Adult: I believe I will be bothered by side effects of treatment.", "preferredTerm": "FACIT-Searchable Item Library Adult Version - Believe Bothered by Side Effects", "submissionValue": "FSIL0365", "synonyms": ["FSIL-Believe Bothered by Side Effects"]}, {"conceptId": "C183983", "definition": "Functional Assessment of Chronic Illness Therapy-Searchable Item Library Adult: I have confidence in my doctor(s).", "preferredTerm": "FACIT-Searchable Item Library Adult Version - I Have Confidence in My Doctor(s)", "submissionValue": "FSIL0366", "synonyms": ["FSIL-I Have Confidence in My Doctor(s)"]}, {"conceptId": "C183984", "definition": "Functional Assessment of Chronic Illness Therapy-Searchable Item Library Adult: My doctor is available to answer my questions.", "preferredTerm": "FACIT-Searchable Item Library Adult Version - Doctor Available Answer Questions", "submissionValue": "FSIL0367", "synonyms": ["FSIL-Doctor Available Answer Questions"]}, {"conceptId": "C183985", "definition": "Functional Assessment of Chronic Illness Therapy-Searchable Item Library Adult: I feel close to my friends.", "preferredTerm": "FACIT-Searchable Item Library Adult Version - I Feel Close to My Friends", "submissionValue": "FSIL0368", "synonyms": ["FSIL-I Feel Close to My Friends"]}, {"conceptId": "C183986", "definition": "Functional Assessment of Chronic Illness Therapy-Searchable Item Library Adult: I get emotional support from my family.", "preferredTerm": "FACIT-Searchable Item Library Adult Version - Emotional Support From My Family", "submissionValue": "FSIL0369", "synonyms": ["FSIL-Emotional Support From My Family"]}, {"conceptId": "C183987", "definition": "Functional Assessment of Chronic Illness Therapy-Searchable Item Library Adult: I get support from my friends.", "preferredTerm": "FACIT-Searchable Item Library Adult Version - I Get Support From My Friends", "submissionValue": "FSIL0370", "synonyms": ["FSIL-I Get Support From My Friends"]}, {"conceptId": "C183988", "definition": "Functional Assessment of Chronic Illness Therapy-Searchable Item Library Adult: My family has accepted my illness.", "preferredTerm": "FACIT-Searchable Item Library Adult Version - My Family Has Accepted My Illness", "submissionValue": "FSIL0371", "synonyms": ["FSIL-My Family Has Accepted My Illness"]}, {"conceptId": "C183989", "definition": "Functional Assessment of Chronic Illness Therapy-Searchable Item Library Adult: I am satisfied with family communication about my illness.", "preferredTerm": "FACIT-Searchable Item Library Adult Version - Satisfied Communication Illness", "submissionValue": "FSIL0372", "synonyms": ["FSIL-Satisfied Communication Illness"]}, {"conceptId": "C183990", "definition": "Functional Assessment of Chronic Illness Therapy-Searchable Item Library Adult: I feel close to my partner (or the person who is my main support).", "preferredTerm": "FACIT-Searchable Item Library Adult Version - I Feel Close to My Partner", "submissionValue": "FSIL0373", "synonyms": ["FSIL-I Feel Close to My Partner"]}, {"conceptId": "C183991", "definition": "Functional Assessment of Chronic Illness Therapy-Searchable Item Library Adult: I am satisfied with my sex life.", "preferredTerm": "FACIT-Searchable Item Library Adult Version - Satisfied With My Sex Life", "submissionValue": "FSIL0374", "synonyms": ["FSIL-Satisfied With My Sex Life"]}, {"conceptId": "C183992", "definition": "Functional Assessment of Chronic Illness Therapy-Searchable Item Library Adult: I feel close to my family.", "preferredTerm": "FACIT-Searchable Item Library Adult Version - I Feel Close to My Family", "submissionValue": "FSIL0375", "synonyms": ["FSIL-I Feel Close to My Family"]}, {"conceptId": "C183993", "definition": "Functional Assessment of Chronic Illness Therapy-Searchable Item Library Adult: My family is doing well despite my illness.", "preferredTerm": "FACIT-Searchable Item Library Adult Version - Family Is Well Despite My Illness", "submissionValue": "FSIL0376", "synonyms": ["FSIL-Family Is Well Despite My Illness"]}, {"conceptId": "C183994", "definition": "Functional Assessment of Chronic Illness Therapy-Searchable Item Library Adult: My illness or treatment has caused problems with my sex life.", "preferredTerm": "FACIT-Searchable Item Library Adult Version - Illness Caused Problems w/ Sex Life", "submissionValue": "FSIL0377", "synonyms": ["FSIL-Illness Caused Problems w/ Sex Life"]}, {"conceptId": "C183995", "definition": "Functional Assessment of Chronic Illness Therapy-Searchable Item Library Adult: I am unhappy about a change in my appearance.", "preferredTerm": "FACIT-Searchable Item Library Adult Version - Unhappy About Change in My Appear", "submissionValue": "FSIL0378", "synonyms": ["FSIL-Unhappy About Change in My Appear"]}, {"conceptId": "C183996", "definition": "Functional Assessment of Chronic Illness Therapy-Searchable Item Library Adult: I am bothered by jaundice or yellow color to my skin.", "preferredTerm": "FACIT-Searchable Item Library Adult Version - Bothered by Jaundice/Yellow Skin", "submissionValue": "FSIL0379", "synonyms": ["FSIL-Bothered by Jaundice/Yellow Skin"]}, {"conceptId": "C183997", "definition": "Functional Assessment of Chronic Illness Therapy-Searchable Item Library Adult: I have had fevers (episodes of high body temperature).", "preferredTerm": "FACIT-Searchable Item Library Adult Version - I Have Had Fevers", "submissionValue": "FSIL0380", "synonyms": ["FSIL-I Have Had Fevers"]}, {"conceptId": "C183998", "definition": "Functional Assessment of Chronic Illness Therapy-Searchable Item Library Adult: I have had itching.", "preferredTerm": "FACIT-Searchable Item Library Adult Version - I Have Had Itching", "submissionValue": "FSIL0381", "synonyms": ["FSIL-I Have Had Itching"]}, {"conceptId": "C183999", "definition": "Functional Assessment of Chronic Illness Therapy-Searchable Item Library Adult: I have had a change in the way food tastes.", "preferredTerm": "FACIT-Searchable Item Library Adult Version - Had Change in the Way Food Tastes", "submissionValue": "FSIL0382", "synonyms": ["FSIL-Had Change in the Way Food Tastes"]}, {"conceptId": "C184000", "definition": "Functional Assessment of Chronic Illness Therapy-Searchable Item Library Adult: I have had chills.", "preferredTerm": "FACIT-Searchable Item Library Adult Version - I Have Had Chills", "submissionValue": "FSIL0383", "synonyms": ["FSIL-I Have Had Chills"]}, {"conceptId": "C184001", "definition": "Functional Assessment of Chronic Illness Therapy-Searchable Item Library Adult: I have discomfort or pain in my stomach area.", "preferredTerm": "FACIT-Searchable Item Library Adult Version - Discomfort/Pain in Stomach Area", "submissionValue": "FSIL0384", "synonyms": ["FSIL-Discomfort/Pain in Stomach Area"]}, {"conceptId": "C184002", "definition": "Functional Assessment of Chronic Illness Therapy-Searchable Item Library Adult: I am unhappy with my appearance.", "preferredTerm": "FACIT-Searchable Item Library Adult Version - Unhappy With My Appearance", "submissionValue": "FSIL0385", "synonyms": ["FSIL-Unhappy With My Appearance"]}, {"conceptId": "C184003", "definition": "Functional Assessment of Chronic Illness Therapy-Searchable Item Library Adult: I am embarrassed by my illness.", "preferredTerm": "FACIT-Searchable Item Library Adult Version - Embarrassed by My Illness", "submissionValue": "FSIL0386", "synonyms": ["FSIL-Embarrassed by My Illness"]}, {"conceptId": "C184004", "definition": "Functional Assessment of Chronic Illness Therapy-Searchable Item Library Adult: I am hopeful about the future.", "preferredTerm": "FACIT-Searchable Item Library Adult Version - Hopeful About the Future", "submissionValue": "FSIL0387", "synonyms": ["FSIL-Hopeful About the Future"]}, {"conceptId": "C184005", "definition": "Functional Assessment of Chronic Illness Therapy-Searchable Item Library Adult: I feel weak all over.", "preferredTerm": "FACIT-Searchable Item Library Adult Version - I Feel Weak All Over", "submissionValue": "FSIL0388", "synonyms": ["FSIL-I Feel Weak All Over"]}, {"conceptId": "C184006", "definition": "Functional Assessment of Chronic Illness Therapy-Searchable Item Library Adult: It is hard to tell other people about my infection.", "preferredTerm": "FACIT-Searchable Item Library Adult Version - Hard to Tell People About Infection", "submissionValue": "FSIL0389", "synonyms": ["FSIL-Hard to Tell People About Infection"]}, {"conceptId": "C184007", "definition": "Functional Assessment of Chronic Illness Therapy-Searchable Item Library Adult: I have people to help me if I need it.", "preferredTerm": "FACIT-Searchable Item Library Adult Version - Have People to Help Me if I Need It", "submissionValue": "FSIL0390", "synonyms": ["FSIL-Have People to Help Me if I Need It"]}, {"conceptId": "C184008", "definition": "Functional Assessment of Chronic Illness Therapy-Searchable Item Library Adult: I worry about spreading my infection.", "preferredTerm": "FACIT-Searchable Item Library Adult Version - Worry About Spreading My Infection", "submissionValue": "FSIL0391", "synonyms": ["FSIL-Worry About Spreading My Infection"]}, {"conceptId": "C184009", "definition": "Functional Assessment of Chronic Illness Therapy-Searchable Item Library Adult: I am concerned about what the future holds for me.", "preferredTerm": "FACIT-Searchable Item Library Adult Version - Concerned What the Future Holds", "submissionValue": "FSIL0392", "synonyms": ["FSIL-Concerned What the Future Holds"]}, {"conceptId": "C184010", "definition": "Functional Assessment of Chronic Illness Therapy-Searchable Item Library Adult: I feel motivated to do things.", "preferredTerm": "FACIT-Searchable Item Library Adult Version - I Feel Motivated to Do Things", "submissionValue": "FSIL0393", "synonyms": ["FSIL-I Feel Motivated to Do Things"]}, {"conceptId": "C184011", "definition": "Functional Assessment of Chronic Illness Therapy-Searchable Item Library Adult: I feel fatigued.", "preferredTerm": "FACIT-Searchable Item Library Adult Version - I Feel Fatigued", "submissionValue": "FSIL0394", "synonyms": ["FSIL-I Feel Fatigued"]}, {"conceptId": "C184012", "definition": "Functional Assessment of Chronic Illness Therapy-Searchable Item Library Adult: I have trouble concentrating.", "preferredTerm": "FACIT-Searchable Item Library Adult Version - I Have Trouble Concentrating", "submissionValue": "FSIL0395", "synonyms": ["FSIL-I Have Trouble Concentrating"]}, {"conceptId": "C184013", "definition": "Functional Assessment of Chronic Illness Therapy-Searchable Item Library Adult: I have trouble remembering things.", "preferredTerm": "FACIT-Searchable Item Library Adult Version - I Have Trouble Remembering Things", "submissionValue": "FSIL0396", "synonyms": ["FSIL-I Have Trouble Remembering Things"]}, {"conceptId": "C184014", "definition": "Functional Assessment of Chronic Illness Therapy-Searchable Item Library Adult: I am able to eat the foods that I like.", "preferredTerm": "FACIT-Searchable Item Library Adult Version - Able to Eat the Foods That I Like", "submissionValue": "FSIL0397", "synonyms": ["FSIL-Able to Eat the Foods That I Like"]}, {"conceptId": "C184015", "definition": "Functional Assessment of Chronic Illness Therapy-Searchable Item Library Adult: I am able to communicate with others.", "preferredTerm": "FACIT-Searchable Item Library Adult Version - Able to Communicate With Others", "submissionValue": "FSIL0398", "synonyms": ["FSIL-Able to Communicate With Others"]}, {"conceptId": "C184016", "definition": "Functional Assessment of Chronic Illness Therapy-Searchable Item Library Adult: I can eat solid foods.", "preferredTerm": "FACIT-Searchable Item Library Adult Version - I Can Eat Solid Foods", "submissionValue": "FSIL0399", "synonyms": ["FSIL-I Can Eat Solid Foods"]}, {"conceptId": "C184017", "definition": "Functional Assessment of Chronic Illness Therapy-Searchable Item Library Adult: I have pain in my mouth, throat or neck.", "preferredTerm": "FACIT-Searchable Item Library Adult Version - Pain in My Mouth, Throat or Neck", "submissionValue": "FSIL0400", "synonyms": ["FSIL-Pain in My Mouth, Throat or Neck"]}, {"conceptId": "C184018", "definition": "Functional Assessment of Chronic Illness Therapy-Searchable Item Library Adult: My mouth is dry.", "preferredTerm": "FACIT-Searchable Item Library Adult Version - My Mouth Is Dry", "submissionValue": "FSIL0401", "synonyms": ["FSIL-My Mouth Is Dry"]}, {"conceptId": "C184019", "definition": "Functional Assessment of Chronic Illness Therapy-Searchable Item Library Adult: I have trouble breathing.", "preferredTerm": "FACIT-Searchable Item Library Adult Version - I Have Trouble Breathing", "submissionValue": "FSIL0402", "synonyms": ["FSIL-I Have Trouble Breathing"]}, {"conceptId": "C184020", "definition": "Functional Assessment of Chronic Illness Therapy-Searchable Item Library Adult: My voice has its usual quality and strength.", "preferredTerm": "FACIT-Searchable Item Library Adult Version - Voice Has Usual Quality & Strength", "submissionValue": "FSIL0403", "synonyms": ["FSIL-Voice Has Usual Quality & Strength"]}, {"conceptId": "C184021", "definition": "Functional Assessment of Chronic Illness Therapy-Searchable Item Library Adult: I am able to eat as much food as I want.", "preferredTerm": "FACIT-Searchable Item Library Adult Version - Able to Eat as Much Food as I Want", "submissionValue": "FSIL0404", "synonyms": ["FSIL-Able to Eat as Much Food as I Want"]}, {"conceptId": "C184022", "definition": "Functional Assessment of Chronic Illness Therapy-Searchable Item Library Adult: I am unhappy with how my face and neck look.", "preferredTerm": "FACIT-Searchable Item Library Adult Version - Unhappy With How Face & Neck Look", "submissionValue": "FSIL0405", "synonyms": ["FSIL-Unhappy With How Face & Neck Look"]}, {"conceptId": "C184023", "definition": "Functional Assessment of Chronic Illness Therapy-Searchable Item Library Adult: I can swallow naturally and easily.", "preferredTerm": "FACIT-Searchable Item Library Adult Version - Can Swallow Naturally and Easily", "submissionValue": "FSIL0406", "synonyms": ["FSIL-Can Swallow Naturally and Easily"]}, {"conceptId": "C184024", "definition": "Functional Assessment of Chronic Illness Therapy-Searchable Item Library Adult: I smoke cigarettes or other tobacco products.", "preferredTerm": "FACIT-Searchable Item Library Adult Version - Smoke Cigarettes/Other Tobacco", "submissionValue": "FSIL0407", "synonyms": ["FSIL-Smoke Cigarettes/Other Tobacco"]}, {"conceptId": "C184025", "definition": "Functional Assessment of Chronic Illness Therapy-Searchable Item Library Adult: I drink alcohol (e.g. beer, wine, etc.).", "preferredTerm": "FACIT-Searchable Item Library Adult Version - I Drink Alcohol", "submissionValue": "FSIL0408", "synonyms": ["FSIL-I Drink Alcohol"]}, {"conceptId": "C184026", "definition": "Functional Assessment of Chronic Illness Therapy-Searchable Item Library Adult: I have been bothered by diarrhea (diarrhoea).", "preferredTerm": "FACIT-Searchable Item Library Adult Version - I Have Been Bothered by Diarrhea", "submissionValue": "FSIL0409", "synonyms": ["FSIL-I Have Been Bothered by Diarrhea"]}, {"conceptId": "C184027", "definition": "Functional Assessment of Chronic Illness Therapy-Searchable Item Library Adult: I am bothered by blistering of my skin.", "preferredTerm": "FACIT-Searchable Item Library Adult Version - Bothered by Blistering of My Skin", "submissionValue": "FSIL0410", "synonyms": ["FSIL-Bothered by Blistering of My Skin"]}, {"conceptId": "C184028", "definition": "Functional Assessment of Chronic Illness Therapy-Searchable Item Library Adult: I have been wheezing (whistling sound when I breathe).", "preferredTerm": "FACIT-Searchable Item Library Adult Version - I Have Been Wheezing", "submissionValue": "FSIL0411", "synonyms": ["FSIL-I Have Been Wheezing"]}, {"conceptId": "C184029", "definition": "Functional Assessment of Chronic Illness Therapy-Searchable Item Library Adult: I have stiffness or tightness in my joints.", "preferredTerm": "FACIT-Searchable Item Library Adult Version - Stiffness/Tightness in My Joints", "submissionValue": "FSIL0412", "synonyms": ["FSIL-Stiffness/Tightness in My Joints"]}, {"conceptId": "C184030", "definition": "Functional Assessment of Chronic Illness Therapy-Searchable Item Library Adult: Joint stiffness or tightness limits my usual activities.", "preferredTerm": "FACIT-Searchable Item Library Adult Version - Joint Stiffness/Tight Limits Activ", "submissionValue": "FSIL0413", "synonyms": ["FSIL-Joint Stiffness/Tight Limits Activ"]}, {"conceptId": "C184031", "definition": "Functional Assessment of Chronic Illness Therapy-Searchable Item Library Adult: Joint pain limits my usual activities.", "preferredTerm": "FACIT-Searchable Item Library Adult Version - Joint Pain Limits My Usual Activ", "submissionValue": "FSIL0414", "synonyms": ["FSIL-Joint Pain Limits My Usual Activ"]}, {"conceptId": "C184032", "definition": "Functional Assessment of Chronic Illness Therapy-Searchable Item Library Adult: I have episodes of heart racing.", "preferredTerm": "FACIT-Searchable Item Library Adult Version - I Have Episodes of Heart Racing", "submissionValue": "FSIL0415", "synonyms": ["FSIL-I Have Episodes of Heart Racing"]}, {"conceptId": "C184033", "definition": "Functional Assessment of Chronic Illness Therapy-Searchable Item Library Adult: My eyes feel sandy or gritty.", "preferredTerm": "FACIT-Searchable Item Library Adult Version - My Eyes Feel Sandy or Gritty", "submissionValue": "FSIL0416", "synonyms": ["FSIL-My Eyes Feel Sandy or Gritty"]}, {"conceptId": "C184034", "definition": "Functional Assessment of Chronic Illness Therapy-Searchable Item Library Adult: I have pain in my sinus area.", "preferredTerm": "FACIT-Searchable Item Library Adult Version - I Have Pain in My Sinus Area", "submissionValue": "FSIL0417", "synonyms": ["FSIL-I Have Pain in My Sinus Area"]}, {"conceptId": "C184035", "definition": "Functional Assessment of Chronic Illness Therapy-Searchable Item Library Adult: I am bothered by dry skin.", "preferredTerm": "FACIT-Searchable Item Library Adult Version - Bothered by Dry Skin", "submissionValue": "FSIL0418", "synonyms": ["FSIL-Bothered by Dry Skin"]}, {"conceptId": "C184036", "definition": "Functional Assessment of Chronic Illness Therapy-Searchable Item Library Adult: I am bothered by vitiligo (white patches appearing on my skin).", "preferredTerm": "FACIT-Searchable Item Library Adult Version - Bothered by Vitiligo", "submissionValue": "FSIL0419", "synonyms": ["FSIL-Bothered by Vitiligo"]}, {"conceptId": "C184037", "definition": "Functional Assessment of Chronic Illness Therapy-Searchable Item Library Adult: I feel pain, soreness or aches in some of my muscles.", "preferredTerm": "FACIT-Searchable Item Library Adult Version - Pain/Soreness/Aches in Some Muscles", "submissionValue": "FSIL0420", "synonyms": ["FSIL-Pain/Soreness/Aches in Some Muscles"]}, {"conceptId": "C184038", "definition": "Functional Assessment of Chronic Illness Therapy-Searchable Item Library Adult: I worry about negative impacts that my treatment may have upon my long-term health.", "preferredTerm": "FACIT-Searchable Item Library Adult Version - Worry Neg Impacts Long-term Health", "submissionValue": "FSIL0421", "synonyms": ["FSIL-Worry Neg Impacts Long-term Health"]}, {"conceptId": "C184039", "definition": "Functional Assessment of Chronic Illness Therapy-Searchable Item Library Adult: I am bothered by short-term treatment reactions that I experience immediately after, or within 24 hours of, an infusion (such as chills, dizziness, hives, rashes lasting no more than 24 hours).", "preferredTerm": "FACIT-Searchable Item Library Adult Version - Bothered by Short-term Reactions", "submissionValue": "FSIL0422", "synonyms": ["FSIL-Bothered by Short-term Reactions"]}, {"conceptId": "C184040", "definition": "Functional Assessment of Chronic Illness Therapy-Searchable Item Library Adult: I am troubled by not knowing when exactly my side effects will happen, how long they will last and how bad they will be.", "preferredTerm": "FACIT-Searchable Item Library Adult Version - Troubled Not Knowing Side Effects", "submissionValue": "FSIL0423", "synonyms": ["FSIL-Troubled Not Knowing Side Effects"]}, {"conceptId": "C184041", "definition": "Functional Assessment of Chronic Illness Therapy-Searchable Item Library Adult: I am bothered by new allergy-like reactions (e.g., to foods, insects, pollen).", "preferredTerm": "FACIT-Searchable Item Library Adult Version - Bothered New Allergy-like Reactions", "submissionValue": "FSIL0424", "synonyms": ["FSIL-Bothered New Allergy-like Reactions"]}, {"conceptId": "C184042", "definition": "Functional Assessment of Chronic Illness Therapy-Searchable Item Library Adult: I am bothered by cracking or peeling of my skin.", "preferredTerm": "FACIT-Searchable Item Library Adult Version - Bothered by Cracking/Peeling Skin", "submissionValue": "FSIL0425", "synonyms": ["FSIL-Bothered by Cracking/Peeling Skin"]}, {"conceptId": "C184043", "definition": "Functional Assessment of Chronic Illness Therapy-Searchable Item Library Adult: I move my bowels more frequently than usual.", "preferredTerm": "FACIT-Searchable Item Library Adult Version - Move My Bowels More Than Usual", "submissionValue": "FSIL0426", "synonyms": ["FSIL-Move My Bowels More Than Usual"]}, {"conceptId": "C184044", "definition": "Functional Assessment of Chronic Illness Therapy-Searchable Item Library Adult: My condition wakes or keeps me up at night.", "preferredTerm": "FACIT-Searchable Item Library Adult Version - Condition Wakes/Keeps Me Up Night", "submissionValue": "FSIL0427", "synonyms": ["FSIL-Condition Wakes/Keeps Me Up Night"]}, {"conceptId": "C184045", "definition": "Functional Assessment of Chronic Illness Therapy-Searchable Item Library Adult: I must move my bowels frequently to avoid accidents.", "preferredTerm": "FACIT-Searchable Item Library Adult Version - Move Bowels Freq to Avoid Accidents", "submissionValue": "FSIL0428", "synonyms": ["FSIL-Move Bowels Freq to Avoid Accidents"]}, {"conceptId": "C184046", "definition": "Functional Assessment of Chronic Illness Therapy-Searchable Item Library Adult: I can be far from home/work without fearing soilage.", "preferredTerm": "FACIT-Searchable Item Library Adult Version - Far From Home/Work W/o Fear Soilage", "submissionValue": "FSIL0429", "synonyms": ["FSIL-Far From Home/Work W/o Fear Soilage"]}, {"conceptId": "C184047", "definition": "Functional Assessment of Chronic Illness Therapy-Searchable Item Library Adult: I wear pads or protection to prevent soiling my underwear.", "preferredTerm": "FACIT-Searchable Item Library Adult Version - Wear Pads/Protect Prevent Soiling", "submissionValue": "FSIL0430", "synonyms": ["FSIL-Wear Pads/Protect Prevent Soiling"]}, {"conceptId": "C184048", "definition": "Functional Assessment of Chronic Illness Therapy-Searchable Item Library Adult: I am comfortable discussing my condition with friends.", "preferredTerm": "FACIT-Searchable Item Library Adult Version - Comfortable Discuss Cond w/Friends", "submissionValue": "FSIL0431", "synonyms": ["FSIL-Comfortable Discuss Cond w/Friends"]}, {"conceptId": "C184049", "definition": "Functional Assessment of Chronic Illness Therapy-Searchable Item Library Adult: I am afraid to be far from a toilet.", "preferredTerm": "FACIT-Searchable Item Library Adult Version - Afraid to Be Far From a Toilet", "submissionValue": "FSIL0432", "synonyms": ["FSIL-Afraid to Be Far From a Toilet"]}, {"conceptId": "C184050", "definition": "Functional Assessment of Chronic Illness Therapy-Searchable Item Library Adult: I have to limit my social activity because of my condition.", "preferredTerm": "FACIT-Searchable Item Library Adult Version - Limit My Social Activity", "submissionValue": "FSIL0433", "synonyms": ["FSIL-Limit My Social Activity"]}, {"conceptId": "C184051", "definition": "Functional Assessment of Chronic Illness Therapy-Searchable Item Library Adult: I have to limit my physical activity because of my condition.", "preferredTerm": "FACIT-Searchable Item Library Adult Version - Limit Physical Activ B/c Condition", "submissionValue": "FSIL0434", "synonyms": ["FSIL-Limit Physical Activ B/c Condition"]}, {"conceptId": "C184052", "definition": "Functional Assessment of Chronic Illness Therapy-Searchable Item Library Adult: I have to limit my sexual activity because of my condition.", "preferredTerm": "FACIT-Searchable Item Library Adult Version - Limit Sexual Activ B/c Condition", "submissionValue": "FSIL0435", "synonyms": ["FSIL-Limit Sexual Activ B/c Condition"]}, {"conceptId": "C184053", "definition": "Functional Assessment of Chronic Illness Therapy-Searchable Item Library Adult: I am embarrassed by my condition.", "preferredTerm": "FACIT-Searchable Item Library Adult Version - Embarrassed by My Condition", "submissionValue": "FSIL0436", "synonyms": ["FSIL-Embarrassed by My Condition"]}, {"conceptId": "C184054", "definition": "Functional Assessment of Chronic Illness Therapy-Searchable Item Library Adult: My condition wakes me up at night.", "preferredTerm": "FACIT-Searchable Item Library Adult Version - My Condition Wakes Me Up at Night", "submissionValue": "FSIL0437", "synonyms": ["FSIL-My Condition Wakes Me Up at Night"]}, {"conceptId": "C184055", "definition": "Functional Assessment of Chronic Illness Therapy-Searchable Item Library Adult: I must urinate frequently to avoid leaking.", "preferredTerm": "FACIT-Searchable Item Library Adult Version - Urinate Frequently to Avoid Leaking", "submissionValue": "FSIL0438", "synonyms": ["FSIL-Urinate Frequently to Avoid Leaking"]}, {"conceptId": "C184056", "definition": "Functional Assessment of Chronic Illness Therapy-Searchable Item Library Adult: I wear protection for leakage of urine.", "preferredTerm": "FACIT-Searchable Item Library Adult Version - Wear Protection Leakage of Urine", "submissionValue": "FSIL0439", "synonyms": ["FSIL-Wear Protection Leakage of Urine"]}, {"conceptId": "C184057", "definition": "Functional Assessment of Chronic Illness Therapy-Searchable Item Library Adult: My thinking is clear.", "preferredTerm": "FACIT-Searchable Item Library Adult Version - My Thinking Is Clear", "submissionValue": "FSIL0440", "synonyms": ["FSIL-My Thinking Is Clear"]}, {"conceptId": "C184058", "definition": "Functional Assessment of Chronic Illness Therapy-Searchable Item Library Adult: I have been coughing.", "preferredTerm": "FACIT-Searchable Item Library Adult Version - I Have Been Coughing", "submissionValue": "FSIL0441", "synonyms": ["FSIL-I Have Been Coughing"]}, {"conceptId": "C184059", "definition": "Functional Assessment of Chronic Illness Therapy-Searchable Item Library Adult: I feel tightness in my chest.", "preferredTerm": "FACIT-Searchable Item Library Adult Version - I Feel Tightness in My Chest", "submissionValue": "FSIL0442", "synonyms": ["FSIL-I Feel Tightness in My Chest"]}, {"conceptId": "C184060", "definition": "Functional Assessment of Chronic Illness Therapy-Searchable Item Library Adult: Breathing is easy for me.", "preferredTerm": "FACIT-Searchable Item Library Adult Version - Breathing Is Easy for Me", "submissionValue": "FSIL0443", "synonyms": ["FSIL-Breathing Is Easy for Me"]}, {"conceptId": "C184061", "definition": "Functional Assessment of Chronic Illness Therapy-Searchable Item Library Adult: I regret my smoking.", "preferredTerm": "FACIT-Searchable Item Library Adult Version - I Regret My Smoking", "submissionValue": "FSIL0444", "synonyms": ["FSIL-I Regret My Smoking"]}, {"conceptId": "C184062", "definition": "Functional Assessment of Chronic Illness Therapy-Searchable Item Library Adult: I am bothered by lumps or swelling in certain parts of my body (e.g., neck, armpits, or groin).", "preferredTerm": "FACIT-Searchable Item Library Adult Version - Bothered by Lumps or Swelling", "submissionValue": "FSIL0445", "synonyms": ["FSIL-Bothered by Lumps or Swelling"]}, {"conceptId": "C184063", "definition": "Functional Assessment of Chronic Illness Therapy-Searchable Item Library Adult: I am frustrated by being unable to do the things I want to do.", "preferredTerm": "FACIT-Searchable Item Library Adult Version - Frustrated Unable Do Things I Want", "submissionValue": "FSIL0446", "synonyms": ["FSIL-Frustrated Unable Do Things I Want"]}, {"conceptId": "C184064", "definition": "Functional Assessment of Chronic Illness Therapy-Searchable Item Library Adult: I feel discouraged about my illness.", "preferredTerm": "FACIT-Searchable Item Library Adult Version - I Feel Discouraged About My Illness", "submissionValue": "FSIL0447", "synonyms": ["FSIL-I Feel Discouraged About My Illness"]}, {"conceptId": "C184065", "definition": "Functional Assessment of Chronic Illness Therapy-Searchable Item Library Adult: Because of my illness, I have difficulty planning for the future.", "preferredTerm": "FACIT-Searchable Item Library Adult Version - Difficulty Planning for Future", "submissionValue": "FSIL0448", "synonyms": ["FSIL-Difficulty Planning for Future"]}, {"conceptId": "C184066", "definition": "Functional Assessment of Chronic Illness Therapy-Searchable Item Library Adult: I feel uncertain about my future health.", "preferredTerm": "FACIT-Searchable Item Library Adult Version - Uncertain About My Future Health", "submissionValue": "FSIL0449", "synonyms": ["FSIL-Uncertain About My Future Health"]}, {"conceptId": "C184067", "definition": "Functional Assessment of Chronic Illness Therapy-Searchable Item Library Adult: I worry that I might get new symptoms of my illness.", "preferredTerm": "FACIT-Searchable Item Library Adult Version - Worry I Might Get New Symptoms", "submissionValue": "FSIL0450", "synonyms": ["FSIL-Worry I Might Get New Symptoms"]}, {"conceptId": "C184068", "definition": "Functional Assessment of Chronic Illness Therapy-Searchable Item Library Adult: I feel isolated from others because of my illness or treatment.", "preferredTerm": "FACIT-Searchable Item Library Adult Version - Feel Isolated Because of Illness", "submissionValue": "FSIL0451", "synonyms": ["FSIL-Feel Isolated Because of Illness"]}, {"conceptId": "C184069", "definition": "Functional Assessment of Chronic Illness Therapy-Searchable Item Library Adult: I worry about being able to support myself or my family due to my illness.", "preferredTerm": "FACIT-Searchable Item Library Adult Version - Worry Support Myself/Family Illness", "submissionValue": "FSIL0452", "synonyms": ["FSIL-Worry Support Myself/Family Illness"]}, {"conceptId": "C184070", "definition": "Functional Assessment of Chronic Illness Therapy-Searchable Item Library Adult: I am bothered by itching.", "preferredTerm": "FACIT-Searchable Item Library Adult Version - Bothered by Itching", "submissionValue": "FSIL0453", "synonyms": ["FSIL-Bothered by Itching"]}, {"conceptId": "C184071", "definition": "Functional Assessment of Chronic Illness Therapy-Searchable Item Library Adult: I have trouble sleeping at night.", "preferredTerm": "FACIT-Searchable Item Library Adult Version - I Have Trouble Sleeping at Night", "submissionValue": "FSIL0454", "synonyms": ["FSIL-I Have Trouble Sleeping at Night"]}, {"conceptId": "C184072", "definition": "Functional Assessment of Chronic Illness Therapy-Searchable Item Library Adult: I get nervous about making decisions regarding treatment.", "preferredTerm": "FACIT-Searchable Item Library Adult Version - Nervous Making Decisions Treatment", "submissionValue": "FSIL0455", "synonyms": ["FSIL-Nervous Making Decisions Treatment"]}, {"conceptId": "C184073", "definition": "Functional Assessment of Chronic Illness Therapy-Searchable Item Library Adult: I have pain at my melanoma site or surgical site.", "preferredTerm": "FACIT-Searchable Item Library Adult Version - Pain at My Melanoma/Surgical Site", "submissionValue": "FSIL0456", "synonyms": ["FSIL-Pain at My Melanoma/Surgical Site"]}, {"conceptId": "C184074", "definition": "Functional Assessment of Chronic Illness Therapy-Searchable Item Library Adult: I have swelling at my melanoma site.", "preferredTerm": "FACIT-Searchable Item Library Adult Version - I Have Swelling at My Melanoma Site", "submissionValue": "FSIL0457", "synonyms": ["FSIL-I Have Swelling at My Melanoma Site"]}, {"conceptId": "C184075", "definition": "Functional Assessment of Chronic Illness Therapy-Searchable Item Library Adult: I have swelling as a result of surgery.", "preferredTerm": "FACIT-Searchable Item Library Adult Version - Swelling as a Result of Surgery", "submissionValue": "FSIL0458", "synonyms": ["FSIL-Swelling as a Result of Surgery"]}, {"conceptId": "C184076", "definition": "Functional Assessment of Chronic Illness Therapy-Searchable Item Library Adult: I am bothered by the amount of swelling.", "preferredTerm": "FACIT-Searchable Item Library Adult Version - Bothered by the Amount of Swelling", "submissionValue": "FSIL0459", "synonyms": ["FSIL-Bothered by the Amount of Swelling"]}, {"conceptId": "C184077", "definition": "Functional Assessment of Chronic Illness Therapy-Searchable Item Library Adult: Movement of my swollen area is painful.", "preferredTerm": "FACIT-Searchable Item Library Adult Version - Movement of Swollen Area Is Painful", "submissionValue": "FSIL0460", "synonyms": ["FSIL-Movement of Swollen Area Is Painful"]}, {"conceptId": "C184078", "definition": "Functional Assessment of Chronic Illness Therapy-Searchable Item Library Adult: Swelling keeps me from doing the things I want to do.", "preferredTerm": "FACIT-Searchable Item Library Adult Version - Swelling Keeps Me From Doing Things", "submissionValue": "FSIL0461", "synonyms": ["FSIL-Swelling Keeps Me From Doing Things"]}, {"conceptId": "C184079", "definition": "Functional Assessment of Chronic Illness Therapy-Searchable Item Library Adult: Swelling keeps me from wearing clothes or shoes I want to wear.", "preferredTerm": "FACIT-Searchable Item Library Adult Version - Swelling Keeps Me From Wearing", "submissionValue": "FSIL0462", "synonyms": ["FSIL-Swelling Keeps Me From Wearing"]}, {"conceptId": "C184080", "definition": "Functional Assessment of Chronic Illness Therapy-Searchable Item Library Adult: I feel numbness at my surgical site.", "preferredTerm": "FACIT-Searchable Item Library Adult Version - I Feel Numbness at My Surgical Site", "submissionValue": "FSIL0463", "synonyms": ["FSIL-I Feel Numbness at My Surgical Site"]}, {"conceptId": "C184081", "definition": "Functional Assessment of Chronic Illness Therapy-Searchable Item Library Adult: I have good range of movement in my arm or leg.", "preferredTerm": "FACIT-Searchable Item Library Adult Version - Good Range of Movement in Arm/Leg", "submissionValue": "FSIL0464", "synonyms": ["FSIL-Good Range of Movement in Arm/Leg"]}, {"conceptId": "C184082", "definition": "Functional Assessment of Chronic Illness Therapy-Searchable Item Library Adult: I have noticed new changes in my skin (lumps, bumps, color (colour)).", "preferredTerm": "FACIT-Searchable Item Library Adult Version - Noticed New Changes in My Skin", "submissionValue": "FSIL0465", "synonyms": ["FSIL-Noticed New Changes in My Skin"]}, {"conceptId": "C184083", "definition": "Functional Assessment of Chronic Illness Therapy-Searchable Item Library Adult: I worry about the appearance of surgical scars.", "preferredTerm": "FACIT-Searchable Item Library Adult Version - Worry Appearance of Surgical Scars", "submissionValue": "FSIL0466", "synonyms": ["FSIL-Worry Appearance of Surgical Scars"]}, {"conceptId": "C184084", "definition": "Functional Assessment of Chronic Illness Therapy-Searchable Item Library Adult: I have aches and pains in my bones.", "preferredTerm": "FACIT-Searchable Item Library Adult Version - I Have Aches and Pains in My Bones", "submissionValue": "FSIL0467", "synonyms": ["FSIL-I Have Aches and Pains in My Bones"]}, {"conceptId": "C184085", "definition": "Functional Assessment of Chronic Illness Therapy-Searchable Item Library Adult: I have noticed blood in my stool.", "preferredTerm": "FACIT-Searchable Item Library Adult Version - I Have Noticed Blood in My Stool", "submissionValue": "FSIL0468", "synonyms": ["FSIL-I Have Noticed Blood in My Stool"]}, {"conceptId": "C184086", "definition": "Functional Assessment of Chronic Illness Therapy-Searchable Item Library Adult: I isolate myself from others because of my condition.", "preferredTerm": "FACIT-Searchable Item Library Adult Version - Isolate From Others B/c Condition", "submissionValue": "FSIL0469", "synonyms": ["FSIL-Isolate From Others B/c Condition"]}, {"conceptId": "C184087", "definition": "Functional Assessment of Chronic Illness Therapy-Searchable Item Library Adult: I have difficulty thinking clearly (remembering, concentrating).", "preferredTerm": "FACIT-Searchable Item Library Adult Version - I Have Difficulty Thinking Clearly", "submissionValue": "FSIL0470", "synonyms": ["FSIL-I Have Difficulty Thinking Clearly"]}, {"conceptId": "C184088", "definition": "Functional Assessment of Chronic Illness Therapy-Searchable Item Library Adult: I have trouble walking because of pain.", "preferredTerm": "FACIT-Searchable Item Library Adult Version - Trouble Walking Because of Pain", "submissionValue": "FSIL0471", "synonyms": ["FSIL-Trouble Walking Because of Pain"]}, {"conceptId": "C184089", "definition": "Functional Assessment of Chronic Illness Therapy-Searchable Item Library Adult: I have trouble getting around in public places.", "preferredTerm": "FACIT-Searchable Item Library Adult Version - Trouble Getting Around in Public", "submissionValue": "FSIL0472", "synonyms": ["FSIL-Trouble Getting Around in Public"]}, {"conceptId": "C184090", "definition": "Functional Assessment of Chronic Illness Therapy-Searchable Item Library Adult: I need to rest during the day.", "preferredTerm": "FACIT-Searchable Item Library Adult Version - I Need to Rest During the Day", "submissionValue": "FSIL0473", "synonyms": ["FSIL-I Need to Rest During the Day"]}, {"conceptId": "C184091", "definition": "Functional Assessment of Chronic Illness Therapy-Searchable Item Library Adult: My thinking is slower than before.", "preferredTerm": "FACIT-Searchable Item Library Adult Version - My Thinking Is Slower Than Before", "submissionValue": "FSIL0474", "synonyms": ["FSIL-My Thinking Is Slower Than Before"]}, {"conceptId": "C184092", "definition": "Functional Assessment of Chronic Illness Therapy-Searchable Item Library Adult: I have trouble learning new tasks or directions.", "preferredTerm": "FACIT-Searchable Item Library Adult Version - I Have Trouble Learning New Tasks", "submissionValue": "FSIL0475", "synonyms": ["FSIL-I Have Trouble Learning New Tasks"]}, {"conceptId": "C184093", "definition": "Functional Assessment of Chronic Illness Therapy-Searchable Item Library Adult: My family has trouble understanding when my condition gets worse.", "preferredTerm": "FACIT-Searchable Item Library Adult Version - Family Trouble Understand Worse", "submissionValue": "FSIL0476", "synonyms": ["FSIL-Family Trouble Understand Worse"]}, {"conceptId": "C184094", "definition": "Functional Assessment of Chronic Illness Therapy-Searchable Item Library Adult: I feel \"left out\" of things.", "preferredTerm": "FACIT-Searchable Item Library Adult Version - I Feel Left Out of Things", "submissionValue": "FSIL0477", "synonyms": ["FSIL-I Feel Left Out of Things"]}, {"conceptId": "C184095", "definition": "Functional Assessment of Chronic Illness Therapy-Searchable Item Library Adult: Heat worsens my symptoms.", "preferredTerm": "FACIT-Searchable Item Library Adult Version - Heat Worsens My Symptoms", "submissionValue": "FSIL0478", "synonyms": ["FSIL-Heat Worsens My Symptoms"]}, {"conceptId": "C184096", "definition": "Functional Assessment of Chronic Illness Therapy-Searchable Item Library Adult: I am bothered by muscle spasms.", "preferredTerm": "FACIT-Searchable Item Library Adult Version - Bothered by Muscle Spasms", "submissionValue": "FSIL0479", "synonyms": ["FSIL-Bothered by Muscle Spasms"]}, {"conceptId": "C184097", "definition": "Functional Assessment of Chronic Illness Therapy-Searchable Item Library Adult: I have to take my condition into account when making plans.", "preferredTerm": "FACIT-Searchable Item Library Adult Version - Take My Condition Into Account", "submissionValue": "FSIL0480", "synonyms": ["FSIL-Take My Condition Into Account"]}, {"conceptId": "C184098", "definition": "Functional Assessment of Chronic Illness Therapy-Searchable Item Library Adult: I am bothered by headaches.", "preferredTerm": "FACIT-Searchable Item Library Adult Version - Bothered by Headaches", "submissionValue": "FSIL0481", "synonyms": ["FSIL-Bothered by Headaches"]}, {"conceptId": "C184099", "definition": "Functional Assessment of Chronic Illness Therapy-Searchable Item Library Adult: I am bothered by muscle pains.", "preferredTerm": "FACIT-Searchable Item Library Adult Version - Bothered by Muscle Pains", "submissionValue": "FSIL0482", "synonyms": ["FSIL-Bothered by Muscle Pains"]}, {"conceptId": "C184100", "definition": "Functional Assessment of Chronic Illness Therapy-Searchable Item Library Adult: I feel trapped by my condition.", "preferredTerm": "FACIT-Searchable Item Library Adult Version - I Feel Trapped by My Condition", "submissionValue": "FSIL0483", "synonyms": ["FSIL-I Feel Trapped by My Condition"]}, {"conceptId": "C184101", "definition": "Functional Assessment of Chronic Illness Therapy-Searchable Item Library Adult: I am depressed about my condition.", "preferredTerm": "FACIT-Searchable Item Library Adult Version - Depressed About My Condition", "submissionValue": "FSIL0484", "synonyms": ["FSIL-Depressed About My Condition"]}, {"conceptId": "C184102", "definition": "Functional Assessment of Chronic Illness Therapy-Searchable Item Library Adult: I feel useless.", "preferredTerm": "FACIT-Searchable Item Library Adult Version - I Feel Useless", "submissionValue": "FSIL0485", "synonyms": ["FSIL-I Feel Useless"]}, {"conceptId": "C184103", "definition": "Functional Assessment of Chronic Illness Therapy-Searchable Item Library Adult: I feel overwhelmed by my condition.", "preferredTerm": "FACIT-Searchable Item Library Adult Version - Feel Overwhelmed by My Condition", "submissionValue": "FSIL0486", "synonyms": ["FSIL-Feel Overwhelmed by My Condition"]}, {"conceptId": "C184104", "definition": "Functional Assessment of Chronic Illness Therapy-Searchable Item Library Adult: I am frustrated by my condition.", "preferredTerm": "FACIT-Searchable Item Library Adult Version - Frustrated by My Condition", "submissionValue": "FSIL0487", "synonyms": ["FSIL-Frustrated by My Condition"]}, {"conceptId": "C184105", "definition": "Functional Assessment of Chronic Illness Therapy-Searchable Item Library Adult: I worry about getting sick due to low blood counts.", "preferredTerm": "FACIT-Searchable Item Library Adult Version - Worry Getting Sick Low Blood Counts", "submissionValue": "FSIL0488", "synonyms": ["FSIL-Worry Getting Sick Low Blood Counts"]}, {"conceptId": "C184106", "definition": "Functional Assessment of Chronic Illness Therapy-Searchable Item Library Adult: I avoid public places for fear of getting an infection.", "preferredTerm": "FACIT-Searchable Item Library Adult Version - Avoid Public Places Fear Infection", "submissionValue": "FSIL0489", "synonyms": ["FSIL-Avoid Public Places Fear Infection"]}, {"conceptId": "C184107", "definition": "Functional Assessment of Chronic Illness Therapy-Searchable Item Library Adult: I worry about getting infections.", "preferredTerm": "FACIT-Searchable Item Library Adult Version - I Worry About Getting Infections", "submissionValue": "FSIL0490", "synonyms": ["FSIL-I Worry About Getting Infections"]}, {"conceptId": "C184108", "definition": "Functional Assessment of Chronic Illness Therapy-Searchable Item Library Adult: I worry my condition will not improve if my treatment is delayed.", "preferredTerm": "FACIT-Searchable Item Library Adult Version - Worry Not improve Treatment Delayed", "submissionValue": "FSIL0491", "synonyms": ["FSIL-Worry Not improve Treatment Delayed"]}, {"conceptId": "C184109", "definition": "Functional Assessment of Chronic Illness Therapy-Searchable Item Library Adult: I have mouth sores.", "preferredTerm": "FACIT-Searchable Item Library Adult Version - I Have Mouth Sores", "submissionValue": "FSIL0492", "synonyms": ["FSIL-I Have Mouth Sores"]}, {"conceptId": "C184110", "definition": "Functional Assessment of Chronic Illness Therapy-Searchable Item Library Adult: My partner worries about me when my blood counts are low.", "preferredTerm": "FACIT-Searchable Item Library Adult Version - Partner Worries My Blood Counts Low", "submissionValue": "FSIL0493", "synonyms": ["FSIL-Partner Worries My Blood Counts Low"]}, {"conceptId": "C184111", "definition": "Functional Assessment of Chronic Illness Therapy-Searchable Item Library Adult: My low blood counts interfere with my intimate relationships.", "preferredTerm": "FACIT-Searchable Item Library Adult Version - Low Blood Counts Interfere Relation", "submissionValue": "FSIL0494", "synonyms": ["FSIL-Low Blood Counts Interfere Relation"]}, {"conceptId": "C184112", "definition": "Functional Assessment of Chronic Illness Therapy-Searchable Item Library Adult: I have weakness in my legs.", "preferredTerm": "FACIT-Searchable Item Library Adult Version - I Have Weakness in My Legs", "submissionValue": "FSIL0495", "synonyms": ["FSIL-I Have Weakness in My Legs"]}, {"conceptId": "C184113", "definition": "Functional Assessment of Chronic Illness Therapy-Searchable Item Library Adult: I have difficulty moving my neck and shoulders because of stiffness.", "preferredTerm": "FACIT-Searchable Item Library Adult Version - Diff Moving Neck & Shoulders Stiff", "submissionValue": "FSIL0496", "synonyms": ["FSIL-Diff Moving Neck & Shoulders Stiff"]}, {"conceptId": "C184114", "definition": "Functional Assessment of Chronic Illness Therapy-Searchable Item Library Adult: I am bothered by ringing in my ear(s).", "preferredTerm": "FACIT-Searchable Item Library Adult Version - Bothered by Ringing in My Ear", "submissionValue": "FSIL0497", "synonyms": ["FSIL-Bothered by Ringing in My Ear"]}, {"conceptId": "C184115", "definition": "Functional Assessment of Chronic Illness Therapy-Searchable Item Library Adult: I am bothered by worsening eyesight.", "preferredTerm": "FACIT-Searchable Item Library Adult Version - Bothered by Worsening Eyesight", "submissionValue": "FSIL0498", "synonyms": ["FSIL-Bothered by Worsening Eyesight"]}, {"conceptId": "C184116", "definition": "Functional Assessment of Chronic Illness Therapy-Searchable Item Library Adult: I have trouble smelling.", "preferredTerm": "FACIT-Searchable Item Library Adult Version - I Have Trouble Smelling", "submissionValue": "FSIL0499", "synonyms": ["FSIL-I Have Trouble Smelling"]}, {"conceptId": "C184117", "definition": "Functional Assessment of Chronic Illness Therapy-Searchable Item Library Adult: I can enjoy the taste of food.", "preferredTerm": "FACIT-Searchable Item Library Adult Version - I Can Enjoy the Taste of Food", "submissionValue": "FSIL0500", "synonyms": ["FSIL-I Can Enjoy the Taste of Food"]}, {"conceptId": "C184118", "definition": "Functional Assessment of Chronic Illness Therapy-Searchable Item Library Adult: I am bothered by having a blocked nose.", "preferredTerm": "FACIT-Searchable Item Library Adult Version - Bothered by Having a Blocked Nose", "submissionValue": "FSIL0501", "synonyms": ["FSIL-Bothered by Having a Blocked Nose"]}, {"conceptId": "C184119", "definition": "Functional Assessment of Chronic Illness Therapy-Searchable Item Library Adult: I have numbness or tingling in my hands.", "preferredTerm": "FACIT-Searchable Item Library Adult Version - Numbness or Tingling in My Hands", "submissionValue": "FSIL0502", "synonyms": ["FSIL-Numbness or Tingling in My Hands"]}, {"conceptId": "C184120", "definition": "Functional Assessment of Chronic Illness Therapy-Searchable Item Library Adult: I have pain in my hands or feet when I am exposed to cold temperatures.", "preferredTerm": "FACIT-Searchable Item Library Adult Version - Pain in Hands/Feet Exposed to Cold", "submissionValue": "FSIL0503", "synonyms": ["FSIL-Pain in Hands/Feet Exposed to Cold"]}, {"conceptId": "C184121", "definition": "Functional Assessment of Chronic Illness Therapy-Searchable Item Library Adult: I have difficulty breathing when I am exposed to cold temperatures.", "preferredTerm": "FACIT-Searchable Item Library Adult Version - Difficulty Breathing Exposed Cold", "submissionValue": "FSIL0504", "synonyms": ["FSIL-Difficulty Breathing Exposed Cold"]}, {"conceptId": "C184122", "definition": "Functional Assessment of Chronic Illness Therapy-Searchable Item Library Adult: I have numbness or tingling in my feet.", "preferredTerm": "FACIT-Searchable Item Library Adult Version - Numbness or Tingling in My Feet", "submissionValue": "FSIL0505", "synonyms": ["FSIL-Numbness or Tingling in My Feet"]}, {"conceptId": "C184123", "definition": "Functional Assessment of Chronic Illness Therapy-Searchable Item Library Adult: I feel discomfort in my hands.", "preferredTerm": "FACIT-Searchable Item Library Adult Version - I Feel Discomfort in My Hands", "submissionValue": "FSIL0506", "synonyms": ["FSIL-I Feel Discomfort in My Hands"]}, {"conceptId": "C184124", "definition": "Functional Assessment of Chronic Illness Therapy-Searchable Item Library Adult: I feel discomfort in my feet.", "preferredTerm": "FACIT-Searchable Item Library Adult Version - I Feel Discomfort in My Feet", "submissionValue": "FSIL0507", "synonyms": ["FSIL-I Feel Discomfort in My Feet"]}, {"conceptId": "C184125", "definition": "Functional Assessment of Chronic Illness Therapy-Searchable Item Library Adult: I have joint pain or muscle cramps.", "preferredTerm": "FACIT-Searchable Item Library Adult Version - Have Joint Pain or Muscle Cramps", "submissionValue": "FSIL0508", "synonyms": ["FSIL-Have Joint Pain or Muscle Cramps"]}, {"conceptId": "C184126", "definition": "Functional Assessment of Chronic Illness Therapy-Searchable Item Library Adult: I have trouble hearing.", "preferredTerm": "FACIT-Searchable Item Library Adult Version - I Have Trouble Hearing", "submissionValue": "FSIL0509", "synonyms": ["FSIL-I Have Trouble Hearing"]}, {"conceptId": "C184127", "definition": "Functional Assessment of Chronic Illness Therapy-Searchable Item Library Adult: I get a ringing or buzzing in my ears.", "preferredTerm": "FACIT-Searchable Item Library Adult Version - Get Ringing or Buzzing in My Ears", "submissionValue": "FSIL0510", "synonyms": ["FSIL-Get Ringing or Buzzing in My Ears"]}, {"conceptId": "C184128", "definition": "Functional Assessment of Chronic Illness Therapy-Searchable Item Library Adult: I have trouble buttoning buttons.", "preferredTerm": "FACIT-Searchable Item Library Adult Version - I Have Trouble Buttoning Buttons", "submissionValue": "FSIL0511", "synonyms": ["FSIL-I Have Trouble Buttoning Buttons"]}, {"conceptId": "C184129", "definition": "Functional Assessment of Chronic Illness Therapy-Searchable Item Library Adult: I have trouble feeling the shape of small objects when they are in my hand.", "preferredTerm": "FACIT-Searchable Item Library Adult Version - Trouble Feeling Shape of Objects", "submissionValue": "FSIL0512", "synonyms": ["FSIL-Trouble Feeling Shape of Objects"]}, {"conceptId": "C184130", "definition": "Functional Assessment of Chronic Illness Therapy-Searchable Item Library Adult: I have swelling in my stomach area.", "preferredTerm": "FACIT-Searchable Item Library Adult Version - I Have Swelling in Stomach Area", "submissionValue": "FSIL0513", "synonyms": ["FSIL-I Have Swelling in Stomach Area"]}, {"conceptId": "C184131", "definition": "Functional Assessment of Chronic Illness Therapy-Searchable Item Library Adult: I have been vomiting.", "preferredTerm": "FACIT-Searchable Item Library Adult Version - I Have Been Vomiting", "submissionValue": "FSIL0514", "synonyms": ["FSIL-I Have Been Vomiting"]}, {"conceptId": "C184132", "definition": "Functional Assessment of Chronic Illness Therapy-Searchable Item Library Adult: I have cramps in my stomach area.", "preferredTerm": "FACIT-Searchable Item Library Adult Version - I Have Cramps in My Stomach Area", "submissionValue": "FSIL0515", "synonyms": ["FSIL-I Have Cramps in My Stomach Area"]}, {"conceptId": "C184133", "definition": "Functional Assessment of Chronic Illness Therapy-Searchable Item Library Adult: I have aches and pains that bother me.", "preferredTerm": "FACIT-Searchable Item Library Adult Version - I Have Aches/Pains That Bother Me", "submissionValue": "FSIL0516", "synonyms": ["FSIL-I Have Aches/Pains That Bother Me"]}, {"conceptId": "C184134", "definition": "Functional Assessment of Chronic Illness Therapy-Searchable Item Library Adult: I have certain parts of my body where I experience pain.", "preferredTerm": "FACIT-Searchable Item Library Adult Version - Certain Parts of Body Have Pain", "submissionValue": "FSIL0517", "synonyms": ["FSIL-Certain Parts of Body Have Pain"]}, {"conceptId": "C184135", "definition": "Functional Assessment of Chronic Illness Therapy-Searchable Item Library Adult: My pain keeps me from doing things I want to do.", "preferredTerm": "FACIT-Searchable Item Library Adult Version - Pain Keeps Me From Doing Things", "submissionValue": "FSIL0518", "synonyms": ["FSIL-Pain Keeps Me From Doing Things"]}, {"conceptId": "C184136", "definition": "Functional Assessment of Chronic Illness Therapy-Searchable Item Library Adult: I am satisfied with my present comfort level.", "preferredTerm": "FACIT-Searchable Item Library Adult Version - Satisfied With Comfort Level", "submissionValue": "FSIL0519", "synonyms": ["FSIL-Satisfied With Comfort Level"]}, {"conceptId": "C184137", "definition": "Functional Assessment of Chronic Illness Therapy-Searchable Item Library Adult: I am able to feel like a man.", "preferredTerm": "FACIT-Searchable Item Library Adult Version - Able to Feel Like a Man", "submissionValue": "FSIL0520", "synonyms": ["FSIL-Able to Feel Like a Man"]}, {"conceptId": "C184138", "definition": "Functional Assessment of Chronic Illness Therapy-Searchable Item Library Adult: I have trouble moving my bowels.", "preferredTerm": "FACIT-Searchable Item Library Adult Version - I Have Trouble Moving My Bowels", "submissionValue": "FSIL0521", "synonyms": ["FSIL-I Have Trouble Moving My Bowels"]}, {"conceptId": "C184139", "definition": "Functional Assessment of Chronic Illness Therapy-Searchable Item Library Adult: I have difficulty urinating.", "preferredTerm": "FACIT-Searchable Item Library Adult Version - I Have Difficulty Urinating", "submissionValue": "FSIL0522", "synonyms": ["FSIL-I Have Difficulty Urinating"]}, {"conceptId": "C184140", "definition": "Functional Assessment of Chronic Illness Therapy-Searchable Item Library Adult: My problems with urinating limit my activities.", "preferredTerm": "FACIT-Searchable Item Library Adult Version - Problem Urinating Limits Activity", "submissionValue": "FSIL0523", "synonyms": ["FSIL-Problem Urinating Limits Activity"]}, {"conceptId": "C184141", "definition": "Functional Assessment of Chronic Illness Therapy-Searchable Item Library Adult: I maintain contact with my friends.", "preferredTerm": "FACIT-Searchable Item Library Adult Version - I Maintain Contact With My Friends", "submissionValue": "FSIL0524", "synonyms": ["FSIL-I Maintain Contact With My Friends"]}, {"conceptId": "C184142", "definition": "Functional Assessment of Chronic Illness Therapy-Searchable Item Library Adult: I have peace of mind.", "preferredTerm": "FACIT-Searchable Item Library Adult Version - I Have Peace of Mind", "submissionValue": "FSIL0525", "synonyms": ["FSIL-I Have Peace of Mind"]}, {"conceptId": "C184143", "definition": "Functional Assessment of Chronic Illness Therapy-Searchable Item Library Adult: I am able to make decisions.", "preferredTerm": "FACIT-Searchable Item Library Adult Version - Able to Make Decisions", "submissionValue": "FSIL0526", "synonyms": ["FSIL-Able to Make Decisions"]}, {"conceptId": "C184144", "definition": "Functional Assessment of Chronic Illness Therapy-Searchable Item Library Adult: I have been able to reconcile (make peace) with other people.", "preferredTerm": "FACIT-Searchable Item Library Adult Version - Able to Reconcile With Other People", "submissionValue": "FSIL0527", "synonyms": ["FSIL-Able to Reconcile With Other People"]}, {"conceptId": "C184145", "definition": "Functional Assessment of Chronic Illness Therapy-Searchable Item Library Adult: I am able to openly discuss my concerns with the people closest to me.", "preferredTerm": "FACIT-Searchable Item Library Adult Version - Discuss Concerns w/ People Closest", "submissionValue": "FSIL0528", "synonyms": ["FSIL-Discuss Concerns w/ People Closest"]}, {"conceptId": "C184146", "definition": "Functional Assessment of Chronic Illness Therapy-Searchable Item Library Adult: I have family members who will take on my responsibilities.", "preferredTerm": "FACIT-Searchable Item Library Adult Version - Family Who Take My Responsibilities", "submissionValue": "FSIL0529", "synonyms": ["FSIL-Family Who Take My Responsibilities"]}, {"conceptId": "C184147", "definition": "Functional Assessment of Chronic Illness Therapy-Searchable Item Library Adult: I feel that my family appreciates me.", "preferredTerm": "FACIT-Searchable Item Library Adult Version - Feel That My Family Appreciates Me", "submissionValue": "FSIL0530", "synonyms": ["FSIL-Feel That My Family Appreciates Me"]}, {"conceptId": "C184148", "definition": "Functional Assessment of Chronic Illness Therapy-Searchable Item Library Adult: I feel like a burden to my family.", "preferredTerm": "FACIT-Searchable Item Library Adult Version - I Feel Like a Burden to My Family", "submissionValue": "FSIL0531", "synonyms": ["FSIL-I Feel Like a Burden to My Family"]}, {"conceptId": "C184149", "definition": "Functional Assessment of Chronic Illness Therapy-Searchable Item Library Adult: I am constipated.", "preferredTerm": "FACIT-Searchable Item Library Adult Version - Constipated", "submissionValue": "FSIL0532", "synonyms": ["FSIL-Constipated"]}, {"conceptId": "C184150", "definition": "Functional Assessment of Chronic Illness Therapy-Searchable Item Library Adult: I have swelling in parts of my body.", "preferredTerm": "FACIT-Searchable Item Library Adult Version - Have Swelling in Parts of My Body", "submissionValue": "FSIL0533", "synonyms": ["FSIL-Have Swelling in Parts of My Body"]}, {"conceptId": "C184151", "definition": "Functional Assessment of Chronic Illness Therapy-Searchable Item Library Adult: My mouth and throat are dry.", "preferredTerm": "FACIT-Searchable Item Library Adult Version - My Mouth and Throat Are Dry", "submissionValue": "FSIL0534", "synonyms": ["FSIL-My Mouth and Throat Are Dry"]}, {"conceptId": "C184152", "definition": "Functional Assessment of Chronic Illness Therapy-Searchable Item Library Adult: I feel useful.", "preferredTerm": "FACIT-Searchable Item Library Adult Version - I Feel Useful", "submissionValue": "FSIL0535", "synonyms": ["FSIL-I Feel Useful"]}, {"conceptId": "C184153", "definition": "Functional Assessment of Chronic Illness Therapy-Searchable Item Library Adult: I make each day count.", "preferredTerm": "FACIT-Searchable Item Library Adult Version - I Make Each Day Count", "submissionValue": "FSIL0536", "synonyms": ["FSIL-I Make Each Day Count"]}, {"conceptId": "C184154", "definition": "Functional Assessment of Chronic Illness Therapy-Searchable Item Library Adult: I have told family members about my infection.", "preferredTerm": "FACIT-Searchable Item Library Adult Version - Told Family Members About Infection", "submissionValue": "FSIL0537", "synonyms": ["FSIL-Told Family Members About Infection"]}, {"conceptId": "C184155", "definition": "Functional Assessment of Chronic Illness Therapy-Searchable Item Library Adult: Do you have an ostomy appliance?", "preferredTerm": "FACIT-Searchable Item Library Adult Version - Do You Have an Ostomy Appliance", "submissionValue": "FSIL0538", "synonyms": ["FSIL-Do You Have an Ostomy Appliance"]}, {"conceptId": "C184156", "definition": "Functional Assessment of Chronic Illness Therapy-Searchable Item Library Adult: Have you ever smoked?", "preferredTerm": "FACIT-Searchable Item Library Adult Version - Have You Ever Smoked", "submissionValue": "FSIL0539", "synonyms": ["FSIL-Have You Ever Smoked"]}, {"conceptId": "C184157", "definition": "Functional Assessment of Chronic Illness Therapy-Searchable Item Library Adult: On which side was your breast operation?", "preferredTerm": "FACIT-Searchable Item Library Adult Version - Which Side Was Breast Operation", "submissionValue": "FSIL0540", "synonyms": ["FSIL-Which Side Was Breast Operation"]}, {"conceptId": "C184158", "definition": "Functional Assessment of Chronic Illness Therapy-Searchable Item Library Adult: In how many places in your body have you felt bone pain?", "preferredTerm": "FACIT-Searchable Item Library Adult Version - How Many Places in Body Felt Pain", "submissionValue": "FSIL0541", "synonyms": ["FSIL-How Many Places in Body Felt Pain"]}, {"conceptId": "C184159", "definition": "Functional Assessment of Chronic Illness Therapy-Searchable Item Library Adult: I have told my partner/spouse about my infection.", "preferredTerm": "FACIT-Searchable Item Library Adult Version - Told Partner/Spouse About Infection", "submissionValue": "FSIL0542", "synonyms": ["FSIL-Told Partner/Spouse About Infection"]}, {"conceptId": "C184160", "definition": "Functional Assessment of Chronic Illness Therapy-Searchable Item Library Adult: I have had blood in my urine.", "preferredTerm": "FACIT-Searchable Item Library Adult Version - I Have Had Blood in My Urine", "submissionValue": "FSIL0543", "synonyms": ["FSIL-I Have Had Blood in My Urine"]}, {"conceptId": "C184161", "definition": "Functional Assessment of Chronic Illness Therapy-Searchable Item Library Adult: It is inconvenient for me to come for my radiation treatments.", "preferredTerm": "FACIT-Searchable Item Library Adult Version - Inconvenient to Come for Radiation", "submissionValue": "FSIL0544", "synonyms": ["FSIL-Inconvenient to Come for Radiation"]}, {"conceptId": "C184162", "definition": "Functional Assessment of Chronic Illness Therapy-Searchable Item Library Adult: I have difficultly raising my arm.", "preferredTerm": "FACIT-Searchable Item Library Adult Version - I Have Difficultly Raising My Arm", "submissionValue": "FSIL0545", "synonyms": ["FSIL-I Have Difficultly Raising My Arm"]}, {"conceptId": "C184163", "definition": "Functional Assessment of Chronic Illness Therapy-Searchable Item Library Adult: I have difficulty moving my arm sideways.", "preferredTerm": "FACIT-Searchable Item Library Adult Version - Difficulty Moving My Arm Sideways", "submissionValue": "FSIL0546", "synonyms": ["FSIL-Difficulty Moving My Arm Sideways"]}, {"conceptId": "C184164", "definition": "Functional Assessment of Chronic Illness Therapy-Searchable Item Library Adult: I have numbness or tingling in my arm, shoulder, or breast.", "preferredTerm": "FACIT-Searchable Item Library Adult Version - Numbness/Tingling in Arm/Shoulder", "submissionValue": "FSIL0547", "synonyms": ["FSIL-Numbness/Tingling in Arm/Shoulder"]}, {"conceptId": "C184165", "definition": "Functional Assessment of Chronic Illness Therapy-Searchable Item Library Adult: I have difficulty breathing.", "preferredTerm": "FACIT-Searchable Item Library Adult Version - I Have Difficulty Breathing", "submissionValue": "FSIL0548", "synonyms": ["FSIL-I Have Difficulty Breathing"]}, {"conceptId": "C184166", "definition": "Functional Assessment of Chronic Illness Therapy-Searchable Item Library Adult: I am bothered by the appearance of the skin in my breast area.", "preferredTerm": "FACIT-Searchable Item Library Adult Version - Bothered by Appearance Skin Breast", "submissionValue": "FSIL0549", "synonyms": ["FSIL-Bothered by Appearance Skin Breast"]}, {"conceptId": "C184167", "definition": "Functional Assessment of Chronic Illness Therapy-Searchable Item Library Adult: I have pain in my breast.", "preferredTerm": "FACIT-Searchable Item Library Adult Version - I Have Pain in My Breast", "submissionValue": "FSIL0550", "synonyms": ["FSIL-I Have Pain in My Breast"]}, {"conceptId": "C184168", "definition": "Functional Assessment of Chronic Illness Therapy-Searchable Item Library Adult: I have pain in my arm and/or shoulder.", "preferredTerm": "FACIT-Searchable Item Library Adult Version - I Have Pain in Arm and/or Shoulder", "submissionValue": "FSIL0551", "synonyms": ["FSIL-I Have Pain in Arm and/or Shoulder"]}, {"conceptId": "C184169", "definition": "Functional Assessment of Chronic Illness Therapy-Searchable Item Library Adult: My chest area (not including the breast itself) is sore.", "preferredTerm": "FACIT-Searchable Item Library Adult Version - My Chest Area Is Sore", "submissionValue": "FSIL0552", "synonyms": ["FSIL-My Chest Area Is Sore"]}, {"conceptId": "C184170", "definition": "Functional Assessment of Chronic Illness Therapy-Searchable Item Library Adult: I am bothered by swelling in my breast.", "preferredTerm": "FACIT-Searchable Item Library Adult Version - Bothered by Swelling in My Breast", "submissionValue": "FSIL0553", "synonyms": ["FSIL-Bothered by Swelling in My Breast"]}, {"conceptId": "C184171", "definition": "Functional Assessment of Chronic Illness Therapy-Searchable Item Library Adult: My breast is sensitive/tender.", "preferredTerm": "FACIT-Searchable Item Library Adult Version - My Breast Is Sensitive/Tender", "submissionValue": "FSIL0554", "synonyms": ["FSIL-My Breast Is Sensitive/Tender"]}, {"conceptId": "C184172", "definition": "Functional Assessment of Chronic Illness Therapy-Searchable Item Library Adult: My underarm area is sensitive/tender.", "preferredTerm": "FACIT-Searchable Item Library Adult Version - My Underarm Area Sensitive/Tender", "submissionValue": "FSIL0555", "synonyms": ["FSIL-My Underarm Area Sensitive/Tender"]}, {"conceptId": "C184173", "definition": "Functional Assessment of Chronic Illness Therapy-Searchable Item Library Adult: The skin in my breast area is itchy, flaky or dry.", "preferredTerm": "FACIT-Searchable Item Library Adult Version - Skin in Breast Area Itchy/Flaky/Dry", "submissionValue": "FSIL0556", "synonyms": ["FSIL-Skin in Breast Area Itchy/Flaky/Dry"]}, {"conceptId": "C184174", "definition": "Functional Assessment of Chronic Illness Therapy-Searchable Item Library Adult: I am bothered by skin problems in my underarm area.", "preferredTerm": "FACIT-Searchable Item Library Adult Version - Bothered by Skin Problems Underarm", "submissionValue": "FSIL0557", "synonyms": ["FSIL-Bothered by Skin Problems Underarm"]}, {"conceptId": "C184175", "definition": "Functional Assessment of Chronic Illness Therapy-Searchable Item Library Adult: I feel peaceful.", "preferredTerm": "FACIT-Searchable Item Library Adult Version - I Feel Peaceful", "submissionValue": "FSIL0558", "synonyms": ["FSIL-I Feel Peaceful"]}, {"conceptId": "C184176", "definition": "Functional Assessment of Chronic Illness Therapy-Searchable Item Library Adult: I find strength in my faith or spiritual beliefs.", "preferredTerm": "FACIT-Searchable Item Library Adult Version - Strength in Faith/Spiritual Beliefs", "submissionValue": "FSIL0559", "synonyms": ["FSIL-Strength in Faith/Spiritual Beliefs"]}, {"conceptId": "C184177", "definition": "Functional Assessment of Chronic Illness Therapy-Searchable Item Library Adult: My illness has strengthened my faith or spiritual beliefs.", "preferredTerm": "FACIT-Searchable Item Library Adult Version - Illness Strengthen Faith/Spiritual", "submissionValue": "FSIL0560", "synonyms": ["FSIL-Illness Strengthen Faith/Spiritual"]}, {"conceptId": "C184178", "definition": "Functional Assessment of Chronic Illness Therapy-Searchable Item Library Adult: I know that whatever happens with my illness, things will be okay.", "preferredTerm": "FACIT-Searchable Item Library Adult Version - Whatever Happens Illness Will Be OK", "submissionValue": "FSIL0561", "synonyms": ["FSIL-Whatever Happens Illness Will Be OK"]}, {"conceptId": "C184179", "definition": "Functional Assessment of Chronic Illness Therapy-Searchable Item Library Adult: I feel connected to a higher power (or God).", "preferredTerm": "FACIT-Searchable Item Library Adult Version - I Feel Connected to Higher Power", "submissionValue": "FSIL0562", "synonyms": ["FSIL-I Feel Connected to Higher Power"]}, {"conceptId": "C184180", "definition": "Functional Assessment of Chronic Illness Therapy-Searchable Item Library Adult: I feel connected to other people.", "preferredTerm": "FACIT-Searchable Item Library Adult Version - I Feel Connected to Other People", "submissionValue": "FSIL0563", "synonyms": ["FSIL-I Feel Connected to Other People"]}, {"conceptId": "C184181", "definition": "Functional Assessment of Chronic Illness Therapy-Searchable Item Library Adult: I feel loved.", "preferredTerm": "FACIT-Searchable Item Library Adult Version - I Feel Loved", "submissionValue": "FSIL0564", "synonyms": ["FSIL-I Feel Loved"]}, {"conceptId": "C184182", "definition": "Functional Assessment of Chronic Illness Therapy-Searchable Item Library Adult: I feel love for others.", "preferredTerm": "FACIT-Searchable Item Library Adult Version - I Feel Love for Others", "submissionValue": "FSIL0565", "synonyms": ["FSIL-I Feel Love for Others"]}, {"conceptId": "C184183", "definition": "Functional Assessment of Chronic Illness Therapy-Searchable Item Library Adult: I am able to forgive others for any harm they have ever caused me.", "preferredTerm": "FACIT-Searchable Item Library Adult Version - Forgive Others for Harm Caused Me", "submissionValue": "FSIL0566", "synonyms": ["FSIL-Forgive Others for Harm Caused Me"]}, {"conceptId": "C184184", "definition": "Functional Assessment of Chronic Illness Therapy-Searchable Item Library Adult: I feel forgiven for any harm I may have ever caused.", "preferredTerm": "FACIT-Searchable Item Library Adult Version - Feel Forgiven for Harm I Caused", "submissionValue": "FSIL0567", "synonyms": ["FSIL-Feel Forgiven for Harm I Caused"]}, {"conceptId": "C184185", "definition": "Functional Assessment of Chronic Illness Therapy-Searchable Item Library Adult: Throughout the course of my day, I feel a sense of thankfulness for my life.", "preferredTerm": "FACIT-Searchable Item Library Adult Version - Feel Sense of Thankfulness for Life", "submissionValue": "FSIL0568", "synonyms": ["FSIL-Feel Sense of Thankfulness for Life"]}, {"conceptId": "C184186", "definition": "Functional Assessment of Chronic Illness Therapy-Searchable Item Library Adult: I have a reason for living.", "preferredTerm": "FACIT-Searchable Item Library Adult Version - I Have a Reason for Living", "submissionValue": "FSIL0569", "synonyms": ["FSIL-I Have a Reason for Living"]}, {"conceptId": "C184187", "definition": "Functional Assessment of Chronic Illness Therapy-Searchable Item Library Adult: Throughout the course of my day, I feel a sense of thankfulness for what others bring to my life.", "preferredTerm": "FACIT-Searchable Item Library Adult Version - Thankfulness Others Bring to Life", "submissionValue": "FSIL0570", "synonyms": ["FSIL-Thankfulness Others Bring to Life"]}, {"conceptId": "C184188", "definition": "Functional Assessment of Chronic Illness Therapy-Searchable Item Library Adult: I feel hopeful.", "preferredTerm": "FACIT-Searchable Item Library Adult Version - I Feel Hopeful", "submissionValue": "FSIL05