{"_links": {"parentPackage": {"href": "/mdr/ct/packages/sdtmct-2023-06-30", "title": "SDTM Controlled Terminology Package 54 Effective 2023-06-30", "type": "Terminology"}, "priorVersion": {"href": "/mdr/ct/packages/sdtmct-2023-03-31/codelists/C187453", "title": "CDISC Questionnaire Stanford Sleepiness Scale Test Name Terminology", "type": "Code List"}, "rootItem": {"href": "/mdr/root/ct/sdtmct/codelists/C187453", "title": "Version-agnostic anchor resource for codelist C187453", "type": "Root Value Domain"}, "self": {"href": "/mdr/ct/packages/sdtmct-2023-06-30/codelists/C187453", "title": "CDISC Questionnaire Stanford Sleepiness Scale Test Name Terminology", "type": "Code List"}}, "conceptId": "C187453", "definition": "Stanford Sleepiness Scale test name.", "extensible": "false", "name": "Stanford Sleepiness Scale Questionnaire Test Name", "preferredTerm": "CDISC Questionnaire Stanford Sleepiness Scale Test Name Terminology", "submissionValue": "SSS01TN", "synonyms": ["Stanford Sleepiness Scale Questionnaire Test Name"], "terms": [{"conceptId": "C187621", "definition": "Stanford Sleepiness Scale - Degree of sleepiness.", "preferredTerm": "SSS - Degree of Sleepiness", "submissionValue": "SSS01-Degree of Sleepiness", "synonyms": ["SSS01-Degree of Sleepiness"]}]}