{"_links": {"parentPackage": {"href": "/mdr/ct/packages/sdtmct-2023-06-30", "title": "SDTM Controlled Terminology Package 54 Effective 2023-06-30", "type": "Terminology"}, "priorVersion": {"href": "/mdr/ct/packages/sdtmct-2023-03-31/codelists/C187681", "title": "CDISC SDTM Commercial Sponsor Status Response Terminology", "type": "Code List"}, "rootItem": {"href": "/mdr/root/ct/sdtmct/codelists/C187681", "title": "Version-agnostic anchor resource for codelist C187681", "type": "Root Value Domain"}, "self": {"href": "/mdr/ct/packages/sdtmct-2023-06-30/codelists/C187681", "title": "CDISC SDTM Commercial Sponsor Status Response Terminology", "type": "Code List"}}, "conceptId": "C187681", "definition": "Terminology relevant to the responses for the state or condition of the sponsor as pertains to whether the sponsor is considered a commercial entity.", "extensible": "false", "name": "Commercial Sponsor Status Response", "preferredTerm": "CDISC SDTM Commercial Sponsor Status Response Terminology", "submissionValue": "CMSPSTAT", "synonyms": ["Commercial Sponsor Status Response"], "terms": [{"conceptId": "C187708", "definition": "A person or organization that takes responsibility for a trial which is part of the development program for a marketing authorization of a medicinal product at the time of the application. (EUDRACT)", "preferredTerm": "Commercial Clinical Trial Sponsor", "submissionValue": "COMMERCIAL"}, {"conceptId": "C187709", "definition": "A person or organization that takes responsibility for a trial that is not part of the development program for a marketing authorization of a medicinal product at the time of the application. (EUDRACT)", "preferredTerm": "Non-commercial Clinical Trial Sponsor", "submissionValue": "NON-COMMERCIAL"}]}