{"_links": {"parentPackage": {"href": "/mdr/ct/packages/sdtmct-2023-06-30", "title": "SDTM Controlled Terminology Package 54 Effective 2023-06-30", "type": "Terminology"}, "priorVersion": {"href": "/mdr/ct/packages/sdtmct-2023-03-31/codelists/C189692", "title": "CDISC Clinical Classification Brief Psychiatric Rating Scale-Anchored BPRSA1SET2 Standardized Character Response Terminology", "type": "Code List"}, "rootItem": {"href": "/mdr/root/ct/sdtmct/codelists/C189692", "title": "Version-agnostic anchor resource for codelist C189692", "type": "Root Value Domain"}, "self": {"href": "/mdr/ct/packages/sdtmct-2023-06-30/codelists/C189692", "title": "CDISC Clinical Classification Brief Psychiatric Rating Scale-Anchored BPRSA1SET2 Standardized Character Response Terminology", "type": "Code List"}}, "conceptId": "C189692", "definition": "Brief Psychiatric Rating Scale-Anchored standardized character result for BPRSA103, BPRSA104, BPRSA106, BPRSA107, BPRSA113, BPRSA114, BPRSA116, and BPRSA117 test and test code.", "extensible": "false", "name": "Brief Psychiatric Rating Scale-Anchored Clinical Classification STRESC the Same as BPRSA103 TN/TC", "preferredTerm": "CDISC Clinical Classification Brief Psychiatric Rating Scale-Anchored BPRSA1SET2 Standardized Character Response Terminology", "submissionValue": "BPRSA1SET2STR", "synonyms": ["Brief Psychiatric Rating Scale-Anchored Clinical Classification STRESC the Same as BPRSA103 TN/TC"], "terms": [{"conceptId": "C189726", "definition": "Brief Psychiatric Rating Scale-Anchored standardized character result for BPRSA103, BPRSA104, BPRSA106, BPRSA107, BPRSA113, BPRSA114, BPRSA116, and BPRSA117-Not observed.", "preferredTerm": "Brief Psychiatric Rating Scale-Anchored BPRSA1SET2 Standardized Character Result 1", "submissionValue": "1", "synonyms": ["BPRSA1SET2-1"]}, {"conceptId": "C189727", "definition": "Brief Psychiatric Rating Scale-Anchored standardized character result for BPRSA103, BPRSA104, BPRSA106, BPRSA107, BPRSA113, BPRSA114, BPRSA116, and BPRSA117-Very mild.", "preferredTerm": "Brief Psychiatric Rating Scale-Anchored BPRSA1SET2 Standardized Character Result 2", "submissionValue": "2", "synonyms": ["BPRSA1SET2-2"]}, {"conceptId": "C189728", "definition": "Brief Psychiatric Rating Scale-Anchored standardized character result for BPRSA103, BPRSA104, BPRSA106, BPRSA107, BPRSA113, BPRSA114, BPRSA116, and BPRSA117-Mild.", "preferredTerm": "Brief Psychiatric Rating Scale-Anchored BPRSA1SET2 Standardized Character Result 3", "submissionValue": "3", "synonyms": ["BPRSA1SET2-3"]}, {"conceptId": "C189729", "definition": "Brief Psychiatric Rating Scale-Anchored standardized character result for BPRSA103, BPRSA104, BPRSA106, BPRSA107, BPRSA113, BPRSA114, BPRSA116, and BPRSA117-Moderate.", "preferredTerm": "Brief Psychiatric Rating Scale-Anchored BPRSA1SET2 Standardized Character Result 4", "submissionValue": "4", "synonyms": ["BPRSA1SET2-4"]}, {"conceptId": "C189730", "definition": "Brief Psychiatric Rating Scale-Anchored standardized character result for BPRSA103, BPRSA104, BPRSA106, BPRSA107, BPRSA113, BPRSA114, BPRSA116, and BPRSA117-Moderately severe.", "preferredTerm": "Brief Psychiatric Rating Scale-Anchored BPRSA1SET2 Standardized Character Result 5", "submissionValue": "5", "synonyms": ["BPRSA1SET2-5"]}, {"conceptId": "C189731", "definition": "Brief Psychiatric Rating Scale-Anchored standardized character result for BPRSA103, BPRSA104, BPRSA106, BPRSA107, BPRSA113, BPRSA114, BPRSA116, and BPRSA117-Severe.", "preferredTerm": "Brief Psychiatric Rating Scale-Anchored BPRSA1SET2 Standardized Character Result 6", "submissionValue": "6", "synonyms": ["BPRSA1SET2-6"]}, {"conceptId": "C189732", "definition": "Brief Psychiatric Rating Scale-Anchored Standardized character result for BPRSA103, BPRSA104, BPRSA106, BPRSA107, BPRSA113, BPRSA114, BPRSA116, and BPRSA117-Very severe.", "preferredTerm": "Brief Psychiatric Rating Scale-Anchored BPRSA1SET2 Standardized Character Result 7", "submissionValue": "7", "synonyms": ["BPRSA1SET2-7"]}]}