{"_links": {"parentPackage": {"href": "/mdr/ct/packages/sdtmct-2023-06-30", "title": "SDTM Controlled Terminology Package 54 Effective 2023-06-30", "type": "Terminology"}, "priorVersion": {"href": "/mdr/ct/packages/sdtmct-2023-03-31/codelists/C190895", "title": "CDISC Clinical Classification Modified Van Assche Index MVAI102 Original Response Terminology", "type": "Code List"}, "rootItem": {"href": "/mdr/root/ct/sdtmct/codelists/C190895", "title": "Version-agnostic anchor resource for codelist C190895", "type": "Root Value Domain"}, "self": {"href": "/mdr/ct/packages/sdtmct-2023-06-30/codelists/C190895", "title": "CDISC Clinical Classification Modified Van Assche Index MVAI102 Original Response Terminology", "type": "Code List"}}, "conceptId": "C190895", "definition": "Modified Van Assche Index original result for MVAI102 test and test code.", "extensible": "false", "name": "Modified Van Assche Index Clinical Classification ORRES for MVAI102 TN/TC", "preferredTerm": "CDISC Clinical Classification Modified Van Assche Index MVAI102 Original Response Terminology", "submissionValue": "MVAI102OR", "synonyms": ["Modified Van Assche Index Clinical Classification ORRES for MVAI102 TN/TC"], "terms": [{"conceptId": "C190996", "definition": "Modified Van Assche Index original result for MVAI102-Absent.", "preferredTerm": "Modified Van Assche Index MVAI102 Original Result - Absent", "submissionValue": "Absent", "synonyms": ["MVAI102-Absent"]}, {"conceptId": "C190997", "definition": "Modified Van Assche Index original result for MVAI102-Mild.", "preferredTerm": "Modified Van Assche Index MVAI102 Original Result - Mild", "submissionValue": "Mild", "synonyms": ["MVAI102-Mild"]}, {"conceptId": "C190998", "definition": "Modified Van Assche Index original result for MVAI102-Pronounced.", "preferredTerm": "Modified Van Assche Index MVAI102 Original Result - Pronounced", "submissionValue": "Pronounced", "synonyms": ["MVAI102-Pronounced"]}]}