{"_links": {"parentPackage": {"href": "/mdr/ct/packages/sdtmct-2023-06-30", "title": "SDTM Controlled Terminology Package 54 Effective 2023-06-30", "type": "Terminology"}, "priorVersion": {"href": "/mdr/ct/packages/sdtmct-2023-03-31/codelists/C190889", "title": "CDISC Clinical Classification Harvey-Bradshaw Index HBI0104 Original Response Terminology", "type": "Code List"}, "rootItem": {"href": "/mdr/root/ct/sdtmct/codelists/C190889", "title": "Version-agnostic anchor resource for codelist C190889", "type": "Root Value Domain"}, "self": {"href": "/mdr/ct/packages/sdtmct-2023-06-30/codelists/C190889", "title": "CDISC Clinical Classification Harvey-Bradshaw Index HBI0104 Original Response Terminology", "type": "Code List"}}, "conceptId": "C190889", "definition": "Harvey-Bradshaw Index original result for HBI0104 test and test code.", "extensible": "false", "name": "Harvey-Bradshaw Index Clinical Classification ORRES for HBI0104 TN/TC", "preferredTerm": "CDISC Clinical Classification Harvey-Bradshaw Index HBI0104 Original Response Terminology", "submissionValue": "HBI0104OR", "synonyms": ["Harvey-Bradshaw Index Clinical Classification ORRES for HBI0104 TN/TC"], "terms": [{"conceptId": "C190979", "definition": "Harvey-Bradshaw Index original result for HBI0104-Definite and tender.", "preferredTerm": "Harvey-Bradshaw Index HBI0104 Original Result - Definite and Tender", "submissionValue": "definite and tender", "synonyms": ["HBI0104-definite and tender"]}, {"conceptId": "C190978", "definition": "Harvey-Bradshaw Index original result for HBI0104-Definite.", "preferredTerm": "Harvey-Bradshaw Index HBI0104 Original Result - Definite", "submissionValue": "definite", "synonyms": ["HBI0104-definite"]}, {"conceptId": "C190977", "definition": "Harvey-Bradshaw Index original result for HBI0104-Dubious.", "preferredTerm": "Harvey-Bradshaw Index HBI0104 Original Result - Dubious", "submissionValue": "dubious", "synonyms": ["HBI0104-dubious"]}, {"conceptId": "C190976", "definition": "Harvey-Bradshaw Index original result for HBI0104-None.", "preferredTerm": "Harvey-Bradshaw Index HBI0104 Original Result - None", "submissionValue": "none", "synonyms": ["HBI0104-none"]}]}