{"_links": {"parentPackage": {"href": "/mdr/ct/packages/sdtmct-2023-06-30", "title": "SDTM Controlled Terminology Package 54 Effective 2023-06-30", "type": "Terminology"}, "priorVersion": {"href": "/mdr/ct/packages/sdtmct-2023-03-31/codelists/C190932", "title": "CDISC Clinical Classification Rutgeerts Score Test Code Terminology", "type": "Code List"}, "rootItem": {"href": "/mdr/root/ct/sdtmct/codelists/C190932", "title": "Version-agnostic anchor resource for codelist C190932", "type": "Root Value Domain"}, "self": {"href": "/mdr/ct/packages/sdtmct-2023-06-30/codelists/C190932", "title": "CDISC Clinical Classification Rutgeerts Score Test Code Terminology", "type": "Code List"}}, "conceptId": "C190932", "definition": "Rutgeerts Score test code.", "extensible": "false", "name": "Rutgeerts Score Clinical Classification Test Code", "preferredTerm": "CDISC Clinical Classification Rutgeerts Score Test Code Terminology", "submissionValue": "RUTG01TC", "synonyms": ["Rutgeerts Score Clinical Classification Test Code"], "terms": [{"conceptId": "C191153", "definition": "Rutgeerts Score - Rutgeerts score.", "preferredTerm": "Rutgeerts Score - Rutgeerts Score", "submissionValue": "RUTG0101", "synonyms": ["RUTG01-Rutgeerts Score"]}]}