{"_links": {"parentPackage": {"href": "/mdr/ct/packages/sdtmct-2023-06-30", "title": "SDTM Controlled Terminology Package 54 Effective 2023-06-30", "type": "Terminology"}, "priorVersion": {"href": "/mdr/ct/packages/sdtmct-2023-03-31/codelists/C190890", "title": "CDISC Clinical Classification Harvey-Bradshaw Index HBI0104 Standardized Character Response Terminology", "type": "Code List"}, "rootItem": {"href": "/mdr/root/ct/sdtmct/codelists/C190890", "title": "Version-agnostic anchor resource for codelist C190890", "type": "Root Value Domain"}, "self": {"href": "/mdr/ct/packages/sdtmct-2023-06-30/codelists/C190890", "title": "CDISC Clinical Classification Harvey-Bradshaw Index HBI0104 Standardized Character Response Terminology", "type": "Code List"}}, "conceptId": "C190890", "definition": "Harvey-Bradshaw Index standardized character result for HBI0104 test and test code.", "extensible": "false", "name": "Harvey-Bradshaw Index Clinical Classification STRESC for HBI0104 TN/TC", "preferredTerm": "CDISC Clinical Classification Harvey-Bradshaw Index HBI0104 Standardized Character Response Terminology", "submissionValue": "HBI0104STR", "synonyms": ["Harvey-Bradshaw Index Clinical Classification STRESC for HBI0104 TN/TC"], "terms": [{"conceptId": "C190980", "definition": "Harvey-Bradshaw Index standardized character result for HBI0104-None.", "preferredTerm": "Harvey-Bradshaw Index HBI0104 Standardized Character Result 0", "submissionValue": "0", "synonyms": ["HBI0104-0"]}, {"conceptId": "C190981", "definition": "Harvey-Bradshaw Index standardized character result for HBI0104-Dubious.", "preferredTerm": "Harvey-Bradshaw Index HBI0104 Standardized Character Result 1", "submissionValue": "1", "synonyms": ["HBI0104-1"]}, {"conceptId": "C190982", "definition": "Harvey-Bradshaw Index standardized character result for HBI0104-Definite.", "preferredTerm": "Harvey-Bradshaw Index HBI0104 Standardized Character Result 2", "submissionValue": "2", "synonyms": ["HBI0104-2"]}, {"conceptId": "C190983", "definition": "Harvey-Bradshaw Index standardized character result for HBI0104-Definite and tender.", "preferredTerm": "Harvey-Bradshaw Index HBI0104 Standardized Character Result 3", "submissionValue": "3", "synonyms": ["HBI0104-3"]}]}