{"_links": {"parentPackage": {"href": "/mdr/ct/packages/sdtmct-2023-06-30", "title": "SDTM Controlled Terminology Package 54 Effective 2023-06-30", "type": "Terminology"}, "priorVersion": {"href": "/mdr/ct/packages/sdtmct-2023-03-31/codelists/C190925", "title": "CDISC Clinical Classification Harvey-Bradshaw Index Test Name Terminology", "type": "Code List"}, "rootItem": {"href": "/mdr/root/ct/sdtmct/codelists/C190925", "title": "Version-agnostic anchor resource for codelist C190925", "type": "Root Value Domain"}, "self": {"href": "/mdr/ct/packages/sdtmct-2023-06-30/codelists/C190925", "title": "CDISC Clinical Classification Harvey-Bradshaw Index Test Name Terminology", "type": "Code List"}}, "conceptId": "C190925", "definition": "Harvey-Bradshaw Index test name.", "extensible": "false", "name": "Harvey-Bradshaw Index Clinical Classification Test Name", "preferredTerm": "CDISC Clinical Classification Harvey-Bradshaw Index Test Name Terminology", "submissionValue": "HBI01TN", "synonyms": ["Harvey-Bradshaw Index Clinical Classification Test Name"], "terms": [{"conceptId": "C191047", "definition": "Harvey-Bradshaw Index - Abdominal mass.", "preferredTerm": "HBI - Abdominal Mass", "submissionValue": "HBI01-Abdominal Mass", "synonyms": ["HBI01-Abdominal Mass"]}, {"conceptId": "C191045", "definition": "Harvey-Bradshaw Index - Abdominal pain (for the previous day).", "preferredTerm": "HBI - Abdominal Pain", "submissionValue": "HBI01-Abdominal Pain", "synonyms": ["HBI01-Abdominal Pain"]}, {"conceptId": "C191055", "definition": "Harvey-Bradshaw Index - Complication: Abscess.", "preferredTerm": "HBI - Complication: Abscess", "submissionValue": "HBI01-Complication: Abscess", "synonyms": ["HBI01-Complication: Abscess"]}, {"conceptId": "C191053", "definition": "Harvey-Bradshaw Index - Complication: Anal fissures.", "preferredTerm": "HBI - Complication: Anal Fistula", "submissionValue": "HBI01-Complication: Anal Fistula", "synonyms": ["HBI01-Complication: Anal Fistula"]}, {"conceptId": "C191051", "definition": "Harvey-Bradshaw Index - Complication: Aphthous ulcers.", "preferredTerm": "HBI - Complication: Aphthous Ulcers", "submissionValue": "HBI01-Complication: Aphthous Ulcers", "synonyms": ["HBI01-Complication: Aphthous Ulcers"]}, {"conceptId": "C191048", "definition": "Harvey-Bradshaw Index - Complication: Arthralgia.", "preferredTerm": "HBI - Complication: Arthralgia", "submissionValue": "HBI01-Complication: Arthralgia", "synonyms": ["HBI01-Complication: Arthralgia"]}, {"conceptId": "C191050", "definition": "Harvey-Bradshaw Index - Complication: Erythema nodosum.", "preferredTerm": "HBI - Complication: Erythema Nodosum", "submissionValue": "HBI01-Complication: Erythema Nodosum", "synonyms": ["HBI01-Complication: Erythema Nodosum"]}, {"conceptId": "C191054", "definition": "Harvey-Bradshaw Index - Complication: New fistula.", "preferredTerm": "HBI - Complication: New Fistula", "submissionValue": "HBI01-Complication: New Fistula", "synonyms": ["HBI01-Complication: New Fistula"]}, {"conceptId": "C191052", "definition": "Harvey-Bradshaw Index - Complication: Pyoderma gangrenosum.", "preferredTerm": "HBI - Complication: Pyoderma Gangrenosum", "submissionValue": "HBI01-Complication: Pyoderma Gangrenosum", "synonyms": ["HBI01-Complication: Pyoderma Gangrenosum"]}, {"conceptId": "C191049", "definition": "Harvey-Bradshaw Index - Complication: Uveitis.", "preferredTerm": "HBI - Complication: Uveitis", "submissionValue": "HBI01-Complication: Uveitis", "synonyms": ["HBI01-Complication: Uveitis"]}, {"conceptId": "C191044", "definition": "Harvey-Bradshaw Index - Patient's general well-being (for the previous day).", "preferredTerm": "HBI - General Well-being", "submissionValue": "HBI01-General Well-being", "synonyms": ["HBI01-General Well-being"]}, {"conceptId": "C191046", "definition": "Harvey-Bradshaw Index - Number of liquid stools (for the previous day).", "preferredTerm": "HBI - Number Liquid Stools", "submissionValue": "HBI01-Number Liquid Stools", "synonyms": ["HBI01-Number Liquid Stools"]}, {"conceptId": "C191056", "definition": "Harvey-Bradshaw Index - Total score.", "preferredTerm": "HBI - Total Score", "submissionValue": "HBI01-Total Score", "synonyms": ["HBI01-Total Score"]}]}