{"_links": {"parentPackage": {"href": "/mdr/ct/packages/sdtmct-2023-06-30", "title": "SDTM Controlled Terminology Package 54 Effective 2023-06-30", "type": "Terminology"}, "priorVersion": {"href": "/mdr/ct/packages/sdtmct-2023-03-31/codelists/C190931", "title": "CDISC Clinical Classification Rutgeerts Score Test Name Terminology", "type": "Code List"}, "rootItem": {"href": "/mdr/root/ct/sdtmct/codelists/C190931", "title": "Version-agnostic anchor resource for codelist C190931", "type": "Root Value Domain"}, "self": {"href": "/mdr/ct/packages/sdtmct-2023-06-30/codelists/C190931", "title": "CDISC Clinical Classification Rutgeerts Score Test Name Terminology", "type": "Code List"}}, "conceptId": "C190931", "definition": "Rutgeerts Score test name.", "extensible": "false", "name": "Rutgeerts Score Clinical Classification Test Name", "preferredTerm": "CDISC Clinical Classification Rutgeerts Score Test Name Terminology", "submissionValue": "RUTG01TN", "synonyms": ["Rutgeerts Score Clinical Classification Test Name"], "terms": [{"conceptId": "C191153", "definition": "Rutgeerts Score - Rutgeerts score.", "preferredTerm": "Rutgeerts Score - Rutgeerts Score", "submissionValue": "RUTG01-Rutgeerts Score", "synonyms": ["RUTG01-Rutgeerts Score"]}]}