{"_links": {"parentPackage": {"href": "/mdr/ct/packages/sdtmct-2023-06-30", "title": "SDTM Controlled Terminology Package 54 Effective 2023-06-30", "type": "Terminology"}, "priorVersion": {"href": "/mdr/ct/packages/sdtmct-2023-03-31/codelists/C190903", "title": "CDISC Clinical Classification Rutgeerts Score RUTG0101 Original Response Terminology", "type": "Code List"}, "rootItem": {"href": "/mdr/root/ct/sdtmct/codelists/C190903", "title": "Version-agnostic anchor resource for codelist C190903", "type": "Root Value Domain"}, "self": {"href": "/mdr/ct/packages/sdtmct-2023-06-30/codelists/C190903", "title": "CDISC Clinical Classification Rutgeerts Score RUTG0101 Original Response Terminology", "type": "Code List"}}, "conceptId": "C190903", "definition": "Rutgeerts Score original result for RUTG0101 test and test code.", "extensible": "false", "name": "Rutgeerts Score Clinical Classification ORRES for RUTG0101 TN/TC", "preferredTerm": "CDISC Clinical Classification Rutgeerts Score RUTG0101 Original Response Terminology", "submissionValue": "RUTG0101OR", "synonyms": ["Rutgeerts Score Clinical Classification ORRES for RUTG0101 TN/TC"], "terms": [{"conceptId": "C191027", "definition": "Rutgeerts Score original result for RUTG0101-Less than 5 aphthous lesions.", "preferredTerm": "Rutgeerts Score RUTG0101 Original Result - Less Than 5 Aphthous Lesions", "submissionValue": "<5 aphthous lesions", "synonyms": ["RUTG0101-<5 aphthous lesions"]}, {"conceptId": "C191028", "definition": "Rutgeerts Score original result for RUTG0101-Greater than 5 aphthous lesions with normal mucosa between the lesions, or skip areas of larger lesions or lesions confined to the ileocolonic anastomosis (i.e., less than 1 cm in length).", "preferredTerm": "Rutgeerts Score RUTG0101 Original Result - Greater Than 5 Aphthous Lesions With Normal Mucosa Between the Lesions, or Skip Areas of Larger Lesions or Lesions Confined to the Ileocolonic Anastomosis (i.e., Less Than 1 cm in Length)", "submissionValue": ">5 aphthous lesions with normal mucosa between the lesions, or skip areas of larger lesions or lesions confined to the ileocolonic anastomosis (i.e., <1 cm in length)", "synonyms": ["RUTG0101->5 aphthous lesions with normal mucosa between the lesions, or skip areas of larger lesions or lesions confined to the ileocolonic anastomosis (i.e., <1 cm in length)"]}, {"conceptId": "C191029", "definition": "Rutgeerts Score original result for RUTG0101-Diffuse aphthous ileitis with diffusely inflamed mucosa.", "preferredTerm": "Rutgeerts Score RUTG0101 Original Result - Diffuse Aphthous Ileitis With Diffusely Inflamed Mucosa", "submissionValue": "diffuse aphthous ileitis with diffusely inflamed mucosa", "synonyms": ["RUTG0101-diffuse aphthous ileitis with diffusely inflamed mucosa"]}, {"conceptId": "C191030", "definition": "Rutgeerts Score original result for RUTG0101-Diffuse inflammation with already larger ulcers, nodules, and/or narrowing.", "preferredTerm": "Rutgeerts Score RUTG0101 Original Result - Diffuse Inflammation With Already Larger Ulcers, Nodules, and/or Narrowing", "submissionValue": "diffuse inflammation with already larger ulcers, nodules, and/or narrowing", "synonyms": ["RUTG0101-diffuse inflammation with already larger ulcers, nodules, and/or narrowing"]}, {"conceptId": "C191026", "definition": "Rutgeerts Score original result for RUTG0101-No lesions.", "preferredTerm": "Rutgeerts Score RUTG0101 Original Result - No Lesions", "submissionValue": "no lesions", "synonyms": ["RUTG0101-no lesions"]}]}