{"_links": {"parentPackage": {"href": "/mdr/ct/packages/sdtmct-2023-06-30", "title": "SDTM Controlled Terminology Package 54 Effective 2023-06-30", "type": "Terminology"}, "priorVersion": {"href": "/mdr/ct/packages/sdtmct-2023-03-31/codelists/C190938", "title": "CDISC Clinical Classification Psoriasis Area and Severity Index Bozek Version Test Code Terminology", "type": "Code List"}, "rootItem": {"href": "/mdr/root/ct/sdtmct/codelists/C190938", "title": "Version-agnostic anchor resource for codelist C190938", "type": "Root Value Domain"}, "self": {"href": "/mdr/ct/packages/sdtmct-2023-06-30/codelists/C190938", "title": "CDISC Clinical Classification Psoriasis Area and Severity Index Bozek Version Test Code Terminology", "type": "Code List"}}, "conceptId": "C190938", "definition": "Psoriasis Area and Severity Index Version Bozek test code.", "extensible": "false", "name": "Psoriasis Area and Severity Index Version Bozek Clinical Classification Test Code", "preferredTerm": "CDISC Clinical Classification Psoriasis Area and Severity Index Bozek Version Test Code Terminology", "submissionValue": "PASI05TC", "synonyms": ["Psoriasis Area and Severity Index Version Bozek Clinical Classification Test Code"], "terms": [{"conceptId": "C191124", "definition": "Psoriasis Area and Severity Index Version Bozek - Head: Erythema/Redness symptom score.", "preferredTerm": "PASI Bozek Version - Head: Erythema/Redness", "submissionValue": "PASI0501", "synonyms": ["PASI05-Head: Erythema/Redness"]}, {"conceptId": "C191125", "definition": "Psoriasis Area and Severity Index Version Bozek - Head: Thickness/Induration symptom score.", "preferredTerm": "PASI Bozek Version - Head: Thickness/Induration", "submissionValue": "PASI0502", "synonyms": ["PASI05-Head: Thickness/Induration"]}, {"conceptId": "C191126", "definition": "Psoriasis Area and Severity Index Version Bozek - Head: Desquamation/Scaling symptom score.", "preferredTerm": "PASI Bozek Version - Head: Desquamation/Scaling", "submissionValue": "PASI0503", "synonyms": ["PASI05-Head: Desquamation/Scaling"]}, {"conceptId": "C191127", "definition": "Psoriasis Area and Severity Index Version Bozek - Head: Area score.", "preferredTerm": "PASI Bozek Version - Head: Area Score", "submissionValue": "PASI0504", "synonyms": ["PASI05-Head: Area Score"]}, {"conceptId": "C191128", "definition": "Psoriasis Area and Severity Index Version Bozek - Upper Extremities: Erythema/Redness symptom score.", "preferredTerm": "PASI Bozek Version - Upper Extremities: Erythema/Redness", "submissionValue": "PASI0505", "synonyms": ["PASI05-Up Extrem: Erythema/Redness"]}, {"conceptId": "C191129", "definition": "Psoriasis Area and Severity Index Version Bozek - Upper Extremities: Thickness/Induration symptom score.", "preferredTerm": "PASI Bozek Version - Upper Extremities: Thickness/Induration", "submissionValue": "PASI0506", "synonyms": ["PASI05-Up Extrem: Thickness/Induration"]}, {"conceptId": "C191130", "definition": "Psoriasis Area and Severity Index Version Bozek - Upper Extremities: Desquamation/Scaling symptom score.", "preferredTerm": "PASI Bozek Version - Upper Extremities: Desquamation/Scaling", "submissionValue": "PASI0507", "synonyms": ["PASI05-Up Extrem: Desquamation/Scaling"]}, {"conceptId": "C191131", "definition": "Psoriasis Area and Severity Index Version Bozek - Upper Extremities: Area score.", "preferredTerm": "PASI Bozek Version - Upper Extremities: Area Score", "submissionValue": "PASI0508", "synonyms": ["PASI05-Up Extrem: Area Score"]}, {"conceptId": "C191132", "definition": "Psoriasis Area and Severity Index Version Bozek - Trunk: Erythema/Redness symptom score.", "preferredTerm": "PASI Bozek Version - Trunk: Erythema/Redness", "submissionValue": "PASI0509", "synonyms": ["PASI05-Trunk: Erythema/Redness"]}, {"conceptId": "C191133", "definition": "Psoriasis Area and Severity Index Version Bozek - Trunk: Thickness/Induration symptom score.", "preferredTerm": "PASI Bozek Version - Trunk: Thickness/Induration", "submissionValue": "PASI0510", "synonyms": ["PASI05-Trunk: Thickness/Induration"]}, {"conceptId": "C191134", "definition": "Psoriasis Area and Severity Index Version Bozek - Trunk: Desquamation/Scaling symptom score.", "preferredTerm": "PASI Bozek Version - Trunk: Desquamation/Scaling", "submissionValue": "PASI0511", "synonyms": ["PASI05-Trunk: Desquamation/Scaling"]}, {"conceptId": "C191135", "definition": "Psoriasis Area and Severity Index Version Bozek - Trunk: Area score.", "preferredTerm": "PASI Bozek Version - Trunk: Area Score", "submissionValue": "PASI0512", "synonyms": ["PASI05-Trunk: Area Score"]}, {"conceptId": "C191136", "definition": "Psoriasis Area and Severity Index Version Bozek - Lower Extremities: Erythema/Redness symptom score.", "preferredTerm": "PASI Bozek Version - Lower Extremities: Erythema/Redness", "submissionValue": "PASI0513", "synonyms": ["PASI05-Low Extrem: Erythema/Redness"]}, {"conceptId": "C191137", "definition": "Psoriasis Area and Severity Index Version Bozek - Lower Extremities: Thickness/Induration symptom score.", "preferredTerm": "PASI Bozek Version - Lower Extremities: Thickness/Induration", "submissionValue": "PASI0514", "synonyms": ["PASI05-Low Extrem: Thickness/Induration"]}, {"conceptId": "C191138", "definition": "Psoriasis Area and Severity Index Version Bozek - Lower Extremities: Desquamation/Scaling symptom score.", "preferredTerm": "PASI Bozek Version - Lower Extremities: Desquamation/Scaling", "submissionValue": "PASI0515", "synonyms": ["PASI05-Low Extrem: Desquamation/Scaling"]}, {"conceptId": "C191139", "definition": "Psoriasis Area and Severity Index Version Bozek - Lower Extremities: Area score.", "preferredTerm": "PASI Bozek Version - Lower Extremities: Area Score", "submissionValue": "PASI0516", "synonyms": ["PASI05-Low Extrem: Area Score"]}, {"conceptId": "C191140", "definition": "Psoriasis Area and Severity Index Version Bozek - Head: Sum of symptom scores.", "preferredTerm": "PASI Bozek Version - Head: Sum of Symptom Scores", "submissionValue": "PASI0517", "synonyms": ["PASI05-Head: Sum of Symptom Scores"]}, {"conceptId": "C191141", "definition": "Psoriasis Area and Severity Index Version Bozek - Head: Sum of symptom scores x area score.", "preferredTerm": "PASI Bozek Version - Head: Sum X Area", "submissionValue": "PASI0518", "synonyms": ["PASI05-Head: Sum X Area"]}, {"conceptId": "C191142", "definition": "Psoriasis Area and Severity Index Version Bozek - Head: Sum x area x 0.1.", "preferredTerm": "PASI Bozek Version - Head: Sum X Area X 0.1", "submissionValue": "PASI0519", "synonyms": ["PASI05-Head: Sum X Area X 0.1"]}, {"conceptId": "C191143", "definition": "Psoriasis Area and Severity Index Version Bozek - Upper Extremities: Sum of symptom scores.", "preferredTerm": "PASI Bozek Version - Upper Extremities: Sum of Symptom Scores", "submissionValue": "PASI0520", "synonyms": ["PASI05-Up Extrem: Sum of Symptom Scores"]}, {"conceptId": "C191144", "definition": "Psoriasis Area and Severity Index Version Bozek - Upper Extremities: Sum of symptom scores x area score.", "preferredTerm": "PASI Bozek Version - Upper Extremities: Sum X Area", "submissionValue": "PASI0521", "synonyms": ["PASI05-Up Extrem: Sum X Area"]}, {"conceptId": "C191145", "definition": "Psoriasis Area and Severity Index Version Bozek - Upper Extremities: Sum x area x 0.2.", "preferredTerm": "PASI Bozek Version - Upper Extremities: Sum X Area X 0.2", "submissionValue": "PASI0522", "synonyms": ["PASI05-Up Extrem: Sum X Area X 0.2"]}, {"conceptId": "C191146", "definition": "Psoriasis Area and Severity Index Version Bozek - Trunk: Sum of symptom scores.", "preferredTerm": "PASI Bozek Version - Trunk: Sum of Symptom Scores", "submissionValue": "PASI0523", "synonyms": ["PASI05-Trunk: Sum of Symptom Scores"]}, {"conceptId": "C191147", "definition": "Psoriasis Area and Severity Index Version Bozek - Trunk: Sum of symptom scores x area score.", "preferredTerm": "PASI Bozek Version - Trunk: Sum X Area", "submissionValue": "PASI0524", "synonyms": ["PASI05-Trunk: Sum X Area"]}, {"conceptId": "C191148", "definition": "Psoriasis Area and Severity Index Version Bozek - Trunk: Sum x area x 0.3.", "preferredTerm": "PASI Bozek Version - Trunk: Sum X Area X 0.3", "submissionValue": "PASI0525", "synonyms": ["PASI05-Trunk: Sum X Area X 0.3"]}, {"conceptId": "C191149", "definition": "Psoriasis Area and Severity Index Version Bozek - Lower Extremities: Sum of symptom scores.", "preferredTerm": "PASI Bozek Version - Lower Extremities: Sum of Symptom Scores", "submissionValue": "PASI0526", "synonyms": ["PASI05-Low Extrem: Sum of Symptom Scores"]}, {"conceptId": "C191150", "definition": "Psoriasis Area and Severity Index Version Bozek - Lower Extremities: Sum of symptom scores x area score.", "preferredTerm": "PASI Bozek Version - Lower Extremities: Sum X Area", "submissionValue": "PASI0527", "synonyms": ["PASI05-Low Extrem: Sum X Area"]}, {"conceptId": "C191151", "definition": "Psoriasis Area and Severity Index Version Bozek - Lower Extremities: Sum x area x 0.4.", "preferredTerm": "PASI Bozek Version - Lower Extremities: Sum X Area X 0.4", "submissionValue": "PASI0528", "synonyms": ["PASI05-Low Extrem: Sum X Area X 0.4"]}, {"conceptId": "C191152", "definition": "Psoriasis Area and Severity Index Version Bozek - Total sum.", "preferredTerm": "PASI Bozek Version - Total Sum", "submissionValue": "PASI0529", "synonyms": ["PASI05-Total Sum"]}]}